Data from test_V78500241_1515.txt Node
Date: Fri Mar 25 16:25:41 CST 2022
User: usil
Spectrometer: V785-0024
Trigger mode: 0
Integration Time (sec): 4.000000E-1
Scans to average: 1
Nonlinearity correction enabled: false
Boxcar width: 0
Storing dark spectrum: false
XAxis mode: Wavelengths
Number of Pixels in Spectrum: 1024
>>>>>Begin Spectral Data<<<<<
801.071	2906
801.214	2929
801.356	2872
801.499	2880
801.641	2876
801.783	2929
801.926	3077
802.068	2990
802.211	2979
802.353	3043
802.496	2967
802.638	2986
802.78	3024
802.923	3081
803.065	3020
803.208	2891
803.35	2914
803.492	2922
803.635	2933
803.777	2777
803.919	2868
804.061	3211
804.204	2937
804.346	2922
804.488	2819
804.63	2979
804.773	2834
804.915	2906
805.057	3055
805.199	2941
805.341	2952
805.483	3013
805.626	2956
805.768	2975
805.91	3074
806.052	3100
806.194	3017
806.336	3222
806.478	3036
806.62	2967
806.762	2971
806.904	3062
807.046	3135
807.188	2952
807.33	2891
807.472	2944
807.614	2933
807.756	3013
807.898	2891
808.04	2887
808.182	2933
808.324	2952
808.465	2880
808.607	2876
808.749	2785
808.891	2838
809.033	2952
809.174	2948
809.316	2902
809.458	2906
809.6	2758
809.741	2735
809.883	2773
810.025	2845
810.166	2849
810.308	2842
810.45	2807
810.591	2800
810.733	2773
810.875	2804
811.016	2750
811.158	2773
811.299	2796
811.441	2899
811.582	2929
811.724	2807
811.865	2807
812.007	2914
812.148	2887
812.29	2876
812.431	2891
812.573	2948
812.714	2967
812.855	3051
812.997	3058
813.138	3074
813.279	3028
813.421	2967
813.562	2952
813.703	2864
813.845	2895
813.986	2769
814.127	2705
814.268	2815
814.41	2823
814.551	2796
814.692	2868
814.833	2807
814.974	2880
815.115	2963
815.256	2796
815.397	2792
815.539	2845
815.68	2796
815.821	2800
815.962	2929
816.103	2918
816.244	2876
816.385	2853
816.526	2967
816.666	2925
816.807	2754
816.948	2857
817.089	2887
817.23	2826
817.371	2773
817.512	2777
817.653	2834
817.793	2826
817.934	2872
818.075	2986
818.216	3001
818.356	3009
818.497	2872
818.638	2788
818.778	2819
818.919	2815
819.06	2754
819.2	2883
819.341	2807
819.481	2819
819.622	2933
819.762	3043
819.903	3036
820.043	2922
820.184	2887
820.324	2895
820.465	2971
820.605	3028
820.746	3039
820.886	2937
821.026	3070
821.167	3142
821.307	3233
821.447	3249
821.588	3195
821.728	3218
821.868	3184
822.008	3036
822.149	3169
822.289	3180
822.429	3112
822.569	3047
822.709	3176
822.849	3032
822.99	3062
823.13	3169
823.27	3188
823.41	3131
823.55	3138
823.69	3116
823.83	3214
823.97	3116
824.11	3005
824.25	3005
824.389	3097
824.529	3051
824.669	3036
824.809	3157
824.949	3230
825.089	3222
825.228	3173
825.368	2982
825.508	2971
825.648	2948
825.787	3036
825.927	2982
826.067	2952
826.206	2971
826.346	3047
826.485	3077
826.625	3127
826.765	3256
826.904	3180
827.044	2986
827.183	2899
827.323	2872
827.462	2971
827.601	2899
827.741	2910
827.88	2944
828.02	2842
828.159	2918
828.298	3005
828.437	3119
828.577	3032
828.716	3203
828.855	3013
828.994	2910
829.134	2899
829.273	2952
829.412	2830
829.551	2868
829.69	2868
829.829	2963
829.968	3146
830.107	2982
830.246	3017
830.385	2891
830.524	2887
830.663	2811
830.802	2731
830.941	2655
831.08	2648
831.219	2800
831.357	2785
831.496	2956
831.635	2705
831.774	2640
831.913	2621
832.051	2564
832.19	2549
832.329	2682
832.467	2556
832.606	2465
832.744	2587
832.883	2568
833.022	2560
833.16	2644
833.299	2701
833.437	2689
833.576	2670
833.714	2697
833.852	2735
833.991	2739
834.129	2830
834.267	2823
834.406	2777
834.544	2864
834.682	2838
834.821	2868
834.959	3043
835.097	2887
835.235	3051
835.373	3013
835.511	3009
835.65	2914
835.788	2941
835.926	2823
836.064	2830
836.202	2826
836.34	3112
836.478	3211
836.615	3001
836.753	3116
836.891	3195
837.029	3135
837.167	3058
837.305	3077
837.443	3020
837.58	2948
837.718	3116
837.856	3074
837.993	3055
838.131	3104
838.269	3077
838.406	3081
838.544	3081
838.681	2925
838.819	2925
838.956	2830
839.094	2861
839.231	2910
839.369	3017
839.506	3359
839.643	3211
839.781	2979
839.918	2933
840.055	3058
840.193	3055
840.33	3077
840.467	3077
840.604	3154
840.742	3405
840.879	3036
841.016	3036
841.153	3070
841.29	3359
841.427	3260
841.564	3268
841.701	3268
841.838	3222
841.975	3176
842.112	3180
842.249	3066
842.385	3024
842.522	3268
842.659	3085
842.796	3020
842.933	3074
843.069	3028
843.206	3028
843.343	3169
843.479	3085
843.616	3157
843.752	2899
843.889	2830
844.025	3070
844.162	2861
844.298	3047
844.435	2952
844.571	2902
844.708	3058
844.844	3184
844.98	3245
845.117	3195
845.253	3009
845.389	3013
845.525	3100
845.661	3055
845.798	2994
845.934	3112
846.07	3058
846.206	3188
846.342	3272
846.478	3218
846.614	3093
846.75	3043
846.886	3017
847.022	3241
847.158	3116
847.294	3203
847.429	3218
847.565	3211
847.701	3466
847.837	3017
847.972	2994
848.108	3180
848.244	3135
848.379	2986
848.515	2918
848.65	2918
848.786	2971
848.921	2998
849.057	3097
849.192	3138
849.328	3062
849.463	3100
849.598	3081
849.734	3028
849.869	2986
850.004	2902
850.14	2952
850.275	2929
850.41	2819
850.545	2895
850.68	2899
850.815	2933
850.95	2986
851.085	3165
851.22	3077
851.355	3043
851.49	2960
851.625	3017
851.76	2986
851.895	2933
852.03	2922
852.165	3013
852.299	3112
852.434	3150
852.569	3154
852.703	3211
852.838	3188
852.973	3298
853.107	3340
853.242	3157
853.376	3108
853.511	2956
853.645	3047
853.78	3245
853.914	3104
854.048	3066
854.183	3074
854.317	3150
854.451	3260
854.585	3097
854.72	3081
854.854	3169
854.988	2990
855.122	3089
855.256	2956
855.39	3085
855.524	3214
855.658	3180
855.792	3138
855.926	3188
856.06	3188
856.194	3256
856.327	3173
856.461	3009
856.595	3062
856.729	3077
856.862	3214
856.996	3123
857.13	3180
857.263	3192
857.397	3283
857.53	3119
857.664	3203
857.797	3233
857.931	3264
858.064	3119
858.197	3211
858.331	3135
858.464	3070
858.597	3005
858.731	3066
858.864	3116
858.997	3051
859.13	3142
859.263	3142
859.396	3203
859.529	3089
859.662	3100
859.795	3017
859.928	3116
860.061	3253
860.194	3272
860.327	3093
860.46	3097
860.592	3218
860.725	3237
860.858	3222
860.99	3066
861.123	3009
861.256	3032
861.388	3119
861.521	3857
861.653	2998
861.786	2960
861.918	2982
862.05	3028
862.183	3112
862.315	3142
862.447	3169
862.58	3074
862.712	2918
862.844	2849
862.976	3032
863.108	2990
863.24	3291
863.372	2891
863.504	2941
863.636	2971
863.768	3005
863.9	2986
864.032	2899
864.164	2929
864.296	3055
864.428	3085
864.559	3138
864.691	3051
864.823	3062
864.954	3058
865.086	3058
865.217	3024
865.349	2948
865.48	2960
865.612	3005
865.743	3157
865.875	3017
866.006	2941
866.137	2994
866.269	2971
866.4	2967
866.531	2914
866.662	2941
866.793	2895
866.924	2910
867.055	2971
867.186	2944
867.317	2906
867.448	2857
867.579	2834
867.71	2887
867.841	2845
867.972	2960
868.103	2941
868.233	2941
868.364	2948
868.495	2922
868.625	3100
868.756	3230
868.886	3005
869.017	3097
869.147	3203
869.278	3211
869.408	3089
869.539	3062
869.669	3108
869.799	3081
869.929	3192
870.06	3180
870.19	3374
870.32	3306
870.45	3321
870.58	3435
870.71	3439
870.84	3454
870.97	3359
871.1	3272
871.23	3492
871.36	3477
871.489	3374
871.619	3424
871.749	3447
871.879	3462
872.008	3538
872.138	3424
872.267	3332
872.397	3184
872.526	3104
872.656	3058
872.785	3112
872.915	3279
873.044	3344
873.173	3237
873.303	3298
873.432	3260
873.561	3264
873.69	3180
873.819	3207
873.948	3249
874.077	3157
874.206	3066
874.335	3104
874.464	3249
874.593	3397
874.722	3264
874.851	3477
874.979	3359
875.108	3367
875.237	3218
875.365	3218
875.494	3222
875.623	3256
875.751	3173
875.88	3154
876.008	3237
876.136	3302
876.265	3386
876.393	3545
876.521	3466
876.65	3382
876.778	3325
876.906	3256
877.034	3218
877.162	3268
877.29	3173
877.418	3264
877.546	3272
877.674	3272
877.802	3283
877.93	3272
878.058	3169
878.185	3142
878.313	3207
878.441	3233
878.568	3074
878.696	3195
878.824	3268
878.951	3332
879.079	3481
879.206	3644
879.333	3424
879.461	3340
879.588	3359
879.715	3526
879.842	3633
879.97	3431
880.097	3207
880.224	3184
880.351	3207
880.478	3291
880.605	3230
880.732	3192
880.859	3496
880.986	3340
881.112	3329
881.239	3233
881.366	3108
881.493	3081
881.619	3058
881.746	3119
881.872	3119
881.999	3108
882.125	3192
882.252	3256
882.378	3336
882.505	3462
882.631	3325
882.757	3192
882.883	3233
883.01	3272
883.136	3188
883.262	3100
883.388	3184
883.514	3359
883.64	3412
883.766	3321
883.892	3222
884.018	3256
884.143	3447
884.269	3603
884.395	3203
884.52	3169
884.646	3192
884.772	3150
884.897	3116
885.023	3233
885.148	3363
885.274	3409
885.399	3401
885.524	3306
885.65	3268
885.775	3355
885.9	3317
886.025	3401
886.15	3374
886.275	3332
886.4	3237
886.525	3351
886.65	3291
886.775	3294
886.9	3507
887.025	3686
887.149	3431
887.274	3291
887.399	3199
887.523	3230
887.648	3226
887.773	3237
887.897	3424
888.021	3454
888.146	3321
888.27	3462
888.395	3545
888.519	3500
888.643	3481
888.767	3450
888.891	3302
889.015	3249
889.139	3340
889.263	3287
889.387	3443
889.511	3542
889.635	3481
889.759	3351
889.883	3306
890.006	3386
890.13	3526
890.254	3306
890.377	3340
890.501	3230
890.624	3184
890.748	3351
890.871	3207
890.995	3138
891.118	3089
891.241	3222
891.364	3233
891.488	3329
891.611	3180
891.734	3294
891.857	3298
891.98	3272
892.103	3374
892.226	3291
892.349	3268
892.471	3161
892.594	3298
892.717	3294
892.839	3294
892.962	3367
893.085	3416
893.207	3313
893.33	3157
893.452	3253
893.575	3389
893.697	3313
893.819	3496
893.941	3500
894.064	3492
894.186	3325
894.308	3287
894.43	3443
894.552	3564
894.674	3504
894.796	3268
894.918	3329
895.04	3253
895.161	3439
895.283	3389
895.405	3313
895.526	3416
895.648	3469
895.769	3450
895.891	3454
896.012	3485
896.134	3511
896.255	3458
896.376	3443
896.498	3389
896.619	3462
896.74	3382
896.861	3443
896.982	3740
897.103	3861
897.224	3641
897.345	3545
897.466	3477
897.587	3515
897.708	3660
897.828	3591
897.949	3447
898.07	3374
898.19	3447
898.311	3633
898.431	3492
898.552	3515
898.672	3644
898.792	3637
898.913	3553
899.033	3450
899.153	3321
899.273	3253
899.393	3279
899.513	3310
899.633	3363
899.753	3348
899.873	3344
899.993	3401
900.113	3351
900.232	3428
900.352	3370
900.472	3325
900.591	3241
900.711	3332
900.83	3256
900.95	3447
901.069	3542
901.189	3374
901.308	3169
901.427	3142
901.546	3218
901.665	3325
901.784	3340
901.904	3237
902.023	3157
902.141	3051
902.26	2990
902.379	3157
902.498	3150
902.617	3051
902.735	3226
902.854	3260
902.973	3199
903.091	3062
903.21	3066
903.328	3161
903.446	3104
903.565	3131
903.683	3237
903.801	3135
903.919	3313
904.038	3313
904.156	3218
904.274	3310
904.392	3306
904.51	3302
904.627	3351
904.745	3488
904.863	3507
904.981	3310
905.098	3176
905.216	3283
905.334	3306
905.451	3306
905.569	3355
905.686	3481
905.803	3481
905.921	3306
906.038	3458
906.155	3348
906.272	3332
906.389	3359
906.506	3253
906.623	3283
906.74	3294
906.857	3218
906.974	3268
907.091	3500
907.208	3572
907.324	3507
907.441	3401
907.557	3272
907.674	3253
907.79	3245
907.907	3302
908.023	3401
908.139	3382
908.256	3355
908.372	3386
908.488	3340
908.604	3230
908.72	3253
908.836	3272
908.952	3283
909.068	3374
909.184	3469
909.3	3424
909.415	3511
909.531	3485
909.647	3279
909.762	3321
909.878	3298
909.993	3325
910.108	3351
910.224	3363
910.339	3443
910.454	3340
910.57	3321
910.685	3291
910.8	3667
910.915	3576
911.03	3443
911.145	3298
911.259	3317
911.374	3332
911.489	3283
911.604	3241
911.718	3112
911.833	3188
911.947	3032
912.062	2979
912.176	3176
912.291	3211
912.405	3241
912.519	3431
912.633	3485
912.748	3329
912.862	3291
912.976	3256
913.09	3093
913.204	3154
913.318	3222
913.431	3367
913.545	3363
913.659	3458
913.772	3317
913.886	3237
914	3214
914.113	3355
914.226	3416
914.34	3355
914.453	3233
914.566	3431
914.68	3351
914.793	3310
914.906	3195
915.019	3123
915.132	3093
915.245	3165
915.358	3203
915.47	3256
915.583	3230
915.696	3344
915.809	3409
915.921	3435
916.034	3294
916.146	3279
916.259	3222
916.371	3374
916.483	3401
916.595	3317
916.708	3389
916.82	3325
916.932	3344
917.044	3363
917.156	3344
917.268	3279
917.38	3325
917.491	3291
917.603	3370
917.715	3488
917.826	3496
917.938	3405
918.049	3302
918.161	3450
918.272	3572
918.384	3599
918.495	3496
918.606	3355
918.717	3306
918.828	3382
918.939	3424
919.05	3291
919.161	3393
919.272	3237
919.383	3302
919.494	3492
919.604	3667
919.715	3538
919.826	3416
919.936	3469
920.047	3644
920.157	3511
920.267	3785
920.378	3652
920.488	3587
920.598	3774
920.708	3979
920.818	3865
920.928	3857
921.038	4032
921.148	4010
921.258	3701
921.368	3637
921.477	3603
921.587	3538
921.697	3500
921.806	3641
921.916	3553
922.025	3401
922.134	3348
922.244	3321
922.353	3447
922.462	3283
922.571	3253
922.68	3093
922.789	3074
922.898	3138
923.007	3116
923.116	3203
923.224	3188
923.333	3184
923.442	3123
923.55	3112
923.659	3184
923.767	3230
923.876	3104
923.984	3245
924.092	3104
924.201	3207
924.309	3237
924.417	3272
924.525	3233
924.633	3291
924.741	4181
924.849	3017
924.956	3283
925.064	3138
925.172	3043
925.279	3138
925.387	3195
925.494	3237
925.602	3363
925.709	3359
925.816	3237
925.924	3294
926.031	3370
926.138	3340
926.245	3332
926.352	3294
926.459	3458
926.566	3447
926.673	3344
926.779	3222
926.886	3230
926.993	3161
927.099	3131
927.206	3146
927.312	3108
927.419	3230
927.525	3226
927.631	3272
927.737	3154
927.843	3135
927.95	3058
928.056	3150
928.162	3180
928.267	3253
928.373	3800
928.479	3298
928.585	3112
928.69	3268
928.796	3253
928.901	3161
929.007	3028
929.112	3211
929.218	3184
929.323	3142
929.428	3146
929.533	3268
929.638	3112
929.743	3188
929.848	3214
929.953	3192
930.058	3161
930.163	3043
930.267	3039
930.372	3241
930.477	3055
930.581	3359
930.685	3157
930.79	3077
930.894	3154
930.998	3112
931.103	3272
931.207	2982
931.311	2948
931.415	2937
931.519	2792
931.623	2849
