Data from test_V78500241_1432.txt Node
Date: Fri Mar 25 16:25:07 CST 2022
User: usil
Spectrometer: V785-0024
Trigger mode: 0
Integration Time (sec): 4.000000E-1
Scans to average: 1
Nonlinearity correction enabled: false
Boxcar width: 0
Storing dark spectrum: false
XAxis mode: Wavelengths
Number of Pixels in Spectrum: 1024
>>>>>Begin Spectral Data<<<<<
801.071	2902
801.214	2918
801.356	2861
801.499	2872
801.641	2895
801.783	2895
801.926	3039
802.068	2952
802.211	2971
802.353	3028
802.496	2948
802.638	3005
802.78	3032
802.923	3100
803.065	3028
803.208	2880
803.35	2895
803.492	2944
803.635	2948
803.777	2754
803.919	2830
804.061	3207
804.204	2944
804.346	2891
804.488	2861
804.63	3009
804.773	2887
804.915	2899
805.057	3097
805.199	2933
805.341	2967
805.483	3058
805.626	3005
805.768	2979
805.91	3100
806.052	3135
806.194	3036
806.336	3211
806.478	3024
806.62	2994
806.762	2971
806.904	3062
807.046	3180
807.188	2998
807.33	2895
807.472	2986
807.614	2929
807.756	3009
807.898	2933
808.04	2899
808.182	2948
808.324	2963
808.465	2899
808.607	2906
808.749	2807
808.891	2861
809.033	2979
809.174	2967
809.316	2902
809.458	2899
809.6	2781
809.741	2773
809.883	2754
810.025	2876
810.166	2838
810.308	2834
810.45	2838
810.591	2781
810.733	2785
810.875	2830
811.016	2758
811.158	2777
811.299	2804
811.441	2922
811.582	2883
811.724	2811
811.865	2845
812.007	2910
812.148	2872
812.29	2861
812.431	2914
812.573	2956
812.714	2960
812.855	3051
812.997	3062
813.138	3165
813.279	3009
813.421	2975
813.562	2967
813.703	2857
813.845	2899
813.986	2788
814.127	2727
814.268	2823
814.41	2872
814.551	2834
814.692	2880
814.833	2811
814.974	2914
815.115	2960
815.256	2804
815.397	2781
815.539	2872
815.68	2792
815.821	2781
815.962	2922
816.103	2891
816.244	2883
816.385	2868
816.526	2929
816.666	2899
816.807	2708
816.948	2902
817.089	2887
817.23	2815
817.371	2781
817.512	2788
817.653	2830
817.793	2819
817.934	2876
818.075	2933
818.216	2960
818.356	3032
818.497	2842
818.638	2815
818.778	2815
818.919	2773
819.06	2785
819.2	2887
819.341	2788
819.481	2773
819.622	2937
819.762	3127
819.903	3017
820.043	2899
820.184	2883
820.324	2899
820.465	3013
820.605	3005
820.746	3047
820.886	2952
821.026	3100
821.167	3169
821.307	3256
821.447	3306
821.588	3222
821.728	3207
821.868	3173
822.008	3081
822.149	3184
822.289	3192
822.429	3093
822.569	3066
822.709	3127
822.849	3036
822.99	3055
823.13	3176
823.27	3207
823.41	3085
823.55	3150
823.69	3142
823.83	3169
823.97	3081
824.11	2982
824.25	2998
824.389	3058
824.529	3100
824.669	3074
824.809	3192
824.949	3230
825.089	3207
825.228	3169
825.368	3055
825.508	2990
825.648	2967
825.787	3001
825.927	2994
826.067	2944
826.206	2944
826.346	2971
826.485	3085
826.625	3081
826.765	3260
826.904	3207
827.044	2960
827.183	2975
827.323	2845
827.462	2960
827.601	2883
827.741	2967
827.88	2952
828.02	2823
828.159	2979
828.298	3032
828.437	3062
828.577	3051
828.716	3237
828.855	3066
828.994	2918
829.134	2872
829.273	2922
829.412	2811
829.551	2853
829.69	2857
829.829	2948
829.968	3112
830.107	3013
830.246	3017
830.385	2925
830.524	2872
830.663	2823
830.802	2731
830.941	2644
831.08	2629
831.219	2750
831.357	2766
831.496	2963
831.635	2712
831.774	2617
831.913	2682
832.051	2564
832.19	2575
832.329	2708
832.467	2530
832.606	2522
832.744	2583
832.883	2602
833.022	2552
833.16	2655
833.299	2678
833.437	2708
833.576	2651
833.714	2724
833.852	2716
833.991	2769
834.129	2804
834.267	2804
834.406	2792
834.544	2880
834.682	2883
834.821	2849
834.959	3062
835.097	2899
835.235	3051
835.373	2982
835.511	3017
835.65	2975
835.788	2975
835.926	2826
836.064	2788
836.202	2838
836.34	3081
836.478	3142
836.615	3058
836.753	3116
836.891	3207
837.029	3169
837.167	3112
837.305	3070
837.443	3009
837.58	2967
837.718	3116
837.856	3036
837.993	3009
838.131	3146
838.269	3097
838.406	3051
838.544	3089
838.681	2918
838.819	2925
838.956	2804
839.094	2845
839.231	2902
839.369	3005
839.506	3374
839.643	3203
839.781	3028
839.918	2933
840.055	3062
840.193	3020
840.33	3077
840.467	3104
840.604	3154
840.742	3397
840.879	3043
841.016	3070
841.153	3112
841.29	3306
841.427	3256
841.564	3268
841.701	3310
841.838	3203
841.975	3146
842.112	3203
842.249	3093
842.385	3036
842.522	3249
842.659	3108
842.796	3020
842.933	3112
843.069	3028
843.206	3024
843.343	3165
843.479	3127
843.616	3112
843.752	2899
843.889	2834
844.025	3070
844.162	2895
844.298	3097
844.435	2944
844.571	2937
844.708	3051
844.844	3192
844.98	3237
845.117	3188
845.253	3032
845.389	2952
845.525	3070
845.661	3112
845.798	3005
845.934	3112
846.07	3055
846.206	3233
846.342	3313
846.478	3218
846.614	3081
846.75	3036
846.886	3028
847.022	3245
847.158	3138
847.294	3184
847.429	3260
847.565	3184
847.701	3439
847.837	3024
847.972	3020
848.108	3165
848.244	3165
848.379	2998
848.515	2918
848.65	2929
848.786	2952
848.921	3005
849.057	3093
849.192	3138
849.328	3066
849.463	3085
849.598	3043
849.734	3024
849.869	2975
850.004	2906
850.14	2982
850.275	2910
850.41	2804
850.545	2868
850.68	2941
850.815	2941
850.95	2975
851.085	3169
851.22	3097
851.355	3024
851.49	2986
851.625	3009
851.76	3017
851.895	2933
852.03	2902
852.165	3036
852.299	3093
852.434	3195
852.569	3146
852.703	3165
852.838	3253
852.973	3325
853.107	3302
853.242	3131
853.376	3081
853.511	2956
853.645	3070
853.78	3233
853.914	3161
854.048	3100
854.183	3070
854.317	3176
854.451	3268
854.585	3135
854.72	3051
854.854	3218
854.988	3055
855.122	3070
855.256	2982
855.39	3100
855.524	3195
855.658	3180
855.792	3138
855.926	3165
856.06	3287
856.194	3253
856.327	3123
856.461	3009
856.595	3077
856.729	3123
856.862	3245
856.996	3146
857.13	3150
857.263	3222
857.397	3291
857.53	3104
857.664	3199
857.797	3237
857.931	3313
858.064	3154
858.197	3214
858.331	3131
858.464	3131
858.597	3043
858.731	3100
858.864	3131
858.997	3089
859.13	3173
859.263	3176
859.396	3207
859.529	3097
859.662	3089
859.795	3032
859.928	3154
860.061	3260
860.194	3237
860.327	3146
860.46	3070
860.592	3241
860.725	3214
860.858	3241
860.99	3097
861.123	3036
861.256	3028
861.388	3119
861.521	3838
861.653	3028
861.786	2990
861.918	3020
862.05	3051
862.183	3093
862.315	3142
862.447	3214
862.58	3100
862.712	2910
862.844	2861
862.976	2975
863.108	2986
863.24	3302
863.372	2876
863.504	2941
863.636	2941
863.768	2994
863.9	2963
864.032	2880
864.164	2948
864.296	3005
864.428	3058
864.559	3085
864.691	3055
864.823	3062
864.954	3055
865.086	3032
865.217	2971
865.349	2941
865.48	3001
865.612	3043
865.743	3161
865.875	2963
866.006	2902
866.137	2967
866.269	2899
866.4	2910
866.531	2929
866.662	2887
866.793	2891
866.924	2891
867.055	2979
867.186	2883
867.317	2872
867.448	2830
867.579	2868
867.71	2826
867.841	2849
867.972	2887
868.103	2952
868.233	2883
868.364	2880
868.495	2929
868.625	3081
868.756	3150
868.886	2971
869.017	3013
869.147	3146
869.278	3157
869.408	3047
869.539	3013
869.669	3104
869.799	3058
869.929	3112
870.06	3047
870.19	3302
870.32	3272
870.45	3325
870.58	3351
870.71	3462
870.84	3435
870.97	3298
871.1	3237
871.23	3473
871.36	3450
871.489	3344
871.619	3370
871.749	3370
871.879	3450
872.008	3435
872.138	3351
872.267	3268
872.397	3138
872.526	3097
872.656	2990
872.785	3112
872.915	3245
873.044	3268
873.173	3226
873.303	3222
873.432	3233
873.561	3222
873.69	3138
873.819	3135
873.948	3180
874.077	3108
874.206	3043
874.335	3081
874.464	3249
874.593	3332
874.722	3237
874.851	3374
874.979	3367
875.108	3302
875.237	3222
875.365	3165
875.494	3195
875.623	3249
875.751	3062
875.88	3104
876.008	3203
876.136	3241
876.265	3367
876.393	3519
876.521	3393
876.65	3401
876.778	3351
876.906	3272
877.034	3176
877.162	3230
877.29	3188
877.418	3245
877.546	3253
877.674	3226
877.802	3249
877.93	3184
878.058	3100
878.185	3104
878.313	3214
878.441	3173
878.568	3100
878.696	3142
878.824	3207
878.951	3275
879.079	3424
879.206	3633
879.333	3439
879.461	3370
879.588	3355
879.715	3496
879.842	3580
879.97	3351
880.097	3154
880.224	3127
880.351	3176
880.478	3199
880.605	3218
880.732	3176
880.859	3481
880.986	3283
881.112	3321
881.239	3184
881.366	3104
881.493	3024
881.619	3001
881.746	3043
881.872	3119
881.999	3104
882.125	3150
882.252	3226
882.378	3310
882.505	3435
882.631	3298
882.757	3146
882.883	3173
883.01	3233
883.136	3176
883.262	3066
883.388	3108
883.514	3294
883.64	3374
883.766	3302
883.892	3218
884.018	3260
884.143	3409
884.269	3523
884.395	3195
884.52	3165
884.646	3214
884.772	3123
884.897	3116
885.023	3169
885.148	3325
885.274	3416
885.399	3355
885.524	3287
885.65	3249
885.775	3291
885.9	3275
886.025	3428
886.15	3393
886.275	3306
886.4	3253
886.525	3275
886.65	3256
886.775	3245
886.9	3523
887.025	3614
887.149	3386
887.274	3222
887.399	3135
887.523	3169
887.648	3188
887.773	3207
887.897	3370
888.021	3386
888.146	3298
888.27	3386
888.395	3542
888.519	3428
888.643	3454
888.767	3439
888.891	3332
889.015	3230
889.139	3306
889.263	3226
889.387	3412
889.511	3519
889.635	3435
889.759	3253
889.883	3294
890.006	3374
890.13	3488
890.254	3291
890.377	3302
890.501	3211
890.624	3211
890.748	3302
890.871	3188
890.995	3097
891.118	3051
891.241	3161
891.364	3233
891.488	3317
891.611	3165
891.734	3195
891.857	3332
891.98	3226
892.103	3325
892.226	3283
892.349	3230
892.471	3108
892.594	3230
892.717	3291
892.839	3264
892.962	3294
893.085	3351
893.207	3294
893.33	3123
893.452	3192
893.575	3389
893.697	3253
893.819	3466
893.941	3496
894.064	3485
894.186	3256
894.308	3245
894.43	3450
894.552	3523
894.674	3481
894.796	3253
894.918	3283
895.04	3275
895.161	3428
895.283	3401
895.405	3325
895.526	3363
895.648	3393
895.769	3386
895.891	3412
896.012	3488
896.134	3450
896.255	3378
896.376	3378
896.498	3367
896.619	3416
896.74	3348
896.861	3405
896.982	3686
897.103	3827
897.224	3599
897.345	3523
897.466	3443
897.587	3454
897.708	3576
897.828	3576
897.949	3424
898.07	3332
898.19	3412
898.311	3599
898.431	3450
898.552	3504
898.672	3610
898.792	3587
898.913	3511
899.033	3420
899.153	3241
899.273	3218
899.393	3287
899.513	3302
899.633	3313
899.753	3332
899.873	3279
899.993	3370
900.113	3340
900.232	3412
900.352	3351
900.472	3313
900.591	3173
900.711	3317
900.83	3233
900.95	3412
901.069	3515
901.189	3348
901.308	3169
901.427	3108
901.546	3157
901.665	3306
901.784	3363
901.904	3203
902.023	3131
902.141	3017
902.26	3001
902.379	3131
902.498	3100
902.617	3055
902.735	3188
902.854	3211
902.973	3222
903.091	3047
903.21	3039
903.328	3142
903.446	3077
903.565	3119
903.683	3180
903.801	3123
903.919	3237
904.038	3332
904.156	3157
904.274	3317
904.392	3230
904.51	3313
904.627	3321
904.745	3447
904.863	3507
904.981	3264
905.098	3173
905.216	3237
905.334	3332
905.451	3306
905.569	3313
905.686	3389
905.803	3435
905.921	3306
906.038	3416
906.155	3363
906.272	3260
906.389	3321
906.506	3218
906.623	3256
906.74	3294
906.857	3157
906.974	3264
907.091	3435
907.208	3599
907.324	3477
907.441	3397
907.557	3222
907.674	3222
907.79	3230
907.907	3317
908.023	3393
908.139	3363
908.256	3310
908.372	3378
908.488	3374
908.604	3237
908.72	3245
908.836	3279
908.952	3264
909.068	3355
909.184	3488
909.3	3370
909.415	3485
909.531	3454
909.647	3298
909.762	3253
909.878	3249
909.993	3359
910.108	3317
910.224	3389
910.339	3424
910.454	3332
910.57	3283
910.685	3272
910.8	3572
910.915	3576
911.03	3447
911.145	3253
911.259	3272
911.374	3298
911.489	3249
911.604	3260
911.718	3146
911.833	3146
911.947	3039
912.062	3005
912.176	3150
912.291	3150
912.405	3226
912.519	3424
912.633	3458
912.748	3302
912.862	3275
912.976	3192
913.09	3055
913.204	3138
913.318	3180
913.431	3325
913.545	3336
913.659	3412
913.772	3348
913.886	3161
914	3211
914.113	3363
914.226	3416
914.34	3374
914.453	3188
914.566	3424
914.68	3245
914.793	3283
914.906	3123
915.019	3123
915.132	3039
915.245	3169
915.358	3169
915.47	3218
915.583	3253
915.696	3279
915.809	3431
915.921	3454
916.034	3226
916.146	3245
916.259	3218
916.371	3355
916.483	3355
916.595	3313
916.708	3298
916.82	3317
916.932	3374
917.044	3370
917.156	3351
917.268	3275
917.38	3268
917.491	3321
917.603	3378
917.715	3428
917.826	3488
917.938	3321
918.049	3249
918.161	3416
918.272	3595
918.384	3576
918.495	3458
918.606	3367
918.717	3298
918.828	3344
918.939	3412
919.05	3317
919.161	3351
919.272	3176
919.383	3230
919.494	3507
919.604	3679
919.715	3450
919.826	3428
919.936	3439
920.047	3587
920.157	3549
920.267	3766
920.378	3584
920.488	3526
920.598	3793
920.708	3926
920.818	3816
920.928	3854
921.038	4025
921.148	4029
921.258	3694
921.368	3622
921.477	3614
921.587	3545
921.697	3492
921.806	3625
921.916	3519
922.025	3363
922.134	3291
922.244	3264
922.353	3420
922.462	3256
922.571	3222
922.68	3074
922.789	3077
922.898	3116
923.007	3123
923.116	3169
923.224	3165
923.333	3173
923.442	3104
923.55	3081
923.659	3119
923.767	3214
923.876	3085
923.984	3192
924.092	3093
924.201	3188
924.309	3218
924.417	3260
924.525	3195
924.633	3222
924.741	4147
924.849	3043
924.956	3264
925.064	3085
925.172	3028
925.279	3104
925.387	3180
925.494	3176
925.602	3348
925.709	3340
925.816	3207
925.924	3264
926.031	3359
926.138	3340
926.245	3363
926.352	3256
926.459	3363
926.566	3424
926.673	3351
926.779	3241
926.886	3230
926.993	3135
927.099	3093
927.206	3074
927.312	3104
927.419	3256
927.525	3222
927.631	3287
927.737	3119
927.843	3146
927.95	2994
928.056	3150
928.162	3180
928.267	3245
928.373	3827
928.479	3279
928.585	3055
928.69	3233
928.796	3241
928.901	3169
929.007	3051
929.112	3241
929.218	3199
929.323	3176
929.428	3169
929.533	3325
929.638	3116
929.743	3165
929.848	3226
929.953	3195
930.058	3146
930.163	3039
930.267	3047
930.372	3192
930.477	3028
930.581	3291
930.685	3150
930.79	3058
930.894	3116
930.998	3089
931.103	3268
931.207	2967
931.311	2918
931.415	2933
931.519	2777
931.623	2823
