Data from test_V78500241_1607.txt Node
Date: Fri Mar 25 16:26:20 CST 2022
User: usil
Spectrometer: V785-0024
Trigger mode: 0
Integration Time (sec): 4.000000E-1
Scans to average: 1
Nonlinearity correction enabled: false
Boxcar width: 0
Storing dark spectrum: false
XAxis mode: Wavelengths
Number of Pixels in Spectrum: 1024
>>>>>Begin Spectral Data<<<<<
801.071	2910
801.214	2941
801.356	2887
801.499	2895
801.641	2864
801.783	2910
801.926	3066
802.068	2979
802.211	3001
802.353	3028
802.496	2925
802.638	3013
802.78	3077
802.923	3055
803.065	3013
803.208	2922
803.35	2910
803.492	2929
803.635	2937
803.777	2769
803.919	2857
804.061	3214
804.204	2956
804.346	2922
804.488	2804
804.63	2979
804.773	2883
804.915	2906
805.057	3089
805.199	2956
805.341	2979
805.483	3043
805.626	3020
805.768	2918
805.91	3070
806.052	3119
806.194	3058
806.336	3275
806.478	2994
806.62	2948
806.762	2933
806.904	3051
807.046	3112
807.188	2982
807.33	2883
807.472	2975
807.614	2899
807.756	2982
807.898	2937
808.04	2899
808.182	2990
808.324	2971
808.465	2880
808.607	2891
808.749	2807
808.891	2868
809.033	2933
809.174	2944
809.316	2853
809.458	2876
809.6	2766
809.741	2758
809.883	2762
810.025	2864
810.166	2853
810.308	2834
810.45	2834
810.591	2743
810.733	2773
810.875	2861
811.016	2769
811.158	2769
811.299	2792
811.441	2918
811.582	2868
811.724	2823
811.865	2796
812.007	2887
812.148	2857
812.29	2864
812.431	2861
812.573	2933
812.714	2933
812.855	3039
812.997	3039
813.138	3146
813.279	3009
813.421	2944
813.562	2944
813.703	2876
813.845	2902
813.986	2781
814.127	2720
814.268	2826
814.41	2811
814.551	2830
814.692	2838
814.833	2826
814.974	2891
815.115	2941
815.256	2823
815.397	2819
815.539	2906
815.68	2781
815.821	2777
815.962	2925
816.103	2952
816.244	2891
816.385	2849
816.526	2952
816.666	2929
816.807	2701
816.948	2880
817.089	2883
817.23	2872
817.371	2785
817.512	2804
817.653	2849
817.793	2830
817.934	2906
818.075	2963
818.216	2982
818.356	3028
818.497	2853
818.638	2842
818.778	2777
818.919	2796
819.06	2746
819.2	2853
819.341	2800
819.481	2826
819.622	2918
819.762	3116
819.903	3036
820.043	2922
820.184	2914
820.324	2906
820.465	3013
820.605	3009
820.746	3047
820.886	2944
821.026	3066
821.167	3119
821.307	3245
821.447	3233
821.588	3211
821.728	3214
821.868	3157
822.008	3058
822.149	3165
822.289	3245
822.429	3062
822.569	3074
822.709	3146
822.849	3024
822.99	3093
823.13	3131
823.27	3203
823.41	3108
823.55	3127
823.69	3127
823.83	3135
823.97	3077
824.11	3005
824.25	2982
824.389	3028
824.529	3116
824.669	3051
824.809	3165
824.949	3233
825.089	3241
825.228	3138
825.368	2986
825.508	2982
825.648	2941
825.787	3024
825.927	3005
826.067	2941
826.206	2982
826.346	3036
826.485	3062
826.625	3089
826.765	3230
826.904	3214
827.044	3001
827.183	2902
827.323	2845
827.462	2963
827.601	2906
827.741	2918
827.88	2979
828.02	2838
828.159	2944
828.298	3039
828.437	3093
828.577	3020
828.716	3184
828.855	3070
828.994	2922
829.134	2899
829.273	2899
829.412	2823
829.551	2864
829.69	2906
829.829	2944
829.968	3112
830.107	3024
830.246	3036
830.385	2918
830.524	2861
830.663	2815
830.802	2720
830.941	2659
831.08	2632
831.219	2754
831.357	2727
831.496	2922
831.635	2708
831.774	2617
831.913	2613
832.051	2568
832.19	2575
832.329	2705
832.467	2530
832.606	2484
832.744	2549
832.883	2590
833.022	2602
833.16	2617
833.299	2655
833.437	2697
833.576	2720
833.714	2701
833.852	2739
833.991	2754
834.129	2830
834.267	2815
834.406	2800
834.544	2864
834.682	2868
834.821	2895
834.959	3028
835.097	2861
835.235	3055
835.373	2979
835.511	3005
835.65	2937
835.788	2941
835.926	2864
836.064	2811
836.202	2868
836.34	3081
836.478	3131
836.615	3039
836.753	3127
836.891	3207
837.029	3165
837.167	3108
837.305	3062
837.443	3020
837.58	2971
837.718	3157
837.856	3062
837.993	3066
838.131	3123
838.269	3093
838.406	3051
838.544	3085
838.681	2922
838.819	2922
838.956	2800
839.094	2819
839.231	2918
839.369	2990
839.506	3348
839.643	3249
839.781	3009
839.918	2982
840.055	3066
840.193	3058
840.33	3074
840.467	3112
840.604	3135
840.742	3389
840.879	3005
841.016	3036
841.153	3119
841.29	3367
841.427	3325
841.564	3272
841.701	3294
841.838	3226
841.975	3146
842.112	3214
842.249	3055
842.385	3024
842.522	3294
842.659	3081
842.796	3047
842.933	3097
843.069	3020
843.206	3032
843.343	3150
843.479	3112
843.616	3192
843.752	2914
843.889	2880
844.025	3070
844.162	2842
844.298	3062
844.435	2910
844.571	2906
844.708	3032
844.844	3184
844.98	3199
845.117	3184
845.253	3051
845.389	3001
845.525	3119
845.661	3077
845.798	3028
845.934	3097
846.07	3020
846.206	3173
846.342	3298
846.478	3222
846.614	3097
846.75	3047
846.886	3028
847.022	3214
847.158	3138
847.294	3188
847.429	3249
847.565	3222
847.701	3492
847.837	3020
847.972	2960
848.108	3146
848.244	3131
848.379	2994
848.515	2929
848.65	2902
848.786	2975
848.921	3009
849.057	3093
849.192	3165
849.328	3066
849.463	3100
849.598	3066
849.734	3047
849.869	2975
850.004	2925
850.14	2948
850.275	2929
850.41	2842
850.545	2842
850.68	2899
850.815	2925
850.95	2956
851.085	3195
851.22	3097
851.355	2994
851.49	2960
851.625	2990
851.76	2994
851.895	2929
852.03	2899
852.165	3032
852.299	3089
852.434	3176
852.569	3131
852.703	3127
852.838	3249
852.973	3306
853.107	3332
853.242	3123
853.376	3085
853.511	2982
853.645	3070
853.78	3230
853.914	3138
854.048	3089
854.183	3097
854.317	3142
854.451	3283
854.585	3100
854.72	3089
854.854	3192
854.988	3024
855.122	3047
855.256	3013
855.39	3077
855.524	3203
855.658	3192
855.792	3146
855.926	3184
856.06	3245
856.194	3253
856.327	3127
856.461	3062
856.595	3081
856.729	3093
856.862	3218
856.996	3165
857.13	3214
857.263	3199
857.397	3253
857.53	3104
857.664	3142
857.797	3180
857.931	3218
858.064	3173
858.197	3192
858.331	3142
858.464	3077
858.597	2979
858.731	3112
858.864	3116
858.997	3066
859.13	3173
859.263	3180
859.396	3218
859.529	3047
859.662	3047
859.795	3055
859.928	3123
860.061	3237
860.194	3256
860.327	3150
860.46	3055
860.592	3253
860.725	3268
860.858	3275
860.99	3085
861.123	3043
861.256	3028
861.388	3169
861.521	3846
861.653	3005
861.786	2948
861.918	3001
862.05	3020
862.183	3116
862.315	3157
862.447	3180
862.58	3097
862.712	2952
862.844	2868
862.976	3013
863.108	3020
863.24	3332
863.372	2861
863.504	2986
863.636	2944
863.768	3028
863.9	2975
864.032	2876
864.164	2979
864.296	3013
864.428	3062
864.559	3089
864.691	3055
864.823	3070
864.954	3020
865.086	3032
865.217	2979
865.349	2944
865.48	2952
865.612	3024
865.743	3176
865.875	2960
866.006	2925
866.137	2952
866.269	2941
866.4	2925
866.531	2914
866.662	2880
866.793	2861
866.924	2895
867.055	2956
867.186	2944
867.317	2868
867.448	2811
867.579	2819
867.71	2849
867.841	2823
867.972	2883
868.103	2933
868.233	2880
868.364	2857
868.495	2902
868.625	3055
868.756	3157
868.886	2956
869.017	2990
869.147	3173
869.278	3169
869.408	3055
869.539	3009
869.669	3123
869.799	3036
869.929	3142
870.06	3123
870.19	3310
870.32	3272
870.45	3294
870.58	3378
870.71	3416
870.84	3424
870.97	3275
871.1	3253
871.23	3477
871.36	3435
871.489	3332
871.619	3370
871.749	3389
871.879	3447
872.008	3481
872.138	3363
872.267	3291
872.397	3142
872.526	3055
872.656	2990
872.785	3066
872.915	3207
873.044	3317
873.173	3211
873.303	3287
873.432	3226
873.561	3207
873.69	3142
873.819	3146
873.948	3218
874.077	3100
874.206	3051
874.335	3043
874.464	3222
874.593	3340
874.722	3256
874.851	3378
874.979	3378
875.108	3332
875.237	3184
875.365	3195
875.494	3154
875.623	3214
875.751	3097
875.88	3097
876.008	3154
876.136	3173
876.265	3344
876.393	3500
876.521	3435
876.65	3389
876.778	3325
876.906	3283
877.034	3203
877.162	3211
877.29	3157
877.418	3249
877.546	3233
877.674	3253
877.802	3226
877.93	3245
878.058	3127
878.185	3070
878.313	3165
878.441	3199
878.568	3074
878.696	3123
878.824	3233
878.951	3260
879.079	3443
879.206	3618
879.333	3454
879.461	3302
879.588	3359
879.715	3500
879.842	3568
879.97	3340
880.097	3131
880.224	3127
880.351	3199
880.478	3226
880.605	3214
880.732	3173
880.859	3458
880.986	3302
881.112	3302
881.239	3195
881.366	3112
881.493	3032
881.619	2994
881.746	3100
881.872	3104
881.999	3066
882.125	3119
882.252	3230
882.378	3291
882.505	3431
882.631	3298
882.757	3150
882.883	3188
883.01	3230
883.136	3165
883.262	3070
883.388	3131
883.514	3370
883.64	3367
883.766	3294
883.892	3161
884.018	3222
884.143	3424
884.269	3538
884.395	3230
884.52	3123
884.646	3180
884.772	3138
884.897	3116
885.023	3195
885.148	3313
885.274	3420
885.399	3389
885.524	3306
885.65	3260
885.775	3336
885.9	3279
886.025	3420
886.15	3409
886.275	3268
886.4	3184
886.525	3291
886.65	3264
886.775	3249
886.9	3477
887.025	3648
887.149	3405
887.274	3230
887.399	3180
887.523	3226
887.648	3184
887.773	3195
887.897	3374
888.021	3389
888.146	3294
888.27	3416
888.395	3530
888.519	3447
888.643	3466
888.767	3420
888.891	3287
889.015	3279
889.139	3249
889.263	3256
889.387	3386
889.511	3496
889.635	3431
889.759	3245
889.883	3306
890.006	3401
890.13	3500
890.254	3283
890.377	3332
890.501	3180
890.624	3173
890.748	3291
890.871	3173
890.995	3089
891.118	3043
891.241	3161
891.364	3218
891.488	3306
891.611	3203
891.734	3207
891.857	3348
891.98	3275
892.103	3370
892.226	3245
892.349	3203
892.471	3119
892.594	3245
892.717	3291
892.839	3245
892.962	3306
893.085	3378
893.207	3298
893.33	3146
893.452	3233
893.575	3355
893.697	3226
893.819	3466
893.941	3500
894.064	3447
894.186	3272
894.308	3233
894.43	3469
894.552	3511
894.674	3454
894.796	3268
894.918	3317
895.04	3298
895.161	3412
895.283	3382
895.405	3279
895.526	3382
895.648	3428
895.769	3412
895.891	3431
896.012	3439
896.134	3443
896.255	3405
896.376	3420
896.498	3359
896.619	3405
896.74	3409
896.861	3420
896.982	3663
897.103	3850
897.224	3572
897.345	3504
897.466	3439
897.587	3481
897.708	3629
897.828	3542
897.949	3435
898.07	3348
898.19	3420
898.311	3568
898.431	3409
898.552	3538
898.672	3584
898.792	3584
898.913	3526
899.033	3428
899.153	3260
899.273	3230
899.393	3264
899.513	3332
899.633	3287
899.753	3340
899.873	3351
899.993	3355
900.113	3336
900.232	3386
900.352	3348
900.472	3272
900.591	3203
900.711	3268
900.83	3245
900.95	3378
901.069	3454
901.189	3321
901.308	3192
901.427	3112
901.546	3211
901.665	3294
901.784	3363
901.904	3203
902.023	3119
902.141	3024
902.26	3028
902.379	3100
902.498	3066
902.617	3062
902.735	3230
902.854	3226
902.973	3226
903.091	3062
903.21	3097
903.328	3104
903.446	3112
903.565	3108
903.683	3165
903.801	3100
903.919	3279
904.038	3275
904.156	3154
904.274	3313
904.392	3268
904.51	3287
904.627	3321
904.745	3401
904.863	3511
904.981	3268
905.098	3161
905.216	3222
905.334	3279
905.451	3302
905.569	3344
905.686	3424
905.803	3431
905.921	3272
906.038	3382
906.155	3336
906.272	3283
906.389	3329
906.506	3222
906.623	3253
906.74	3264
906.857	3207
906.974	3222
907.091	3428
907.208	3568
907.324	3397
907.441	3393
907.557	3241
907.674	3222
907.79	3233
907.907	3253
908.023	3370
908.139	3386
908.256	3325
908.372	3344
908.488	3332
908.604	3211
908.72	3214
908.836	3344
908.952	3294
909.068	3336
909.184	3485
909.3	3439
909.415	3534
909.531	3477
909.647	3268
909.762	3287
909.878	3283
909.993	3374
910.108	3336
910.224	3294
910.339	3389
910.454	3374
910.57	3298
910.685	3237
910.8	3572
910.915	3526
911.03	3424
911.145	3291
911.259	3268
911.374	3351
911.489	3279
911.604	3214
911.718	3127
911.833	3195
911.947	3024
912.062	3001
912.176	3150
912.291	3226
912.405	3241
912.519	3443
912.633	3458
912.748	3302
912.862	3260
912.976	3161
913.09	3089
913.204	3146
913.318	3180
913.431	3336
913.545	3306
913.659	3393
913.772	3317
913.886	3199
914	3176
914.113	3348
914.226	3412
914.34	3409
914.453	3192
914.566	3370
914.68	3283
914.793	3268
914.906	3154
915.019	3112
915.132	3081
915.245	3146
915.358	3199
915.47	3260
915.583	3207
915.696	3302
915.809	3386
915.921	3439
916.034	3272
916.146	3214
916.259	3233
916.371	3367
916.483	3348
916.595	3268
916.708	3340
916.82	3329
916.932	3336
917.044	3344
917.156	3382
917.268	3253
917.38	3317
917.491	3325
917.603	3325
917.715	3428
917.826	3443
917.938	3378
918.049	3256
918.161	3443
918.272	3580
918.384	3553
918.495	3473
918.606	3348
918.717	3260
918.828	3378
918.939	3424
919.05	3310
919.161	3351
919.272	3180
919.383	3272
919.494	3450
919.604	3675
919.715	3481
919.826	3405
919.936	3443
920.047	3564
920.157	3549
920.267	3808
920.378	3622
920.488	3591
920.598	3747
920.708	3941
920.818	3804
920.928	3819
921.038	4025
921.148	3953
921.258	3682
921.368	3663
921.477	3553
921.587	3507
921.697	3443
921.806	3644
921.916	3500
922.025	3359
922.134	3348
922.244	3268
922.353	3412
922.462	3272
922.571	3233
922.68	3127
922.789	3058
922.898	3127
923.007	3093
923.116	3226
923.224	3188
923.333	3199
923.442	3100
923.55	3127
923.659	3116
923.767	3264
923.876	3116
923.984	3233
924.092	3081
924.201	3207
924.309	3180
924.417	3249
924.525	3211
924.633	3249
924.741	4192
924.849	3032
924.956	3306
925.064	3077
925.172	3028
925.279	3119
925.387	3211
925.494	3195
925.602	3317
925.709	3310
925.816	3199
925.924	3272
926.031	3332
926.138	3279
926.245	3363
926.352	3226
926.459	3424
926.566	3454
926.673	3359
926.779	3272
926.886	3237
926.993	3154
927.099	3127
927.206	3146
927.312	3100
927.419	3253
927.525	3214
927.631	3256
927.737	3135
927.843	3135
927.95	3017
928.056	3138
928.162	3150
928.267	3253
928.373	3854
928.479	3298
928.585	3058
928.69	3214
928.796	3264
928.901	3173
929.007	3039
929.112	3214
929.218	3173
929.323	3150
929.428	3165
929.533	3298
929.638	3135
929.743	3195
929.848	3245
929.953	3214
930.058	3161
930.163	2975
930.267	3043
930.372	3203
930.477	3005
930.581	3321
930.685	3176
930.79	2994
930.894	3085
930.998	3089
931.103	3245
931.207	2952
931.311	2971
931.415	2910
931.519	2743
931.623	2815
