Data from test_V78500241_41.txt Node
Date: Fri Mar 25 16:15:29 CST 2022
User: usil
Spectrometer: V785-0024
Trigger mode: 0
Integration Time (sec): 4.000000E-1
Scans to average: 1
Nonlinearity correction enabled: false
Boxcar width: 0
Storing dark spectrum: false
XAxis mode: Wavelengths
Number of Pixels in Spectrum: 1024
>>>>>Begin Spectral Data<<<<<
801.071	2941
801.214	2963
801.356	2910
801.499	2929
801.641	2899
801.783	2941
801.926	3089
802.068	3017
802.211	3039
802.353	3055
802.496	3020
802.638	3028
802.78	3066
802.923	3146
803.065	3032
803.208	2952
803.35	2956
803.492	2994
803.635	2944
803.777	2773
803.919	2899
804.061	3272
804.204	3024
804.346	2914
804.488	2891
804.63	3039
804.773	2902
804.915	2937
805.057	3085
805.199	2967
805.341	3039
805.483	3051
805.626	3047
805.768	3005
805.91	3112
806.052	3112
806.194	3077
806.336	3264
806.478	3055
806.62	2967
806.762	3017
806.904	3085
807.046	3184
807.188	2990
807.33	2944
807.472	3020
807.614	2933
807.756	2986
807.898	2914
808.04	2922
808.182	3017
808.324	2998
808.465	2918
808.607	2922
808.749	2807
808.891	2853
809.033	2975
809.174	2990
809.316	2933
809.458	2933
809.6	2781
809.741	2788
809.883	2819
810.025	2876
810.166	2887
810.308	2883
810.45	2861
810.591	2777
810.733	2807
810.875	2899
811.016	2777
811.158	2800
811.299	2826
811.441	2971
811.582	2975
811.724	2849
811.865	2876
812.007	2944
812.148	2872
812.29	2918
812.431	2902
812.573	2941
812.714	2998
812.855	3119
812.997	3097
813.138	3150
813.279	3051
813.421	3005
813.562	2982
813.703	2910
813.845	2899
813.986	2804
814.127	2781
814.268	2830
814.41	2864
814.551	2811
814.692	2899
814.833	2823
814.974	2914
815.115	3009
815.256	2826
815.397	2804
815.539	2899
815.68	2792
815.821	2868
815.962	2956
816.103	2948
816.244	2899
816.385	2868
816.526	2998
816.666	2963
816.807	2754
816.948	2925
817.089	2941
817.23	2876
817.371	2785
817.512	2804
817.653	2857
817.793	2838
817.934	2887
818.075	3024
818.216	3017
818.356	3039
818.497	2887
818.638	2800
818.778	2861
818.919	2788
819.06	2792
819.2	2918
819.341	2868
819.481	2849
819.622	2963
819.762	3116
819.903	3074
820.043	2956
820.184	2899
820.324	2925
820.465	3058
820.605	3039
820.746	2982
820.886	2956
821.026	3104
821.167	3192
821.307	3294
821.447	3336
821.588	3302
821.728	3199
821.868	3222
822.008	3108
822.149	3188
822.289	3260
822.429	3138
822.569	3108
822.709	3211
822.849	3085
822.99	3112
823.13	3214
823.27	3256
823.41	3184
823.55	3222
823.69	3199
823.83	3226
823.97	3123
824.11	3070
824.25	3032
824.389	3116
824.529	3131
824.669	3119
824.809	3249
824.949	3325
825.089	3302
825.228	3241
825.368	3039
825.508	2994
825.648	3005
825.787	3070
825.927	3104
826.067	2994
826.206	3036
826.346	3097
826.485	3135
826.625	3195
826.765	3291
826.904	3279
827.044	3070
827.183	3013
827.323	2941
827.462	3077
827.601	2944
827.741	3024
827.88	3013
828.02	2948
828.159	3070
828.298	3146
828.437	3188
828.577	3093
828.716	3302
828.855	3157
828.994	2990
829.134	2941
829.273	2975
829.412	2895
829.551	2933
829.69	2948
829.829	3055
829.968	3188
830.107	3116
830.246	3104
830.385	3013
830.524	2967
830.663	2899
830.802	2842
830.941	2735
831.08	2735
831.219	2842
831.357	2849
831.496	3020
831.635	2800
831.774	2720
831.913	2705
832.051	2651
832.19	2625
832.329	2746
832.467	2610
832.606	2556
832.744	2644
832.883	2659
833.022	2674
833.16	2716
833.299	2758
833.437	2781
833.576	2781
833.714	2785
833.852	2796
833.991	2849
834.129	2872
834.267	2891
834.406	2861
834.544	2971
834.682	2967
834.821	2948
834.959	3116
835.097	3024
835.235	3127
835.373	3062
835.511	3077
835.65	3005
835.788	3028
835.926	2906
836.064	2895
836.202	2914
836.34	3192
836.478	3199
836.615	3093
836.753	3237
836.891	3298
837.029	3249
837.167	3180
837.305	3112
837.443	3131
837.58	3039
837.718	3188
837.856	3157
837.993	3100
838.131	3165
838.269	3154
838.406	3135
838.544	3135
838.681	3020
838.819	3005
838.956	2876
839.094	2918
839.231	3028
839.369	3127
839.506	3424
839.643	3302
839.781	3077
839.918	3047
840.055	3154
840.193	3135
840.33	3157
840.467	3154
840.604	3218
840.742	3485
840.879	3097
841.016	3154
841.153	3184
841.29	3405
841.427	3374
841.564	3317
841.701	3363
841.838	3256
841.975	3245
842.112	3291
842.249	3161
842.385	3085
842.522	3321
842.659	3173
842.796	3119
842.933	3176
843.069	3142
843.206	3104
843.343	3253
843.479	3165
843.616	3195
843.752	2933
843.889	2956
844.025	3138
844.162	2937
844.298	3104
844.435	3043
844.571	2971
844.708	3135
844.844	3264
844.98	3294
845.117	3253
845.253	3119
845.389	3032
845.525	3203
845.661	3169
845.798	3070
845.934	3214
846.07	3131
846.206	3306
846.342	3382
846.478	3325
846.614	3169
846.75	3127
846.886	3077
847.022	3325
847.158	3211
847.294	3249
847.429	3294
847.565	3264
847.701	3564
847.837	3116
847.972	3085
848.108	3272
848.244	3214
848.379	3055
848.515	3028
848.65	3009
848.786	3024
848.921	3093
849.057	3222
849.192	3188
849.328	3165
849.463	3173
849.598	3116
849.734	3112
849.869	3020
850.004	2982
850.14	3036
850.275	3013
850.41	2899
850.545	2941
850.68	2979
850.815	3043
850.95	3009
851.085	3294
851.22	3192
851.355	3119
851.49	3055
851.625	3108
851.76	3058
851.895	3001
852.03	3005
852.165	3131
852.299	3214
852.434	3268
852.569	3188
852.703	3268
852.838	3313
852.973	3412
853.107	3424
853.242	3226
853.376	3131
853.511	3024
853.645	3058
853.78	3317
853.914	3222
854.048	3218
854.183	3176
854.317	3222
854.451	3348
854.585	3180
854.72	3176
854.854	3302
854.988	3093
855.122	3207
855.256	3066
855.39	3199
855.524	3291
855.658	3249
855.792	3230
855.926	3279
856.06	3287
856.194	3332
856.327	3222
856.461	3131
856.595	3116
856.729	3180
856.862	3317
856.996	3218
857.13	3302
857.263	3283
857.397	3325
857.53	3230
857.664	3256
857.797	3294
857.931	3351
858.064	3237
858.197	3313
858.331	3199
858.464	3188
858.597	3055
858.731	3188
858.864	3184
858.997	3169
859.13	3222
859.263	3264
859.396	3264
859.529	3157
859.662	3150
859.795	3116
859.928	3195
860.061	3355
860.194	3370
860.327	3218
860.46	3138
860.592	3340
860.725	3302
860.858	3287
860.99	3165
861.123	3135
861.256	3119
861.388	3203
861.521	3915
861.653	3108
861.786	3062
861.918	3085
862.05	3195
862.183	3184
862.315	3245
862.447	3230
862.58	3138
862.712	3001
862.844	2937
862.976	3108
863.108	3097
863.24	3458
863.372	2948
863.504	3009
863.636	3032
863.768	3058
863.9	3028
864.032	2998
864.164	3001
864.296	3058
864.428	3180
864.559	3169
864.691	3169
864.823	3138
864.954	3127
865.086	3077
865.217	3020
865.349	3009
865.48	3062
865.612	3074
865.743	3176
865.875	3043
866.006	3013
866.137	3020
866.269	2998
866.4	2982
866.531	3013
866.662	2952
866.793	2933
866.924	2971
867.055	3032
867.186	2979
867.317	2922
867.448	2929
867.579	2922
867.71	2937
867.841	2891
867.972	3013
868.103	2998
868.233	2929
868.364	2933
868.495	2979
868.625	3135
868.756	3203
868.886	2982
869.017	3119
869.147	3203
869.278	3233
869.408	3070
869.539	3081
869.669	3161
869.799	3150
869.929	3230
870.06	3112
870.19	3397
870.32	3306
870.45	3389
870.58	3424
870.71	3530
870.84	3507
870.97	3344
871.1	3325
871.23	3538
871.36	3542
871.489	3443
871.619	3439
871.749	3485
871.879	3526
872.008	3534
872.138	3443
872.267	3336
872.397	3218
872.526	3142
872.656	3093
872.785	3176
872.915	3306
873.044	3367
873.173	3256
873.303	3306
873.432	3310
873.561	3298
873.69	3222
873.819	3226
873.948	3260
874.077	3146
874.206	3097
874.335	3176
874.464	3279
874.593	3416
874.722	3291
874.851	3492
874.979	3409
875.108	3359
875.237	3272
875.365	3260
875.494	3207
875.623	3329
875.751	3123
875.88	3184
876.008	3272
876.136	3283
876.265	3450
876.393	3549
876.521	3504
876.65	3469
876.778	3405
876.906	3317
877.034	3298
877.162	3310
877.29	3245
877.418	3325
877.546	3306
877.674	3272
877.802	3317
877.93	3294
878.058	3203
878.185	3146
878.313	3294
878.441	3291
878.568	3093
878.696	3180
878.824	3340
878.951	3367
879.079	3515
879.206	3720
879.333	3439
879.461	3378
879.588	3401
879.715	3496
879.842	3667
879.97	3439
880.097	3233
880.224	3192
880.351	3249
880.478	3287
880.605	3245
880.732	3253
880.859	3576
880.986	3370
881.112	3370
881.239	3306
881.366	3184
881.493	3116
881.619	3100
881.746	3135
881.872	3146
881.999	3165
882.125	3233
882.252	3298
882.378	3359
882.505	3496
882.631	3344
882.757	3199
882.883	3268
883.01	3302
883.136	3203
883.262	3169
883.388	3203
883.514	3351
883.64	3473
883.766	3351
883.892	3241
884.018	3291
884.143	3466
884.269	3603
884.395	3260
884.52	3230
884.646	3241
884.772	3146
884.897	3154
885.023	3260
885.148	3389
885.274	3523
885.399	3458
885.524	3351
885.65	3310
885.775	3382
885.9	3348
886.025	3504
886.15	3454
886.275	3355
886.4	3298
886.525	3382
886.65	3306
886.775	3283
886.9	3580
887.025	3686
887.149	3469
887.274	3302
887.399	3222
887.523	3260
887.648	3241
887.773	3264
887.897	3409
888.021	3450
888.146	3382
888.27	3504
888.395	3591
888.519	3515
888.643	3504
888.767	3515
888.891	3355
889.015	3291
889.139	3321
889.263	3310
889.387	3473
889.511	3530
889.635	3526
889.759	3355
889.883	3363
890.006	3405
890.13	3549
890.254	3310
890.377	3382
890.501	3241
890.624	3249
890.748	3367
890.871	3256
890.995	3165
891.118	3097
891.241	3230
891.364	3279
891.488	3374
891.611	3218
891.734	3287
891.857	3363
891.98	3287
892.103	3382
892.226	3306
892.349	3279
892.471	3230
892.594	3291
892.717	3389
892.839	3321
892.962	3359
893.085	3420
893.207	3370
893.33	3218
893.452	3313
893.575	3393
893.697	3302
893.819	3469
893.941	3568
894.064	3500
894.186	3291
894.308	3310
894.43	3504
894.552	3591
894.674	3519
894.796	3294
894.918	3393
895.04	3351
895.161	3488
895.283	3412
895.405	3355
895.526	3378
895.648	3488
895.769	3481
895.891	3504
896.012	3545
896.134	3519
896.255	3450
896.376	3412
896.498	3420
896.619	3481
896.74	3416
896.861	3485
896.982	3770
897.103	3892
897.224	3648
897.345	3572
897.466	3488
897.587	3519
897.708	3682
897.828	3610
897.949	3504
898.07	3378
898.19	3462
898.311	3652
898.431	3515
898.552	3603
898.672	3660
898.792	3641
898.913	3572
899.033	3462
899.153	3332
899.273	3237
899.393	3332
899.513	3397
899.633	3382
899.753	3367
899.873	3374
899.993	3412
900.113	3374
900.232	3439
900.352	3397
900.472	3378
900.591	3253
900.711	3397
900.83	3283
900.95	3481
901.069	3542
901.189	3389
901.308	3199
901.427	3176
901.546	3237
901.665	3336
901.784	3435
901.904	3218
902.023	3222
902.141	3081
902.26	3051
902.379	3184
902.498	3135
902.617	3116
902.735	3253
902.854	3298
902.973	3268
903.091	3112
903.21	3131
903.328	3214
903.446	3195
903.565	3195
903.683	3241
903.801	3237
903.919	3321
904.038	3348
904.156	3249
904.274	3332
904.392	3340
904.51	3393
904.627	3435
904.745	3526
904.863	3576
904.981	3370
905.098	3256
905.216	3287
905.334	3370
905.451	3431
905.569	3336
905.686	3519
905.803	3534
905.921	3382
906.038	3530
906.155	3450
906.272	3340
906.389	3473
906.506	3332
906.623	3355
906.74	3389
906.857	3306
906.974	3359
907.091	3526
907.208	3675
907.324	3534
907.441	3492
907.557	3294
907.674	3306
907.79	3310
907.907	3340
908.023	3507
908.139	3462
908.256	3462
908.372	3473
908.488	3439
908.604	3386
908.72	3313
908.836	3397
908.952	3386
909.068	3416
909.184	3614
909.3	3447
909.415	3591
909.531	3572
909.647	3370
909.762	3367
909.878	3321
909.993	3431
910.108	3428
910.224	3466
910.339	3511
910.454	3424
910.57	3378
910.685	3363
910.8	3705
910.915	3622
911.03	3530
911.145	3382
911.259	3367
911.374	3409
911.489	3294
911.604	3310
911.718	3230
911.833	3249
911.947	3123
912.062	3062
912.176	3287
912.291	3287
912.405	3332
912.519	3526
912.633	3568
912.748	3416
912.862	3344
912.976	3264
913.09	3150
913.204	3203
913.318	3340
913.431	3401
913.545	3458
913.659	3500
913.772	3420
913.886	3298
914	3317
914.113	3462
914.226	3526
914.34	3454
914.453	3294
914.566	3526
914.68	3389
914.793	3416
914.906	3226
915.019	3211
915.132	3157
915.245	3245
915.358	3291
915.47	3340
915.583	3359
915.696	3389
915.809	3534
915.921	3530
916.034	3348
916.146	3351
916.259	3279
916.371	3492
916.483	3469
916.595	3298
916.708	3401
916.82	3409
916.932	3435
917.044	3420
917.156	3477
917.268	3283
917.38	3386
917.491	3420
917.603	3447
917.715	3526
917.826	3561
917.938	3454
918.049	3359
918.161	3561
918.272	3682
918.384	3682
918.495	3557
918.606	3447
918.717	3367
918.828	3462
918.939	3450
919.05	3363
919.161	3431
919.272	3272
919.383	3321
919.494	3545
919.604	3770
919.715	3553
919.826	3477
919.936	3545
920.047	3705
920.157	3622
920.267	3838
920.378	3698
920.488	3667
920.598	3869
920.708	4025
920.818	3918
920.928	3922
921.038	4109
921.148	4086
921.258	3831
921.368	3755
921.477	3671
921.587	3671
921.697	3557
921.806	3747
921.916	3606
922.025	3412
922.134	3466
922.244	3378
922.353	3511
922.462	3386
922.571	3283
922.68	3180
922.789	3146
922.898	3207
923.007	3173
923.116	3275
923.224	3207
923.333	3256
923.442	3203
923.55	3180
923.659	3230
923.767	3287
923.876	3199
923.984	3298
924.092	3188
924.201	3275
924.309	3298
924.417	3287
924.525	3283
924.633	3340
924.741	4303
924.849	3154
924.956	3367
925.064	3150
925.172	3127
925.279	3188
925.387	3291
925.494	3260
925.602	3424
925.709	3420
925.816	3287
925.924	3378
926.031	3496
926.138	3416
926.245	3428
926.352	3306
926.459	3485
926.566	3549
926.673	3348
926.779	3336
926.886	3325
926.993	3226
927.099	3230
927.206	3199
927.312	3180
927.419	3336
927.525	3275
927.631	3374
927.737	3245
927.843	3188
927.95	3138
928.056	3203
928.162	3214
928.267	3306
928.373	3842
928.479	3389
928.585	3154
928.69	3283
928.796	3355
928.901	3245
929.007	3146
929.112	3317
929.218	3287
929.323	3249
929.428	3222
929.533	3378
929.638	3237
929.743	3245
929.848	3310
929.953	3317
930.058	3241
930.163	3051
930.267	3104
930.372	3321
930.477	3100
930.581	3409
930.685	3283
930.79	3138
930.894	3207
930.998	3150
931.103	3389
931.207	3024
931.311	3032
931.415	2982
931.519	2880
931.623	2883
