Data from test_V78500241_1319.txt Node
Date: Fri Mar 25 16:24:20 CST 2022
User: usil
Spectrometer: V785-0024
Trigger mode: 0
Integration Time (sec): 4.000000E-1
Scans to average: 1
Nonlinearity correction enabled: false
Boxcar width: 0
Storing dark spectrum: false
XAxis mode: Wavelengths
Number of Pixels in Spectrum: 1024
>>>>>Begin Spectral Data<<<<<
801.071	2895
801.214	2948
801.356	2872
801.499	2876
801.641	2853
801.783	2918
801.926	3024
802.068	2967
802.211	2979
802.353	3032
802.496	2986
802.638	3020
802.78	3013
802.923	3085
803.065	3009
803.208	2910
803.35	2914
803.492	2941
803.635	2922
803.777	2731
803.919	2819
804.061	3176
804.204	2933
804.346	2887
804.488	2823
804.63	2998
804.773	2868
804.915	2933
805.057	3100
805.199	2895
805.341	2971
805.483	3055
805.626	2994
805.768	2948
805.91	3081
806.052	3112
806.194	3058
806.336	3218
806.478	3013
806.62	2922
806.762	2933
806.904	3039
807.046	3154
807.188	2960
807.33	2895
807.472	2956
807.614	2861
807.756	2979
807.898	2929
808.04	2895
808.182	2941
808.324	2922
808.465	2887
808.607	2891
808.749	2823
808.891	2811
809.033	2956
809.174	2967
809.316	2910
809.458	2883
809.6	2777
809.741	2735
809.883	2766
810.025	2849
810.166	2849
810.308	2845
810.45	2842
810.591	2777
810.733	2769
810.875	2842
811.016	2766
811.158	2777
811.299	2838
811.441	2902
811.582	2883
811.724	2800
811.865	2872
812.007	2933
812.148	2853
812.29	2830
812.431	2895
812.573	2929
812.714	2960
812.855	3055
812.997	3074
813.138	3123
813.279	3028
813.421	2944
813.562	2956
813.703	2880
813.845	2887
813.986	2804
814.127	2716
814.268	2842
814.41	2800
814.551	2819
814.692	2883
814.833	2861
814.974	2899
815.115	2918
815.256	2823
815.397	2804
815.539	2838
815.68	2781
815.821	2788
815.962	2922
816.103	2925
816.244	2880
816.385	2872
816.526	2982
816.666	2941
816.807	2746
816.948	2883
817.089	2899
817.23	2842
817.371	2758
817.512	2773
817.653	2845
817.793	2819
817.934	2864
818.075	2952
818.216	2986
818.356	3009
818.497	2887
818.638	2769
818.778	2857
818.919	2807
819.06	2781
819.2	2864
819.341	2796
819.481	2781
819.622	2918
819.762	3104
819.903	3036
820.043	2899
820.184	2899
820.324	2895
820.465	3024
820.605	3013
820.746	3013
820.886	2906
821.026	3123
821.167	3161
821.307	3287
821.447	3275
821.588	3241
821.728	3195
821.868	3214
822.008	3036
822.149	3146
822.289	3192
822.429	3055
822.569	3097
822.709	3165
822.849	3005
822.99	3089
823.13	3165
823.27	3218
823.41	3100
823.55	3135
823.69	3157
823.83	3188
823.97	3123
824.11	2990
824.25	3001
824.389	3051
824.529	3081
824.669	3032
824.809	3176
824.949	3260
825.089	3226
825.228	3131
825.368	2990
825.508	2967
825.648	2975
825.787	3013
825.927	3039
826.067	2998
826.206	2975
826.346	3051
826.485	3058
826.625	3085
826.765	3264
826.904	3272
827.044	2986
827.183	2948
827.323	2857
827.462	2963
827.601	2922
827.741	2914
827.88	2952
828.02	2880
828.159	2948
828.298	3047
828.437	3093
828.577	3043
828.716	3222
828.855	3100
828.994	2891
829.134	2876
829.273	2910
829.412	2899
829.551	2849
829.69	2891
829.829	2990
829.968	3104
830.107	3024
830.246	3058
830.385	2925
830.524	2826
830.663	2804
830.802	2686
830.941	2625
831.08	2670
831.219	2727
831.357	2758
831.496	2948
831.635	2720
831.774	2640
831.913	2659
832.051	2526
832.19	2568
832.329	2678
832.467	2499
832.606	2457
832.744	2549
832.883	2568
833.022	2571
833.16	2625
833.299	2644
833.437	2693
833.576	2689
833.714	2724
833.852	2705
833.991	2777
834.129	2830
834.267	2845
834.406	2781
834.544	2861
834.682	2883
834.821	2868
834.959	3055
835.097	2902
835.235	3093
835.373	3020
835.511	3009
835.65	2952
835.788	2944
835.926	2845
836.064	2811
836.202	2864
836.34	3112
836.478	3173
836.615	3024
836.753	3127
836.891	3173
837.029	3195
837.167	3108
837.305	3081
837.443	3020
837.58	2944
837.718	3116
837.856	3055
837.993	3047
838.131	3116
838.269	3077
838.406	3112
838.544	3077
838.681	2941
838.819	2887
838.956	2811
839.094	2842
839.231	2872
839.369	3017
839.506	3370
839.643	3222
839.781	2979
839.918	2963
840.055	3051
840.193	3028
840.33	3077
840.467	3036
840.604	3154
840.742	3370
840.879	3039
841.016	3028
841.153	3089
841.29	3329
841.427	3302
841.564	3287
841.701	3283
841.838	3249
841.975	3150
842.112	3184
842.249	3070
842.385	3066
842.522	3222
842.659	3047
842.796	3058
842.933	3112
843.069	3043
843.206	3039
843.343	3195
843.479	3112
843.616	3123
843.752	2887
843.889	2861
844.025	3097
844.162	2861
844.298	3112
844.435	2910
844.571	2902
844.708	3047
844.844	3173
844.98	3268
845.117	3173
845.253	3058
845.389	3032
845.525	3074
845.661	3127
845.798	3009
845.934	3157
846.07	3024
846.206	3218
846.342	3287
846.478	3226
846.614	3077
846.75	3013
846.886	2998
847.022	3214
847.158	3123
847.294	3211
847.429	3230
847.565	3207
847.701	3447
847.837	3024
847.972	2971
848.108	3169
848.244	3150
848.379	2975
848.515	2944
848.65	2925
848.786	3001
848.921	3039
849.057	3077
849.192	3176
849.328	3058
849.463	3074
849.598	3077
849.734	3051
849.869	3009
850.004	2948
850.14	2937
850.275	2941
850.41	2857
850.545	2895
850.68	2918
850.815	2982
850.95	2941
851.085	3207
851.22	3116
851.355	3020
851.49	2971
851.625	3001
851.76	3005
851.895	2941
852.03	2880
852.165	3009
852.299	3100
852.434	3173
852.569	3093
852.703	3176
852.838	3275
852.973	3336
853.107	3313
853.242	3150
853.376	3058
853.511	2990
853.645	3043
853.78	3226
853.914	3104
854.048	3097
854.183	3089
854.317	3169
854.451	3279
854.585	3093
854.72	3077
854.854	3203
854.988	3009
855.122	3100
855.256	2979
855.39	3097
855.524	3218
855.658	3150
855.792	3146
855.926	3180
856.06	3226
856.194	3260
856.327	3138
856.461	3051
856.595	3074
856.729	3104
856.862	3241
856.996	3138
857.13	3203
857.263	3218
857.397	3275
857.53	3112
857.664	3192
857.797	3264
857.931	3272
858.064	3173
858.197	3230
858.331	3104
858.464	3089
858.597	3017
858.731	3100
858.864	3074
858.997	3100
859.13	3127
859.263	3199
859.396	3192
859.529	3104
859.662	3104
859.795	3028
859.928	3180
860.061	3272
860.194	3268
860.327	3138
860.46	3112
860.592	3237
860.725	3226
860.858	3218
860.99	3055
861.123	3058
861.256	3055
861.388	3123
861.521	3694
861.653	2971
861.786	2952
861.918	2979
862.05	3051
862.183	3127
862.315	3131
862.447	3176
862.58	3100
862.712	2929
862.844	2887
862.976	2998
863.108	3005
863.24	3359
863.372	2842
863.504	2971
863.636	2925
863.768	3039
863.9	2963
864.032	2902
864.164	2963
864.296	3009
864.428	3100
864.559	3119
864.691	3074
864.823	3070
864.954	3028
865.086	3062
865.217	3005
865.349	2963
865.48	2971
865.612	3013
865.743	3112
865.875	2956
866.006	2956
866.137	2952
866.269	2948
866.4	2937
866.531	2910
866.662	2891
866.793	2891
866.924	2883
867.055	2941
867.186	2906
867.317	2918
867.448	2804
867.579	2834
867.71	2864
867.841	2830
867.972	2880
868.103	2868
868.233	2906
868.364	2838
868.495	2887
868.625	3074
868.756	3127
868.886	2960
869.017	3020
869.147	3161
869.278	3161
869.408	3055
869.539	3024
869.669	3104
869.799	3028
869.929	3165
870.06	3058
870.19	3336
870.32	3272
870.45	3287
870.58	3370
870.71	3454
870.84	3458
870.97	3306
871.1	3218
871.23	3462
871.36	3504
871.489	3306
871.619	3409
871.749	3378
871.879	3450
872.008	3462
872.138	3355
872.267	3268
872.397	3127
872.526	3104
872.656	2998
872.785	3093
872.915	3237
873.044	3272
873.173	3249
873.303	3237
873.432	3214
873.561	3264
873.69	3165
873.819	3146
873.948	3173
874.077	3097
874.206	3032
874.335	3085
874.464	3218
874.593	3313
874.722	3264
874.851	3389
874.979	3344
875.108	3355
875.237	3176
875.365	3157
875.494	3154
875.623	3268
875.751	3062
875.88	3146
876.008	3169
876.136	3222
876.265	3348
876.393	3526
876.521	3386
876.65	3409
876.778	3306
876.906	3233
877.034	3256
877.162	3222
877.29	3173
877.418	3245
877.546	3249
877.674	3233
877.802	3207
877.93	3207
878.058	3157
878.185	3085
878.313	3184
878.441	3203
878.568	3047
878.696	3119
878.824	3226
878.951	3283
879.079	3473
879.206	3599
879.333	3431
879.461	3325
879.588	3378
879.715	3477
879.842	3545
879.97	3378
880.097	3146
880.224	3100
880.351	3180
880.478	3207
880.605	3165
880.732	3214
880.859	3481
880.986	3268
881.112	3329
881.239	3180
881.366	3093
881.493	3001
881.619	3028
881.746	3074
881.872	3066
881.999	3100
882.125	3104
882.252	3264
882.378	3306
882.505	3416
882.631	3313
882.757	3176
882.883	3211
883.01	3199
883.136	3176
883.262	3085
883.388	3116
883.514	3325
883.64	3389
883.766	3310
883.892	3192
884.018	3237
884.143	3424
884.269	3530
884.395	3241
884.52	3161
884.646	3154
884.772	3131
884.897	3085
885.023	3218
885.148	3325
885.274	3416
885.399	3370
885.524	3264
885.65	3275
885.775	3298
885.9	3256
886.025	3416
886.15	3374
886.275	3302
886.4	3268
886.525	3283
886.65	3264
886.775	3291
886.9	3469
887.025	3603
887.149	3424
887.274	3253
887.399	3173
887.523	3173
887.648	3207
887.773	3195
887.897	3405
888.021	3370
888.146	3275
888.27	3477
888.395	3477
888.519	3393
888.643	3428
888.767	3458
888.891	3298
889.015	3260
889.139	3313
889.263	3253
889.387	3420
889.511	3530
889.635	3450
889.759	3283
889.883	3329
890.006	3367
890.13	3519
890.254	3256
890.377	3359
890.501	3222
890.624	3180
890.748	3294
890.871	3173
890.995	3085
891.118	3077
891.241	3199
891.364	3199
891.488	3275
891.611	3173
891.734	3230
891.857	3294
891.98	3237
892.103	3306
892.226	3272
892.349	3157
892.471	3108
892.594	3233
892.717	3260
892.839	3230
892.962	3294
893.085	3374
893.207	3283
893.33	3176
893.452	3241
893.575	3340
893.697	3230
893.819	3412
893.941	3515
894.064	3447
894.186	3302
894.308	3249
894.43	3447
894.552	3542
894.674	3458
894.796	3237
894.918	3351
895.04	3287
895.161	3374
895.283	3378
895.405	3260
895.526	3370
895.648	3409
895.769	3420
895.891	3443
896.012	3469
896.134	3466
896.255	3439
896.376	3370
896.498	3348
896.619	3355
896.74	3367
896.861	3416
896.982	3679
897.103	3816
897.224	3595
897.345	3515
897.466	3439
897.587	3462
897.708	3614
897.828	3534
897.949	3454
898.07	3306
898.19	3435
898.311	3618
898.431	3439
898.552	3519
898.672	3580
898.792	3561
898.913	3500
899.033	3405
899.153	3283
899.273	3211
899.393	3272
899.513	3332
899.633	3351
899.753	3340
899.873	3306
899.993	3401
900.113	3344
900.232	3367
900.352	3382
900.472	3264
900.591	3188
900.711	3291
900.83	3249
900.95	3420
901.069	3481
901.189	3355
901.308	3195
901.427	3135
901.546	3169
901.665	3313
901.784	3344
901.904	3184
902.023	3150
902.141	2990
902.26	3005
902.379	3127
902.498	3070
902.617	3055
902.735	3218
902.854	3245
902.973	3180
903.091	3047
903.21	3089
903.328	3146
903.446	3100
903.565	3085
903.683	3199
903.801	3085
903.919	3275
904.038	3302
904.156	3184
904.274	3283
904.392	3211
904.51	3241
904.627	3325
904.745	3439
904.863	3496
904.981	3283
905.098	3135
905.216	3241
905.334	3287
905.451	3302
905.569	3340
905.686	3412
905.803	3431
905.921	3283
906.038	3431
906.155	3351
906.272	3249
906.389	3348
906.506	3203
906.623	3272
906.74	3291
906.857	3165
906.974	3294
907.091	3435
907.208	3553
907.324	3416
907.441	3393
907.557	3230
907.674	3226
907.79	3226
907.907	3310
908.023	3359
908.139	3382
908.256	3340
908.372	3374
908.488	3370
908.604	3222
908.72	3199
908.836	3294
908.952	3264
909.068	3363
909.184	3454
909.3	3424
909.415	3500
909.531	3420
909.647	3287
909.762	3317
909.878	3279
909.993	3382
910.108	3325
910.224	3336
910.339	3443
910.454	3374
910.57	3291
910.685	3241
910.8	3564
910.915	3519
911.03	3447
911.145	3287
911.259	3256
911.374	3317
911.489	3218
911.604	3218
911.718	3108
911.833	3161
911.947	2982
912.062	2986
912.176	3176
912.291	3176
912.405	3237
912.519	3454
912.633	3481
912.748	3310
912.862	3256
912.976	3161
913.09	3085
913.204	3142
913.318	3260
913.431	3325
913.545	3306
913.659	3401
913.772	3298
913.886	3230
914	3173
914.113	3374
914.226	3397
914.34	3363
914.453	3230
914.566	3389
914.68	3268
914.793	3302
914.906	3123
915.019	3131
915.132	3093
915.245	3165
915.358	3214
915.47	3214
915.583	3275
915.696	3298
915.809	3351
915.921	3435
916.034	3275
916.146	3241
916.259	3253
916.371	3389
916.483	3355
916.595	3253
916.708	3329
916.82	3363
916.932	3355
917.044	3340
917.156	3348
917.268	3249
917.38	3283
917.491	3332
917.603	3363
917.715	3458
917.826	3473
917.938	3378
918.049	3237
918.161	3370
918.272	3584
918.384	3557
918.495	3488
918.606	3313
918.717	3264
918.828	3370
918.939	3416
919.05	3279
919.161	3374
919.272	3161
919.383	3283
919.494	3504
919.604	3663
919.715	3454
919.826	3393
919.936	3488
920.047	3595
920.157	3519
920.267	3743
920.378	3606
920.488	3549
920.598	3766
920.708	3934
920.818	3797
920.928	3812
921.038	3998
921.148	4025
921.258	3720
921.368	3584
921.477	3542
921.587	3549
921.697	3450
921.806	3637
921.916	3530
922.025	3355
922.134	3359
922.244	3325
922.353	3416
922.462	3268
922.571	3222
922.68	3104
922.789	3108
922.898	3157
923.007	3089
923.116	3218
923.224	3161
923.333	3195
923.442	3077
923.55	3097
923.659	3131
923.767	3211
923.876	3131
923.984	3237
924.092	3104
924.201	3180
924.309	3230
924.417	3230
924.525	3180
924.633	3211
924.741	4032
924.849	3036
924.956	3279
925.064	3097
925.172	3001
925.279	3116
925.387	3188
925.494	3230
925.602	3359
925.709	3348
925.816	3218
925.924	3279
926.031	3370
926.138	3291
926.245	3336
926.352	3256
926.459	3412
926.566	3469
926.673	3294
926.779	3275
926.886	3237
926.993	3127
927.099	3127
927.206	3074
927.312	3108
927.419	3207
927.525	3222
927.631	3245
927.737	3146
927.843	3127
927.95	3020
928.056	3100
928.162	3199
928.267	3214
928.373	3869
928.479	3298
928.585	3070
928.69	3192
928.796	3298
928.901	3138
929.007	3036
929.112	3199
929.218	3188
929.323	3146
929.428	3161
929.533	3313
929.638	3127
929.743	3157
929.848	3264
929.953	3188
930.058	3131
930.163	3020
930.267	3039
930.372	3218
930.477	3036
930.581	3287
930.685	3131
930.79	3055
930.894	3157
930.998	3089
931.103	3275
931.207	2941
931.311	2963
931.415	2948
931.519	2792
931.623	2777
