Data from test_V78500241_1506.txt Node
Date: Fri Mar 25 16:25:38 CST 2022
User: usil
Spectrometer: V785-0024
Trigger mode: 0
Integration Time (sec): 4.000000E-1
Scans to average: 1
Nonlinearity correction enabled: false
Boxcar width: 0
Storing dark spectrum: false
XAxis mode: Wavelengths
Number of Pixels in Spectrum: 1024
>>>>>Begin Spectral Data<<<<<
801.071	2910
801.214	2941
801.356	2857
801.499	2899
801.641	2849
801.783	2895
801.926	3020
802.068	2929
802.211	3001
802.353	3058
802.496	2952
802.638	3013
802.78	3051
802.923	3093
803.065	2975
803.208	2830
803.35	2914
803.492	2895
803.635	2937
803.777	2754
803.919	2842
804.061	3230
804.204	2925
804.346	2925
804.488	2819
804.63	2994
804.773	2861
804.915	2910
805.057	3085
805.199	2922
805.341	2956
805.483	3013
805.626	3005
805.768	2929
805.91	3093
806.052	3070
806.194	2998
806.336	3195
806.478	3013
806.62	2925
806.762	2956
806.904	3051
807.046	3123
807.188	3001
807.33	2922
807.472	3001
807.614	2887
807.756	2986
807.898	2925
808.04	2902
808.182	2963
808.324	2929
808.465	2872
808.607	2880
808.749	2754
808.891	2849
809.033	2979
809.174	2963
809.316	2838
809.458	2887
809.6	2762
809.741	2746
809.883	2769
810.025	2845
810.166	2849
810.308	2857
810.45	2876
810.591	2754
810.733	2762
810.875	2788
811.016	2769
811.158	2712
811.299	2811
811.441	2922
811.582	2910
811.724	2826
811.865	2830
812.007	2922
812.148	2883
812.29	2849
812.431	2891
812.573	2941
812.714	2948
812.855	3055
812.997	3036
813.138	3066
813.279	2979
813.421	2986
813.562	2986
813.703	2872
813.845	2914
813.986	2777
814.127	2735
814.268	2815
814.41	2796
814.551	2788
814.692	2864
814.833	2819
814.974	2845
815.115	2944
815.256	2838
815.397	2823
815.539	2876
815.68	2785
815.821	2758
815.962	2941
816.103	2918
816.244	2868
816.385	2857
816.526	2971
816.666	2902
816.807	2746
816.948	2887
817.089	2918
817.23	2834
817.371	2746
817.512	2819
817.653	2804
817.793	2811
817.934	2883
818.075	2960
818.216	2990
818.356	3036
818.497	2868
818.638	2773
818.778	2830
818.919	2788
819.06	2762
819.2	2868
819.341	2800
819.481	2804
819.622	2933
819.762	3093
819.903	3055
820.043	2937
820.184	2914
820.324	2864
820.465	3028
820.605	3017
820.746	3024
820.886	2910
821.026	3108
821.167	3157
821.307	3264
821.447	3272
821.588	3195
821.728	3241
821.868	3245
822.008	3047
822.149	3184
822.289	3226
822.429	3074
822.569	3100
822.709	3188
822.849	3020
822.99	3085
823.13	3157
823.27	3241
823.41	3097
823.55	3165
823.69	3123
823.83	3161
823.97	3127
824.11	2998
824.25	3024
824.389	3074
824.529	3093
824.669	3097
824.809	3199
824.949	3253
825.089	3241
825.228	3199
825.368	2979
825.508	2960
825.648	2956
825.787	3005
825.927	3024
826.067	2979
826.206	2937
826.346	3036
826.485	3089
826.625	3135
826.765	3264
826.904	3192
827.044	2994
827.183	2941
827.323	2864
827.462	2982
827.601	2902
827.741	2922
827.88	2906
828.02	2815
828.159	2971
828.298	3051
828.437	3116
828.577	3062
828.716	3233
828.855	3085
828.994	2910
829.134	2895
829.273	2899
829.412	2845
829.551	2857
829.69	2902
829.829	2948
829.968	3112
830.107	2990
830.246	3013
830.385	2891
830.524	2834
830.663	2842
830.802	2746
830.941	2648
831.08	2617
831.219	2758
831.357	2773
831.496	2937
831.635	2670
831.774	2636
831.913	2651
832.051	2556
832.19	2556
832.329	2712
832.467	2526
832.606	2476
832.744	2560
832.883	2560
833.022	2579
833.16	2651
833.299	2667
833.437	2693
833.576	2701
833.714	2712
833.852	2708
833.991	2743
834.129	2830
834.267	2815
834.406	2777
834.544	2868
834.682	2861
834.821	2842
834.959	3081
835.097	2876
835.235	3043
835.373	3001
835.511	3013
835.65	2960
835.788	2910
835.926	2807
836.064	2811
836.202	2861
836.34	3066
836.478	3135
836.615	3024
836.753	3123
836.891	3222
837.029	3173
837.167	3104
837.305	3047
837.443	2982
837.58	2975
837.718	3112
837.856	3074
837.993	2994
838.131	3138
838.269	3131
838.406	3108
838.544	3036
838.681	2925
838.819	2918
838.956	2823
839.094	2819
839.231	2906
839.369	2998
839.506	3355
839.643	3188
839.781	3024
839.918	2979
840.055	3028
840.193	3043
840.33	3043
840.467	3093
840.604	3142
840.742	3405
840.879	3036
841.016	3043
841.153	3116
841.29	3279
841.427	3287
841.564	3287
841.701	3294
841.838	3207
841.975	3165
842.112	3214
842.249	3058
842.385	3024
842.522	3272
842.659	3074
842.796	3085
842.933	3097
843.069	3043
843.206	3013
843.343	3207
843.479	3074
843.616	3119
843.752	2880
843.889	2906
844.025	3108
844.162	2914
844.298	3100
844.435	2956
844.571	2922
844.708	3077
844.844	3180
844.98	3218
845.117	3214
845.253	3051
845.389	3024
845.525	3070
845.661	3051
845.798	2998
845.934	3108
846.07	3066
846.206	3245
846.342	3310
846.478	3241
846.614	3100
846.75	3043
846.886	3013
847.022	3268
847.158	3131
847.294	3184
847.429	3203
847.565	3218
847.701	3477
847.837	3032
847.972	2994
848.108	3142
848.244	3100
848.379	2971
848.515	2910
848.65	2948
848.786	2960
848.921	2994
849.057	3066
849.192	3119
849.328	3043
849.463	3112
849.598	3058
849.734	3028
849.869	2994
850.004	2883
850.14	2941
850.275	2918
850.41	2834
850.545	2929
850.68	2910
850.815	2979
850.95	2948
851.085	3222
851.22	3077
851.355	3024
851.49	3005
851.625	2986
851.76	3001
851.895	2944
852.03	2918
852.165	3036
852.299	3081
852.434	3169
852.569	3138
852.703	3192
852.838	3207
852.973	3313
853.107	3329
853.242	3150
853.376	3081
853.511	2971
853.645	3032
853.78	3211
853.914	3142
854.048	3100
854.183	3074
854.317	3142
854.451	3237
854.585	3150
854.72	3077
854.854	3192
854.988	3062
855.122	3104
855.256	2982
855.39	3074
855.524	3241
855.658	3199
855.792	3142
855.926	3199
856.06	3222
856.194	3233
856.327	3131
856.461	3058
856.595	3070
856.729	3100
856.862	3203
856.996	3195
857.13	3199
857.263	3230
857.397	3283
857.53	3127
857.664	3104
857.797	3222
857.931	3264
858.064	3127
858.197	3241
858.331	3176
858.464	3097
858.597	3009
858.731	3089
858.864	3138
858.997	3066
859.13	3173
859.263	3165
859.396	3230
859.529	3077
859.662	3100
859.795	3066
859.928	3131
860.061	3283
860.194	3264
860.327	3127
860.46	3074
860.592	3233
860.725	3237
860.858	3233
860.99	3138
861.123	3081
861.256	3024
861.388	3104
861.521	3823
861.653	3005
861.786	2948
861.918	2994
862.05	3036
862.183	3108
862.315	3184
862.447	3184
862.58	3081
862.712	2956
862.844	2845
862.976	3032
863.108	2963
863.24	3313
863.372	2895
863.504	2952
863.636	2941
863.768	3043
863.9	2982
864.032	2902
864.164	2937
864.296	3009
864.428	3077
864.559	3112
864.691	3097
864.823	3089
864.954	3017
865.086	3024
865.217	2994
865.349	2990
865.48	2975
865.612	3005
865.743	3150
865.875	2986
866.006	2933
866.137	2982
866.269	2948
866.4	2925
866.531	2899
866.662	2883
866.793	2857
866.924	2872
867.055	2918
867.186	2967
867.317	2891
867.448	2830
867.579	2883
867.71	2857
867.841	2834
867.972	2914
868.103	2902
868.233	2838
868.364	2853
868.495	2914
868.625	3081
868.756	3165
868.886	2975
869.017	3024
869.147	3135
869.278	3119
869.408	3047
869.539	3020
869.669	3112
869.799	3028
869.929	3135
870.06	3074
870.19	3317
870.32	3291
870.45	3287
870.58	3321
870.71	3424
870.84	3462
870.97	3264
871.1	3222
871.23	3428
871.36	3473
871.489	3355
871.619	3428
871.749	3382
871.879	3443
872.008	3447
872.138	3344
872.267	3260
872.397	3150
872.526	3081
872.656	2982
872.785	3104
872.915	3218
873.044	3313
873.173	3233
873.303	3260
873.432	3237
873.561	3230
873.69	3184
873.819	3119
873.948	3188
874.077	3154
874.206	3039
874.335	3077
874.464	3214
874.593	3355
874.722	3226
874.851	3355
874.979	3367
875.108	3317
875.237	3195
875.365	3180
875.494	3150
875.623	3237
875.751	3047
875.88	3070
876.008	3207
876.136	3214
876.265	3374
876.393	3481
876.521	3409
876.65	3386
876.778	3340
876.906	3253
877.034	3188
877.162	3230
877.29	3176
877.418	3264
877.546	3207
877.674	3272
877.802	3260
877.93	3226
878.058	3188
878.185	3066
878.313	3218
878.441	3211
878.568	3074
878.696	3161
878.824	3249
878.951	3306
879.079	3450
879.206	3637
879.333	3454
879.461	3374
879.588	3302
879.715	3477
879.842	3599
879.97	3370
880.097	3169
880.224	3131
880.351	3176
880.478	3203
880.605	3188
880.732	3176
880.859	3469
880.986	3336
881.112	3313
881.239	3203
881.366	3093
881.493	3058
881.619	2967
881.746	3093
881.872	3093
881.999	3116
882.125	3116
882.252	3268
882.378	3306
882.505	3435
882.631	3291
882.757	3180
882.883	3214
883.01	3211
883.136	3218
883.262	3081
883.388	3112
883.514	3321
883.64	3386
883.766	3264
883.892	3176
884.018	3207
884.143	3424
884.269	3492
884.395	3184
884.52	3154
884.646	3184
884.772	3123
884.897	3085
885.023	3237
885.148	3329
885.274	3355
885.399	3329
885.524	3310
885.65	3253
885.775	3310
885.9	3283
886.025	3443
886.15	3367
886.275	3279
886.4	3237
886.525	3321
886.65	3264
886.775	3264
886.9	3496
887.025	3652
887.149	3409
887.274	3203
887.399	3173
887.523	3199
887.648	3192
887.773	3192
887.897	3351
888.021	3374
888.146	3275
888.27	3439
888.395	3534
888.519	3431
888.643	3439
888.767	3450
888.891	3260
889.015	3268
889.139	3298
889.263	3226
889.387	3389
889.511	3507
889.635	3469
889.759	3310
889.883	3272
890.006	3393
890.13	3500
890.254	3253
890.377	3329
890.501	3154
890.624	3188
890.748	3294
890.871	3157
890.995	3058
891.118	3032
891.241	3203
891.364	3211
891.488	3317
891.611	3165
891.734	3230
891.857	3336
891.98	3211
892.103	3348
892.226	3287
892.349	3188
892.471	3116
892.594	3188
892.717	3245
892.839	3291
892.962	3321
893.085	3321
893.207	3317
893.33	3142
893.452	3203
893.575	3329
893.697	3241
893.819	3485
893.941	3530
894.064	3431
894.186	3279
894.308	3275
894.43	3447
894.552	3534
894.674	3443
894.796	3287
894.918	3283
895.04	3283
895.161	3450
895.283	3363
895.405	3310
895.526	3351
895.648	3477
895.769	3409
895.891	3454
896.012	3496
896.134	3496
896.255	3469
896.376	3386
896.498	3306
896.619	3420
896.74	3348
896.861	3389
896.982	3682
897.103	3831
897.224	3606
897.345	3515
897.466	3420
897.587	3492
897.708	3591
897.828	3538
897.949	3447
898.07	3340
898.19	3386
898.311	3580
898.431	3435
898.552	3477
898.672	3587
898.792	3622
898.913	3545
899.033	3409
899.153	3321
899.273	3218
899.393	3256
899.513	3298
899.633	3306
899.753	3336
899.873	3332
899.993	3378
900.113	3336
900.232	3420
900.352	3325
900.472	3302
900.591	3195
900.711	3294
900.83	3233
900.95	3393
901.069	3466
901.189	3321
901.308	3165
901.427	3100
901.546	3199
901.665	3294
901.784	3370
901.904	3214
902.023	3142
902.141	2982
902.26	3005
902.379	3154
902.498	3100
902.617	3051
902.735	3211
902.854	3207
902.973	3176
903.091	3043
903.21	3051
903.328	3135
903.446	3093
903.565	3119
903.683	3192
903.801	3108
903.919	3249
904.038	3321
904.156	3142
904.274	3260
904.392	3222
904.51	3237
904.627	3340
904.745	3416
904.863	3496
904.981	3298
905.098	3165
905.216	3237
905.334	3294
905.451	3272
905.569	3302
905.686	3431
905.803	3416
905.921	3279
906.038	3409
906.155	3355
906.272	3264
906.389	3359
906.506	3260
906.623	3233
906.74	3268
906.857	3157
906.974	3249
907.091	3458
907.208	3606
907.324	3443
907.441	3393
907.557	3245
907.674	3222
907.79	3226
907.907	3298
908.023	3401
908.139	3359
908.256	3321
908.372	3367
908.488	3374
908.604	3291
908.72	3237
908.836	3275
908.952	3272
909.068	3332
909.184	3481
909.3	3428
909.415	3492
909.531	3416
909.647	3291
909.762	3306
909.878	3264
909.993	3313
910.108	3298
910.224	3355
910.339	3431
910.454	3351
910.57	3253
910.685	3253
910.8	3622
910.915	3545
911.03	3412
911.145	3256
911.259	3237
911.374	3317
911.489	3222
911.604	3211
911.718	3100
911.833	3157
911.947	2994
912.062	2994
912.176	3157
912.291	3195
912.405	3154
912.519	3443
912.633	3469
912.748	3344
912.862	3272
912.976	3127
913.09	3047
913.204	3119
913.318	3279
913.431	3355
913.545	3325
913.659	3435
913.772	3310
913.886	3192
914	3222
914.113	3340
914.226	3447
914.34	3348
914.453	3226
914.566	3424
914.68	3298
914.793	3310
914.906	3112
915.019	3112
915.132	3047
915.245	3123
915.358	3241
915.47	3230
915.583	3253
915.696	3302
915.809	3397
915.921	3405
916.034	3268
916.146	3222
916.259	3214
916.371	3340
916.483	3336
916.595	3275
916.708	3355
916.82	3329
916.932	3351
917.044	3363
917.156	3329
917.268	3260
917.38	3283
917.491	3279
917.603	3348
917.715	3447
917.826	3454
917.938	3382
918.049	3272
918.161	3405
918.272	3568
918.384	3568
918.495	3458
918.606	3348
918.717	3264
918.828	3363
918.939	3412
919.05	3287
919.161	3374
919.272	3207
919.383	3313
919.494	3469
919.604	3698
919.715	3469
919.826	3466
919.936	3420
920.047	3595
920.157	3561
920.267	3743
920.378	3545
920.488	3576
920.598	3785
920.708	3979
920.818	3827
920.928	3827
921.038	4044
921.148	4010
921.258	3690
921.368	3625
921.477	3572
921.587	3500
921.697	3504
921.806	3641
921.916	3519
922.025	3332
922.134	3302
922.244	3313
922.353	3409
922.462	3283
922.571	3207
922.68	3097
922.789	3055
922.898	3116
923.007	3074
923.116	3222
923.224	3146
923.333	3180
923.442	3119
923.55	3104
923.659	3112
923.767	3199
923.876	3146
923.984	3214
924.092	3112
924.201	3176
924.309	3195
924.417	3256
924.525	3161
924.633	3260
924.741	4192
924.849	3062
924.956	3260
925.064	3074
925.172	3036
925.279	3085
925.387	3199
925.494	3199
925.602	3348
925.709	3332
925.816	3138
925.924	3253
926.031	3382
926.138	3359
926.245	3393
926.352	3253
926.459	3420
926.566	3466
926.673	3325
926.779	3253
926.886	3249
926.993	3180
927.099	3161
927.206	3093
927.312	3127
927.419	3237
927.525	3192
927.631	3279
927.737	3157
927.843	3142
927.95	3043
928.056	3146
928.162	3192
928.267	3275
928.373	3759
928.479	3310
928.585	3043
928.69	3211
928.796	3256
928.901	3150
929.007	3036
929.112	3199
929.218	3199
929.323	3165
929.428	3165
929.533	3264
929.638	3108
929.743	3142
929.848	3241
929.953	3180
930.058	3127
930.163	2956
930.267	3032
930.372	3203
930.477	3047
930.581	3310
930.685	3214
930.79	3070
930.894	3104
930.998	3097
931.103	3302
931.207	2941
931.311	2952
931.415	2933
931.519	2781
931.623	2842
