Data from test_V78500241_499.txt Node
Date: Fri Mar 25 16:18:39 CST 2022
User: usil
Spectrometer: V785-0024
Trigger mode: 0
Integration Time (sec): 4.000000E-1
Scans to average: 1
Nonlinearity correction enabled: false
Boxcar width: 0
Storing dark spectrum: false
XAxis mode: Wavelengths
Number of Pixels in Spectrum: 1024
>>>>>Begin Spectral Data<<<<<
801.071	2937
801.214	2944
801.356	2857
801.499	2941
801.641	2861
801.783	2933
801.926	3024
802.068	2986
802.211	3009
802.353	3017
802.496	2963
802.638	3009
802.78	3066
802.923	3070
803.065	3039
803.208	2902
803.35	2899
803.492	2929
803.635	2925
803.777	2758
803.919	2849
804.061	3192
804.204	2929
804.346	2895
804.488	2830
804.63	2986
804.773	2876
804.915	2929
805.057	3089
805.199	2933
805.341	2994
805.483	3058
805.626	3043
805.768	2971
805.91	3074
806.052	3112
806.194	3024
806.336	3195
806.478	3058
806.62	2979
806.762	2990
806.904	3051
807.046	3138
807.188	2963
807.33	2914
807.472	3005
807.614	2937
807.756	2971
807.898	2929
808.04	2906
808.182	2986
808.324	2922
808.465	2899
808.607	2876
808.749	2792
808.891	2842
809.033	2975
809.174	2982
809.316	2887
809.458	2906
809.6	2792
809.741	2769
809.883	2754
810.025	2845
810.166	2838
810.308	2838
810.45	2853
810.591	2762
810.733	2758
810.875	2853
811.016	2766
811.158	2731
811.299	2788
811.441	2925
811.582	2880
811.724	2834
811.865	2785
812.007	2918
812.148	2853
812.29	2849
812.431	2891
812.573	2941
812.714	2925
812.855	3039
812.997	3020
813.138	3097
813.279	2998
813.421	2975
813.562	2948
813.703	2902
813.845	2895
813.986	2800
814.127	2731
814.268	2796
814.41	2868
814.551	2800
814.692	2864
814.833	2819
814.974	2895
815.115	2967
815.256	2842
815.397	2830
815.539	2868
815.68	2785
815.821	2766
815.962	2918
816.103	2937
816.244	2838
816.385	2842
816.526	2963
816.666	2910
816.807	2693
816.948	2906
817.089	2891
817.23	2864
817.371	2762
817.512	2792
817.653	2845
817.793	2815
817.934	2864
818.075	2952
818.216	2994
818.356	2982
818.497	2876
818.638	2788
818.778	2823
818.919	2792
819.06	2766
819.2	2868
819.341	2773
819.481	2804
819.622	2902
819.762	3123
819.903	3009
820.043	2895
820.184	2914
820.324	2864
820.465	3028
820.605	3039
820.746	2994
820.886	2929
821.026	3043
821.167	3169
821.307	3230
821.447	3272
821.588	3222
821.728	3230
821.868	3195
822.008	3070
822.149	3184
822.289	3222
822.429	3058
822.569	3100
822.709	3184
822.849	3020
822.99	3066
823.13	3176
823.27	3195
823.41	3093
823.55	3154
823.69	3180
823.83	3192
823.97	3089
824.11	3039
824.25	3009
824.389	3066
824.529	3146
824.669	3127
824.809	3211
824.949	3256
825.089	3211
825.228	3180
825.368	3005
825.508	2986
825.648	3024
825.787	3070
825.927	3081
826.067	2986
826.206	2986
826.346	3058
826.485	3112
826.625	3165
826.765	3321
826.904	3214
827.044	2998
827.183	2986
827.323	2887
827.462	3017
827.601	2975
827.741	2994
827.88	3005
828.02	2914
828.159	3013
828.298	3066
828.437	3142
828.577	3074
828.716	3268
828.855	3104
828.994	2956
829.134	2914
829.273	2944
829.412	2918
829.551	2876
829.69	2933
829.829	3013
829.968	3173
830.107	3077
830.246	3077
830.385	2963
830.524	2922
830.663	2876
830.802	2758
830.941	2727
831.08	2693
831.219	2796
831.357	2823
831.496	2990
831.635	2754
831.774	2686
831.913	2712
832.051	2610
832.19	2617
832.329	2720
832.467	2621
832.606	2514
832.744	2613
832.883	2583
833.022	2640
833.16	2697
833.299	2743
833.437	2731
833.576	2743
833.714	2743
833.852	2750
833.991	2826
834.129	2845
834.267	2849
834.406	2853
834.544	2899
834.682	2922
834.821	2883
834.959	3131
835.097	2895
835.235	3100
835.373	3036
835.511	3055
835.65	2963
835.788	2948
835.926	2857
836.064	2823
836.202	2883
836.34	3116
836.478	3207
836.615	3074
836.753	3157
836.891	3203
837.029	3173
837.167	3157
837.305	3116
837.443	3077
837.58	2986
837.718	3135
837.856	3093
837.993	3074
838.131	3150
838.269	3161
838.406	3116
838.544	3112
838.681	2960
838.819	2948
838.956	2842
839.094	2864
839.231	2944
839.369	3055
839.506	3420
839.643	3230
839.781	3062
839.918	2975
840.055	3097
840.193	3066
840.33	3104
840.467	3123
840.604	3192
840.742	3401
840.879	3074
841.016	3085
841.153	3161
841.29	3386
841.427	3313
841.564	3310
841.701	3317
841.838	3233
841.975	3245
842.112	3260
842.249	3085
842.385	3062
842.522	3287
842.659	3104
842.796	3081
842.933	3112
843.069	3089
843.206	3066
843.343	3180
843.479	3173
843.616	3161
843.752	2956
843.889	2872
844.025	3123
844.162	2925
844.298	3116
844.435	2967
844.571	2937
844.708	3131
844.844	3203
844.98	3256
845.117	3211
845.253	3043
845.389	3024
845.525	3154
845.661	3112
845.798	3024
845.934	3146
846.07	3104
846.206	3241
846.342	3367
846.478	3279
846.614	3146
846.75	3123
846.886	3085
847.022	3279
847.158	3161
847.294	3264
847.429	3237
847.565	3241
847.701	3519
847.837	3074
847.972	2998
848.108	3199
848.244	3165
848.379	2998
848.515	2963
848.65	2956
848.786	3005
848.921	3036
849.057	3116
849.192	3207
849.328	3074
849.463	3161
849.598	3081
849.734	3070
849.869	3024
850.004	2918
850.14	3017
850.275	2956
850.41	2906
850.545	2891
850.68	2967
850.815	2975
850.95	3001
851.085	3241
851.22	3146
851.355	3058
851.49	3013
851.625	3017
851.76	3036
851.895	2956
852.03	2979
852.165	3039
852.299	3142
852.434	3222
852.569	3154
852.703	3222
852.838	3291
852.973	3393
853.107	3374
853.242	3188
853.376	3138
853.511	3001
853.645	3036
853.78	3256
853.914	3157
854.048	3154
854.183	3116
854.317	3169
854.451	3253
854.585	3165
854.72	3100
854.854	3233
854.988	3070
855.122	3077
855.256	3020
855.39	3116
855.524	3272
855.658	3249
855.792	3154
855.926	3176
856.06	3226
856.194	3317
856.327	3161
856.461	3142
856.595	3116
856.729	3135
856.862	3260
856.996	3180
857.13	3233
857.263	3249
857.397	3325
857.53	3138
857.664	3253
857.797	3279
857.931	3222
858.064	3165
858.197	3272
858.331	3123
858.464	3138
858.597	3005
858.731	3138
858.864	3150
858.997	3135
859.13	3199
859.263	3169
859.396	3199
859.529	3108
859.662	3123
859.795	3081
859.928	3161
860.061	3279
860.194	3287
860.327	3104
860.46	3100
860.592	3245
860.725	3291
860.858	3298
860.99	3127
861.123	3093
861.256	3104
861.388	3173
861.521	3846
861.653	3043
861.786	3001
861.918	3005
862.05	3070
862.183	3097
862.315	3165
862.447	3192
862.58	3112
862.712	2975
862.844	2899
862.976	3066
863.108	3013
863.24	3340
863.372	2887
863.504	2979
863.636	2982
863.768	3051
863.9	3032
864.032	2933
864.164	2967
864.296	3055
864.428	3077
864.559	3154
864.691	3051
864.823	3066
864.954	3017
865.086	3036
865.217	3032
865.349	2971
865.48	3017
865.612	3058
865.743	3123
865.875	3005
866.006	2960
866.137	2975
866.269	2956
866.4	2963
866.531	2933
866.662	2902
866.793	2914
866.924	2910
867.055	2998
867.186	2933
867.317	2906
867.448	2861
867.579	2845
867.71	2864
867.841	2842
867.972	2929
868.103	2922
868.233	2929
868.364	2868
868.495	2929
868.625	3077
868.756	3169
868.886	2971
869.017	3062
869.147	3218
869.278	3169
869.408	3058
869.539	3039
869.669	3119
869.799	3070
869.929	3154
870.06	3127
870.19	3321
870.32	3268
870.45	3332
870.58	3389
870.71	3504
870.84	3485
870.97	3359
871.1	3249
871.23	3488
871.36	3466
871.489	3363
871.619	3435
871.749	3450
871.879	3458
872.008	3458
872.138	3382
872.267	3272
872.397	3188
872.526	3154
872.656	3020
872.785	3135
872.915	3214
873.044	3348
873.173	3226
873.303	3272
873.432	3264
873.561	3260
873.69	3184
873.819	3173
873.948	3203
874.077	3131
874.206	3047
874.335	3066
874.464	3184
874.593	3370
874.722	3233
874.851	3386
874.979	3340
875.108	3355
875.237	3199
875.365	3146
875.494	3192
875.623	3279
875.751	3131
875.88	3119
876.008	3195
876.136	3226
876.265	3363
876.393	3561
876.521	3447
876.65	3409
876.778	3275
876.906	3294
877.034	3214
877.162	3260
877.29	3211
877.418	3264
877.546	3241
877.674	3260
877.802	3283
877.93	3245
878.058	3169
878.185	3131
878.313	3195
878.441	3249
878.568	3119
878.696	3154
878.824	3268
878.951	3298
879.079	3466
879.206	3637
879.333	3473
879.461	3389
879.588	3363
879.715	3504
879.842	3580
879.97	3401
880.097	3218
880.224	3138
880.351	3184
880.478	3230
880.605	3184
880.732	3207
880.859	3530
880.986	3306
881.112	3329
881.239	3245
881.366	3104
881.493	3051
881.619	3024
881.746	3097
881.872	3097
881.999	3138
882.125	3169
882.252	3275
882.378	3298
882.505	3412
882.631	3279
882.757	3180
882.883	3249
883.01	3272
883.136	3176
883.262	3077
883.388	3131
883.514	3306
883.64	3374
883.766	3310
883.892	3188
884.018	3253
884.143	3420
884.269	3538
884.395	3253
884.52	3203
884.646	3245
884.772	3176
884.897	3135
885.023	3249
885.148	3317
885.274	3431
885.399	3378
885.524	3294
885.65	3275
885.775	3329
885.9	3279
886.025	3439
886.15	3401
886.275	3329
886.4	3233
886.525	3291
886.65	3298
886.775	3329
886.9	3523
887.025	3641
887.149	3424
887.274	3275
887.399	3237
887.523	3184
887.648	3184
887.773	3203
887.897	3374
888.021	3424
888.146	3321
888.27	3420
888.395	3523
888.519	3412
888.643	3458
888.767	3492
888.891	3325
889.015	3264
889.139	3306
889.263	3256
889.387	3412
889.511	3545
889.635	3481
889.759	3302
889.883	3329
890.006	3389
890.13	3504
890.254	3264
890.377	3359
890.501	3272
890.624	3195
890.748	3302
890.871	3199
890.995	3176
891.118	3047
891.241	3214
891.364	3249
891.488	3294
891.611	3203
891.734	3279
891.857	3317
891.98	3264
892.103	3340
892.226	3321
892.349	3211
892.471	3165
892.594	3279
892.717	3310
892.839	3298
892.962	3302
893.085	3332
893.207	3336
893.33	3157
893.452	3226
893.575	3386
893.697	3279
893.819	3500
893.941	3485
894.064	3473
894.186	3275
894.308	3275
894.43	3466
894.552	3523
894.674	3458
894.796	3306
894.918	3310
895.04	3260
895.161	3401
895.283	3401
895.405	3344
895.526	3370
895.648	3382
895.769	3424
895.891	3431
896.012	3519
896.134	3450
896.255	3412
896.376	3409
896.498	3359
896.619	3374
896.74	3378
896.861	3409
896.982	3671
897.103	3857
897.224	3591
897.345	3519
897.466	3431
897.587	3523
897.708	3599
897.828	3549
897.949	3492
898.07	3325
898.19	3412
898.311	3584
898.431	3473
898.552	3564
898.672	3591
898.792	3572
898.913	3534
899.033	3424
899.153	3283
899.273	3188
899.393	3317
899.513	3332
899.633	3321
899.753	3344
899.873	3355
899.993	3401
900.113	3359
900.232	3393
900.352	3363
900.472	3310
900.591	3184
900.711	3325
900.83	3218
900.95	3412
901.069	3504
901.189	3325
901.308	3184
901.427	3127
901.546	3192
901.665	3272
901.784	3329
901.904	3207
902.023	3131
902.141	3039
902.26	2998
902.379	3135
902.498	3135
902.617	3070
902.735	3241
902.854	3245
902.973	3233
903.091	3043
903.21	3116
903.328	3161
903.446	3142
903.565	3108
903.683	3199
903.801	3161
903.919	3233
904.038	3302
904.156	3218
904.274	3317
904.392	3233
904.51	3321
904.627	3306
904.745	3466
904.863	3500
904.981	3268
905.098	3192
905.216	3279
905.334	3298
905.451	3317
905.569	3321
905.686	3412
905.803	3412
905.921	3321
906.038	3431
906.155	3370
906.272	3291
906.389	3359
906.506	3241
906.623	3241
906.74	3275
906.857	3203
906.974	3245
907.091	3481
907.208	3549
907.324	3485
907.441	3363
907.557	3207
907.674	3264
907.79	3222
907.907	3275
908.023	3363
908.139	3397
908.256	3340
908.372	3389
908.488	3355
908.604	3283
908.72	3253
908.836	3275
908.952	3283
909.068	3348
909.184	3538
909.3	3397
909.415	3477
909.531	3473
909.647	3279
909.762	3264
909.878	3256
909.993	3355
910.108	3340
910.224	3348
910.339	3405
910.454	3317
910.57	3287
910.685	3233
910.8	3625
910.915	3485
911.03	3439
911.145	3306
911.259	3321
911.374	3291
911.489	3230
911.604	3230
911.718	3123
911.833	3173
911.947	3013
912.062	2979
912.176	3195
912.291	3173
912.405	3207
912.519	3447
912.633	3454
912.748	3355
912.862	3279
912.976	3180
913.09	3081
913.204	3176
913.318	3233
913.431	3325
913.545	3321
913.659	3447
913.772	3359
913.886	3211
914	3214
914.113	3386
914.226	3424
914.34	3325
914.453	3195
914.566	3424
914.68	3287
914.793	3359
914.906	3169
915.019	3100
915.132	3097
915.245	3192
915.358	3214
915.47	3279
915.583	3275
915.696	3321
915.809	3439
915.921	3431
916.034	3260
916.146	3249
916.259	3211
916.371	3393
916.483	3397
916.595	3283
916.708	3306
916.82	3310
916.932	3336
917.044	3355
917.156	3313
917.268	3256
917.38	3329
917.491	3298
917.603	3332
917.715	3458
917.826	3496
917.938	3370
918.049	3272
918.161	3424
918.272	3576
918.384	3580
918.495	3462
918.606	3348
918.717	3317
918.828	3382
918.939	3401
919.05	3302
919.161	3405
919.272	3188
919.383	3264
919.494	3469
919.604	3698
919.715	3454
919.826	3405
919.936	3447
920.047	3584
920.157	3568
920.267	3755
920.378	3580
920.488	3549
920.598	3778
920.708	3975
920.818	3842
920.928	3850
921.038	4025
921.148	4006
921.258	3682
921.368	3648
921.477	3568
921.587	3496
921.697	3477
921.806	3610
921.916	3561
922.025	3351
922.134	3370
922.244	3321
922.353	3412
922.462	3268
922.571	3237
922.68	3089
922.789	3062
922.898	3104
923.007	3066
923.116	3214
923.224	3184
923.333	3192
923.442	3135
923.55	3119
923.659	3123
923.767	3188
923.876	3154
923.984	3199
924.092	3127
924.201	3157
924.309	3218
924.417	3256
924.525	3154
924.633	3264
924.741	4010
924.849	3043
924.956	3283
925.064	3104
925.172	3039
925.279	3081
925.387	3211
925.494	3157
925.602	3344
925.709	3310
925.816	3222
925.924	3249
926.031	3378
926.138	3332
926.245	3367
926.352	3298
926.459	3420
926.566	3454
926.673	3317
926.779	3230
926.886	3268
926.993	3154
927.099	3127
927.206	3119
927.312	3131
927.419	3199
927.525	3195
927.631	3287
927.737	3146
927.843	3104
927.95	3036
928.056	3142
928.162	3150
928.267	3256
928.373	3781
928.479	3321
928.585	3074
928.69	3173
928.796	3298
928.901	3154
929.007	3070
929.112	3214
929.218	3142
929.323	3119
929.428	3131
929.533	3283
929.638	3112
929.743	3176
929.848	3298
929.953	3218
930.058	3123
930.163	2994
930.267	3047
930.372	3188
930.477	3051
930.581	3302
930.685	3195
930.79	3013
930.894	3058
930.998	3112
931.103	3298
931.207	2967
931.311	2887
931.415	2933
931.519	2777
931.623	2830
