Data from test_V78500241_1640.txt Node
Date: Fri Mar 25 16:26:33 CST 2022
User: usil
Spectrometer: V785-0024
Trigger mode: 0
Integration Time (sec): 4.000000E-1
Scans to average: 1
Nonlinearity correction enabled: false
Boxcar width: 0
Storing dark spectrum: false
XAxis mode: Wavelengths
Number of Pixels in Spectrum: 1024
>>>>>Begin Spectral Data<<<<<
801.071	2918
801.214	2933
801.356	2876
801.499	2910
801.641	2853
801.783	2914
801.926	3020
802.068	3017
802.211	3001
802.353	3039
802.496	2925
802.638	2998
802.78	3062
802.923	3085
803.065	2990
803.208	2880
803.35	2922
803.492	2891
803.635	2902
803.777	2689
803.919	2834
804.061	3176
804.204	2948
804.346	2910
804.488	2819
804.63	2952
804.773	2872
804.915	2925
805.057	3066
805.199	2933
805.341	2982
805.483	3017
805.626	2998
805.768	2960
805.91	3066
806.052	3043
806.194	3028
806.336	3214
806.478	3024
806.62	2944
806.762	2986
806.904	3058
807.046	3150
807.188	2982
807.33	2899
807.472	2944
807.614	2918
807.756	2982
807.898	2887
808.04	2864
808.182	2986
808.324	2956
808.465	2887
808.607	2880
808.749	2807
808.891	2845
809.033	2971
809.174	2941
809.316	2864
809.458	2902
809.6	2773
809.741	2769
809.883	2773
810.025	2849
810.166	2861
810.308	2800
810.45	2849
810.591	2758
810.733	2754
810.875	2807
811.016	2773
811.158	2785
811.299	2800
811.441	2929
811.582	2910
811.724	2819
811.865	2849
812.007	2967
812.148	2853
812.29	2811
812.431	2914
812.573	2944
812.714	2994
812.855	3036
812.997	3032
813.138	3157
813.279	3032
813.421	2956
813.562	2971
813.703	2887
813.845	2887
813.986	2769
814.127	2720
814.268	2796
814.41	2838
814.551	2785
814.692	2891
814.833	2792
814.974	2864
815.115	2952
815.256	2815
815.397	2807
815.539	2876
815.68	2766
815.821	2796
815.962	2906
816.103	2899
816.244	2880
816.385	2895
816.526	2979
816.666	2914
816.807	2750
816.948	2899
817.089	2914
817.23	2834
817.371	2762
817.512	2754
817.653	2845
817.793	2830
817.934	2872
818.075	2944
818.216	2948
818.356	3024
818.497	2880
818.638	2773
818.778	2830
818.919	2777
819.06	2739
819.2	2883
819.341	2792
819.481	2800
819.622	2944
819.762	3112
819.903	3013
820.043	2914
820.184	2876
820.324	2891
820.465	3047
820.605	3005
820.746	3039
820.886	2914
821.026	3116
821.167	3138
821.307	3268
821.447	3222
821.588	3241
821.728	3230
821.868	3226
822.008	3032
822.149	3195
822.289	3203
822.429	3058
822.569	3070
822.709	3157
822.849	3028
822.99	3051
823.13	3154
823.27	3146
823.41	3093
823.55	3142
823.69	3112
823.83	3203
823.97	3108
824.11	3032
824.25	2982
824.389	3089
824.529	3119
824.669	3077
824.809	3188
824.949	3260
825.089	3218
825.228	3112
825.368	2982
825.508	2929
825.648	2986
825.787	3001
825.927	3036
826.067	2960
826.206	2933
826.346	3043
826.485	3058
826.625	3089
826.765	3249
826.904	3188
827.044	2994
827.183	2902
827.323	2823
827.462	2998
827.601	2933
827.741	2929
827.88	2910
828.02	2868
828.159	2990
828.298	3017
828.437	3070
828.577	3001
828.716	3230
828.855	3070
828.994	2906
829.134	2895
829.273	2906
829.412	2838
829.551	2842
829.69	2891
829.829	2986
829.968	3100
830.107	2990
830.246	3017
830.385	2906
830.524	2842
830.663	2838
830.802	2746
830.941	2667
831.08	2640
831.219	2766
831.357	2727
831.496	2918
831.635	2697
831.774	2701
831.913	2686
832.051	2499
832.19	2575
832.329	2689
832.467	2522
832.606	2461
832.744	2583
832.883	2590
833.022	2560
833.16	2648
833.299	2648
833.437	2674
833.576	2727
833.714	2724
833.852	2724
833.991	2750
834.129	2842
834.267	2785
834.406	2754
834.544	2883
834.682	2849
834.821	2857
834.959	3028
835.097	2880
835.235	3043
835.373	2990
835.511	3001
835.65	2933
835.788	2956
835.926	2807
836.064	2796
836.202	2842
836.34	3070
836.478	3108
836.615	3020
836.753	3093
836.891	3184
837.029	3165
837.167	3123
837.305	3085
837.443	3020
837.58	2967
837.718	3116
837.856	3051
837.993	3032
838.131	3138
838.269	3051
838.406	3051
838.544	3062
838.681	2891
838.819	2891
838.956	2830
839.094	2804
839.231	2899
839.369	2986
839.506	3351
839.643	3222
839.781	3009
839.918	2948
840.055	3036
840.193	3028
840.33	3062
840.467	3104
840.604	3131
840.742	3428
840.879	3039
841.016	3028
841.153	3112
841.29	3321
841.427	3287
841.564	3245
841.701	3291
841.838	3214
841.975	3138
842.112	3199
842.249	3047
842.385	3039
842.522	3199
842.659	3089
842.796	3055
842.933	3058
843.069	2979
843.206	3062
843.343	3138
843.479	3036
843.616	3157
843.752	2876
843.889	2842
844.025	3077
844.162	2838
844.298	3077
844.435	2941
844.571	2899
844.708	3074
844.844	3165
844.98	3233
845.117	3161
845.253	3009
845.389	3001
845.525	3116
845.661	3074
845.798	3032
845.934	3077
846.07	3032
846.206	3207
846.342	3294
846.478	3218
846.614	3074
846.75	3032
846.886	3017
847.022	3214
847.158	3157
847.294	3161
847.429	3226
847.565	3176
847.701	3439
847.837	2990
847.972	3001
848.108	3173
848.244	3093
848.379	2982
848.515	2910
848.65	2895
848.786	2941
848.921	2967
849.057	3074
849.192	3108
849.328	3066
849.463	3135
849.598	3047
849.734	3043
849.869	2952
850.004	2883
850.14	2986
850.275	2952
850.41	2849
850.545	2872
850.68	2944
850.815	2933
850.95	2975
851.085	3180
851.22	3127
851.355	3039
851.49	2941
851.625	2979
851.76	3017
851.895	2933
852.03	2910
852.165	3089
852.299	3104
852.434	3195
852.569	3146
852.703	3176
852.838	3279
852.973	3367
853.107	3355
853.242	3169
853.376	3074
853.511	3005
853.645	3043
853.78	3253
853.914	3142
854.048	3123
854.183	3127
854.317	3161
854.451	3317
854.585	3184
854.72	3131
854.854	3214
854.988	3085
855.122	3142
855.256	3043
855.39	3188
855.524	3253
855.658	3222
855.792	3199
855.926	3268
856.06	3249
856.194	3279
856.327	3169
856.461	3104
856.595	3093
856.729	3123
856.862	3245
856.996	3207
857.13	3233
857.263	3272
857.397	3272
857.53	3142
857.664	3207
857.797	3275
857.931	3329
858.064	3173
858.197	3287
858.331	3135
858.464	3142
858.597	3020
858.731	3165
858.864	3161
858.997	3112
859.13	3188
859.263	3203
859.396	3207
859.529	3119
859.662	3142
859.795	3093
859.928	3165
860.061	3306
860.194	3268
860.327	3146
860.46	3165
860.592	3226
860.725	3268
860.858	3272
860.99	3123
861.123	3066
861.256	3097
861.388	3180
861.521	3918
861.653	3051
861.786	3047
861.918	3066
862.05	3108
862.183	3104
862.315	3154
862.447	3207
862.58	3131
862.712	2975
862.844	2906
862.976	3074
863.108	3024
863.24	3424
863.372	2922
863.504	3001
863.636	2979
863.768	3062
863.9	3001
864.032	2937
864.164	2960
864.296	3047
864.428	3150
864.559	3104
864.691	3093
864.823	3100
864.954	3089
865.086	3058
865.217	3013
865.349	2986
865.48	3039
865.612	3005
865.743	3207
865.875	3024
866.006	2952
866.137	3001
866.269	2971
866.4	2963
866.531	2967
866.662	2906
866.793	2910
866.924	2944
867.055	2990
867.186	2963
867.317	2880
867.448	2868
867.579	2861
867.71	2876
867.841	2857
867.972	2922
868.103	2944
868.233	2922
868.364	2902
868.495	2933
868.625	3089
868.756	3180
868.886	3013
869.017	3020
869.147	3192
869.278	3157
869.408	3085
869.539	3032
869.669	3138
869.799	3055
869.929	3138
870.06	3146
870.19	3363
870.32	3310
870.45	3363
870.58	3367
870.71	3428
870.84	3424
870.97	3306
871.1	3260
871.23	3481
871.36	3458
871.489	3386
871.619	3420
871.749	3386
871.879	3488
872.008	3504
872.138	3382
872.267	3283
872.397	3169
872.526	3154
872.656	3024
872.785	3119
872.915	3294
873.044	3363
873.173	3253
873.303	3272
873.432	3245
873.561	3241
873.69	3195
873.819	3192
873.948	3195
874.077	3127
874.206	3058
874.335	3100
874.464	3264
874.593	3344
874.722	3264
874.851	3405
874.979	3374
875.108	3348
875.237	3218
875.365	3180
875.494	3195
875.623	3287
875.751	3097
875.88	3135
876.008	3222
876.136	3222
876.265	3424
876.393	3515
876.521	3424
876.65	3386
876.778	3386
876.906	3279
877.034	3207
877.162	3241
877.29	3192
877.418	3260
877.546	3298
877.674	3291
877.802	3260
877.93	3272
878.058	3188
878.185	3176
878.313	3237
878.441	3237
878.568	3116
878.696	3188
878.824	3264
878.951	3329
879.079	3473
879.206	3652
879.333	3488
879.461	3363
879.588	3374
879.715	3485
879.842	3622
879.97	3416
880.097	3173
880.224	3173
880.351	3249
880.478	3233
880.605	3226
880.732	3188
880.859	3485
880.986	3332
881.112	3329
881.239	3226
881.366	3051
881.493	3100
881.619	3047
881.746	3127
881.872	3127
881.999	3116
882.125	3165
882.252	3256
882.378	3283
882.505	3439
882.631	3340
882.757	3214
882.883	3253
883.01	3245
883.136	3195
883.262	3108
883.388	3097
883.514	3367
883.64	3416
883.766	3370
883.892	3222
884.018	3264
884.143	3431
884.269	3572
884.395	3199
884.52	3207
884.646	3199
884.772	3154
884.897	3127
885.023	3253
885.148	3359
885.274	3420
885.399	3370
885.524	3298
885.65	3260
885.775	3367
885.9	3294
886.025	3450
886.15	3374
886.275	3302
886.4	3264
886.525	3294
886.65	3329
886.775	3264
886.9	3534
887.025	3671
887.149	3420
887.274	3279
887.399	3249
887.523	3211
887.648	3211
887.773	3218
887.897	3405
888.021	3428
888.146	3332
888.27	3439
888.395	3519
888.519	3466
888.643	3447
888.767	3477
888.891	3378
889.015	3256
889.139	3321
889.263	3272
889.387	3424
889.511	3545
889.635	3492
889.759	3298
889.883	3272
890.006	3389
890.13	3526
890.254	3313
890.377	3344
890.501	3218
890.624	3169
890.748	3298
890.871	3195
890.995	3123
891.118	3081
891.241	3203
891.364	3245
891.488	3344
891.611	3214
891.734	3226
891.857	3310
891.98	3253
892.103	3367
892.226	3268
892.349	3241
892.471	3146
892.594	3272
892.717	3283
892.839	3294
892.962	3313
893.085	3378
893.207	3302
893.33	3184
893.452	3241
893.575	3363
893.697	3253
893.819	3496
893.941	3519
894.064	3466
894.186	3287
894.308	3291
894.43	3458
894.552	3580
894.674	3504
894.796	3329
894.918	3367
895.04	3310
895.161	3447
895.283	3405
895.405	3325
895.526	3393
895.648	3450
895.769	3492
895.891	3511
896.012	3477
896.134	3466
896.255	3447
896.376	3393
896.498	3359
896.619	3443
896.74	3370
896.861	3409
896.982	3717
897.103	3842
897.224	3637
897.345	3507
897.466	3454
897.587	3511
897.708	3720
897.828	3557
897.949	3431
898.07	3325
898.19	3435
898.311	3629
898.431	3488
898.552	3545
898.672	3614
898.792	3564
898.913	3557
899.033	3412
899.153	3313
899.273	3230
899.393	3325
899.513	3351
899.633	3351
899.753	3351
899.873	3302
899.993	3401
900.113	3367
900.232	3439
900.352	3317
900.472	3283
900.591	3218
900.711	3310
900.83	3256
900.95	3412
901.069	3492
901.189	3389
901.308	3180
901.427	3176
901.546	3226
901.665	3351
901.784	3321
901.904	3180
902.023	3192
902.141	3047
902.26	3017
902.379	3138
902.498	3070
902.617	3066
902.735	3222
902.854	3260
902.973	3199
903.091	3039
903.21	3089
903.328	3169
903.446	3077
903.565	3104
903.683	3230
903.801	3131
903.919	3230
904.038	3287
904.156	3192
904.274	3283
904.392	3253
904.51	3325
904.627	3359
904.745	3462
904.863	3500
904.981	3272
905.098	3184
905.216	3253
905.334	3306
905.451	3313
905.569	3317
905.686	3424
905.803	3458
905.921	3279
906.038	3431
906.155	3363
906.272	3306
906.389	3363
906.506	3241
906.623	3256
906.74	3313
906.857	3195
906.974	3275
907.091	3447
907.208	3580
907.324	3523
907.441	3420
907.557	3226
907.674	3241
907.79	3226
907.907	3272
908.023	3351
908.139	3428
908.256	3332
908.372	3389
908.488	3325
908.604	3294
908.72	3272
908.836	3321
908.952	3306
909.068	3359
909.184	3523
909.3	3393
909.415	3507
909.531	3466
909.647	3294
909.762	3302
909.878	3264
909.993	3374
910.108	3336
910.224	3344
910.339	3431
910.454	3359
910.57	3336
910.685	3222
910.8	3614
910.915	3587
911.03	3424
911.145	3279
911.259	3245
911.374	3344
911.489	3264
911.604	3222
911.718	3142
911.833	3150
911.947	3074
912.062	3017
912.176	3180
912.291	3165
912.405	3241
912.519	3454
912.633	3477
912.748	3378
912.862	3287
912.976	3214
913.09	3062
913.204	3142
913.318	3211
913.431	3340
913.545	3393
913.659	3454
913.772	3340
913.886	3260
914	3203
914.113	3332
914.226	3389
914.34	3393
914.453	3203
914.566	3450
914.68	3306
914.793	3317
914.906	3138
915.019	3123
915.132	3119
915.245	3184
915.358	3176
915.47	3249
915.583	3245
915.696	3275
915.809	3401
915.921	3447
916.034	3264
916.146	3241
916.259	3249
916.371	3386
916.483	3359
916.595	3260
916.708	3348
916.82	3317
916.932	3351
917.044	3363
917.156	3355
917.268	3245
917.38	3332
917.491	3321
917.603	3367
917.715	3458
917.826	3435
917.938	3420
918.049	3298
918.161	3405
918.272	3564
918.384	3587
918.495	3515
918.606	3336
918.717	3302
918.828	3370
918.939	3450
919.05	3291
919.161	3363
919.272	3195
919.383	3264
919.494	3564
919.604	3671
919.715	3511
919.826	3386
919.936	3458
920.047	3610
920.157	3614
920.267	3842
920.378	3656
920.488	3606
920.598	3808
920.708	3975
920.818	3884
920.928	3865
921.038	4078
921.148	4040
921.258	3732
921.368	3656
921.477	3644
921.587	3549
921.697	3519
921.806	3675
921.916	3587
922.025	3389
922.134	3389
922.244	3386
922.353	3466
922.462	3306
922.571	3256
922.68	3176
922.789	3085
922.898	3184
923.007	3154
923.116	3291
923.224	3199
923.333	3253
923.442	3138
923.55	3116
923.659	3203
923.767	3233
923.876	3203
923.984	3237
924.092	3146
924.201	3218
924.309	3283
924.417	3241
924.525	3230
924.633	3249
924.741	4257
924.849	3066
924.956	3275
925.064	3157
925.172	3039
925.279	3142
925.387	3256
925.494	3260
925.602	3424
925.709	3382
925.816	3256
925.924	3275
926.031	3389
926.138	3329
926.245	3401
926.352	3302
926.459	3447
926.566	3504
926.673	3382
926.779	3264
926.886	3275
926.993	3195
927.099	3165
927.206	3173
927.312	3184
927.419	3272
927.525	3230
927.631	3332
927.737	3195
927.843	3203
927.95	3066
928.056	3184
928.162	3264
928.267	3279
928.373	3797
928.479	3374
928.585	3119
928.69	3272
928.796	3287
928.901	3218
929.007	3116
929.112	3226
929.218	3192
929.323	3211
929.428	3165
929.533	3355
929.638	3154
929.743	3154
929.848	3294
929.953	3222
930.058	3176
930.163	3039
930.267	3093
930.372	3241
930.477	3081
930.581	3355
930.685	3207
930.79	3058
930.894	3146
930.998	3131
931.103	3298
931.207	3013
931.311	2979
931.415	2952
931.519	2838
931.623	2883
