Data from test_V78500241_975.txt Node
Date: Fri Mar 25 16:21:57 CST 2022
User: usil
Spectrometer: V785-0024
Trigger mode: 0
Integration Time (sec): 4.000000E-1
Scans to average: 1
Nonlinearity correction enabled: false
Boxcar width: 0
Storing dark spectrum: false
XAxis mode: Wavelengths
Number of Pixels in Spectrum: 1024
>>>>>Begin Spectral Data<<<<<
801.071	2948
801.214	2922
801.356	2902
801.499	2914
801.641	2895
801.783	2937
801.926	3077
802.068	2990
802.211	2998
802.353	3013
802.496	2986
802.638	3024
802.78	3039
802.923	3036
803.065	3005
803.208	2891
803.35	2922
803.492	2944
803.635	2937
803.777	2785
803.919	2864
804.061	3199
804.204	2986
804.346	2929
804.488	2845
804.63	3001
804.773	2876
804.915	2910
805.057	3104
805.199	2918
805.341	2975
805.483	3032
805.626	2998
805.768	2998
805.91	3077
806.052	3089
806.194	3032
806.336	3230
806.478	3058
806.62	2982
806.762	2944
806.904	3043
807.046	3142
807.188	3036
807.33	2910
807.472	2982
807.614	2887
807.756	2967
807.898	2910
808.04	2914
808.182	3005
808.324	2960
808.465	2899
808.607	2906
808.749	2804
808.891	2853
809.033	2986
809.174	2982
809.316	2910
809.458	2937
809.6	2758
809.741	2792
809.883	2769
810.025	2845
810.166	2876
810.308	2868
810.45	2849
810.591	2811
810.733	2746
810.875	2804
811.016	2849
811.158	2777
811.299	2823
811.441	2944
811.582	2895
811.724	2834
811.865	2830
812.007	2906
812.148	2899
812.29	2864
812.431	2899
812.573	2941
812.714	2952
812.855	3017
812.997	3047
813.138	3146
813.279	3001
813.421	2971
813.562	2982
813.703	2899
813.845	2899
813.986	2785
814.127	2701
814.268	2857
814.41	2853
814.551	2857
814.692	2899
814.833	2800
814.974	2906
815.115	2979
815.256	2842
815.397	2815
815.539	2861
815.68	2777
815.821	2773
815.962	2944
816.103	2941
816.244	2887
816.385	2857
816.526	2994
816.666	2971
816.807	2758
816.948	2883
817.089	2941
817.23	2849
817.371	2796
817.512	2823
817.653	2826
817.793	2842
817.934	2876
818.075	2956
818.216	3013
818.356	3020
818.497	2887
818.638	2781
818.778	2838
818.919	2773
819.06	2762
819.2	2887
819.341	2796
819.481	2792
819.622	2925
819.762	3081
819.903	3077
820.043	2948
820.184	2910
820.324	2899
820.465	2971
820.605	3001
820.746	3043
820.886	2910
821.026	3100
821.167	3161
821.307	3260
821.447	3264
821.588	3249
821.728	3188
821.868	3195
822.008	3085
822.149	3195
822.289	3256
822.429	3097
822.569	3081
822.709	3218
822.849	3020
822.99	3089
823.13	3180
823.27	3184
823.41	3100
823.55	3157
823.69	3142
823.83	3184
823.97	3100
824.11	3036
824.25	2979
824.389	3043
824.529	3116
824.669	3066
824.809	3199
824.949	3249
825.089	3203
825.228	3154
825.368	2994
825.508	2960
825.648	2963
825.787	3013
825.927	3036
826.067	2994
826.206	2979
826.346	3062
826.485	3097
826.625	3131
826.765	3283
826.904	3180
827.044	2982
827.183	2944
827.323	2861
827.462	2956
827.601	2922
827.741	2925
827.88	2952
828.02	2868
828.159	2998
828.298	3001
828.437	3112
828.577	3039
828.716	3249
828.855	3070
828.994	2925
829.134	2876
829.273	2902
829.412	2891
829.551	2864
829.69	2868
829.829	3009
829.968	3116
830.107	3020
830.246	3024
830.385	2895
830.524	2842
830.663	2834
830.802	2727
830.941	2644
831.08	2636
831.219	2773
831.357	2758
831.496	2948
831.635	2731
831.774	2644
831.913	2648
832.051	2552
832.19	2568
832.329	2731
832.467	2541
832.606	2450
832.744	2571
832.883	2579
833.022	2594
833.16	2621
833.299	2678
833.437	2686
833.576	2693
833.714	2708
833.852	2762
833.991	2773
834.129	2826
834.267	2826
834.406	2773
834.544	2868
834.682	2902
834.821	2872
834.959	3066
835.097	2902
835.235	3066
835.373	2990
835.511	2994
835.65	2948
835.788	2941
835.926	2861
836.064	2823
836.202	2845
836.34	3097
836.478	3188
836.615	3070
836.753	3150
836.891	3207
837.029	3127
837.167	3127
837.305	3066
837.443	3043
837.58	2994
837.718	3131
837.856	3036
837.993	2994
838.131	3127
838.269	3085
838.406	3066
838.544	3097
838.681	2906
838.819	2937
838.956	2823
839.094	2838
839.231	2914
839.369	3043
839.506	3370
839.643	3233
839.781	3005
839.918	2963
840.055	3028
840.193	3001
840.33	3051
840.467	3112
840.604	3116
840.742	3378
840.879	3043
841.016	3074
841.153	3135
841.29	3291
841.427	3275
841.564	3230
841.701	3306
841.838	3222
841.975	3154
842.112	3249
842.249	3070
842.385	3043
842.522	3264
842.659	3070
842.796	3062
842.933	3100
843.069	3062
843.206	3036
843.343	3161
843.479	3077
843.616	3135
843.752	2883
843.889	2902
844.025	3070
844.162	2895
844.298	3081
844.435	2929
844.571	2914
844.708	3074
844.844	3169
844.98	3211
845.117	3188
845.253	3055
845.389	2994
845.525	3089
845.661	3112
845.798	2986
845.934	3135
846.07	3039
846.206	3203
846.342	3279
846.478	3226
846.614	3077
846.75	3032
846.886	3013
847.022	3226
847.158	3097
847.294	3176
847.429	3268
847.565	3199
847.701	3500
847.837	3028
847.972	2986
848.108	3138
848.244	3142
848.379	2971
848.515	2956
848.65	2929
848.786	2994
848.921	3043
849.057	3127
849.192	3100
849.328	3028
849.463	3116
849.598	3028
849.734	3001
849.869	3024
850.004	2944
850.14	2948
850.275	2910
850.41	2830
850.545	2880
850.68	2918
850.815	2941
850.95	2960
851.085	3173
851.22	3112
851.355	2998
851.49	3028
851.625	3005
851.76	3051
851.895	2971
852.03	2941
852.165	3024
852.299	3116
852.434	3192
852.569	3157
852.703	3165
852.838	3256
852.973	3348
853.107	3317
853.242	3150
853.376	3097
853.511	2960
853.645	3047
853.78	3211
853.914	3131
854.048	3074
854.183	3055
854.317	3150
854.451	3275
854.585	3123
854.72	3104
854.854	3211
854.988	3047
855.122	3062
855.256	2956
855.39	3142
855.524	3211
855.658	3207
855.792	3176
855.926	3195
856.06	3222
856.194	3245
856.327	3127
856.461	3009
856.595	3074
856.729	3077
856.862	3207
856.996	3127
857.13	3180
857.263	3218
857.397	3264
857.53	3112
857.664	3222
857.797	3272
857.931	3275
858.064	3135
858.197	3218
858.331	3127
858.464	3066
858.597	3009
858.731	3135
858.864	3123
858.997	3112
859.13	3157
859.263	3138
859.396	3180
859.529	3066
859.662	3066
859.795	3039
859.928	3150
860.061	3279
860.194	3287
860.327	3127
860.46	3074
860.592	3207
860.725	3253
860.858	3222
860.99	3081
861.123	3032
861.256	3020
861.388	3097
861.521	3778
861.653	2994
861.786	2952
861.918	2990
862.05	3020
862.183	3089
862.315	3165
862.447	3192
862.58	3108
862.712	2952
862.844	2868
862.976	3051
863.108	3005
863.24	3469
863.372	2853
863.504	2925
863.636	2948
863.768	3013
863.9	2956
864.032	2899
864.164	2929
864.296	3024
864.428	3055
864.559	3081
864.691	3058
864.823	3055
864.954	3024
865.086	3020
865.217	2963
865.349	2914
865.48	2952
865.612	3024
865.743	3123
865.875	2990
866.006	2948
866.137	2941
866.269	2941
866.4	2891
866.531	2906
866.662	2880
866.793	2887
866.924	2902
867.055	2956
867.186	2944
867.317	2876
867.448	2838
867.579	2842
867.71	2807
867.841	2800
867.972	2910
868.103	2918
868.233	2872
868.364	2880
868.495	2887
868.625	3093
868.756	3146
868.886	2994
869.017	3005
869.147	3131
869.278	3142
869.408	3032
869.539	3055
869.669	3077
869.799	3036
869.929	3165
870.06	3089
870.19	3313
870.32	3272
870.45	3306
870.58	3344
870.71	3420
870.84	3428
870.97	3310
871.1	3237
871.23	3466
871.36	3473
871.489	3348
871.619	3389
871.749	3363
871.879	3401
872.008	3481
872.138	3355
872.267	3291
872.397	3127
872.526	3116
872.656	2979
872.785	3100
872.915	3249
873.044	3325
873.173	3203
873.303	3260
873.432	3218
873.561	3214
873.69	3127
873.819	3142
873.948	3192
874.077	3100
874.206	3047
874.335	3055
874.464	3192
874.593	3325
874.722	3211
874.851	3367
874.979	3317
875.108	3344
875.237	3199
875.365	3138
875.494	3154
875.623	3260
875.751	3074
875.88	3112
876.008	3192
876.136	3203
876.265	3340
876.393	3485
876.521	3401
876.65	3378
876.778	3374
876.906	3245
877.034	3207
877.162	3241
877.29	3157
877.418	3253
877.546	3222
877.674	3245
877.802	3253
877.93	3203
878.058	3173
878.185	3077
878.313	3165
878.441	3203
878.568	3119
878.696	3142
878.824	3233
878.951	3287
879.079	3447
879.206	3625
879.333	3435
879.461	3325
879.588	3325
879.715	3443
879.842	3545
879.97	3355
880.097	3127
880.224	3150
880.351	3161
880.478	3226
880.605	3184
880.732	3222
880.859	3462
880.986	3294
881.112	3279
881.239	3169
881.366	3093
881.493	3066
881.619	3005
881.746	3062
881.872	3112
881.999	3089
882.125	3108
882.252	3233
882.378	3291
882.505	3431
882.631	3279
882.757	3119
882.883	3176
883.01	3226
883.136	3165
883.262	3119
883.388	3138
883.514	3302
883.64	3382
883.766	3287
883.892	3214
884.018	3230
884.143	3374
884.269	3542
884.395	3207
884.52	3150
884.646	3233
884.772	3116
884.897	3097
885.023	3188
885.148	3340
885.274	3397
885.399	3348
885.524	3279
885.65	3253
885.775	3325
885.9	3253
886.025	3443
886.15	3363
886.275	3275
886.4	3195
886.525	3287
886.65	3272
886.775	3268
886.9	3458
887.025	3610
887.149	3378
887.274	3226
887.399	3203
887.523	3188
887.648	3154
887.773	3233
887.897	3351
888.021	3397
888.146	3279
888.27	3439
888.395	3500
888.519	3393
888.643	3447
888.767	3439
888.891	3272
889.015	3230
889.139	3256
889.263	3249
889.387	3386
889.511	3477
889.635	3443
889.759	3298
889.883	3260
890.006	3382
890.13	3511
890.254	3245
890.377	3310
890.501	3169
890.624	3211
890.748	3310
890.871	3165
890.995	3108
891.118	3039
891.241	3173
891.364	3214
891.488	3340
891.611	3150
891.734	3241
891.857	3279
891.98	3233
892.103	3367
892.226	3272
892.349	3218
892.471	3093
892.594	3192
892.717	3283
892.839	3275
892.962	3294
893.085	3332
893.207	3294
893.33	3154
893.452	3237
893.575	3363
893.697	3249
893.819	3462
893.941	3504
894.064	3450
894.186	3241
894.308	3291
894.43	3424
894.552	3526
894.674	3450
894.796	3279
894.918	3272
895.04	3249
895.161	3466
895.283	3405
895.405	3310
895.526	3336
895.648	3401
895.769	3393
895.891	3443
896.012	3481
896.134	3435
896.255	3374
896.376	3382
896.498	3386
896.619	3386
896.74	3294
896.861	3374
896.982	3637
897.103	3835
897.224	3572
897.345	3507
897.466	3370
897.587	3466
897.708	3625
897.828	3526
897.949	3428
898.07	3291
898.19	3397
898.311	3591
898.431	3469
898.552	3492
898.672	3557
898.792	3553
898.913	3458
899.033	3412
899.153	3317
899.273	3195
899.393	3256
899.513	3344
899.633	3306
899.753	3336
899.873	3294
899.993	3374
900.113	3329
900.232	3340
900.352	3351
900.472	3275
900.591	3195
900.711	3272
900.83	3195
900.95	3382
901.069	3469
901.189	3329
901.308	3169
901.427	3142
901.546	3203
901.665	3283
901.784	3317
901.904	3203
902.023	3093
902.141	3047
902.26	2967
902.379	3150
902.498	3062
902.617	3047
902.735	3256
902.854	3207
902.973	3180
903.091	3043
903.21	3077
903.328	3104
903.446	3108
903.565	3127
903.683	3199
903.801	3146
903.919	3207
904.038	3275
904.156	3150
904.274	3268
904.392	3218
904.51	3310
904.627	3321
904.745	3393
904.863	3473
904.981	3260
905.098	3112
905.216	3199
905.334	3253
905.451	3336
905.569	3268
905.686	3412
905.803	3412
905.921	3317
906.038	3405
906.155	3386
906.272	3222
906.389	3325
906.506	3222
906.623	3264
906.74	3279
906.857	3188
906.974	3264
907.091	3431
907.208	3606
907.324	3496
907.441	3397
907.557	3237
907.674	3184
907.79	3169
907.907	3237
908.023	3348
908.139	3382
908.256	3313
908.372	3355
908.488	3321
908.604	3245
908.72	3241
908.836	3264
908.952	3275
909.068	3313
909.184	3469
909.3	3355
909.415	3492
909.531	3443
909.647	3268
909.762	3291
909.878	3218
909.993	3329
910.108	3302
910.224	3340
910.339	3378
910.454	3302
910.57	3313
910.685	3233
910.8	3568
910.915	3542
911.03	3401
911.145	3237
911.259	3256
911.374	3272
911.489	3222
911.604	3226
911.718	3119
911.833	3161
911.947	3051
912.062	2986
912.176	3169
912.291	3157
912.405	3173
912.519	3378
912.633	3473
912.748	3283
912.862	3260
912.976	3142
913.09	3051
913.204	3131
913.318	3173
913.431	3317
913.545	3313
913.659	3428
913.772	3264
913.886	3226
914	3180
914.113	3317
914.226	3401
914.34	3367
914.453	3203
914.566	3389
914.68	3298
914.793	3313
914.906	3108
915.019	3074
915.132	3066
915.245	3165
915.358	3203
915.47	3226
915.583	3287
915.696	3321
915.809	3386
915.921	3431
916.034	3275
916.146	3283
916.259	3207
916.371	3389
916.483	3367
916.595	3306
916.708	3325
916.82	3351
916.932	3378
917.044	3332
917.156	3370
917.268	3260
917.38	3351
917.491	3283
917.603	3378
917.715	3428
917.826	3511
917.938	3393
918.049	3310
918.161	3477
918.272	3549
918.384	3625
918.495	3538
918.606	3409
918.717	3294
918.828	3370
918.939	3447
919.05	3321
919.161	3393
919.272	3211
919.383	3336
919.494	3526
919.604	3717
919.715	3488
919.826	3447
919.936	3530
920.047	3629
920.157	3580
920.267	3808
920.378	3637
920.488	3614
920.598	3827
920.708	3968
920.818	3827
920.928	3880
921.038	4071
921.148	4044
921.258	3740
921.368	3629
921.477	3618
921.587	3557
921.697	3488
921.806	3648
921.916	3603
922.025	3367
922.134	3401
922.244	3363
922.353	3466
922.462	3302
922.571	3256
922.68	3123
922.789	3146
922.898	3184
923.007	3142
923.116	3260
923.224	3188
923.333	3237
923.442	3180
923.55	3154
923.659	3146
923.767	3222
923.876	3176
923.984	3249
924.092	3165
924.201	3260
924.309	3222
924.417	3294
924.525	3214
924.633	3283
924.741	4204
924.849	3104
924.956	3298
925.064	3173
925.172	3055
925.279	3100
925.387	3253
925.494	3214
925.602	3370
925.709	3359
925.816	3226
925.924	3332
926.031	3443
926.138	3389
926.245	3401
926.352	3302
926.459	3424
926.566	3454
926.673	3374
926.779	3275
926.886	3268
926.993	3184
927.099	3135
927.206	3138
927.312	3142
927.419	3230
927.525	3253
927.631	3268
927.737	3173
927.843	3157
927.95	3051
928.056	3180
928.162	3233
928.267	3260
928.373	3911
928.479	3348
928.585	3093
928.69	3256
928.796	3306
928.901	3192
929.007	3077
929.112	3226
929.218	3195
929.323	3173
929.428	3150
929.533	3268
929.638	3161
929.743	3180
929.848	3291
929.953	3253
930.058	3192
930.163	3039
930.267	3081
930.372	3249
930.477	3066
930.581	3363
930.685	3199
930.79	3089
930.894	3131
930.998	3089
931.103	3336
931.207	2982
931.311	2994
931.415	2956
931.519	2769
931.623	2823
