Data from test_V78500241_2010.txt Node
Date: Fri Mar 25 16:29:07 CST 2022
User: usil
Spectrometer: V785-0024
Trigger mode: 0
Integration Time (sec): 4.000000E-1
Scans to average: 1
Nonlinearity correction enabled: false
Boxcar width: 0
Storing dark spectrum: false
XAxis mode: Wavelengths
Number of Pixels in Spectrum: 1024
>>>>>Begin Spectral Data<<<<<
801.071	2880
801.214	2948
801.356	2872
801.499	2910
801.641	2853
801.783	2910
801.926	3058
802.068	2986
802.211	3001
802.353	3017
802.496	2952
802.638	3020
802.78	3024
802.923	3112
803.065	2963
803.208	2922
803.35	2861
803.492	2948
803.635	2922
803.777	2758
803.919	2815
804.061	3150
804.204	2948
804.346	2899
804.488	2842
804.63	2979
804.773	2861
804.915	2902
805.057	3074
805.199	2922
805.341	2967
805.483	3081
805.626	3001
805.768	2956
805.91	3036
806.052	3093
806.194	3020
806.336	3264
806.478	3051
806.62	2963
806.762	2994
806.904	3085
807.046	3131
807.188	2979
807.33	2929
807.472	2990
807.614	2883
807.756	2948
807.898	2922
808.04	2902
808.182	2956
808.324	2944
808.465	2864
808.607	2922
808.749	2777
808.891	2811
809.033	2944
809.174	2979
809.316	2887
809.458	2872
809.6	2800
809.741	2750
809.883	2731
810.025	2880
810.166	2910
810.308	2872
810.45	2868
810.591	2781
810.733	2785
810.875	2823
811.016	2750
811.158	2724
811.299	2811
811.441	2918
811.582	2906
811.724	2819
811.865	2849
812.007	2899
812.148	2891
812.29	2788
812.431	2861
812.573	2941
812.714	3009
812.855	3017
812.997	3043
813.138	3093
813.279	2948
813.421	3013
813.562	2967
813.703	2895
813.845	2830
813.986	2758
814.127	2727
814.268	2811
814.41	2845
814.551	2834
814.692	2872
814.833	2804
814.974	2876
815.115	2952
815.256	2834
815.397	2807
815.539	2864
815.68	2758
815.821	2769
815.962	2941
816.103	2941
816.244	2823
816.385	2853
816.526	2956
816.666	2887
816.807	2739
816.948	2872
817.089	2895
817.23	2811
817.371	2777
817.512	2804
817.653	2853
817.793	2792
817.934	2910
818.075	2948
818.216	2990
818.356	3020
818.497	2845
818.638	2857
818.778	2853
818.919	2815
819.06	2758
819.2	2868
819.341	2815
819.481	2762
819.622	2967
819.762	3066
819.903	3077
820.043	2918
820.184	2887
820.324	2922
820.465	2979
820.605	2998
820.746	3013
820.886	2937
821.026	3055
821.167	3161
821.307	3233
821.447	3253
821.588	3245
821.728	3207
821.868	3173
822.008	3104
822.149	3207
822.289	3253
822.429	3066
822.569	3093
822.709	3116
822.849	3047
822.99	3081
823.13	3135
823.27	3188
823.41	3089
823.55	3161
823.69	3173
823.83	3203
823.97	3097
824.11	2982
824.25	2963
824.389	3032
824.529	3108
824.669	3085
824.809	3226
824.949	3211
825.089	3199
825.228	3165
825.368	2986
825.508	2998
825.648	2975
825.787	2963
825.927	2998
826.067	2986
826.206	2925
826.346	3017
826.485	3070
826.625	3085
826.765	3241
826.904	3218
827.044	2979
827.183	2929
827.323	2864
827.462	3013
827.601	2899
827.741	2937
827.88	2975
828.02	2857
828.159	2960
828.298	3043
828.437	3108
828.577	3017
828.716	3211
828.855	3085
828.994	2918
829.134	2906
829.273	2895
829.412	2842
829.551	2845
829.69	2872
829.829	2979
829.968	3093
830.107	3032
830.246	2994
830.385	2944
830.524	2876
830.663	2861
830.802	2739
830.941	2617
831.08	2648
831.219	2746
831.357	2746
831.496	2902
831.635	2708
831.774	2629
831.913	2670
832.051	2541
832.19	2590
832.329	2682
832.467	2514
832.606	2503
832.744	2583
832.883	2571
833.022	2594
833.16	2659
833.299	2720
833.437	2708
833.576	2682
833.714	2716
833.852	2746
833.991	2781
834.129	2792
834.267	2819
834.406	2766
834.544	2853
834.682	2880
834.821	2880
834.959	3066
835.097	2914
835.235	3055
835.373	2971
835.511	3020
835.65	2971
835.788	2933
835.926	2800
836.064	2800
836.202	2834
836.34	3077
836.478	3161
836.615	3070
836.753	3176
836.891	3195
837.029	3142
837.167	3077
837.305	3039
837.443	3028
837.58	2971
837.718	3119
837.856	3032
837.993	3017
838.131	3081
838.269	3081
838.406	3093
838.544	3062
838.681	2937
838.819	2925
838.956	2804
839.094	2857
839.231	2914
839.369	2990
839.506	3348
839.643	3218
839.781	3001
839.918	2986
840.055	3043
840.193	3051
840.33	3097
840.467	3077
840.604	3154
840.742	3428
840.879	3093
841.016	3055
841.153	3123
841.29	3325
841.427	3268
841.564	3275
841.701	3310
841.838	3226
841.975	3188
842.112	3176
842.249	3058
842.385	3009
842.522	3230
842.659	3062
842.796	3036
842.933	3119
843.069	3017
843.206	3043
843.343	3184
843.479	3081
843.616	3127
843.752	2880
843.889	2876
844.025	3070
844.162	2883
844.298	3032
844.435	2891
844.571	2891
844.708	3081
844.844	3146
844.98	3226
845.117	3230
845.253	3043
845.389	2998
845.525	3112
845.661	3085
845.798	2982
845.934	3157
846.07	3032
846.206	3192
846.342	3302
846.478	3237
846.614	3074
846.75	3039
846.886	3028
847.022	3233
847.158	3093
847.294	3180
847.429	3226
847.565	3161
847.701	3466
847.837	3020
847.972	3005
848.108	3154
848.244	3131
848.379	3005
848.515	2933
848.65	2952
848.786	2937
848.921	2979
849.057	3089
849.192	3142
849.328	3070
849.463	3108
849.598	3055
849.734	3039
849.869	2982
850.004	2910
850.14	2948
850.275	2887
850.41	2811
850.545	2883
850.68	2944
850.815	2937
850.95	2960
851.085	3195
851.22	3104
851.355	3020
851.49	2944
851.625	2979
851.76	3005
851.895	2948
852.03	2880
852.165	3028
852.299	3081
852.434	3146
852.569	3135
852.703	3165
852.838	3245
852.973	3325
853.107	3321
853.242	3165
853.376	3055
853.511	2990
853.645	3039
853.78	3237
853.914	3085
854.048	3077
854.183	3070
854.317	3173
854.451	3275
854.585	3116
854.72	3089
854.854	3192
854.988	3077
855.122	3085
855.256	2986
855.39	3127
855.524	3207
855.658	3150
855.792	3108
855.926	3203
856.06	3222
856.194	3245
856.327	3089
856.461	3070
856.595	3039
856.729	3097
856.862	3173
856.996	3154
857.13	3180
857.263	3188
857.397	3264
857.53	3100
857.664	3180
857.797	3249
857.931	3249
858.064	3176
858.197	3230
858.331	3142
858.464	3097
858.597	2990
858.731	3119
858.864	3127
858.997	3051
859.13	3150
859.263	3123
859.396	3203
859.529	3077
859.662	3074
859.795	3062
859.928	3165
860.061	3268
860.194	3230
860.327	3131
860.46	3013
860.592	3222
860.725	3233
860.858	3249
860.99	3123
861.123	3032
861.256	3070
861.388	3131
861.521	3880
861.653	2998
861.786	2975
861.918	3009
862.05	3077
862.183	3089
862.315	3135
862.447	3176
862.58	3116
862.712	2960
862.844	2880
862.976	3024
863.108	3013
863.24	3268
863.372	2838
863.504	2971
863.636	2956
863.768	3043
863.9	2967
864.032	2876
864.164	2956
864.296	3009
864.428	3058
864.559	3058
864.691	3085
864.823	3028
864.954	3017
865.086	3028
865.217	2979
865.349	2982
865.48	2960
865.612	2975
865.743	3138
865.875	2971
866.006	2914
866.137	2982
866.269	2925
866.4	2941
866.531	2906
866.662	2857
866.793	2857
866.924	2895
867.055	2956
867.186	2937
867.317	2864
867.448	2845
867.579	2819
867.71	2834
867.841	2788
867.972	2895
868.103	2891
868.233	2861
868.364	2853
868.495	2925
868.625	3077
868.756	3176
868.886	2941
869.017	3039
869.147	3161
869.278	3131
869.408	2998
869.539	3013
869.669	3108
869.799	3005
869.929	3085
870.06	3085
870.19	3272
870.32	3272
870.45	3302
870.58	3370
870.71	3454
870.84	3435
870.97	3298
871.1	3211
871.23	3496
871.36	3466
871.489	3348
871.619	3374
871.749	3431
871.879	3428
872.008	3488
872.138	3344
872.267	3256
872.397	3154
872.526	3108
872.656	3024
872.785	3066
872.915	3237
873.044	3287
873.173	3203
873.303	3207
873.432	3195
873.561	3260
873.69	3123
873.819	3119
873.948	3150
874.077	3100
874.206	3028
874.335	3058
874.464	3188
874.593	3313
874.722	3222
874.851	3435
874.979	3321
875.108	3355
875.237	3157
875.365	3203
875.494	3165
875.623	3241
875.751	3093
875.88	3131
876.008	3161
876.136	3195
876.265	3374
876.393	3526
876.521	3416
876.65	3416
876.778	3329
876.906	3245
877.034	3157
877.162	3211
877.29	3135
877.418	3256
877.546	3211
877.674	3253
877.802	3237
877.93	3207
878.058	3188
878.185	3104
878.313	3192
878.441	3207
878.568	3070
878.696	3135
878.824	3222
878.951	3298
879.079	3382
879.206	3610
879.333	3439
879.461	3291
879.588	3313
879.715	3488
879.842	3599
879.97	3363
880.097	3142
880.224	3116
880.351	3176
880.478	3207
880.605	3161
880.732	3176
880.859	3488
880.986	3306
881.112	3340
881.239	3188
881.366	3074
881.493	3028
881.619	3017
881.746	3058
881.872	3077
881.999	3089
882.125	3100
882.252	3256
882.378	3275
882.505	3428
882.631	3253
882.757	3127
882.883	3173
883.01	3253
883.136	3165
883.262	3119
883.388	3108
883.514	3310
883.64	3332
883.766	3329
883.892	3146
884.018	3218
884.143	3397
884.269	3534
884.395	3188
884.52	3192
884.646	3169
884.772	3104
884.897	3108
885.023	3199
885.148	3332
885.274	3397
885.399	3351
885.524	3249
885.65	3222
885.775	3306
885.9	3272
886.025	3428
886.15	3344
886.275	3256
886.4	3211
886.525	3336
886.65	3241
886.775	3253
886.9	3515
887.025	3606
887.149	3401
887.274	3268
887.399	3169
887.523	3203
887.648	3195
887.773	3207
887.897	3355
888.021	3386
888.146	3279
888.27	3431
888.395	3545
888.519	3420
888.643	3439
888.767	3428
888.891	3329
889.015	3226
889.139	3241
889.263	3237
889.387	3389
889.511	3473
889.635	3454
889.759	3294
889.883	3260
890.006	3367
890.13	3507
890.254	3287
890.377	3348
890.501	3218
890.624	3176
890.748	3302
890.871	3161
890.995	3081
891.118	3051
891.241	3211
891.364	3207
891.488	3310
891.611	3188
891.734	3203
891.857	3310
891.98	3207
892.103	3294
892.226	3253
892.349	3211
892.471	3112
892.594	3214
892.717	3283
892.839	3241
892.962	3260
893.085	3355
893.207	3294
893.33	3169
893.452	3203
893.575	3321
893.697	3260
893.819	3420
893.941	3523
894.064	3462
894.186	3268
894.308	3287
894.43	3443
894.552	3538
894.674	3515
894.796	3264
894.918	3287
895.04	3279
895.161	3428
895.283	3431
895.405	3344
895.526	3336
895.648	3416
895.769	3428
895.891	3447
896.012	3447
896.134	3443
896.255	3378
896.376	3359
896.498	3374
896.619	3424
896.74	3386
896.861	3370
896.982	3675
897.103	3850
897.224	3591
897.345	3492
897.466	3409
897.587	3466
897.708	3663
897.828	3542
897.949	3431
898.07	3310
898.19	3363
898.311	3587
898.431	3443
898.552	3466
898.672	3561
898.792	3568
898.913	3534
899.033	3401
899.153	3291
899.273	3192
899.393	3291
899.513	3306
899.633	3313
899.753	3329
899.873	3313
899.993	3374
900.113	3340
900.232	3382
900.352	3336
900.472	3245
900.591	3188
900.711	3275
900.83	3237
900.95	3389
901.069	3477
901.189	3329
901.308	3150
901.427	3097
901.546	3203
901.665	3310
901.784	3310
901.904	3180
902.023	3135
902.141	2971
902.26	3001
902.379	3112
902.498	3043
902.617	3039
902.735	3192
902.854	3218
902.973	3222
903.091	3020
903.21	3055
903.328	3112
903.446	3093
903.565	3055
903.683	3184
903.801	3112
903.919	3192
904.038	3245
904.156	3176
904.274	3279
904.392	3275
904.51	3264
904.627	3298
904.745	3382
904.863	3488
904.981	3249
905.098	3150
905.216	3218
905.334	3268
905.451	3287
905.569	3317
905.686	3370
905.803	3435
905.921	3249
906.038	3393
906.155	3329
906.272	3279
906.389	3275
906.506	3165
906.623	3249
906.74	3233
906.857	3157
906.974	3237
907.091	3462
907.208	3564
907.324	3492
907.441	3420
907.557	3195
907.674	3211
907.79	3222
907.907	3291
908.023	3344
908.139	3367
908.256	3336
908.372	3374
908.488	3344
908.604	3279
908.72	3249
908.836	3291
908.952	3291
909.068	3348
909.184	3477
909.3	3420
909.415	3526
909.531	3477
909.647	3287
909.762	3355
909.878	3260
909.993	3374
910.108	3348
910.224	3363
910.339	3428
910.454	3370
910.57	3283
910.685	3256
910.8	3576
910.915	3542
911.03	3450
911.145	3302
911.259	3283
911.374	3355
911.489	3294
911.604	3230
911.718	3123
911.833	3195
911.947	3074
912.062	3028
912.176	3207
912.291	3275
912.405	3253
912.519	3454
912.633	3542
912.748	3409
912.862	3321
912.976	3211
913.09	3093
913.204	3150
913.318	3272
913.431	3344
913.545	3336
913.659	3469
913.772	3393
913.886	3256
914	3218
914.113	3416
914.226	3443
914.34	3420
914.453	3298
914.566	3431
914.68	3310
914.793	3355
914.906	3157
915.019	3127
915.132	3138
915.245	3222
915.358	3214
915.47	3256
915.583	3272
915.696	3332
915.809	3469
915.921	3428
916.034	3302
916.146	3329
916.259	3283
916.371	3389
916.483	3397
916.595	3279
916.708	3351
916.82	3351
916.932	3397
917.044	3405
917.156	3367
917.268	3294
917.38	3351
917.491	3321
917.603	3374
917.715	3481
917.826	3511
917.938	3412
918.049	3298
918.161	3428
918.272	3564
918.384	3610
918.495	3564
918.606	3378
918.717	3317
918.828	3416
918.939	3443
919.05	3313
919.161	3409
919.272	3230
919.383	3310
919.494	3553
919.604	3686
919.715	3534
919.826	3454
919.936	3496
920.047	3587
920.157	3595
920.267	3770
920.378	3625
920.488	3629
920.598	3774
920.708	3968
920.818	3857
920.928	3873
921.038	4055
921.148	3987
921.258	3751
921.368	3644
921.477	3610
921.587	3542
921.697	3488
921.806	3625
921.916	3507
922.025	3359
922.134	3416
922.244	3340
922.353	3466
922.462	3287
922.571	3256
922.68	3123
922.789	3138
922.898	3157
923.007	3108
923.116	3230
923.224	3237
923.333	3230
923.442	3112
923.55	3138
923.659	3138
923.767	3256
923.876	3142
923.984	3291
924.092	3116
924.201	3272
924.309	3222
924.417	3264
924.525	3180
924.633	3226
924.741	4246
924.849	3051
924.956	3279
925.064	3108
925.172	3047
925.279	3100
925.387	3184
925.494	3180
925.602	3424
925.709	3348
925.816	3226
925.924	3340
926.031	3355
926.138	3321
926.245	3424
926.352	3321
926.459	3424
926.566	3488
926.673	3344
926.779	3268
926.886	3268
926.993	3157
927.099	3127
927.206	3119
927.312	3142
927.419	3260
927.525	3214
927.631	3325
927.737	3161
927.843	3142
927.95	3066
928.056	3188
928.162	3226
928.267	3264
928.373	3926
928.479	3317
928.585	3081
928.69	3211
928.796	3310
928.901	3207
929.007	3070
929.112	3291
929.218	3176
929.323	3203
929.428	3150
929.533	3344
929.638	3161
929.743	3173
929.848	3317
929.953	3226
930.058	3180
930.163	3051
930.267	3074
930.372	3241
930.477	3058
930.581	3370
930.685	3218
930.79	3077
930.894	3192
930.998	3135
931.103	3302
931.207	3009
931.311	2960
931.415	2944
931.519	2796
931.623	2826
