Data from test_V78500241_1785.txt Node
Date: Fri Mar 25 16:27:34 CST 2022
User: usil
Spectrometer: V785-0024
Trigger mode: 0
Integration Time (sec): 4.000000E-1
Scans to average: 1
Nonlinearity correction enabled: false
Boxcar width: 0
Storing dark spectrum: false
XAxis mode: Wavelengths
Number of Pixels in Spectrum: 1024
>>>>>Begin Spectral Data<<<<<
801.071	2861
801.214	2899
801.356	2834
801.499	2887
801.641	2887
801.783	2906
801.926	3013
802.068	2979
802.211	3009
802.353	3036
802.496	2986
802.638	2975
802.78	3009
802.923	3062
803.065	3005
803.208	2902
803.35	2876
803.492	2922
803.635	2895
803.777	2754
803.919	2834
804.061	3188
804.204	2944
804.346	2941
804.488	2845
804.63	3024
804.773	2830
804.915	2887
805.057	3081
805.199	2902
805.341	2948
805.483	3017
805.626	3005
805.768	2933
805.91	3051
806.052	3104
806.194	3024
806.336	3245
806.478	3032
806.62	2922
806.762	2956
806.904	3055
807.046	3146
807.188	2994
807.33	2922
807.472	2952
807.614	2891
807.756	2963
807.898	2895
808.04	2842
808.182	2941
808.324	2960
808.465	2876
808.607	2876
808.749	2811
808.891	2861
809.033	2948
809.174	2883
809.316	2902
809.458	2902
809.6	2750
809.741	2769
809.883	2754
810.025	2811
810.166	2830
810.308	2845
810.45	2857
810.591	2746
810.733	2735
810.875	2815
811.016	2762
811.158	2777
811.299	2796
811.441	2933
811.582	2868
811.724	2815
811.865	2826
812.007	2914
812.148	2872
812.29	2815
812.431	2906
812.573	2956
812.714	2979
812.855	3005
812.997	3009
813.138	3100
813.279	3017
813.421	3005
813.562	2963
813.703	2864
813.845	2876
813.986	2708
814.127	2746
814.268	2849
814.41	2845
814.551	2842
814.692	2876
814.833	2769
814.974	2918
815.115	2963
815.256	2815
815.397	2811
815.539	2895
815.68	2777
815.821	2788
815.962	2925
816.103	2895
816.244	2861
816.385	2872
816.526	2990
816.666	2944
816.807	2754
816.948	2887
817.089	2857
817.23	2857
817.371	2766
817.512	2777
817.653	2826
817.793	2792
817.934	2876
818.075	2960
818.216	2960
818.356	2994
818.497	2883
818.638	2796
818.778	2834
818.919	2788
819.06	2754
819.2	2880
819.341	2807
819.481	2815
819.622	2941
819.762	3070
819.903	3058
820.043	2906
820.184	2910
820.324	2876
820.465	2963
820.605	3001
820.746	3005
820.886	2887
821.026	3077
821.167	3161
821.307	3268
821.447	3302
821.588	3214
821.728	3207
821.868	3230
822.008	3081
822.149	3154
822.289	3226
822.429	3104
822.569	3112
822.709	3150
822.849	3028
822.99	3043
823.13	3157
823.27	3173
823.41	3138
823.55	3100
823.69	3146
823.83	3203
823.97	3100
824.11	3013
824.25	2956
824.389	3058
824.529	3089
824.669	3058
824.809	3192
824.949	3245
825.089	3169
825.228	3146
825.368	2941
825.508	2891
825.648	2948
825.787	3001
825.927	3039
826.067	2960
826.206	2952
826.346	3032
826.485	3074
826.625	3081
826.765	3260
826.904	3214
827.044	2956
827.183	2933
827.323	2864
827.462	2960
827.601	2941
827.741	2929
827.88	2933
828.02	2838
828.159	2994
828.298	3001
828.437	3104
828.577	3043
828.716	3237
828.855	3020
828.994	2948
829.134	2868
829.273	2918
829.412	2872
829.551	2830
829.69	2861
829.829	2998
829.968	3116
830.107	3005
830.246	3013
830.385	2902
830.524	2883
830.663	2830
830.802	2735
830.941	2667
831.08	2659
831.219	2792
831.357	2727
831.496	2944
831.635	2712
831.774	2640
831.913	2663
832.051	2552
832.19	2564
832.329	2682
832.467	2560
832.606	2469
832.744	2571
832.883	2590
833.022	2560
833.16	2674
833.299	2701
833.437	2659
833.576	2663
833.714	2724
833.852	2716
833.991	2735
834.129	2823
834.267	2815
834.406	2781
834.544	2868
834.682	2838
834.821	2880
834.959	3047
835.097	2891
835.235	3020
835.373	2982
835.511	3017
835.65	2948
835.788	2929
835.926	2834
836.064	2838
836.202	2861
836.34	3085
836.478	3100
836.615	3062
836.753	3146
836.891	3226
837.029	3135
837.167	3123
837.305	3066
837.443	3013
837.58	2986
837.718	3116
837.856	3055
837.993	3001
838.131	3116
838.269	3085
838.406	3104
838.544	3081
838.681	2914
838.819	2925
838.956	2807
839.094	2823
839.231	2883
839.369	3032
839.506	3359
839.643	3211
839.781	2982
839.918	2986
840.055	3062
840.193	3020
840.33	3062
840.467	3100
840.604	3135
840.742	3378
840.879	3043
841.016	3009
841.153	3116
841.29	3317
841.427	3264
841.564	3226
841.701	3298
841.838	3222
841.975	3142
842.112	3188
842.249	3100
842.385	3032
842.522	3253
842.659	3108
842.796	3062
842.933	3116
843.069	3020
843.206	3028
843.343	3184
843.479	3081
843.616	3116
843.752	2944
843.889	2895
844.025	3077
844.162	2895
844.298	3066
844.435	2956
844.571	2899
844.708	3043
844.844	3161
844.98	3245
845.117	3176
845.253	3104
845.389	2975
845.525	3135
845.661	3123
845.798	3020
845.934	3112
846.07	3032
846.206	3207
846.342	3294
846.478	3218
846.614	3108
846.75	3051
846.886	3039
847.022	3211
847.158	3119
847.294	3192
847.429	3241
847.565	3245
847.701	3485
847.837	3039
847.972	3028
848.108	3142
848.244	3123
848.379	2967
848.515	2941
848.65	2941
848.786	2941
848.921	3036
849.057	3081
849.192	3150
849.328	3104
849.463	3135
849.598	3039
849.734	3017
849.869	2971
850.004	2891
850.14	2956
850.275	2868
850.41	2861
850.545	2849
850.68	2895
850.815	2956
850.95	2979
851.085	3157
851.22	3108
851.355	3032
851.49	2933
851.625	2986
851.76	2998
851.895	2895
852.03	2895
852.165	3036
852.299	3116
852.434	3142
852.569	3161
852.703	3142
852.838	3203
852.973	3321
853.107	3321
853.242	3154
853.376	3112
853.511	2956
853.645	3047
853.78	3233
853.914	3146
854.048	3081
854.183	3062
854.317	3199
854.451	3268
854.585	3104
854.72	3089
854.854	3195
854.988	3043
855.122	3100
855.256	2956
855.39	3108
855.524	3207
855.658	3188
855.792	3157
855.926	3169
856.06	3241
856.194	3253
856.327	3154
856.461	3077
856.595	3085
856.729	3089
856.862	3230
856.996	3127
857.13	3188
857.263	3237
857.397	3268
857.53	3131
857.664	3214
857.797	3260
857.931	3237
858.064	3142
858.197	3218
858.331	3119
858.464	3097
858.597	3020
858.731	3085
858.864	3108
858.997	3119
859.13	3154
859.263	3154
859.396	3214
859.529	3070
859.662	3058
859.795	3066
859.928	3131
860.061	3275
860.194	3294
860.327	3123
860.46	3100
860.592	3222
860.725	3279
860.858	3230
860.99	3077
861.123	3066
861.256	3051
861.388	3100
861.521	3842
861.653	2982
861.786	2990
861.918	2956
862.05	3036
862.183	3097
862.315	3161
862.447	3222
862.58	3093
862.712	2895
862.844	2842
862.976	3024
863.108	3032
863.24	3389
863.372	2880
863.504	2971
863.636	2982
863.768	3039
863.9	2990
864.032	2941
864.164	2952
864.296	2998
864.428	3116
864.559	3097
864.691	3047
864.823	3058
864.954	3020
865.086	3074
865.217	3013
865.349	2933
865.48	3001
865.612	2990
865.743	3127
865.875	2960
866.006	2925
866.137	2986
866.269	2948
866.4	2956
866.531	2929
866.662	2887
866.793	2891
866.924	2887
867.055	2982
867.186	2941
867.317	2887
867.448	2895
867.579	2842
867.71	2815
867.841	2823
867.972	2861
868.103	2891
868.233	2891
868.364	2819
868.495	2906
868.625	3077
868.756	3165
868.886	2960
869.017	3005
869.147	3195
869.278	3154
869.408	3028
869.539	3032
869.669	3093
869.799	3070
869.929	3104
870.06	3097
870.19	3306
870.32	3279
870.45	3367
870.58	3367
870.71	3466
870.84	3473
870.97	3306
871.1	3241
871.23	3496
871.36	3435
871.489	3351
871.619	3378
871.749	3382
871.879	3435
872.008	3458
872.138	3367
872.267	3245
872.397	3131
872.526	3108
872.656	3013
872.785	3089
872.915	3214
873.044	3294
873.173	3199
873.303	3211
873.432	3230
873.561	3207
873.69	3161
873.819	3093
873.948	3180
874.077	3150
874.206	3043
874.335	3112
874.464	3226
874.593	3348
874.722	3233
874.851	3378
874.979	3329
875.108	3302
875.237	3192
875.365	3173
875.494	3157
875.623	3184
875.751	3070
875.88	3131
876.008	3161
876.136	3203
876.265	3367
876.393	3496
876.521	3409
876.65	3382
876.778	3359
876.906	3230
877.034	3169
877.162	3222
877.29	3184
877.418	3264
877.546	3233
877.674	3268
877.802	3184
877.93	3199
878.058	3180
878.185	3112
878.313	3184
878.441	3195
878.568	3043
878.696	3154
878.824	3245
878.951	3253
879.079	3431
879.206	3599
879.333	3405
879.461	3340
879.588	3332
879.715	3466
879.842	3561
879.97	3344
880.097	3138
880.224	3116
880.351	3184
880.478	3249
880.605	3211
880.732	3176
880.859	3473
880.986	3321
881.112	3275
881.239	3222
881.366	3070
881.493	3039
881.619	3058
881.746	3039
881.872	3077
881.999	3104
882.125	3135
882.252	3230
882.378	3310
882.505	3428
882.631	3279
882.757	3146
882.883	3173
883.01	3214
883.136	3116
883.262	3100
883.388	3089
883.514	3321
883.64	3363
883.766	3306
883.892	3180
884.018	3260
884.143	3389
884.269	3576
884.395	3192
884.52	3184
884.646	3169
884.772	3135
884.897	3062
885.023	3169
885.148	3336
885.274	3386
885.399	3348
885.524	3272
885.65	3283
885.775	3310
885.9	3249
886.025	3428
886.15	3355
886.275	3306
886.4	3230
886.525	3291
886.65	3260
886.775	3268
886.9	3454
887.025	3652
887.149	3397
887.274	3218
887.399	3127
887.523	3226
887.648	3192
887.773	3180
887.897	3386
888.021	3412
888.146	3275
888.27	3462
888.395	3507
888.519	3431
888.643	3439
888.767	3473
888.891	3317
889.015	3241
889.139	3294
889.263	3268
889.387	3363
889.511	3507
889.635	3443
889.759	3279
889.883	3302
890.006	3374
890.13	3473
890.254	3256
890.377	3367
890.501	3218
890.624	3207
890.748	3313
890.871	3222
890.995	3100
891.118	3074
891.241	3207
891.364	3237
891.488	3344
891.611	3211
891.734	3218
891.857	3249
891.98	3218
892.103	3325
892.226	3249
892.349	3218
892.471	3100
892.594	3264
892.717	3298
892.839	3283
892.962	3313
893.085	3344
893.207	3294
893.33	3135
893.452	3192
893.575	3367
893.697	3249
893.819	3477
893.941	3504
894.064	3485
894.186	3302
894.308	3268
894.43	3439
894.552	3526
894.674	3473
894.796	3291
894.918	3321
895.04	3264
895.161	3424
895.283	3382
895.405	3340
895.526	3355
895.648	3412
895.769	3443
895.891	3458
896.012	3496
896.134	3492
896.255	3416
896.376	3389
896.498	3355
896.619	3420
896.74	3363
896.861	3412
896.982	3660
897.103	3827
897.224	3599
897.345	3481
897.466	3473
897.587	3488
897.708	3622
897.828	3549
897.949	3439
898.07	3317
898.19	3416
898.311	3591
898.431	3492
898.552	3515
898.672	3576
898.792	3610
898.913	3500
899.033	3435
899.153	3302
899.273	3237
899.393	3294
899.513	3287
899.633	3329
899.753	3302
899.873	3294
899.993	3397
900.113	3321
900.232	3386
900.352	3313
900.472	3275
900.591	3188
900.711	3287
900.83	3230
900.95	3454
901.069	3481
901.189	3351
901.308	3188
901.427	3138
901.546	3218
901.665	3287
901.784	3325
901.904	3195
902.023	3142
902.141	3013
902.26	2922
902.379	3146
902.498	3005
902.617	3055
902.735	3226
902.854	3233
902.973	3169
903.091	3032
903.21	3077
903.328	3123
903.446	3123
903.565	3097
903.683	3195
903.801	3150
903.919	3192
904.038	3283
904.156	3138
904.274	3237
904.392	3253
904.51	3298
904.627	3287
904.745	3401
904.863	3519
904.981	3272
905.098	3161
905.216	3245
905.334	3287
905.451	3302
905.569	3306
905.686	3389
905.803	3409
905.921	3306
906.038	3424
906.155	3348
906.272	3226
906.389	3317
906.506	3222
906.623	3264
906.74	3283
906.857	3192
906.974	3226
907.091	3473
907.208	3576
907.324	3443
907.441	3374
907.557	3268
907.674	3233
907.79	3230
907.907	3249
908.023	3401
908.139	3374
908.256	3313
908.372	3321
908.488	3329
908.604	3245
908.72	3222
908.836	3272
908.952	3283
909.068	3317
909.184	3511
909.3	3412
909.415	3488
909.531	3485
909.647	3291
909.762	3256
909.878	3249
909.993	3378
910.108	3340
910.224	3321
910.339	3420
910.454	3340
910.57	3283
910.685	3233
910.8	3595
910.915	3530
911.03	3439
911.145	3256
911.259	3298
911.374	3283
911.489	3253
911.604	3207
911.718	3093
911.833	3173
911.947	3058
912.062	3009
912.176	3169
912.291	3195
912.405	3188
912.519	3454
912.633	3447
912.748	3329
912.862	3241
912.976	3150
913.09	3032
913.204	3150
913.318	3214
913.431	3340
913.545	3363
913.659	3416
913.772	3329
913.886	3184
914	3203
914.113	3329
914.226	3439
914.34	3336
914.453	3184
914.566	3439
914.68	3310
914.793	3287
914.906	3138
915.019	3112
915.132	3085
915.245	3184
915.358	3180
915.47	3237
915.583	3256
915.696	3302
915.809	3412
915.921	3412
916.034	3226
916.146	3226
916.259	3245
916.371	3397
916.483	3359
916.595	3279
916.708	3336
916.82	3359
916.932	3351
917.044	3313
917.156	3351
917.268	3245
917.38	3287
917.491	3283
917.603	3378
917.715	3462
917.826	3416
917.938	3405
918.049	3253
918.161	3431
918.272	3515
918.384	3584
918.495	3466
918.606	3336
918.717	3279
918.828	3359
918.939	3412
919.05	3272
919.161	3340
919.272	3195
919.383	3294
919.494	3519
919.604	3675
919.715	3500
919.826	3409
919.936	3424
920.047	3576
920.157	3530
920.267	3751
920.378	3595
920.488	3568
920.598	3785
920.708	3945
920.818	3827
920.928	3838
921.038	3994
921.148	4036
921.258	3679
921.368	3648
921.477	3595
921.587	3538
921.697	3443
921.806	3622
921.916	3504
922.025	3359
922.134	3370
922.244	3275
922.353	3416
922.462	3313
922.571	3203
922.68	3112
922.789	3097
922.898	3138
923.007	3131
923.116	3211
923.224	3199
923.333	3165
923.442	3077
923.55	3104
923.659	3138
923.767	3226
923.876	3127
923.984	3211
924.092	3062
924.201	3203
924.309	3192
924.417	3222
924.525	3199
924.633	3272
924.741	3991
924.849	3058
924.956	3249
925.064	3097
925.172	3039
925.279	3108
925.387	3218
925.494	3165
925.602	3355
925.709	3325
925.816	3165
925.924	3298
926.031	3393
926.138	3351
926.245	3359
926.352	3226
926.459	3424
926.566	3462
926.673	3310
926.779	3272
926.886	3245
926.993	3188
927.099	3093
927.206	3100
927.312	3123
927.419	3176
927.525	3188
927.631	3272
927.737	3195
927.843	3180
927.95	3036
928.056	3116
928.162	3138
928.267	3241
928.373	3876
928.479	3306
928.585	3043
928.69	3218
928.796	3241
928.901	3138
929.007	3039
929.112	3195
929.218	3180
929.323	3173
929.428	3161
929.533	3302
929.638	3127
929.743	3184
929.848	3272
929.953	3226
930.058	3123
930.163	2998
930.267	3043
930.372	3218
930.477	3039
930.581	3294
930.685	3180
930.79	3070
930.894	3081
930.998	3108
931.103	3321
931.207	2925
931.311	2925
931.415	2922
931.519	2781
931.623	2762
