Data from test_V78500241_1477.txt Node
Date: Fri Mar 25 16:25:26 CST 2022
User: usil
Spectrometer: V785-0024
Trigger mode: 0
Integration Time (sec): 4.000000E-1
Scans to average: 1
Nonlinearity correction enabled: false
Boxcar width: 0
Storing dark spectrum: false
XAxis mode: Wavelengths
Number of Pixels in Spectrum: 1024
>>>>>Begin Spectral Data<<<<<
801.071	2910
801.214	2975
801.356	2895
801.499	2933
801.641	2880
801.783	2914
801.926	3093
802.068	3005
802.211	3066
802.353	3085
802.496	3009
802.638	2994
802.78	3066
802.923	3100
803.065	3036
803.208	2899
803.35	2929
803.492	2941
803.635	2929
803.777	2758
803.919	2853
804.061	3188
804.204	2963
804.346	2922
804.488	2895
804.63	2998
804.773	2914
804.915	2929
805.057	3108
805.199	2975
805.341	2998
805.483	3100
805.626	3058
805.768	2994
805.91	3081
806.052	3131
806.194	3074
806.336	3249
806.478	3077
806.62	2994
806.762	3017
806.904	3066
807.046	3161
807.188	3017
807.33	2948
807.472	3005
807.614	2929
807.756	3024
807.898	2986
808.04	2899
808.182	2994
808.324	2971
808.465	2937
808.607	2902
808.749	2864
808.891	2891
809.033	3028
809.174	2979
809.316	2914
809.458	2933
809.6	2804
809.741	2769
809.883	2785
810.025	2876
810.166	2864
810.308	2842
810.45	2902
810.591	2792
810.733	2800
810.875	2868
811.016	2811
811.158	2777
811.299	2857
811.441	2952
811.582	2929
811.724	2853
811.865	2807
812.007	2933
812.148	2891
812.29	2891
812.431	2925
812.573	2963
812.714	2979
812.855	3089
812.997	3085
813.138	3138
813.279	3058
813.421	2990
813.562	2956
813.703	2872
813.845	2933
813.986	2777
814.127	2754
814.268	2853
814.41	2838
814.551	2842
814.692	2868
814.833	2834
814.974	2914
815.115	2990
815.256	2849
815.397	2857
815.539	2910
815.68	2811
815.821	2769
815.962	2979
816.103	2956
816.244	2883
816.385	2880
816.526	2986
816.666	2952
816.807	2792
816.948	2883
817.089	2933
817.23	2868
817.371	2800
817.512	2804
817.653	2864
817.793	2807
817.934	2891
818.075	2937
818.216	3017
818.356	3028
818.497	2918
818.638	2807
818.778	2792
818.919	2826
819.06	2800
819.2	2895
819.341	2819
819.481	2830
819.622	2967
819.762	3146
819.903	3055
820.043	2944
820.184	2891
820.324	2925
820.465	3039
820.605	3020
820.746	3032
820.886	2948
821.026	3127
821.167	3169
821.307	3294
821.447	3313
821.588	3245
821.728	3241
821.868	3211
822.008	3135
822.149	3226
822.289	3203
822.429	3116
822.569	3074
822.709	3199
822.849	3047
822.99	3055
823.13	3161
823.27	3237
823.41	3119
823.55	3165
823.69	3165
823.83	3176
823.97	3142
824.11	2990
824.25	3043
824.389	3074
824.529	3138
824.669	3077
824.809	3207
824.949	3283
825.089	3237
825.228	3131
825.368	3047
825.508	2990
825.648	2982
825.787	3032
825.927	3009
826.067	3013
826.206	2960
826.346	3100
826.485	3097
826.625	3154
826.765	3313
826.904	3207
827.044	2971
827.183	2906
827.323	2880
827.462	3001
827.601	2971
827.741	2944
827.88	2948
828.02	2906
828.159	2998
828.298	3032
828.437	3116
828.577	3032
828.716	3233
828.855	3119
828.994	2929
829.134	2902
829.273	2937
829.412	2872
829.551	2861
829.69	2895
829.829	2975
829.968	3131
830.107	3043
830.246	3005
830.385	2929
830.524	2895
830.663	2842
830.802	2754
830.941	2712
831.08	2674
831.219	2743
831.357	2758
831.496	2982
831.635	2705
831.774	2686
831.913	2670
832.051	2545
832.19	2632
832.329	2712
832.467	2556
832.606	2484
832.744	2632
832.883	2610
833.022	2629
833.16	2670
833.299	2716
833.437	2697
833.576	2724
833.714	2720
833.852	2727
833.991	2762
834.129	2845
834.267	2830
834.406	2769
834.544	2887
834.682	2864
834.821	2834
834.959	3077
835.097	2910
835.235	3074
835.373	3047
835.511	3009
835.65	2948
835.788	2979
835.926	2834
836.064	2845
836.202	2849
836.34	3081
836.478	3173
836.615	3112
836.753	3157
836.891	3192
837.029	3173
837.167	3123
837.305	3085
837.443	3070
837.58	2960
837.718	3146
837.856	3070
837.993	3062
838.131	3123
838.269	3108
838.406	3100
838.544	3108
838.681	2971
838.819	2933
838.956	2834
839.094	2838
839.231	2918
839.369	3051
839.506	3397
839.643	3222
839.781	3058
839.918	2963
840.055	3047
840.193	3077
840.33	3081
840.467	3123
840.604	3127
840.742	3367
840.879	3051
841.016	3058
841.153	3119
841.29	3363
841.427	3329
841.564	3272
841.701	3302
841.838	3253
841.975	3142
842.112	3218
842.249	3108
842.385	3043
842.522	3275
842.659	3058
842.796	3058
842.933	3127
843.069	3043
843.206	3020
843.343	3192
843.479	3077
843.616	3131
843.752	2899
843.889	2887
844.025	3085
844.162	2906
844.298	3055
844.435	2963
844.571	2948
844.708	3093
844.844	3199
844.98	3214
845.117	3195
845.253	3097
845.389	2998
845.525	3112
845.661	3123
845.798	2986
845.934	3119
846.07	3062
846.206	3214
846.342	3317
846.478	3218
846.614	3062
846.75	3036
846.886	3009
847.022	3237
847.158	3097
847.294	3211
847.429	3256
847.565	3222
847.701	3496
847.837	3039
847.972	3001
848.108	3150
848.244	3131
848.379	3005
848.515	2967
848.65	2956
848.786	2956
848.921	3036
849.057	3165
849.192	3146
849.328	3116
849.463	3104
849.598	3074
849.734	3055
849.869	2975
850.004	2944
850.14	2990
850.275	2910
850.41	2838
850.545	2872
850.68	2952
850.815	2979
850.95	2975
851.085	3253
851.22	3070
851.355	3058
851.49	3001
851.625	3039
851.76	3055
851.895	2971
852.03	2963
852.165	3119
852.299	3112
852.434	3173
852.569	3180
852.703	3207
852.838	3287
852.973	3382
853.107	3389
853.242	3165
853.376	3146
853.511	3013
853.645	3085
853.78	3287
853.914	3131
854.048	3161
854.183	3119
854.317	3195
854.451	3348
854.585	3173
854.72	3116
854.854	3275
854.988	3112
855.122	3123
855.256	3043
855.39	3142
855.524	3306
855.658	3264
855.792	3203
855.926	3233
856.06	3279
856.194	3313
856.327	3180
856.461	3108
856.595	3123
856.729	3116
856.862	3214
856.996	3180
857.13	3218
857.263	3287
857.397	3310
857.53	3142
857.664	3192
857.797	3306
857.931	3306
858.064	3214
858.197	3256
858.331	3195
858.464	3146
858.597	3089
858.731	3188
858.864	3184
858.997	3108
859.13	3173
859.263	3211
859.396	3211
859.529	3112
859.662	3131
859.795	3070
859.928	3176
860.061	3298
860.194	3344
860.327	3150
860.46	3135
860.592	3275
860.725	3275
860.858	3268
860.99	3112
861.123	3085
861.256	3074
861.388	3180
861.521	3896
861.653	3074
861.786	3009
861.918	3001
862.05	3108
862.183	3157
862.315	3180
862.447	3218
862.58	3150
862.712	2994
862.844	2891
862.976	3047
863.108	3013
863.24	3359
863.372	2925
863.504	3028
863.636	3013
863.768	3089
863.9	3001
864.032	2960
864.164	2975
864.296	3058
864.428	3097
864.559	3123
864.691	3116
864.823	3081
864.954	3100
865.086	3081
865.217	3005
865.349	3009
865.48	2982
865.612	3062
865.743	3173
865.875	3032
866.006	2986
866.137	3017
866.269	3024
866.4	2948
866.531	2963
866.662	2906
866.793	2914
866.924	2925
867.055	2990
867.186	2944
867.317	2922
867.448	2857
867.579	2876
867.71	2891
867.841	2861
867.972	2944
868.103	2967
868.233	2941
868.364	2880
868.495	2914
868.625	3097
868.756	3169
868.886	3036
869.017	3036
869.147	3226
869.278	3176
869.408	3062
869.539	3097
869.669	3165
869.799	3108
869.929	3203
870.06	3127
870.19	3348
870.32	3313
870.45	3287
870.58	3439
870.71	3477
870.84	3454
870.97	3336
871.1	3313
871.23	3557
871.36	3492
871.489	3389
871.619	3393
871.749	3477
871.879	3481
872.008	3458
872.138	3405
872.267	3294
872.397	3161
872.526	3123
872.656	3074
872.785	3142
872.915	3272
873.044	3355
873.173	3253
873.303	3275
873.432	3279
873.561	3279
873.69	3180
873.819	3188
873.948	3245
874.077	3154
874.206	3085
874.335	3116
874.464	3268
874.593	3374
874.722	3272
874.851	3416
874.979	3374
875.108	3351
875.237	3211
875.365	3245
875.494	3161
875.623	3268
875.751	3112
875.88	3173
876.008	3199
876.136	3256
876.265	3389
876.393	3557
876.521	3428
876.65	3420
876.778	3370
876.906	3298
877.034	3237
877.162	3245
877.29	3230
877.418	3260
877.546	3264
877.674	3310
877.802	3279
877.93	3275
878.058	3245
878.185	3138
878.313	3226
878.441	3294
878.568	3119
878.696	3218
878.824	3283
878.951	3348
879.079	3492
879.206	3618
879.333	3492
879.461	3351
879.588	3378
879.715	3500
879.842	3644
879.97	3378
880.097	3180
880.224	3176
880.351	3211
880.478	3264
880.605	3253
880.732	3249
880.859	3538
880.986	3329
881.112	3378
881.239	3230
881.366	3108
881.493	3062
881.619	3028
881.746	3100
881.872	3138
881.999	3112
882.125	3176
882.252	3287
882.378	3298
882.505	3458
882.631	3355
882.757	3188
882.883	3233
883.01	3272
883.136	3123
883.262	3127
883.388	3180
883.514	3332
883.64	3412
883.766	3363
883.892	3214
884.018	3283
884.143	3431
884.269	3519
884.395	3203
884.52	3192
884.646	3195
884.772	3138
884.897	3131
885.023	3249
885.148	3340
885.274	3435
885.399	3401
885.524	3340
885.65	3317
885.775	3359
885.9	3321
886.025	3462
886.15	3367
886.275	3321
886.4	3222
886.525	3310
886.65	3260
886.775	3294
886.9	3553
887.025	3656
887.149	3443
887.274	3310
887.399	3207
887.523	3241
887.648	3199
887.773	3203
887.897	3428
888.021	3428
888.146	3298
888.27	3458
888.395	3542
888.519	3439
888.643	3481
888.767	3485
888.891	3329
889.015	3294
889.139	3313
889.263	3306
889.387	3435
889.511	3519
889.635	3458
889.759	3287
889.883	3332
890.006	3405
890.13	3481
890.254	3291
890.377	3393
890.501	3195
890.624	3195
890.748	3348
890.871	3222
890.995	3116
891.118	3062
891.241	3195
891.364	3230
891.488	3355
891.611	3192
891.734	3237
891.857	3294
891.98	3253
892.103	3344
892.226	3272
892.349	3249
892.471	3161
892.594	3272
892.717	3298
892.839	3306
892.962	3298
893.085	3355
893.207	3272
893.33	3203
893.452	3245
893.575	3359
893.697	3249
893.819	3511
893.941	3530
894.064	3500
894.186	3264
894.308	3268
894.43	3428
894.552	3534
894.674	3485
894.796	3279
894.918	3348
895.04	3344
895.161	3469
895.283	3416
895.405	3329
895.526	3351
895.648	3458
895.769	3435
895.891	3492
896.012	3519
896.134	3443
896.255	3412
896.376	3428
896.498	3367
896.619	3443
896.74	3386
896.861	3420
896.982	3698
897.103	3861
897.224	3595
897.345	3523
897.466	3488
897.587	3469
897.708	3660
897.828	3553
897.949	3424
898.07	3359
898.19	3443
898.311	3652
898.431	3485
898.552	3564
898.672	3644
898.792	3603
898.913	3515
899.033	3416
899.153	3329
899.273	3272
899.393	3302
899.513	3310
899.633	3325
899.753	3317
899.873	3332
899.993	3389
900.113	3363
900.232	3393
900.352	3393
900.472	3268
900.591	3237
900.711	3317
900.83	3237
900.95	3420
901.069	3511
901.189	3363
901.308	3150
901.427	3169
901.546	3195
901.665	3336
901.784	3359
901.904	3230
902.023	3176
902.141	3036
902.26	3036
902.379	3146
902.498	3058
902.617	3070
902.735	3249
902.854	3272
902.973	3211
903.091	3070
903.21	3077
903.328	3176
903.446	3112
903.565	3135
903.683	3226
903.801	3154
903.919	3272
904.038	3298
904.156	3207
904.274	3310
904.392	3256
904.51	3294
904.627	3412
904.745	3439
904.863	3504
904.981	3291
905.098	3199
905.216	3260
905.334	3287
905.451	3336
905.569	3397
905.686	3428
905.803	3443
905.921	3306
906.038	3389
906.155	3386
906.272	3313
906.389	3340
906.506	3260
906.623	3275
906.74	3279
906.857	3203
906.974	3275
907.091	3462
907.208	3549
907.324	3500
907.441	3359
907.557	3237
907.674	3253
907.79	3207
907.907	3264
908.023	3363
908.139	3367
908.256	3329
908.372	3367
908.488	3378
908.604	3275
908.72	3268
908.836	3298
908.952	3306
909.068	3332
909.184	3492
909.3	3359
909.415	3511
909.531	3450
909.647	3264
909.762	3329
909.878	3287
909.993	3363
910.108	3382
910.224	3370
910.339	3412
910.454	3348
910.57	3287
910.685	3287
910.8	3591
910.915	3572
911.03	3435
911.145	3256
911.259	3306
911.374	3329
911.489	3256
911.604	3165
911.718	3184
911.833	3188
911.947	3024
912.062	2971
912.176	3203
912.291	3226
912.405	3241
912.519	3428
912.633	3473
912.748	3348
912.862	3287
912.976	3222
913.09	3085
913.204	3154
913.318	3233
913.431	3367
913.545	3382
913.659	3386
913.772	3317
913.886	3249
914	3237
914.113	3389
914.226	3462
914.34	3374
914.453	3226
914.566	3416
914.68	3306
914.793	3332
914.906	3146
915.019	3131
915.132	3055
915.245	3222
915.358	3199
915.47	3279
915.583	3253
915.696	3317
915.809	3412
915.921	3458
916.034	3275
916.146	3268
916.259	3218
916.371	3389
916.483	3374
916.595	3264
916.708	3378
916.82	3279
916.932	3340
917.044	3397
917.156	3370
917.268	3249
917.38	3336
917.491	3306
917.603	3363
917.715	3450
917.826	3492
917.938	3428
918.049	3302
918.161	3412
918.272	3603
918.384	3584
918.495	3473
918.606	3363
918.717	3310
918.828	3424
918.939	3443
919.05	3310
919.161	3393
919.272	3184
919.383	3291
919.494	3545
919.604	3736
919.715	3515
919.826	3439
919.936	3473
920.047	3572
920.157	3584
920.267	3808
920.378	3595
920.488	3557
920.598	3808
920.708	3991
920.818	3861
920.928	3865
921.038	4036
921.148	4010
921.258	3701
921.368	3610
921.477	3625
921.587	3580
921.697	3462
921.806	3652
921.916	3545
922.025	3313
922.134	3401
922.244	3355
922.353	3401
922.462	3302
922.571	3256
922.68	3127
922.789	3066
922.898	3135
923.007	3116
923.116	3214
923.224	3176
923.333	3199
923.442	3104
923.55	3116
923.659	3157
923.767	3211
923.876	3081
923.984	3256
924.092	3108
924.201	3237
924.309	3195
924.417	3230
924.525	3176
924.633	3249
924.741	4215
924.849	3062
924.956	3291
925.064	3104
925.172	3028
925.279	3089
925.387	3207
925.494	3211
925.602	3336
925.709	3348
925.816	3195
925.924	3294
926.031	3401
926.138	3355
926.245	3397
926.352	3264
926.459	3435
926.566	3477
926.673	3317
926.779	3275
926.886	3237
926.993	3188
927.099	3127
927.206	3100
927.312	3131
927.419	3253
927.525	3207
927.631	3275
927.737	3138
927.843	3150
927.95	3017
928.056	3135
928.162	3211
928.267	3302
928.373	3766
928.479	3313
928.585	3066
928.69	3222
928.796	3256
928.901	3173
929.007	3066
929.112	3214
929.218	3188
929.323	3150
929.428	3154
929.533	3325
929.638	3135
929.743	3146
929.848	3237
929.953	3218
930.058	3131
930.163	3013
930.267	3043
930.372	3241
930.477	3043
930.581	3287
930.685	3188
930.79	3070
930.894	3135
930.998	3058
931.103	3279
931.207	2986
931.311	2944
931.415	2922
931.519	2792
931.623	2819
