Data from test_V78500241_1533.txt Node
Date: Fri Mar 25 16:25:49 CST 2022
User: usil
Spectrometer: V785-0024
Trigger mode: 0
Integration Time (sec): 4.000000E-1
Scans to average: 1
Nonlinearity correction enabled: false
Boxcar width: 0
Storing dark spectrum: false
XAxis mode: Wavelengths
Number of Pixels in Spectrum: 1024
>>>>>Begin Spectral Data<<<<<
801.071	2895
801.214	2925
801.356	2864
801.499	2910
801.641	2872
801.783	2906
801.926	3009
802.068	2979
802.211	2979
802.353	3020
802.496	2960
802.638	2990
802.78	3005
802.923	3070
803.065	2990
803.208	2929
803.35	2891
803.492	2933
803.635	2918
803.777	2746
803.919	2838
804.061	3241
804.204	2944
804.346	2929
804.488	2861
804.63	3005
804.773	2880
804.915	2922
805.057	3043
805.199	2944
805.341	2975
805.483	3036
805.626	2979
805.768	2937
805.91	3081
806.052	3093
806.194	3036
806.336	3214
806.478	3036
806.62	2941
806.762	2979
806.904	3039
807.046	3180
807.188	2994
807.33	2876
807.472	3001
807.614	2876
807.756	3009
807.898	2922
808.04	2910
808.182	2975
808.324	2906
808.465	2861
808.607	2872
808.749	2762
808.891	2819
809.033	2941
809.174	2971
809.316	2933
809.458	2880
809.6	2739
809.741	2788
809.883	2766
810.025	2861
810.166	2830
810.308	2849
810.45	2807
810.591	2811
810.733	2743
810.875	2830
811.016	2735
811.158	2754
811.299	2800
811.441	2910
811.582	2902
811.724	2842
811.865	2868
812.007	2895
812.148	2899
812.29	2819
812.431	2880
812.573	2902
812.714	2971
812.855	3074
812.997	3055
813.138	3097
813.279	2998
813.421	2986
813.562	2922
813.703	2887
813.845	2895
813.986	2781
814.127	2689
814.268	2811
814.41	2853
814.551	2811
814.692	2849
814.833	2800
814.974	2910
815.115	2941
815.256	2811
815.397	2823
815.539	2883
815.68	2792
815.821	2766
815.962	2941
816.103	2887
816.244	2880
816.385	2891
816.526	2929
816.666	2925
816.807	2739
816.948	2876
817.089	2864
817.23	2830
817.371	2777
817.512	2800
817.653	2823
817.793	2838
817.934	2902
818.075	2967
818.216	2990
818.356	3047
818.497	2895
818.638	2746
818.778	2792
818.919	2792
819.06	2758
819.2	2937
819.341	2800
819.481	2788
819.622	2891
819.762	3074
819.903	3051
820.043	2910
820.184	2933
820.324	2891
820.465	2998
820.605	3017
820.746	3020
820.886	2929
821.026	3097
821.167	3142
821.307	3256
821.447	3268
821.588	3249
821.728	3192
821.868	3195
822.008	3077
822.149	3169
822.289	3218
822.429	3116
822.569	3081
822.709	3169
822.849	2975
822.99	3058
823.13	3161
823.27	3203
823.41	3104
823.55	3135
823.69	3150
823.83	3165
823.97	3089
824.11	2990
824.25	2963
824.389	3100
824.529	3104
824.669	3081
824.809	3192
824.949	3294
825.089	3218
825.228	3150
825.368	3013
825.508	2952
825.648	2941
825.787	3001
825.927	3032
826.067	2956
826.206	2971
826.346	3043
826.485	3089
826.625	3142
826.765	3256
826.904	3233
827.044	2998
827.183	2952
827.323	2880
827.462	2990
827.601	2910
827.741	2933
827.88	2960
828.02	2849
828.159	2925
828.298	3032
828.437	3138
828.577	3039
828.716	3230
828.855	3081
828.994	2895
829.134	2834
829.273	2948
829.412	2861
829.551	2849
829.69	2868
829.829	2963
829.968	3119
830.107	3013
830.246	3051
830.385	2906
830.524	2857
830.663	2819
830.802	2727
830.941	2636
831.08	2640
831.219	2758
831.357	2743
831.496	2941
831.635	2670
831.774	2632
831.913	2632
832.051	2541
832.19	2552
832.329	2693
832.467	2541
832.606	2503
832.744	2571
832.883	2583
833.022	2587
833.16	2663
833.299	2655
833.437	2701
833.576	2667
833.714	2731
833.852	2735
833.991	2769
834.129	2807
834.267	2815
834.406	2788
834.544	2868
834.682	2895
834.821	2849
834.959	3047
835.097	2944
835.235	3036
835.373	2986
835.511	3024
835.65	2952
835.788	2948
835.926	2823
836.064	2815
836.202	2849
836.34	3051
836.478	3169
836.615	3013
836.753	3123
836.891	3211
837.029	3188
837.167	3100
837.305	3047
837.443	3013
837.58	2963
837.718	3104
837.856	3077
837.993	3051
838.131	3085
838.269	3089
838.406	3047
838.544	3085
838.681	2937
838.819	2929
838.956	2796
839.094	2815
839.231	2918
839.369	2986
839.506	3374
839.643	3207
839.781	3028
839.918	2948
840.055	3017
840.193	3036
840.33	3036
840.467	3074
840.604	3146
840.742	3443
840.879	3058
841.016	3024
841.153	3085
841.29	3317
841.427	3268
841.564	3256
841.701	3340
841.838	3222
841.975	3157
842.112	3218
842.249	3070
842.385	3028
842.522	3241
842.659	3058
842.796	3047
842.933	3081
843.069	3058
843.206	3028
843.343	3180
843.479	3104
843.616	3123
843.752	2880
843.889	2807
844.025	3058
844.162	2887
844.298	3043
844.435	2944
844.571	2899
844.708	3062
844.844	3188
844.98	3226
845.117	3192
845.253	3017
845.389	3001
845.525	3112
845.661	3112
845.798	3013
845.934	3142
846.07	3051
846.206	3214
846.342	3302
846.478	3214
846.614	3100
846.75	3024
846.886	3066
847.022	3192
847.158	3127
847.294	3195
847.429	3222
847.565	3222
847.701	3492
847.837	3013
847.972	2967
848.108	3135
848.244	3119
848.379	3005
848.515	2952
848.65	2922
848.786	2960
848.921	2975
849.057	3077
849.192	3112
849.328	3051
849.463	3116
849.598	3013
849.734	3024
849.869	3005
850.004	2933
850.14	2952
850.275	2906
850.41	2834
850.545	2929
850.68	2944
850.815	2941
850.95	2963
851.085	3207
851.22	3089
851.355	3039
851.49	3009
851.625	3047
851.76	3024
851.895	2906
852.03	2876
852.165	2982
852.299	3116
852.434	3176
852.569	3169
852.703	3146
852.838	3195
852.973	3344
853.107	3370
853.242	3150
853.376	3093
853.511	2944
853.645	3066
853.78	3203
853.914	3123
854.048	3081
854.183	3081
854.317	3188
854.451	3287
854.585	3085
854.72	3077
854.854	3230
854.988	3032
855.122	3081
855.256	2952
855.39	3093
855.524	3192
855.658	3188
855.792	3157
855.926	3211
856.06	3222
856.194	3253
856.327	3154
856.461	3051
856.595	3058
856.729	3062
856.862	3195
856.996	3150
857.13	3184
857.263	3260
857.397	3249
857.53	3119
857.664	3195
857.797	3249
857.931	3253
858.064	3131
858.197	3222
858.331	3138
858.464	3070
858.597	3013
858.731	3089
858.864	3108
858.997	3081
859.13	3127
859.263	3157
859.396	3211
859.529	3085
859.662	3062
859.795	3039
859.928	3135
860.061	3302
860.194	3279
860.327	3135
860.46	3036
860.592	3230
860.725	3226
860.858	3272
860.99	3104
861.123	3051
861.256	3028
861.388	3131
861.521	3930
861.653	3005
861.786	2963
861.918	2994
862.05	3058
862.183	3066
862.315	3127
862.447	3233
862.58	3127
862.712	2967
862.844	2857
862.976	3013
863.108	2998
863.24	3359
863.372	2906
863.504	2937
863.636	2922
863.768	3028
863.9	2910
864.032	2929
864.164	2956
864.296	2998
864.428	3085
864.559	3066
864.691	3062
864.823	3055
864.954	3013
865.086	3020
865.217	2952
865.349	2933
865.48	3005
865.612	3001
865.743	3165
865.875	2967
866.006	2948
866.137	2979
866.269	2952
866.4	2914
866.531	2929
866.662	2895
866.793	2937
866.924	2895
867.055	2956
867.186	2922
867.317	2895
867.448	2838
867.579	2826
867.71	2811
867.841	2826
867.972	2883
868.103	2876
868.233	2880
868.364	2902
868.495	2895
868.625	3081
868.756	3165
868.886	2952
869.017	3017
869.147	3176
869.278	3150
869.408	3039
869.539	3005
869.669	3104
869.799	2975
869.929	3135
870.06	3104
870.19	3336
870.32	3260
870.45	3283
870.58	3378
870.71	3469
870.84	3462
870.97	3321
871.1	3256
871.23	3477
871.36	3458
871.489	3359
871.619	3367
871.749	3435
871.879	3469
872.008	3481
872.138	3370
872.267	3294
872.397	3176
872.526	3077
872.656	3013
872.785	3055
872.915	3203
873.044	3310
873.173	3218
873.303	3245
873.432	3222
873.561	3245
873.69	3180
873.819	3154
873.948	3165
874.077	3081
874.206	3039
874.335	3028
874.464	3192
874.593	3321
874.722	3184
874.851	3359
874.979	3332
875.108	3329
875.237	3195
875.365	3157
875.494	3180
875.623	3241
875.751	3070
875.88	3074
876.008	3199
876.136	3211
876.265	3351
876.393	3515
876.521	3439
876.65	3409
876.778	3317
876.906	3203
877.034	3180
877.162	3249
877.29	3195
877.418	3241
877.546	3283
877.674	3214
877.802	3180
877.93	3241
878.058	3127
878.185	3108
878.313	3169
878.441	3180
878.568	3081
878.696	3108
878.824	3264
878.951	3279
879.079	3504
879.206	3591
879.333	3435
879.461	3306
879.588	3355
879.715	3431
879.842	3568
879.97	3393
880.097	3138
880.224	3161
880.351	3157
880.478	3203
880.605	3169
880.732	3192
880.859	3466
880.986	3302
881.112	3363
881.239	3230
881.366	3081
881.493	3032
881.619	2998
881.746	3047
881.872	3100
881.999	3097
882.125	3135
882.252	3275
882.378	3249
882.505	3412
882.631	3310
882.757	3150
882.883	3184
883.01	3230
883.136	3150
883.262	3093
883.388	3127
883.514	3325
883.64	3340
883.766	3298
883.892	3157
884.018	3226
884.143	3431
884.269	3507
884.395	3184
884.52	3165
884.646	3165
884.772	3123
884.897	3097
885.023	3180
885.148	3298
885.274	3378
885.399	3351
885.524	3317
885.65	3237
885.775	3306
885.9	3268
886.025	3409
886.15	3363
886.275	3264
886.4	3180
886.525	3279
886.65	3275
886.775	3253
886.9	3462
887.025	3614
887.149	3382
887.274	3230
887.399	3176
887.523	3188
887.648	3146
887.773	3207
887.897	3359
888.021	3367
888.146	3245
888.27	3431
888.395	3504
888.519	3405
888.643	3435
888.767	3473
888.891	3283
889.015	3230
889.139	3272
889.263	3203
889.387	3401
889.511	3519
889.635	3454
889.759	3253
889.883	3283
890.006	3351
890.13	3507
890.254	3207
890.377	3313
890.501	3207
890.624	3180
890.748	3287
890.871	3184
890.995	3097
891.118	3043
891.241	3195
891.364	3184
891.488	3313
891.611	3150
891.734	3233
891.857	3291
891.98	3203
892.103	3321
892.226	3268
892.349	3222
892.471	3123
892.594	3249
892.717	3294
892.839	3233
892.962	3233
893.085	3386
893.207	3329
893.33	3135
893.452	3211
893.575	3348
893.697	3272
893.819	3435
893.941	3473
894.064	3412
894.186	3264
894.308	3245
894.43	3447
894.552	3504
894.674	3450
894.796	3226
894.918	3317
895.04	3249
895.161	3416
895.283	3382
895.405	3310
895.526	3359
895.648	3397
895.769	3435
895.891	3435
896.012	3454
896.134	3431
896.255	3409
896.376	3370
896.498	3367
896.619	3401
896.74	3389
896.861	3416
896.982	3705
897.103	3846
897.224	3603
897.345	3526
897.466	3439
897.587	3439
897.708	3587
897.828	3530
897.949	3424
898.07	3298
898.19	3431
898.311	3599
898.431	3412
898.552	3473
898.672	3595
898.792	3625
898.913	3515
899.033	3397
899.153	3268
899.273	3249
899.393	3329
899.513	3306
899.633	3279
899.753	3340
899.873	3283
899.993	3355
900.113	3329
900.232	3340
900.352	3317
900.472	3241
900.591	3218
900.711	3298
900.83	3214
900.95	3420
901.069	3504
901.189	3313
901.308	3165
901.427	3127
901.546	3176
901.665	3264
901.784	3306
901.904	3214
902.023	3157
902.141	3024
902.26	2998
902.379	3119
902.498	3036
902.617	3047
902.735	3199
902.854	3283
902.973	3169
903.091	3062
903.21	3093
903.328	3146
903.446	3119
903.565	3089
903.683	3207
903.801	3104
903.919	3226
904.038	3291
904.156	3165
904.274	3264
904.392	3249
904.51	3279
904.627	3291
904.745	3397
904.863	3507
904.981	3249
905.098	3180
905.216	3211
905.334	3279
905.451	3283
905.569	3351
905.686	3424
905.803	3409
905.921	3279
906.038	3386
906.155	3310
906.272	3283
906.389	3332
906.506	3207
906.623	3275
906.74	3249
906.857	3180
906.974	3226
907.091	3435
907.208	3500
907.324	3431
907.441	3374
907.557	3192
907.674	3222
907.79	3184
907.907	3264
908.023	3367
908.139	3344
908.256	3294
908.372	3321
908.488	3336
908.604	3249
908.72	3203
908.836	3310
908.952	3268
909.068	3291
909.184	3519
909.3	3374
909.415	3447
909.531	3458
909.647	3264
909.762	3268
909.878	3245
909.993	3363
910.108	3302
910.224	3313
910.339	3363
910.454	3291
910.57	3264
910.685	3214
910.8	3591
910.915	3549
911.03	3431
911.145	3268
911.259	3279
911.374	3287
911.489	3268
911.604	3169
911.718	3123
911.833	3142
911.947	3001
912.062	2956
912.176	3138
912.291	3192
912.405	3135
912.519	3424
912.633	3469
912.748	3317
912.862	3226
912.976	3184
913.09	3051
913.204	3135
913.318	3199
913.431	3336
913.545	3317
913.659	3374
913.772	3272
913.886	3207
914	3188
914.113	3374
914.226	3412
914.34	3389
914.453	3207
914.566	3405
914.68	3298
914.793	3340
914.906	3123
915.019	3138
915.132	3062
915.245	3199
915.358	3218
915.47	3291
915.583	3272
915.696	3294
915.809	3428
915.921	3447
916.034	3291
916.146	3260
916.259	3207
916.371	3409
916.483	3382
916.595	3332
916.708	3359
916.82	3351
916.932	3374
917.044	3340
917.156	3405
917.268	3302
917.38	3340
917.491	3340
917.603	3420
917.715	3469
917.826	3511
917.938	3458
918.049	3336
918.161	3439
918.272	3595
918.384	3622
918.495	3519
918.606	3405
918.717	3363
918.828	3382
918.939	3424
919.05	3340
919.161	3416
919.272	3222
919.383	3329
919.494	3530
919.604	3709
919.715	3568
919.826	3447
919.936	3504
920.047	3641
920.157	3584
920.267	3804
920.378	3690
920.488	3595
920.598	3835
920.708	3991
920.818	3888
920.928	3835
921.038	4063
921.148	4048
921.258	3740
921.368	3671
921.477	3633
921.587	3553
921.697	3496
921.806	3648
921.916	3564
922.025	3348
922.134	3412
922.244	3367
922.353	3443
922.462	3294
922.571	3275
922.68	3176
922.789	3131
922.898	3184
923.007	3127
923.116	3264
923.224	3214
923.333	3237
923.442	3135
923.55	3150
923.659	3154
923.767	3233
923.876	3127
923.984	3218
924.092	3146
924.201	3253
924.309	3268
924.417	3272
924.525	3222
924.633	3249
924.741	4211
924.849	3070
924.956	3272
925.064	3112
925.172	3074
925.279	3180
925.387	3233
925.494	3230
925.602	3397
925.709	3382
925.816	3230
925.924	3386
926.031	3405
926.138	3344
926.245	3363
926.352	3275
926.459	3469
926.566	3435
926.673	3351
926.779	3253
926.886	3291
926.993	3203
927.099	3199
927.206	3135
927.312	3157
927.419	3268
927.525	3241
927.631	3302
927.737	3169
927.843	3150
927.95	3043
928.056	3146
928.162	3192
928.267	3291
928.373	3819
928.479	3359
928.585	3066
928.69	3199
928.796	3321
928.901	3230
929.007	3089
929.112	3230
929.218	3211
929.323	3176
929.428	3157
929.533	3351
929.638	3142
929.743	3195
929.848	3287
929.953	3268
930.058	3176
930.163	3017
930.267	3100
930.372	3199
930.477	3058
930.581	3302
930.685	3222
930.79	3055
930.894	3100
930.998	3127
931.103	3317
931.207	2990
931.311	2975
931.415	2944
931.519	2796
931.623	2849
