Data from test_V78500241_495.txt Node
Date: Fri Mar 25 16:18:37 CST 2022
User: usil
Spectrometer: V785-0024
Trigger mode: 0
Integration Time (sec): 4.000000E-1
Scans to average: 1
Nonlinearity correction enabled: false
Boxcar width: 0
Storing dark spectrum: false
XAxis mode: Wavelengths
Number of Pixels in Spectrum: 1024
>>>>>Begin Spectral Data<<<<<
801.071	2975
801.214	2933
801.356	2872
801.499	2895
801.641	2910
801.783	2967
801.926	3070
802.068	3013
802.211	3005
802.353	3039
802.496	2998
802.638	3051
802.78	3055
802.923	3081
803.065	3039
803.208	2872
803.35	2937
803.492	2944
803.635	2918
803.777	2781
803.919	2834
804.061	3222
804.204	2986
804.346	2922
804.488	2864
804.63	2994
804.773	2914
804.915	2944
805.057	3097
805.199	2971
805.341	2994
805.483	3055
805.626	3039
805.768	2979
805.91	3138
806.052	3142
806.194	3047
806.336	3245
806.478	3017
806.62	2986
806.762	3009
806.904	3085
807.046	3192
807.188	3005
807.33	2933
807.472	2994
807.614	2918
807.756	2986
807.898	2895
808.04	2918
808.182	2994
808.324	2975
808.465	2887
808.607	2868
808.749	2807
808.891	2842
809.033	3009
809.174	2998
809.316	2872
809.458	2887
809.6	2788
809.741	2785
809.883	2826
810.025	2849
810.166	2883
810.308	2857
810.45	2853
810.591	2743
810.733	2766
810.875	2849
811.016	2811
811.158	2781
811.299	2781
811.441	2933
811.582	2910
811.724	2826
811.865	2883
812.007	2956
812.148	2895
812.29	2864
812.431	2899
812.573	2941
812.714	2963
812.855	3032
812.997	3062
813.138	3116
813.279	3013
813.421	3032
813.562	3005
813.703	2906
813.845	2922
813.986	2777
814.127	2754
814.268	2819
814.41	2868
814.551	2830
814.692	2906
814.833	2823
814.974	2910
815.115	2975
815.256	2883
815.397	2811
815.539	2861
815.68	2807
815.821	2811
815.962	2975
816.103	2910
816.244	2933
816.385	2842
816.526	2975
816.666	2941
816.807	2762
816.948	2910
817.089	2887
817.23	2883
817.371	2792
817.512	2823
817.653	2861
817.793	2864
817.934	2861
818.075	2952
818.216	2994
818.356	2979
818.497	2929
818.638	2804
818.778	2849
818.919	2811
819.06	2804
819.2	2880
819.341	2849
819.481	2845
819.622	2918
819.762	3119
819.903	3020
820.043	2922
820.184	2902
820.324	2922
820.465	3043
820.605	3047
820.746	3013
820.886	2963
821.026	3138
821.167	3142
821.307	3264
821.447	3321
821.588	3245
821.728	3237
821.868	3207
822.008	3108
822.149	3173
822.289	3230
822.429	3119
822.569	3100
822.709	3195
822.849	2994
822.99	3104
823.13	3180
823.27	3180
823.41	3108
823.55	3161
823.69	3146
823.83	3180
823.97	3093
824.11	2998
824.25	2967
824.389	3062
824.529	3097
824.669	3077
824.809	3207
824.949	3253
825.089	3222
825.228	3154
825.368	3028
825.508	2918
825.648	2963
825.787	3005
825.927	3043
826.067	2952
826.206	2929
826.346	3043
826.485	3097
826.625	3097
826.765	3268
826.904	3214
827.044	3013
827.183	2899
827.323	2857
827.462	2990
827.601	2937
827.741	2925
827.88	2929
828.02	2826
828.159	2982
828.298	3020
828.437	3150
828.577	3093
828.716	3230
828.855	3093
828.994	2941
829.134	2872
829.273	2937
829.412	2895
829.551	2902
829.69	2899
829.829	2986
829.968	3142
830.107	3039
830.246	3051
830.385	2918
830.524	2883
830.663	2807
830.802	2739
830.941	2651
831.08	2663
831.219	2769
831.357	2739
831.496	2971
831.635	2701
831.774	2648
831.913	2678
832.051	2556
832.19	2579
832.329	2693
832.467	2556
832.606	2476
832.744	2602
832.883	2606
833.022	2602
833.16	2678
833.299	2686
833.437	2727
833.576	2701
833.714	2727
833.852	2735
833.991	2773
834.129	2849
834.267	2845
834.406	2785
834.544	2872
834.682	2853
834.821	2868
834.959	3058
835.097	2910
835.235	3081
835.373	3009
835.511	3058
835.65	2971
835.788	2979
835.926	2872
836.064	2804
836.202	2849
836.34	3127
836.478	3188
836.615	3039
836.753	3142
836.891	3218
837.029	3161
837.167	3123
837.305	3077
837.443	3032
837.58	2952
837.718	3077
837.856	3070
837.993	3032
838.131	3081
838.269	3123
838.406	3081
838.544	3074
838.681	2956
838.819	2937
838.956	2853
839.094	2830
839.231	2891
839.369	3039
839.506	3382
839.643	3214
839.781	3017
839.918	2937
840.055	3051
840.193	3058
840.33	3085
840.467	3074
840.604	3184
840.742	3412
840.879	3039
841.016	3043
841.153	3131
841.29	3363
841.427	3291
841.564	3279
841.701	3340
841.838	3211
841.975	3161
842.112	3157
842.249	3077
842.385	3024
842.522	3264
842.659	3116
842.796	3043
842.933	3097
843.069	3055
843.206	3085
843.343	3142
843.479	3119
843.616	3131
843.752	2914
843.889	2883
844.025	3066
844.162	2887
844.298	3077
844.435	2982
844.571	2925
844.708	3036
844.844	3176
844.98	3203
845.117	3173
845.253	3055
845.389	3009
845.525	3100
845.661	3089
845.798	2990
845.934	3108
846.07	3039
846.206	3199
846.342	3329
846.478	3226
846.614	3089
846.75	3066
846.886	2998
847.022	3241
847.158	3169
847.294	3195
847.429	3283
847.565	3211
847.701	3473
847.837	3066
847.972	3005
848.108	3154
848.244	3150
848.379	2975
848.515	2910
848.65	2918
848.786	2952
848.921	3024
849.057	3089
849.192	3127
849.328	3066
849.463	3093
849.598	3081
849.734	3062
849.869	2971
850.004	2960
850.14	2979
850.275	2929
850.41	2819
850.545	2887
850.68	2918
850.815	2975
850.95	2986
851.085	3214
851.22	3074
851.355	3024
851.49	2967
851.625	2971
851.76	3009
851.895	2910
852.03	2944
852.165	3097
852.299	3112
852.434	3218
852.569	3142
852.703	3192
852.838	3245
852.973	3344
853.107	3336
853.242	3154
853.376	3093
853.511	3001
853.645	3081
853.78	3237
853.914	3138
854.048	3089
854.183	3116
854.317	3154
854.451	3272
854.585	3127
854.72	3055
854.854	3165
854.988	3017
855.122	3085
855.256	2998
855.39	3097
855.524	3199
855.658	3173
855.792	3192
855.926	3207
856.06	3218
856.194	3283
856.327	3176
856.461	3047
856.595	3089
856.729	3093
856.862	3233
856.996	3131
857.13	3211
857.263	3214
857.397	3291
857.53	3100
857.664	3237
857.797	3222
857.931	3233
858.064	3192
858.197	3241
858.331	3138
858.464	3074
858.597	3024
858.731	3112
858.864	3108
858.997	3100
859.13	3176
859.263	3180
859.396	3173
859.529	3100
859.662	3077
859.795	3047
859.928	3131
860.061	3287
860.194	3294
860.327	3127
860.46	3093
860.592	3230
860.725	3226
860.858	3253
860.99	3097
861.123	3062
861.256	3070
861.388	3131
861.521	3846
861.653	3020
861.786	2971
861.918	3005
862.05	3051
862.183	3108
862.315	3157
862.447	3226
862.58	3100
862.712	2944
862.844	2887
862.976	3032
863.108	2998
863.24	3332
863.372	2864
863.504	2975
863.636	2952
863.768	3036
863.9	2944
864.032	2899
864.164	2948
864.296	3032
864.428	3074
864.559	3127
864.691	3066
864.823	3047
864.954	3055
865.086	3032
865.217	2990
865.349	2971
865.48	3009
865.612	3020
865.743	3180
865.875	3017
866.006	2998
866.137	2986
866.269	2918
866.4	2914
866.531	2933
866.662	2906
866.793	2887
866.924	2880
867.055	3001
867.186	2925
867.317	2880
867.448	2872
867.579	2834
867.71	2872
867.841	2826
867.972	2857
868.103	2910
868.233	2880
868.364	2902
868.495	2922
868.625	3074
868.756	3135
868.886	2986
869.017	3020
869.147	3199
869.278	3131
869.408	3032
869.539	2998
869.669	3081
869.799	3043
869.929	3100
870.06	3085
870.19	3306
870.32	3264
870.45	3287
870.58	3344
870.71	3431
870.84	3466
870.97	3291
871.1	3260
871.23	3496
871.36	3458
871.489	3340
871.619	3325
871.749	3405
871.879	3412
872.008	3488
872.138	3363
872.267	3275
872.397	3157
872.526	3119
872.656	3013
872.785	3123
872.915	3241
873.044	3302
873.173	3199
873.303	3230
873.432	3211
873.561	3283
873.69	3176
873.819	3146
873.948	3150
874.077	3116
874.206	3051
874.335	3039
874.464	3222
874.593	3344
874.722	3268
874.851	3401
874.979	3306
875.108	3287
875.237	3253
875.365	3161
875.494	3180
875.623	3218
875.751	3077
875.88	3131
876.008	3211
876.136	3207
876.265	3351
876.393	3523
876.521	3401
876.65	3378
876.778	3332
876.906	3260
877.034	3214
877.162	3195
877.29	3169
877.418	3249
877.546	3226
877.674	3233
877.802	3268
877.93	3241
878.058	3169
878.185	3119
878.313	3214
878.441	3237
878.568	3104
878.696	3150
878.824	3253
878.951	3294
879.079	3485
879.206	3637
879.333	3485
879.461	3298
879.588	3348
879.715	3485
879.842	3576
879.97	3325
880.097	3165
880.224	3135
880.351	3180
880.478	3291
880.605	3173
880.732	3184
880.859	3515
880.986	3302
881.112	3348
881.239	3184
881.366	3112
881.493	3028
881.619	3020
881.746	3062
881.872	3100
881.999	3081
882.125	3146
882.252	3260
882.378	3272
882.505	3405
882.631	3283
882.757	3161
882.883	3207
883.01	3233
883.136	3165
883.262	3135
883.388	3100
883.514	3302
883.64	3370
883.766	3306
883.892	3211
884.018	3226
884.143	3416
884.269	3500
884.395	3218
884.52	3142
884.646	3195
884.772	3116
884.897	3131
885.023	3195
885.148	3359
885.274	3458
885.399	3310
885.524	3272
885.65	3222
885.775	3294
885.9	3268
886.025	3401
886.15	3386
886.275	3302
886.4	3241
886.525	3279
886.65	3245
886.775	3294
886.9	3488
887.025	3637
887.149	3443
887.274	3256
887.399	3127
887.523	3233
887.648	3131
887.773	3165
887.897	3355
888.021	3355
888.146	3264
888.27	3458
888.395	3553
888.519	3428
888.643	3447
888.767	3481
888.891	3313
889.015	3230
889.139	3283
889.263	3256
889.387	3367
889.511	3526
889.635	3447
889.759	3355
889.883	3291
890.006	3370
890.13	3500
890.254	3256
890.377	3306
890.501	3195
890.624	3169
890.748	3302
890.871	3138
890.995	3112
891.118	3055
891.241	3157
891.364	3214
891.488	3317
891.611	3192
891.734	3214
891.857	3249
891.98	3214
892.103	3317
892.226	3279
892.349	3226
892.471	3127
892.594	3199
892.717	3253
892.839	3256
892.962	3279
893.085	3363
893.207	3298
893.33	3169
893.452	3207
893.575	3332
893.697	3275
893.819	3477
893.941	3496
894.064	3416
894.186	3294
894.308	3260
894.43	3401
894.552	3534
894.674	3466
894.796	3294
894.918	3329
895.04	3302
895.161	3447
895.283	3416
895.405	3325
895.526	3336
895.648	3424
895.769	3401
895.891	3428
896.012	3458
896.134	3450
896.255	3462
896.376	3393
896.498	3401
896.619	3416
896.74	3344
896.861	3401
896.982	3648
897.103	3759
897.224	3584
897.345	3496
897.466	3443
897.587	3473
897.708	3606
897.828	3557
897.949	3492
898.07	3310
898.19	3389
898.311	3606
898.431	3443
898.552	3496
898.672	3599
898.792	3584
898.913	3542
899.033	3397
899.153	3344
899.273	3180
899.393	3256
899.513	3313
899.633	3279
899.753	3310
899.873	3317
899.993	3370
900.113	3313
900.232	3351
900.352	3351
900.472	3310
900.591	3207
900.711	3279
900.83	3233
900.95	3439
901.069	3473
901.189	3359
901.308	3180
901.427	3108
901.546	3203
901.665	3272
901.784	3306
901.904	3192
902.023	3119
902.141	3024
902.26	2990
902.379	3157
902.498	3070
902.617	3070
902.735	3211
902.854	3218
902.973	3207
903.091	3032
903.21	3055
903.328	3127
903.446	3119
903.565	3070
903.683	3207
903.801	3150
903.919	3222
904.038	3287
904.156	3131
904.274	3264
904.392	3253
904.51	3275
904.627	3268
904.745	3424
904.863	3507
904.981	3283
905.098	3161
905.216	3260
905.334	3291
905.451	3298
905.569	3291
905.686	3439
905.803	3447
905.921	3306
906.038	3389
906.155	3317
906.272	3272
906.389	3355
906.506	3192
906.623	3272
906.74	3241
906.857	3176
906.974	3275
907.091	3409
907.208	3603
907.324	3462
907.441	3397
907.557	3214
907.674	3173
907.79	3157
907.907	3245
908.023	3363
908.139	3367
908.256	3325
908.372	3370
908.488	3325
908.604	3230
908.72	3226
908.836	3268
908.952	3272
909.068	3344
909.184	3469
909.3	3378
909.415	3507
909.531	3481
909.647	3272
909.762	3302
909.878	3249
909.993	3382
910.108	3306
910.224	3348
910.339	3412
910.454	3382
910.57	3298
910.685	3241
910.8	3576
910.915	3538
911.03	3454
911.145	3233
911.259	3264
911.374	3306
911.489	3241
911.604	3241
911.718	3138
911.833	3169
911.947	3062
912.062	2994
912.176	3188
912.291	3195
912.405	3207
912.519	3405
912.633	3530
912.748	3359
912.862	3279
912.976	3154
913.09	3032
913.204	3100
913.318	3184
913.431	3329
913.545	3321
913.659	3382
913.772	3336
913.886	3237
914	3233
914.113	3340
914.226	3443
914.34	3370
914.453	3264
914.566	3389
914.68	3291
914.793	3336
914.906	3180
915.019	3085
915.132	3062
915.245	3154
915.358	3222
915.47	3245
915.583	3310
915.696	3310
915.809	3435
915.921	3405
916.034	3260
916.146	3287
916.259	3203
916.371	3367
916.483	3359
916.595	3272
916.708	3317
916.82	3317
916.932	3355
917.044	3313
917.156	3363
917.268	3264
917.38	3306
917.491	3287
917.603	3344
917.715	3439
917.826	3477
917.938	3367
918.049	3306
918.161	3420
918.272	3576
918.384	3584
918.495	3492
918.606	3359
918.717	3260
918.828	3386
918.939	3374
919.05	3294
919.161	3329
919.272	3192
919.383	3302
919.494	3473
919.604	3660
919.715	3507
919.826	3424
919.936	3454
920.047	3625
920.157	3553
920.267	3709
920.378	3603
920.488	3568
920.598	3751
920.708	3941
920.818	3823
920.928	3789
921.038	4063
921.148	3994
921.258	3663
921.368	3580
921.477	3538
921.587	3492
921.697	3462
921.806	3618
921.916	3496
922.025	3370
922.134	3355
922.244	3291
922.353	3416
922.462	3279
922.571	3214
922.68	3123
922.789	3058
922.898	3142
923.007	3085
923.116	3188
923.224	3165
923.333	3184
923.442	3062
923.55	3077
923.659	3192
923.767	3233
923.876	3104
923.984	3233
924.092	3066
924.201	3192
924.309	3226
924.417	3214
924.525	3218
924.633	3237
924.741	3972
924.849	3036
924.956	3260
925.064	3077
925.172	3058
925.279	3108
925.387	3165
925.494	3211
925.602	3332
925.709	3302
925.816	3165
925.924	3294
926.031	3397
926.138	3367
926.245	3351
926.352	3233
926.459	3397
926.566	3496
926.673	3321
926.779	3241
926.886	3233
926.993	3173
927.099	3138
927.206	3119
927.312	3131
927.419	3218
927.525	3214
927.631	3245
927.737	3150
927.843	3108
927.95	3017
928.056	3108
928.162	3157
928.267	3230
928.373	3781
928.479	3313
928.585	3043
928.69	3180
928.796	3283
928.901	3161
929.007	3051
929.112	3195
929.218	3161
929.323	3146
929.428	3142
929.533	3310
929.638	3131
929.743	3180
929.848	3226
929.953	3214
930.058	3127
930.163	2998
930.267	3043
930.372	3218
930.477	3017
930.581	3332
930.685	3157
930.79	3032
930.894	3142
930.998	3135
931.103	3302
931.207	2971
931.311	2941
931.415	2941
931.519	2773
931.623	2834
