Data from test_V78500241_407.txt Node
Date: Fri Mar 25 16:18:01 CST 2022
User: usil
Spectrometer: V785-0024
Trigger mode: 0
Integration Time (sec): 4.000000E-1
Scans to average: 1
Nonlinearity correction enabled: false
Boxcar width: 0
Storing dark spectrum: false
XAxis mode: Wavelengths
Number of Pixels in Spectrum: 1024
>>>>>Begin Spectral Data<<<<<
801.071	2937
801.214	2941
801.356	2868
801.499	2868
801.641	2887
801.783	2914
801.926	3051
802.068	2956
802.211	3013
802.353	3028
802.496	2956
802.638	3036
802.78	3036
802.923	3062
803.065	2990
803.208	2883
803.35	2849
803.492	2929
803.635	2929
803.777	2758
803.919	2887
804.061	3192
804.204	2933
804.346	2906
804.488	2830
804.63	2971
804.773	2849
804.915	2933
805.057	3085
805.199	2891
805.341	2960
805.483	3043
805.626	2937
805.768	2933
805.91	3058
806.052	3085
806.194	2994
806.336	3192
806.478	3039
806.62	2925
806.762	2963
806.904	3062
807.046	3131
807.188	2956
807.33	2910
807.472	2982
807.614	2845
807.756	2971
807.898	2868
808.04	2910
808.182	2971
808.324	2925
808.465	2872
808.607	2857
808.749	2750
808.891	2815
809.033	2963
809.174	2967
809.316	2853
809.458	2883
809.6	2792
809.741	2766
809.883	2735
810.025	2823
810.166	2849
810.308	2834
810.45	2857
810.591	2769
810.733	2746
810.875	2796
811.016	2800
811.158	2754
811.299	2792
811.441	2895
811.582	2887
811.724	2811
811.865	2807
812.007	2880
812.148	2872
812.29	2853
812.431	2872
812.573	2902
812.714	2990
812.855	3009
812.997	3047
813.138	3116
813.279	3032
813.421	2948
813.562	2971
813.703	2872
813.845	2868
813.986	2773
814.127	2727
814.268	2834
814.41	2849
814.551	2804
814.692	2891
814.833	2815
814.974	2872
815.115	2933
815.256	2864
815.397	2773
815.539	2887
815.68	2758
815.821	2766
815.962	2963
816.103	2914
816.244	2861
816.385	2895
816.526	2971
816.666	2880
816.807	2724
816.948	2876
817.089	2861
817.23	2845
817.371	2758
817.512	2788
817.653	2842
817.793	2842
817.934	2861
818.075	2990
818.216	2982
818.356	3039
818.497	2880
818.638	2777
818.778	2788
818.919	2807
819.06	2796
819.2	2849
819.341	2842
819.481	2819
819.622	2925
819.762	3093
819.903	3047
820.043	2914
820.184	2922
820.324	2883
820.465	3036
820.605	3036
820.746	3005
820.886	2929
821.026	3093
821.167	3173
821.307	3226
821.447	3260
821.588	3218
821.728	3207
821.868	3184
822.008	3058
822.149	3199
822.289	3203
822.429	3055
822.569	3077
822.709	3169
822.849	3024
822.99	3058
823.13	3169
823.27	3203
823.41	3123
823.55	3161
823.69	3184
823.83	3211
823.97	3089
824.11	2998
824.25	2998
824.389	3089
824.529	3112
824.669	3066
824.809	3195
824.949	3249
825.089	3169
825.228	3165
825.368	2998
825.508	2929
825.648	2963
825.787	3028
825.927	3013
826.067	2933
826.206	2979
826.346	3051
826.485	3097
826.625	3104
826.765	3249
826.904	3169
827.044	2986
827.183	2937
827.323	2853
827.462	2971
827.601	2906
827.741	2925
827.88	2975
828.02	2891
828.159	2952
828.298	3005
828.437	3131
828.577	3028
828.716	3237
828.855	3051
828.994	2906
829.134	2880
829.273	2914
829.412	2876
829.551	2880
829.69	2883
829.829	2963
829.968	3123
830.107	3009
830.246	2994
830.385	2899
830.524	2883
830.663	2826
830.802	2678
830.941	2613
831.08	2636
831.219	2724
831.357	2735
831.496	2937
831.635	2712
831.774	2640
831.913	2655
832.051	2556
832.19	2549
832.329	2648
832.467	2556
832.606	2473
832.744	2575
832.883	2602
833.022	2549
833.16	2610
833.299	2667
833.437	2705
833.576	2693
833.714	2705
833.852	2754
833.991	2766
834.129	2815
834.267	2826
834.406	2792
834.544	2887
834.682	2872
834.821	2864
834.959	3058
835.097	2910
835.235	3047
835.373	2979
835.511	3032
835.65	2929
835.788	2914
835.926	2842
836.064	2811
836.202	2838
836.34	3108
836.478	3131
836.615	3039
836.753	3100
836.891	3176
837.029	3146
837.167	3100
837.305	3051
837.443	3058
837.58	2975
837.718	3135
837.856	3081
837.993	3032
838.131	3123
838.269	3074
838.406	3100
838.544	3074
838.681	2960
838.819	2902
838.956	2826
839.094	2826
839.231	2883
839.369	3017
839.506	3382
839.643	3199
839.781	3009
839.918	2975
840.055	3024
840.193	3066
840.33	3097
840.467	3085
840.604	3127
840.742	3367
840.879	3039
841.016	3028
841.153	3116
841.29	3321
841.427	3287
841.564	3253
841.701	3336
841.838	3195
841.975	3184
842.112	3207
842.249	3077
842.385	3051
842.522	3260
842.659	3093
842.796	3028
842.933	3131
843.069	3074
843.206	3020
843.343	3165
843.479	3116
843.616	3142
843.752	2899
843.889	2880
844.025	3066
844.162	2849
844.298	3100
844.435	2952
844.571	2883
844.708	3089
844.844	3173
844.98	3214
845.117	3169
845.253	3062
845.389	2963
845.525	3097
845.661	3119
845.798	3009
845.934	3104
846.07	3055
846.206	3253
846.342	3321
846.478	3233
846.614	3070
846.75	3058
846.886	3028
847.022	3230
847.158	3119
847.294	3207
847.429	3230
847.565	3230
847.701	3450
847.837	2986
847.972	2963
848.108	3180
848.244	3142
848.379	2952
848.515	2910
848.65	2941
848.786	2929
848.921	2979
849.057	3097
849.192	3135
849.328	3062
849.463	3131
849.598	3043
849.734	3055
849.869	2975
850.004	2902
850.14	2963
850.275	2895
850.41	2815
850.545	2887
850.68	2937
850.815	2963
850.95	2929
851.085	3207
851.22	3085
851.355	3024
851.49	2982
851.625	3024
851.76	3001
851.895	2922
852.03	2891
852.165	3013
852.299	3116
852.434	3161
852.569	3157
852.703	3192
852.838	3230
852.973	3340
853.107	3325
853.242	3127
853.376	3066
853.511	2971
853.645	3066
853.78	3222
853.914	3108
854.048	3119
854.183	3104
854.317	3154
854.451	3294
854.585	3119
854.72	3055
854.854	3203
854.988	3070
855.122	3062
855.256	2990
855.39	3085
855.524	3226
855.658	3150
855.792	3169
855.926	3138
856.06	3214
856.194	3268
856.327	3138
856.461	3062
856.595	3070
856.729	3112
856.862	3214
856.996	3135
857.13	3169
857.263	3233
857.397	3230
857.53	3131
857.664	3184
857.797	3241
857.931	3264
858.064	3142
858.197	3218
858.331	3127
858.464	3081
858.597	2986
858.731	3119
858.864	3093
858.997	3066
859.13	3169
859.263	3161
859.396	3165
859.529	3116
859.662	3062
859.795	3047
859.928	3127
860.061	3256
860.194	3313
860.327	3112
860.46	3097
860.592	3226
860.725	3245
860.858	3214
860.99	3097
861.123	3058
861.256	3039
861.388	3169
861.521	3857
861.653	2986
861.786	2963
861.918	3017
862.05	3066
862.183	3123
862.315	3112
862.447	3207
862.58	3077
862.712	2948
862.844	2883
862.976	3020
863.108	2979
863.24	3409
863.372	2868
863.504	2990
863.636	2941
863.768	3009
863.9	2952
864.032	2914
864.164	2944
864.296	2994
864.428	3062
864.559	3104
864.691	3051
864.823	3062
864.954	3047
865.086	3005
865.217	2979
865.349	2929
865.48	3001
865.612	2998
865.743	3135
865.875	2990
866.006	2895
866.137	2941
866.269	2956
866.4	2937
866.531	2922
866.662	2868
866.793	2849
866.924	2872
867.055	2990
867.186	2868
867.317	2868
867.448	2842
867.579	2842
867.71	2842
867.841	2834
867.972	2902
868.103	2895
868.233	2922
868.364	2861
868.495	2880
868.625	3055
868.756	3199
868.886	2982
869.017	3055
869.147	3173
869.278	3150
869.408	3055
869.539	3020
869.669	3093
869.799	3066
869.929	3119
870.06	3112
870.19	3306
870.32	3283
870.45	3306
870.58	3370
870.71	3443
870.84	3450
870.97	3321
871.1	3245
871.23	3496
871.36	3454
871.489	3321
871.619	3355
871.749	3412
871.879	3382
872.008	3431
872.138	3336
872.267	3268
872.397	3112
872.526	3070
872.656	3024
872.785	3100
872.915	3291
873.044	3321
873.173	3195
873.303	3222
873.432	3249
873.561	3226
873.69	3142
873.819	3142
873.948	3180
874.077	3093
874.206	3051
874.335	3039
874.464	3214
874.593	3321
874.722	3260
874.851	3397
874.979	3325
875.108	3291
875.237	3222
875.365	3157
875.494	3154
875.623	3237
875.751	3070
875.88	3123
876.008	3173
876.136	3214
876.265	3378
876.393	3481
876.521	3439
876.65	3348
876.778	3287
876.906	3230
877.034	3222
877.162	3184
877.29	3180
877.418	3241
877.546	3233
877.674	3275
877.802	3188
877.93	3226
878.058	3138
878.185	3055
878.313	3226
878.441	3207
878.568	3062
878.696	3138
878.824	3264
878.951	3306
879.079	3439
879.206	3599
879.333	3458
879.461	3321
879.588	3340
879.715	3469
879.842	3576
879.97	3374
880.097	3142
880.224	3138
880.351	3237
880.478	3184
880.605	3161
880.732	3180
880.859	3435
880.986	3272
881.112	3321
881.239	3237
881.366	3070
881.493	3047
881.619	3017
881.746	3093
881.872	3047
881.999	3074
882.125	3150
882.252	3241
882.378	3306
882.505	3382
882.631	3245
882.757	3131
882.883	3203
883.01	3226
883.136	3127
883.262	3097
883.388	3108
883.514	3363
883.64	3393
883.766	3291
883.892	3188
884.018	3241
884.143	3374
884.269	3507
884.395	3203
884.52	3173
884.646	3165
884.772	3112
884.897	3074
885.023	3192
885.148	3306
885.274	3420
885.399	3374
885.524	3256
885.65	3253
885.775	3317
885.9	3321
886.025	3420
886.15	3389
886.275	3260
886.4	3233
886.525	3272
886.65	3237
886.775	3287
886.9	3500
887.025	3606
887.149	3382
887.274	3264
887.399	3188
887.523	3207
887.648	3169
887.773	3199
887.897	3393
888.021	3401
888.146	3260
888.27	3420
888.395	3500
888.519	3431
888.643	3462
888.767	3428
888.891	3283
889.015	3272
889.139	3272
889.263	3268
889.387	3378
889.511	3481
889.635	3416
889.759	3291
889.883	3275
890.006	3386
890.13	3485
890.254	3302
890.377	3329
890.501	3218
890.624	3157
890.748	3283
890.871	3184
890.995	3116
891.118	3032
891.241	3135
891.364	3245
891.488	3329
891.611	3176
891.734	3207
891.857	3332
891.98	3268
892.103	3340
892.226	3233
892.349	3154
892.471	3135
892.594	3237
892.717	3260
892.839	3264
892.962	3325
893.085	3397
893.207	3264
893.33	3150
893.452	3199
893.575	3344
893.697	3211
893.819	3454
893.941	3523
894.064	3462
894.186	3253
894.308	3260
894.43	3416
894.552	3477
894.674	3466
894.796	3272
894.918	3291
895.04	3310
895.161	3439
895.283	3412
895.405	3317
895.526	3409
895.648	3412
895.769	3435
895.891	3447
896.012	3469
896.134	3424
896.255	3416
896.376	3389
896.498	3386
896.619	3447
896.74	3332
896.861	3389
896.982	3667
897.103	3831
897.224	3603
897.345	3473
897.466	3431
897.587	3511
897.708	3595
897.828	3553
897.949	3469
898.07	3340
898.19	3386
898.311	3584
898.431	3405
898.552	3511
898.672	3603
898.792	3561
898.913	3515
899.033	3462
899.153	3287
899.273	3222
899.393	3245
899.513	3348
899.633	3317
899.753	3313
899.873	3340
899.993	3405
900.113	3332
900.232	3348
900.352	3321
900.472	3291
900.591	3218
900.711	3283
900.83	3233
900.95	3443
901.069	3538
901.189	3325
901.308	3195
901.427	3108
901.546	3184
901.665	3275
901.784	3340
901.904	3207
902.023	3146
902.141	3009
902.26	3005
902.379	3135
902.498	3055
902.617	3066
902.735	3188
902.854	3222
902.973	3176
903.091	3043
903.21	3032
903.328	3127
903.446	3127
903.565	3135
903.683	3214
903.801	3108
903.919	3283
904.038	3306
904.156	3150
904.274	3298
904.392	3264
904.51	3287
904.627	3344
904.745	3431
904.863	3526
904.981	3275
905.098	3192
905.216	3237
905.334	3306
905.451	3294
905.569	3306
905.686	3435
905.803	3420
905.921	3279
906.038	3412
906.155	3374
906.272	3260
906.389	3313
906.506	3222
906.623	3279
906.74	3279
906.857	3176
906.974	3268
907.091	3469
907.208	3530
907.324	3500
907.441	3351
907.557	3245
907.674	3245
907.79	3211
907.907	3294
908.023	3363
908.139	3405
908.256	3321
908.372	3332
908.488	3344
908.604	3233
908.72	3218
908.836	3291
908.952	3275
909.068	3298
909.184	3473
909.3	3374
909.415	3500
909.531	3439
909.647	3279
909.762	3279
909.878	3268
909.993	3367
910.108	3310
910.224	3306
910.339	3424
910.454	3306
910.57	3287
910.685	3222
910.8	3599
910.915	3557
911.03	3458
911.145	3275
911.259	3275
911.374	3294
911.489	3199
911.604	3249
911.718	3112
911.833	3157
911.947	3051
912.062	2967
912.176	3150
912.291	3188
912.405	3233
912.519	3439
912.633	3450
912.748	3348
912.862	3253
912.976	3154
913.09	3066
913.204	3150
913.318	3203
913.431	3329
913.545	3317
913.659	3370
913.772	3340
913.886	3226
914	3157
914.113	3340
914.226	3439
914.34	3351
914.453	3214
914.566	3405
914.68	3310
914.793	3283
914.906	3150
915.019	3157
915.132	3047
915.245	3176
915.358	3211
915.47	3233
915.583	3230
915.696	3291
915.809	3416
915.921	3428
916.034	3279
916.146	3256
916.259	3230
916.371	3367
916.483	3351
916.595	3256
916.708	3298
916.82	3359
916.932	3325
917.044	3329
917.156	3367
917.268	3218
917.38	3279
917.491	3287
917.603	3374
917.715	3439
917.826	3492
917.938	3310
918.049	3256
918.161	3435
918.272	3568
918.384	3542
918.495	3469
918.606	3332
918.717	3260
918.828	3359
918.939	3397
919.05	3321
919.161	3348
919.272	3169
919.383	3294
919.494	3485
919.604	3671
919.715	3462
919.826	3378
919.936	3473
920.047	3572
920.157	3542
920.267	3728
920.378	3568
920.488	3564
920.598	3785
920.708	3941
920.818	3945
920.928	3838
921.038	4006
921.148	3998
921.258	3679
921.368	3622
921.477	3530
921.587	3511
921.697	3450
921.806	3603
921.916	3538
922.025	3302
922.134	3332
922.244	3336
922.353	3435
922.462	3279
922.571	3249
922.68	3135
922.789	3062
922.898	3214
923.007	3119
923.116	3192
923.224	3138
923.333	3142
923.442	3127
923.55	3081
923.659	3161
923.767	3211
923.876	3097
923.984	3256
924.092	3119
924.201	3180
924.309	3195
924.417	3211
924.525	3203
924.633	3249
924.741	4169
924.849	3028
924.956	3275
925.064	3123
925.172	3043
925.279	3081
925.387	3173
925.494	3226
925.602	3332
925.709	3279
925.816	3211
925.924	3283
926.031	3367
926.138	3294
926.245	3363
926.352	3283
926.459	3428
926.566	3447
926.673	3302
926.779	3253
926.886	3275
926.993	3108
927.099	3131
927.206	3108
927.312	3112
927.419	3237
927.525	3173
927.631	3283
927.737	3146
927.843	3108
927.95	3036
928.056	3108
928.162	3157
928.267	3275
928.373	3857
928.479	3306
928.585	3047
928.69	3241
928.796	3264
928.901	3138
929.007	3051
929.112	3173
929.218	3188
929.323	3169
929.428	3146
929.533	3332
929.638	3150
929.743	3169
929.848	3264
929.953	3199
930.058	3142
930.163	2952
930.267	3043
930.372	3131
930.477	3074
930.581	3298
930.685	3192
930.79	3055
930.894	3138
930.998	3093
931.103	3279
931.207	2971
931.311	2941
931.415	2891
931.519	2769
931.623	2804
