Data from test_V78500241_1470.txt Node
Date: Fri Mar 25 16:25:23 CST 2022
User: usil
Spectrometer: V785-0024
Trigger mode: 0
Integration Time (sec): 4.000000E-1
Scans to average: 1
Nonlinearity correction enabled: false
Boxcar width: 0
Storing dark spectrum: false
XAxis mode: Wavelengths
Number of Pixels in Spectrum: 1024
>>>>>Begin Spectral Data<<<<<
801.071	2929
801.214	2914
801.356	2880
801.499	2895
801.641	2857
801.783	2933
801.926	3043
802.068	2960
802.211	2979
802.353	3047
802.496	2960
802.638	3001
802.78	3047
802.923	3089
803.065	3028
803.208	2868
803.35	2929
803.492	2929
803.635	2910
803.777	2746
803.919	2861
804.061	3211
804.204	2937
804.346	2910
804.488	2830
804.63	2986
804.773	2845
804.915	2910
805.057	3058
805.199	2922
805.341	2982
805.483	3051
805.626	3020
805.768	2971
805.91	3093
806.052	3097
806.194	3020
806.336	3214
806.478	3028
806.62	2929
806.762	3039
806.904	3055
807.046	3169
807.188	2963
807.33	2944
807.472	2971
807.614	2914
807.756	2952
807.898	2899
808.04	2906
808.182	2933
808.324	2952
808.465	2910
808.607	2853
808.749	2788
808.891	2864
809.033	2998
809.174	2952
809.316	2906
809.458	2880
809.6	2788
809.741	2746
809.883	2788
810.025	2861
810.166	2857
810.308	2861
810.45	2842
810.591	2773
810.733	2769
810.875	2815
811.016	2800
811.158	2758
811.299	2826
811.441	2906
811.582	2895
811.724	2849
811.865	2864
812.007	2880
812.148	2868
812.29	2826
812.431	2887
812.573	2914
812.714	2975
812.855	3036
812.997	3055
813.138	3116
813.279	3024
813.421	2952
813.562	2979
813.703	2861
813.845	2906
813.986	2804
814.127	2750
814.268	2853
814.41	2823
814.551	2815
814.692	2895
814.833	2785
814.974	2910
815.115	2933
815.256	2845
815.397	2785
815.539	2853
815.68	2781
815.821	2785
815.962	2933
816.103	2937
816.244	2876
816.385	2868
816.526	2982
816.666	2929
816.807	2758
816.948	2899
817.089	2880
817.23	2838
817.371	2758
817.512	2811
817.653	2864
817.793	2834
817.934	2883
818.075	2933
818.216	2971
818.356	3017
818.497	2887
818.638	2800
818.778	2819
818.919	2750
819.06	2746
819.2	2883
819.341	2792
819.481	2781
819.622	2922
819.762	3070
819.903	3013
820.043	2960
820.184	2902
820.324	2876
820.465	3024
820.605	3047
820.746	3039
820.886	2918
821.026	3127
821.167	3127
821.307	3272
821.447	3283
821.588	3211
821.728	3188
821.868	3142
822.008	3055
822.149	3184
822.289	3207
822.429	3070
822.569	3089
822.709	3218
822.849	3024
822.99	3055
823.13	3161
823.27	3211
823.41	3116
823.55	3154
823.69	3161
823.83	3176
823.97	3066
824.11	3009
824.25	2990
824.389	3066
824.529	3127
824.669	3055
824.809	3142
824.949	3237
825.089	3237
825.228	3135
825.368	3028
825.508	2956
825.648	2952
825.787	3017
825.927	3024
826.067	2948
826.206	2948
826.346	3028
826.485	3100
826.625	3093
826.765	3241
826.904	3173
827.044	3024
827.183	2925
827.323	2872
827.462	2982
827.601	2910
827.741	2906
827.88	2914
828.02	2849
828.159	2990
828.298	3036
828.437	3081
828.577	3001
828.716	3211
828.855	3039
828.994	2899
829.134	2864
829.273	2899
829.412	2880
829.551	2876
829.69	2899
829.829	2986
829.968	3131
830.107	2998
830.246	3051
830.385	2906
830.524	2864
830.663	2815
830.802	2746
830.941	2663
831.08	2625
831.219	2766
831.357	2754
831.496	2944
831.635	2735
831.774	2632
831.913	2640
832.051	2533
832.19	2568
832.329	2697
832.467	2507
832.606	2484
832.744	2564
832.883	2594
833.022	2579
833.16	2659
833.299	2689
833.437	2697
833.576	2693
833.714	2716
833.852	2731
833.991	2766
834.129	2845
834.267	2853
834.406	2773
834.544	2861
834.682	2853
834.821	2876
834.959	3036
835.097	2902
835.235	3024
835.373	2963
835.511	2963
835.65	2918
835.788	2922
835.926	2811
836.064	2830
836.202	2861
836.34	3077
836.478	3157
836.615	3062
836.753	3108
836.891	3180
837.029	3146
837.167	3116
837.305	3070
837.443	3017
837.58	2979
837.718	3116
837.856	3051
837.993	3032
838.131	3093
838.269	3100
838.406	3074
838.544	3070
838.681	2929
838.819	2883
838.956	2792
839.094	2849
839.231	2925
839.369	3005
839.506	3367
839.643	3207
839.781	3024
839.918	2948
840.055	3047
840.193	3013
840.33	3055
840.467	3074
840.604	3135
840.742	3382
840.879	3062
841.016	3055
841.153	3089
841.29	3340
841.427	3253
841.564	3272
841.701	3313
841.838	3241
841.975	3192
842.112	3218
842.249	3047
842.385	3013
842.522	3264
842.659	3077
842.796	3066
842.933	3104
843.069	3032
843.206	3028
843.343	3218
843.479	3081
843.616	3123
843.752	2910
843.889	2861
844.025	3039
844.162	2918
844.298	3058
844.435	2952
844.571	2922
844.708	3051
844.844	3188
844.98	3264
845.117	3203
845.253	3066
845.389	3017
845.525	3119
845.661	3085
845.798	3005
845.934	3108
846.07	3024
846.206	3192
846.342	3268
846.478	3214
846.614	3074
846.75	3039
846.886	3017
847.022	3237
847.158	3165
847.294	3157
847.429	3249
847.565	3211
847.701	3496
847.837	3043
847.972	2990
848.108	3135
848.244	3127
848.379	3017
848.515	2933
848.65	2944
848.786	2922
848.921	2986
849.057	3077
849.192	3112
849.328	3074
849.463	3127
849.598	3032
849.734	3032
849.869	2986
850.004	2933
850.14	2941
850.275	2887
850.41	2849
850.545	2864
850.68	2925
850.815	2941
850.95	2956
851.085	3188
851.22	3058
851.355	3017
851.49	3005
851.625	3001
851.76	2994
851.895	2937
852.03	2914
852.165	2990
852.299	3119
852.434	3199
852.569	3142
852.703	3127
852.838	3222
852.973	3329
853.107	3291
853.242	3093
853.376	3058
853.511	3020
853.645	3039
853.78	3230
853.914	3081
854.048	3077
854.183	3074
854.317	3199
854.451	3287
854.585	3116
854.72	3043
854.854	3218
854.988	3047
855.122	3070
855.256	2982
855.39	3119
855.524	3222
855.658	3165
855.792	3123
855.926	3173
856.06	3237
856.194	3264
856.327	3195
856.461	3074
856.595	3062
856.729	3066
856.862	3199
856.996	3184
857.13	3230
857.263	3218
857.397	3226
857.53	3154
857.664	3165
857.797	3184
857.931	3260
858.064	3161
858.197	3180
858.331	3127
858.464	3085
858.597	2994
858.731	3070
858.864	3100
858.997	3085
859.13	3135
859.263	3154
859.396	3184
859.529	3058
859.662	3058
859.795	3039
859.928	3119
860.061	3237
860.194	3268
860.327	3146
860.46	3081
860.592	3233
860.725	3264
860.858	3241
860.99	3081
861.123	2998
861.256	3039
861.388	3154
861.521	3850
861.653	2986
861.786	2967
861.918	3032
862.05	3058
862.183	3081
862.315	3116
862.447	3203
862.58	3074
862.712	2933
862.844	2883
862.976	3043
863.108	2979
863.24	3317
863.372	2853
863.504	2960
863.636	2952
863.768	3005
863.9	2956
864.032	2902
864.164	2922
864.296	3017
864.428	3119
864.559	3093
864.691	3066
864.823	3055
864.954	3013
865.086	3062
865.217	2990
865.349	2941
865.48	2963
865.612	3032
865.743	3123
865.875	2963
866.006	2906
866.137	2982
866.269	2944
866.4	2922
866.531	2902
866.662	2902
866.793	2899
866.924	2902
867.055	2941
867.186	2914
867.317	2918
867.448	2811
867.579	2834
867.71	2838
867.841	2823
867.972	2861
868.103	2952
868.233	2883
868.364	2864
868.495	2880
868.625	3032
868.756	3161
868.886	2971
869.017	2994
869.147	3184
869.278	3127
869.408	3036
869.539	3024
869.669	3077
869.799	3036
869.929	3119
870.06	3097
870.19	3359
870.32	3279
870.45	3298
870.58	3336
870.71	3439
870.84	3443
870.97	3260
871.1	3253
871.23	3485
871.36	3439
871.489	3344
871.619	3367
871.749	3424
871.879	3420
872.008	3492
872.138	3367
872.267	3275
872.397	3142
872.526	3093
872.656	2990
872.785	3100
872.915	3241
873.044	3294
873.173	3192
873.303	3230
873.432	3245
873.561	3260
873.69	3154
873.819	3123
873.948	3184
874.077	3089
874.206	3047
874.335	3085
874.464	3180
874.593	3359
874.722	3226
874.851	3367
874.979	3370
875.108	3348
875.237	3157
875.365	3161
875.494	3195
875.623	3268
875.751	3081
875.88	3108
876.008	3188
876.136	3214
876.265	3386
876.393	3485
876.521	3409
876.65	3450
876.778	3310
876.906	3249
877.034	3184
877.162	3218
877.29	3154
877.418	3233
877.546	3260
877.674	3283
877.802	3176
877.93	3203
878.058	3150
878.185	3074
878.313	3188
878.441	3199
878.568	3081
878.696	3165
878.824	3272
878.951	3306
879.079	3443
879.206	3652
879.333	3435
879.461	3321
879.588	3359
879.715	3454
879.842	3576
879.97	3378
880.097	3161
880.224	3108
880.351	3169
880.478	3245
880.605	3150
880.732	3211
880.859	3488
880.986	3275
881.112	3321
881.239	3199
881.366	3108
881.493	3047
881.619	3005
881.746	3062
881.872	3108
881.999	3081
882.125	3112
882.252	3230
882.378	3253
882.505	3382
882.631	3260
882.757	3161
882.883	3199
883.01	3230
883.136	3146
883.262	3135
883.388	3093
883.514	3306
883.64	3405
883.766	3302
883.892	3214
884.018	3214
884.143	3389
884.269	3530
884.395	3195
884.52	3150
884.646	3211
884.772	3123
884.897	3093
885.023	3195
885.148	3355
885.274	3416
885.399	3321
885.524	3268
885.65	3275
885.775	3329
885.9	3268
886.025	3409
886.15	3359
886.275	3310
886.4	3218
886.525	3272
886.65	3283
886.775	3283
886.9	3504
887.025	3625
887.149	3435
887.274	3253
887.399	3154
887.523	3165
887.648	3161
887.773	3161
887.897	3374
888.021	3397
888.146	3321
888.27	3431
888.395	3545
888.519	3447
888.643	3466
888.767	3412
888.891	3294
889.015	3260
889.139	3287
889.263	3260
889.387	3409
889.511	3435
889.635	3401
889.759	3283
889.883	3306
890.006	3405
890.13	3462
890.254	3260
890.377	3283
890.501	3157
890.624	3192
890.748	3310
890.871	3195
890.995	3093
891.118	3077
891.241	3180
891.364	3184
891.488	3321
891.611	3169
891.734	3211
891.857	3279
891.98	3214
892.103	3348
892.226	3268
892.349	3222
892.471	3142
892.594	3249
892.717	3298
892.839	3253
892.962	3272
893.085	3325
893.207	3336
893.33	3154
893.452	3176
893.575	3359
893.697	3230
893.819	3488
893.941	3515
894.064	3454
894.186	3241
894.308	3264
894.43	3386
894.552	3519
894.674	3469
894.796	3237
894.918	3321
895.04	3279
895.161	3443
895.283	3363
895.405	3310
895.526	3367
895.648	3401
895.769	3458
895.891	3431
896.012	3458
896.134	3428
896.255	3439
896.376	3374
896.498	3348
896.619	3431
896.74	3359
896.861	3424
896.982	3682
897.103	3823
897.224	3557
897.345	3515
897.466	3412
897.587	3496
897.708	3629
897.828	3542
897.949	3443
898.07	3378
898.19	3386
898.311	3625
898.431	3439
898.552	3538
898.672	3587
898.792	3576
898.913	3515
899.033	3405
899.153	3268
899.273	3230
899.393	3302
899.513	3336
899.633	3310
899.753	3325
899.873	3310
899.993	3374
900.113	3310
900.232	3397
900.352	3298
900.472	3287
900.591	3195
900.711	3298
900.83	3218
900.95	3409
901.069	3500
901.189	3348
901.308	3180
901.427	3123
901.546	3192
901.665	3279
901.784	3348
901.904	3211
902.023	3146
902.141	3009
902.26	2963
902.379	3116
902.498	3066
902.617	3043
902.735	3195
902.854	3218
902.973	3211
903.091	2994
903.21	3077
903.328	3161
903.446	3093
903.565	3093
903.683	3214
903.801	3108
903.919	3291
904.038	3272
904.156	3157
904.274	3310
904.392	3222
904.51	3256
904.627	3287
904.745	3443
904.863	3507
904.981	3260
905.098	3169
905.216	3233
905.334	3275
905.451	3321
905.569	3325
905.686	3420
905.803	3416
905.921	3321
906.038	3397
906.155	3351
906.272	3283
906.389	3329
906.506	3165
906.623	3253
906.74	3287
906.857	3218
906.974	3253
907.091	3435
907.208	3572
907.324	3466
907.441	3401
907.557	3184
907.674	3211
907.79	3237
907.907	3241
908.023	3401
908.139	3409
908.256	3291
908.372	3393
908.488	3329
908.604	3264
908.72	3260
908.836	3260
908.952	3310
909.068	3336
909.184	3485
909.3	3389
909.415	3515
909.531	3447
909.647	3268
909.762	3275
909.878	3241
909.993	3355
910.108	3302
910.224	3329
910.339	3405
910.454	3310
910.57	3294
910.685	3253
910.8	3614
910.915	3515
911.03	3458
911.145	3264
911.259	3294
911.374	3283
911.489	3253
911.604	3233
911.718	3097
911.833	3135
911.947	3009
912.062	2982
912.176	3146
912.291	3169
912.405	3233
912.519	3435
912.633	3473
912.748	3332
912.862	3313
912.976	3195
913.09	3051
913.204	3116
913.318	3222
913.431	3325
913.545	3325
913.659	3405
913.772	3363
913.886	3203
914	3195
914.113	3336
914.226	3420
914.34	3344
914.453	3237
914.566	3397
914.68	3294
914.793	3351
914.906	3112
915.019	3142
915.132	3100
915.245	3165
915.358	3222
915.47	3237
915.583	3256
915.696	3283
915.809	3405
915.921	3428
916.034	3275
916.146	3245
916.259	3214
916.371	3389
916.483	3412
916.595	3279
916.708	3321
916.82	3325
916.932	3359
917.044	3332
917.156	3336
917.268	3245
917.38	3260
917.491	3294
917.603	3348
917.715	3435
917.826	3473
917.938	3340
918.049	3268
918.161	3386
918.272	3553
918.384	3591
918.495	3519
918.606	3325
918.717	3279
918.828	3336
918.939	3397
919.05	3260
919.161	3329
919.272	3184
919.383	3233
919.494	3523
919.604	3694
919.715	3519
919.826	3409
919.936	3431
920.047	3526
920.157	3572
920.267	3698
920.378	3587
920.488	3584
920.598	3793
920.708	3949
920.818	3835
920.928	3816
921.038	4010
921.148	3949
921.258	3686
921.368	3625
921.477	3564
921.587	3519
921.697	3435
921.806	3603
921.916	3473
922.025	3374
922.134	3344
922.244	3332
922.353	3397
922.462	3275
922.571	3207
922.68	3104
922.789	3051
922.898	3157
923.007	3085
923.116	3192
923.224	3161
923.333	3199
923.442	3127
923.55	3100
923.659	3131
923.767	3207
923.876	3089
923.984	3233
924.092	3100
924.201	3218
924.309	3203
924.417	3199
924.525	3195
924.633	3256
924.741	4177
924.849	3089
924.956	3272
925.064	3108
925.172	3062
925.279	3070
925.387	3207
925.494	3161
925.602	3340
925.709	3332
925.816	3184
925.924	3245
926.031	3386
926.138	3302
926.245	3348
926.352	3230
926.459	3359
926.566	3443
926.673	3321
926.779	3233
926.886	3207
926.993	3154
927.099	3150
927.206	3119
927.312	3108
927.419	3199
927.525	3214
927.631	3253
927.737	3146
927.843	3123
927.95	3013
928.056	3100
928.162	3176
928.267	3253
928.373	3762
928.479	3294
928.585	3097
928.69	3207
928.796	3256
928.901	3142
929.007	3032
929.112	3233
929.218	3176
929.323	3180
929.428	3119
929.533	3268
929.638	3108
929.743	3150
929.848	3268
929.953	3211
930.058	3127
930.163	2990
930.267	3009
930.372	3211
930.477	3009
930.581	3329
930.685	3218
930.79	3058
930.894	3104
930.998	3093
931.103	3291
931.207	2952
931.311	2982
931.415	2914
931.519	2754
931.623	2811
