Data from test_V78500241_1368.txt Node
Date: Fri Mar 25 16:24:40 CST 2022
User: usil
Spectrometer: V785-0024
Trigger mode: 0
Integration Time (sec): 4.000000E-1
Scans to average: 1
Nonlinearity correction enabled: false
Boxcar width: 0
Storing dark spectrum: false
XAxis mode: Wavelengths
Number of Pixels in Spectrum: 1024
>>>>>Begin Spectral Data<<<<<
801.071	2899
801.214	2960
801.356	2876
801.499	2895
801.641	2857
801.783	2899
801.926	3066
802.068	2998
802.211	2956
802.353	3043
802.496	2952
802.638	2990
802.78	3017
802.923	3074
803.065	2990
803.208	2868
803.35	2899
803.492	2948
803.635	2914
803.777	2762
803.919	2853
804.061	3176
804.204	2937
804.346	2853
804.488	2807
804.63	2941
804.773	2857
804.915	2887
805.057	3074
805.199	2910
805.341	3005
805.483	2990
805.626	2979
805.768	2929
805.91	3055
806.052	3097
806.194	3039
806.336	3233
806.478	3001
806.62	2952
806.762	2990
806.904	3047
807.046	3135
807.188	2941
807.33	2895
807.472	2963
807.614	2902
807.756	2952
807.898	2956
808.04	2891
808.182	2967
808.324	2937
808.465	2868
808.607	2868
808.749	2781
808.891	2849
809.033	2960
809.174	2956
809.316	2883
809.458	2910
809.6	2777
809.741	2773
809.883	2769
810.025	2857
810.166	2834
810.308	2796
810.45	2826
810.591	2777
810.733	2792
810.875	2838
811.016	2804
811.158	2758
811.299	2815
811.441	2941
811.582	2918
811.724	2811
811.865	2834
812.007	2895
812.148	2925
812.29	2864
812.431	2861
812.573	2922
812.714	2956
812.855	3047
812.997	3039
813.138	3112
813.279	2990
813.421	2990
813.562	2937
813.703	2838
813.845	2853
813.986	2743
814.127	2731
814.268	2845
814.41	2849
814.551	2777
814.692	2880
814.833	2769
814.974	2906
815.115	2952
815.256	2830
815.397	2807
815.539	2876
815.68	2769
815.821	2807
815.962	2967
816.103	2952
816.244	2857
816.385	2895
816.526	2963
816.666	2887
816.807	2724
816.948	2925
817.089	2880
817.23	2834
817.371	2788
817.512	2773
817.653	2826
817.793	2811
817.934	2861
818.075	2967
818.216	2979
818.356	3009
818.497	2864
818.638	2773
818.778	2804
818.919	2785
819.06	2731
819.2	2815
819.341	2788
819.481	2792
819.622	2925
819.762	3093
819.903	3051
820.043	2918
820.184	2880
820.324	2880
820.465	2998
820.605	2982
820.746	3013
820.886	2922
821.026	3131
821.167	3135
821.307	3275
821.447	3291
821.588	3222
821.728	3233
821.868	3184
822.008	3043
822.149	3176
822.289	3230
822.429	3058
822.569	3074
822.709	3184
822.849	3043
822.99	3058
823.13	3135
823.27	3173
823.41	3100
823.55	3112
823.69	3138
823.83	3146
823.97	3066
824.11	3017
824.25	2967
824.389	3058
824.529	3135
824.669	3070
824.809	3180
824.949	3211
825.089	3180
825.228	3154
825.368	3001
825.508	2937
825.648	2963
825.787	3013
825.927	2975
826.067	2975
826.206	2990
826.346	3028
826.485	3066
826.625	3070
826.765	3226
826.904	3226
827.044	2963
827.183	2944
827.323	2876
827.462	3017
827.601	2948
827.741	2880
827.88	2948
828.02	2872
828.159	2952
828.298	3036
828.437	3119
828.577	3013
828.716	3245
828.855	3066
828.994	2891
829.134	2906
829.273	2914
829.412	2853
829.551	2853
829.69	2895
829.829	2960
829.968	3089
830.107	2982
830.246	3043
830.385	2906
830.524	2849
830.663	2811
830.802	2727
830.941	2659
831.08	2648
831.219	2743
831.357	2743
831.496	2933
831.635	2731
831.774	2644
831.913	2602
832.051	2556
832.19	2568
832.329	2651
832.467	2514
832.606	2465
832.744	2583
832.883	2587
833.022	2560
833.16	2659
833.299	2655
833.437	2682
833.576	2708
833.714	2708
833.852	2716
833.991	2739
834.129	2842
834.267	2796
834.406	2762
834.544	2834
834.682	2842
834.821	2876
834.959	3062
835.097	2838
835.235	3081
835.373	2994
835.511	3009
835.65	2948
835.788	2914
835.926	2834
836.064	2811
836.202	2853
836.34	3077
836.478	3169
836.615	3032
836.753	3093
836.891	3184
837.029	3157
837.167	3074
837.305	3028
837.443	3009
837.58	2933
837.718	3116
837.856	3039
837.993	3047
838.131	3116
838.269	3119
838.406	3100
838.544	3104
838.681	2952
838.819	2933
838.956	2807
839.094	2807
839.231	2918
839.369	3001
839.506	3344
839.643	3241
839.781	2982
839.918	2952
840.055	3009
840.193	3013
840.33	3043
840.467	3089
840.604	3157
840.742	3393
840.879	3055
841.016	3024
841.153	3108
841.29	3275
841.427	3279
841.564	3272
841.701	3260
841.838	3211
841.975	3173
842.112	3253
842.249	3070
842.385	3024
842.522	3237
842.659	3055
842.796	3051
842.933	3085
843.069	3039
843.206	3005
843.343	3165
843.479	3058
843.616	3108
843.752	2876
843.889	2872
844.025	3055
844.162	2876
844.298	3058
844.435	2929
844.571	2895
844.708	3085
844.844	3169
844.98	3222
845.117	3169
845.253	3047
845.389	3024
845.525	3077
845.661	3066
845.798	2986
845.934	3104
846.07	3013
846.206	3203
846.342	3287
846.478	3199
846.614	3039
846.75	3036
846.886	3009
847.022	3230
847.158	3116
847.294	3199
847.429	3241
847.565	3184
847.701	3466
847.837	2986
847.972	2982
848.108	3157
848.244	3108
848.379	2967
848.515	2914
848.65	2895
848.786	2941
848.921	2986
849.057	3085
849.192	3142
849.328	3081
849.463	3085
849.598	3058
849.734	3017
849.869	2998
850.004	2906
850.14	2967
850.275	2887
850.41	2834
850.545	2880
850.68	2963
850.815	2948
850.95	2971
851.085	3176
851.22	3135
851.355	3028
851.49	2960
851.625	2963
851.76	3017
851.895	2956
852.03	2956
852.165	3028
852.299	3119
852.434	3180
852.569	3142
852.703	3195
852.838	3264
852.973	3370
853.107	3340
853.242	3195
853.376	3154
853.511	2990
853.645	3055
853.78	3256
853.914	3150
854.048	3123
854.183	3100
854.317	3214
854.451	3332
854.585	3188
854.72	3119
854.854	3249
854.988	3074
855.122	3089
855.256	2998
855.39	3142
855.524	3268
855.658	3218
855.792	3195
855.926	3222
856.06	3233
856.194	3272
856.327	3233
856.461	3093
856.595	3108
856.729	3150
856.862	3245
856.996	3173
857.13	3237
857.263	3233
857.397	3317
857.53	3135
857.664	3230
857.797	3253
857.931	3279
858.064	3214
858.197	3264
858.331	3146
858.464	3135
858.597	3058
858.731	3138
858.864	3142
858.997	3108
859.13	3195
859.263	3218
859.396	3230
859.529	3116
859.662	3089
859.795	3047
859.928	3176
860.061	3298
860.194	3302
860.327	3119
860.46	3123
860.592	3291
860.725	3264
860.858	3268
860.99	3100
861.123	3074
861.256	3070
861.388	3176
861.521	3762
861.653	3051
861.786	2994
861.918	3024
862.05	3081
862.183	3154
862.315	3169
862.447	3173
862.58	3108
862.712	2975
862.844	2925
862.976	3055
863.108	3058
863.24	3355
863.372	2922
863.504	2963
863.636	2960
863.768	3058
863.9	3013
864.032	2963
864.164	2998
864.296	3051
864.428	3135
864.559	3165
864.691	3097
864.823	3070
864.954	3055
865.086	3074
865.217	2994
865.349	2979
865.48	3009
865.612	3062
865.743	3192
865.875	3017
866.006	2960
866.137	3005
866.269	2971
866.4	2941
866.531	2963
866.662	2944
866.793	2918
866.924	2952
867.055	2994
867.186	2952
867.317	2887
867.448	2914
867.579	2857
867.71	2887
867.841	2845
867.972	2967
868.103	2952
868.233	2910
868.364	2914
868.495	2960
868.625	3074
868.756	3211
868.886	2979
869.017	3058
869.147	3188
869.278	3207
869.408	3093
869.539	3036
869.669	3127
869.799	3077
869.929	3138
870.06	3150
870.19	3340
870.32	3313
870.45	3336
870.58	3370
870.71	3462
870.84	3534
870.97	3321
871.1	3294
871.23	3454
871.36	3496
871.489	3367
871.619	3420
871.749	3443
871.879	3443
872.008	3492
872.138	3405
872.267	3302
872.397	3150
872.526	3108
872.656	3032
872.785	3100
872.915	3302
873.044	3321
873.173	3264
873.303	3279
873.432	3245
873.561	3275
873.69	3237
873.819	3146
873.948	3249
874.077	3188
874.206	3058
874.335	3112
874.464	3233
874.593	3397
874.722	3268
874.851	3428
874.979	3412
875.108	3363
875.237	3249
875.365	3188
875.494	3203
875.623	3245
875.751	3104
875.88	3154
876.008	3253
876.136	3291
876.265	3431
876.393	3572
876.521	3466
876.65	3401
876.778	3370
876.906	3272
877.034	3249
877.162	3249
877.29	3203
877.418	3340
877.546	3306
877.674	3310
877.802	3264
877.93	3283
878.058	3169
878.185	3123
878.313	3237
878.441	3184
878.568	3097
878.696	3165
878.824	3302
878.951	3336
879.079	3466
879.206	3629
879.333	3447
879.461	3336
879.588	3367
879.715	3485
879.842	3568
879.97	3405
880.097	3207
880.224	3176
880.351	3226
880.478	3268
880.605	3199
880.732	3245
880.859	3511
880.986	3359
881.112	3363
881.239	3256
881.366	3097
881.493	3077
881.619	3077
881.746	3070
881.872	3112
881.999	3104
882.125	3199
882.252	3260
882.378	3302
882.505	3424
882.631	3317
882.757	3169
882.883	3249
883.01	3260
883.136	3188
883.262	3123
883.388	3142
883.514	3310
883.64	3401
883.766	3332
883.892	3222
884.018	3279
884.143	3435
884.269	3568
884.395	3237
884.52	3218
884.646	3180
884.772	3150
884.897	3089
885.023	3222
885.148	3329
885.274	3473
885.399	3416
885.524	3310
885.65	3291
885.775	3370
885.9	3275
886.025	3450
886.15	3359
886.275	3298
886.4	3272
886.525	3321
886.65	3336
886.775	3294
886.9	3526
887.025	3663
887.149	3412
887.274	3294
887.399	3207
887.523	3230
887.648	3192
887.773	3222
887.897	3397
888.021	3393
888.146	3329
888.27	3458
888.395	3530
888.519	3454
888.643	3447
888.767	3477
888.891	3313
889.015	3272
889.139	3298
889.263	3249
889.387	3447
889.511	3507
889.635	3454
889.759	3332
889.883	3321
890.006	3386
890.13	3530
890.254	3313
890.377	3393
890.501	3237
890.624	3180
890.748	3329
890.871	3203
890.995	3135
891.118	3089
891.241	3199
891.364	3302
891.488	3351
891.611	3199
891.734	3203
891.857	3310
891.98	3256
892.103	3355
892.226	3298
892.349	3222
892.471	3104
892.594	3268
892.717	3279
892.839	3302
892.962	3294
893.085	3374
893.207	3321
893.33	3161
893.452	3233
893.575	3378
893.697	3268
893.819	3481
893.941	3538
894.064	3450
894.186	3302
894.308	3317
894.43	3401
894.552	3538
894.674	3473
894.796	3268
894.918	3321
895.04	3321
895.161	3466
895.283	3412
895.405	3332
895.526	3382
895.648	3450
895.769	3435
895.891	3435
896.012	3481
896.134	3500
896.255	3450
896.376	3420
896.498	3386
896.619	3439
896.74	3382
896.861	3401
896.982	3679
897.103	3804
897.224	3625
897.345	3549
897.466	3458
897.587	3549
897.708	3690
897.828	3545
897.949	3431
898.07	3367
898.19	3393
898.311	3606
898.431	3416
898.552	3534
898.672	3603
898.792	3587
898.913	3545
899.033	3447
899.153	3310
899.273	3192
899.393	3332
899.513	3310
899.633	3298
899.753	3401
899.873	3355
899.993	3412
900.113	3351
900.232	3409
900.352	3393
900.472	3268
900.591	3256
900.711	3348
900.83	3233
900.95	3431
901.069	3564
901.189	3344
901.308	3195
901.427	3180
901.546	3188
901.665	3298
901.784	3336
901.904	3245
902.023	3135
902.141	3043
902.26	3001
902.379	3157
902.498	3093
902.617	3089
902.735	3233
902.854	3272
902.973	3203
903.091	3077
903.21	3055
903.328	3154
903.446	3119
903.565	3123
903.683	3214
903.801	3169
903.919	3241
904.038	3348
904.156	3207
904.274	3298
904.392	3298
904.51	3317
904.627	3321
904.745	3450
904.863	3553
904.981	3287
905.098	3192
905.216	3245
905.334	3279
905.451	3340
905.569	3336
905.686	3420
905.803	3435
905.921	3321
906.038	3443
906.155	3355
906.272	3275
906.389	3332
906.506	3264
906.623	3256
906.74	3275
906.857	3245
906.974	3294
907.091	3424
907.208	3637
907.324	3485
907.441	3393
907.557	3237
907.674	3214
907.79	3253
907.907	3272
908.023	3363
908.139	3401
908.256	3344
908.372	3382
908.488	3389
908.604	3268
908.72	3279
908.836	3298
908.952	3310
909.068	3336
909.184	3511
909.3	3412
909.415	3519
909.531	3492
909.647	3287
909.762	3317
909.878	3283
909.993	3397
910.108	3336
910.224	3325
910.339	3428
910.454	3313
910.57	3287
910.685	3256
910.8	3576
910.915	3526
911.03	3454
911.145	3275
911.259	3332
911.374	3348
911.489	3260
911.604	3260
911.718	3173
911.833	3146
911.947	2994
912.062	2994
912.176	3188
912.291	3214
912.405	3226
912.519	3447
912.633	3496
912.748	3348
912.862	3310
912.976	3176
913.09	3097
913.204	3131
913.318	3199
913.431	3351
913.545	3359
913.659	3431
913.772	3363
913.886	3233
914	3226
914.113	3378
914.226	3412
914.34	3325
914.453	3233
914.566	3389
914.68	3298
914.793	3321
914.906	3192
915.019	3138
915.132	3070
915.245	3161
915.358	3199
915.47	3256
915.583	3272
915.696	3283
915.809	3393
915.921	3424
916.034	3260
916.146	3291
916.259	3245
916.371	3416
916.483	3420
916.595	3249
916.708	3363
916.82	3325
916.932	3351
917.044	3332
917.156	3367
917.268	3272
917.38	3321
917.491	3302
917.603	3359
917.715	3447
917.826	3481
917.938	3393
918.049	3317
918.161	3401
918.272	3595
918.384	3553
918.495	3454
918.606	3329
918.717	3256
918.828	3351
918.939	3420
919.05	3340
919.161	3412
919.272	3184
919.383	3317
919.494	3511
919.604	3701
919.715	3534
919.826	3405
919.936	3496
920.047	3610
920.157	3633
920.267	3793
920.378	3644
920.488	3564
920.598	3774
920.708	3945
920.818	3861
920.928	3873
921.038	4055
921.148	4017
921.258	3724
921.368	3679
921.477	3614
921.587	3545
921.697	3504
921.806	3690
921.916	3534
922.025	3386
922.134	3424
922.244	3424
922.353	3466
922.462	3317
922.571	3279
922.68	3150
922.789	3138
922.898	3165
923.007	3154
923.116	3241
923.224	3214
923.333	3249
923.442	3161
923.55	3131
923.659	3199
923.767	3287
923.876	3127
923.984	3256
924.092	3123
924.201	3241
924.309	3291
924.417	3256
924.525	3226
924.633	3275
924.741	4044
924.849	3077
924.956	3283
925.064	3165
925.172	3081
925.279	3131
925.387	3207
925.494	3275
925.602	3424
925.709	3348
925.816	3203
925.924	3313
926.031	3401
926.138	3370
926.245	3401
926.352	3272
926.459	3443
926.566	3511
926.673	3359
926.779	3275
926.886	3268
926.993	3222
927.099	3173
927.206	3154
927.312	3150
927.419	3279
927.525	3211
927.631	3317
927.737	3192
927.843	3169
927.95	3081
928.056	3199
928.162	3249
928.267	3306
928.373	3915
928.479	3359
928.585	3100
928.69	3264
928.796	3302
928.901	3195
929.007	3070
929.112	3233
929.218	3245
929.323	3184
929.428	3195
929.533	3363
929.638	3127
929.743	3199
929.848	3325
929.953	3245
930.058	3157
930.163	3020
930.267	3070
930.372	3214
930.477	3097
930.581	3329
930.685	3245
930.79	3135
930.894	3169
930.998	3138
931.103	3310
931.207	3013
931.311	2998
931.415	2979
931.519	2804
931.623	2868
