Data from test_V78500241_876.txt Node
Date: Fri Mar 25 16:21:16 CST 2022
User: usil
Spectrometer: V785-0024
Trigger mode: 0
Integration Time (sec): 4.000000E-1
Scans to average: 1
Nonlinearity correction enabled: false
Boxcar width: 0
Storing dark spectrum: false
XAxis mode: Wavelengths
Number of Pixels in Spectrum: 1024
>>>>>Begin Spectral Data<<<<<
801.071	2880
801.214	2960
801.356	2883
801.499	2922
801.641	2918
801.783	2929
801.926	3081
802.068	2982
802.211	3005
802.353	3036
802.496	2990
802.638	3032
802.78	3055
802.923	3085
803.065	3017
803.208	2937
803.35	2922
803.492	2925
803.635	2929
803.777	2754
803.919	2914
804.061	3211
804.204	2956
804.346	2880
804.488	2819
804.63	3032
804.773	2864
804.915	2899
805.057	3081
805.199	2925
805.341	2944
805.483	3020
805.626	2982
805.768	2967
805.91	3058
806.052	3112
806.194	3009
806.336	3275
806.478	3020
806.62	3005
806.762	3009
806.904	3036
807.046	3161
807.188	2986
807.33	2910
807.472	3028
807.614	2914
807.756	2971
807.898	2914
808.04	2925
808.182	2952
808.324	2922
808.465	2891
808.607	2857
808.749	2800
808.891	2849
809.033	2929
809.174	3009
809.316	2914
809.458	2876
809.6	2792
809.741	2811
809.883	2754
810.025	2891
810.166	2842
810.308	2834
810.45	2868
810.591	2781
810.733	2773
810.875	2823
811.016	2785
811.158	2758
811.299	2838
811.441	2922
811.582	2902
811.724	2834
811.865	2838
812.007	2880
812.148	2830
812.29	2842
812.431	2891
812.573	2971
812.714	2929
812.855	3074
812.997	3070
813.138	3131
813.279	3020
813.421	2994
813.562	2963
813.703	2876
813.845	2887
813.986	2762
814.127	2705
814.268	2811
814.41	2842
814.551	2861
814.692	2880
814.833	2800
814.974	2906
815.115	2925
815.256	2830
815.397	2807
815.539	2838
815.68	2777
815.821	2800
815.962	2937
816.103	2902
816.244	2895
816.385	2868
816.526	2990
816.666	2891
816.807	2735
816.948	2906
817.089	2918
817.23	2834
817.371	2743
817.512	2796
817.653	2868
817.793	2819
817.934	2864
818.075	2944
818.216	2963
818.356	3013
818.497	2902
818.638	2804
818.778	2766
818.919	2781
819.06	2773
819.2	2891
819.341	2815
819.481	2823
819.622	2899
819.762	3116
819.903	3043
820.043	2899
820.184	2925
820.324	2883
820.465	3017
820.605	3024
820.746	3043
820.886	2891
821.026	3108
821.167	3135
821.307	3253
821.447	3249
821.588	3226
821.728	3237
821.868	3207
822.008	3112
822.149	3226
822.289	3241
822.429	3135
822.569	3127
822.709	3188
822.849	3051
822.99	3077
823.13	3241
823.27	3195
823.41	3108
823.55	3180
823.69	3176
823.83	3207
823.97	3161
824.11	3036
824.25	3028
824.389	3074
824.529	3157
824.669	3066
824.809	3256
824.949	3306
825.089	3226
825.228	3180
825.368	3013
825.508	3024
825.648	2967
825.787	3028
825.927	3055
826.067	3017
826.206	3036
826.346	3081
826.485	3104
826.625	3146
826.765	3260
826.904	3230
827.044	3077
827.183	2982
827.323	2918
827.462	3005
827.601	2956
827.741	2986
827.88	3028
828.02	2902
828.159	3039
828.298	3058
828.437	3150
828.577	3100
828.716	3272
828.855	3066
828.994	3001
829.134	2899
829.273	2944
829.412	2933
829.551	2899
829.69	2941
829.829	3024
829.968	3173
830.107	3066
830.246	3036
830.385	2929
830.524	2937
830.663	2876
830.802	2769
830.941	2693
831.08	2674
831.219	2811
831.357	2750
831.496	2986
831.635	2766
831.774	2670
831.913	2693
832.051	2568
832.19	2648
832.329	2735
832.467	2575
832.606	2518
832.744	2640
832.883	2632
833.022	2606
833.16	2686
833.299	2739
833.437	2758
833.576	2754
833.714	2777
833.852	2746
833.991	2800
834.129	2906
834.267	2872
834.406	2845
834.544	2937
834.682	2937
834.821	2891
834.959	3074
835.097	2937
835.235	3131
835.373	3032
835.511	3032
835.65	2990
835.788	3005
835.926	2868
836.064	2853
836.202	2906
836.34	3127
836.478	3173
836.615	3047
836.753	3195
836.891	3237
837.029	3233
837.167	3089
837.305	3108
837.443	3043
837.58	2982
837.718	3195
837.856	3135
837.993	3051
838.131	3142
838.269	3157
838.406	3131
838.544	3104
838.681	3001
838.819	2963
838.956	2849
839.094	2880
839.231	2952
839.369	3051
839.506	3378
839.643	3249
839.781	3043
839.918	2990
840.055	3077
840.193	3093
840.33	3097
840.467	3104
840.604	3180
840.742	3469
840.879	3100
841.016	3116
841.153	3150
841.29	3378
841.427	3332
841.564	3291
841.701	3336
841.838	3249
841.975	3184
842.112	3256
842.249	3104
842.385	3055
842.522	3302
842.659	3116
842.796	3039
842.933	3127
843.069	3043
843.206	3055
843.343	3218
843.479	3161
843.616	3146
843.752	2929
843.889	2887
844.025	3123
844.162	2910
844.298	3142
844.435	2971
844.571	2952
844.708	3085
844.844	3218
844.98	3226
845.117	3214
845.253	3077
845.389	3036
845.525	3127
845.661	3100
845.798	3055
845.934	3119
846.07	3077
846.206	3256
846.342	3321
846.478	3253
846.614	3100
846.75	3051
846.886	3093
847.022	3253
847.158	3180
847.294	3230
847.429	3291
847.565	3245
847.701	3488
847.837	3051
847.972	3024
848.108	3203
848.244	3214
848.379	2990
848.515	2960
848.65	2963
848.786	3009
848.921	3055
849.057	3119
849.192	3184
849.328	3089
849.463	3131
849.598	3089
849.734	3085
849.869	3024
850.004	2963
850.14	3009
850.275	2952
850.41	2880
850.545	2952
850.68	2948
850.815	2986
850.95	2979
851.085	3249
851.22	3135
851.355	3062
851.49	2990
851.625	3051
851.76	3051
851.895	2956
852.03	2937
852.165	3089
852.299	3135
852.434	3237
852.569	3173
852.703	3188
852.838	3294
852.973	3370
853.107	3321
853.242	3161
853.376	3157
853.511	2979
853.645	3055
853.78	3253
853.914	3146
854.048	3123
854.183	3135
854.317	3157
854.451	3283
854.585	3154
854.72	3123
854.854	3199
854.988	3047
855.122	3097
855.256	3066
855.39	3131
855.524	3283
855.658	3226
855.792	3207
855.926	3233
856.06	3249
856.194	3283
856.327	3188
856.461	3077
856.595	3119
856.729	3100
856.862	3230
856.996	3161
857.13	3237
857.263	3218
857.397	3325
857.53	3146
857.664	3169
857.797	3241
857.931	3279
858.064	3192
858.197	3249
858.331	3157
858.464	3116
858.597	3020
858.731	3173
858.864	3180
858.997	3123
859.13	3180
859.263	3157
859.396	3218
859.529	3135
859.662	3093
859.795	3062
859.928	3169
860.061	3283
860.194	3329
860.327	3119
860.46	3150
860.592	3237
860.725	3233
860.858	3249
860.99	3093
861.123	3062
861.256	3055
861.388	3157
861.521	3873
861.653	3051
861.786	3001
861.918	3013
862.05	3055
862.183	3116
862.315	3154
862.447	3195
862.58	3123
862.712	2982
862.844	2910
862.976	3043
863.108	3039
863.24	3275
863.372	2895
863.504	2971
863.636	2979
863.768	3028
863.9	2990
864.032	2925
864.164	2986
864.296	3024
864.428	3108
864.559	3077
864.691	3055
864.823	3089
864.954	3055
865.086	3070
865.217	2994
865.349	2963
865.48	3013
865.612	3020
865.743	3188
865.875	3001
866.006	2963
866.137	2982
866.269	2952
866.4	2925
866.531	2944
866.662	2891
866.793	2914
866.924	2887
867.055	2986
867.186	2952
867.317	2883
867.448	2857
867.579	2872
867.71	2876
867.841	2838
867.972	2948
868.103	2933
868.233	2902
868.364	2922
868.495	2914
868.625	3093
868.756	3127
868.886	2986
869.017	3036
869.147	3199
869.278	3207
869.408	3058
869.539	3081
869.669	3116
869.799	3058
869.929	3142
870.06	3089
870.19	3332
870.32	3310
870.45	3298
870.58	3401
870.71	3481
870.84	3466
870.97	3283
871.1	3275
871.23	3469
871.36	3507
871.489	3393
871.619	3431
871.749	3439
871.879	3481
872.008	3545
872.138	3367
872.267	3283
872.397	3161
872.526	3116
872.656	3009
872.785	3100
872.915	3291
873.044	3313
873.173	3253
873.303	3264
873.432	3241
873.561	3237
873.69	3131
873.819	3173
873.948	3180
874.077	3108
874.206	3074
874.335	3100
874.464	3218
874.593	3355
874.722	3245
874.851	3401
874.979	3370
875.108	3359
875.237	3226
875.365	3165
875.494	3199
875.623	3268
875.751	3108
875.88	3119
876.008	3230
876.136	3237
876.265	3409
876.393	3477
876.521	3469
876.65	3378
876.778	3355
876.906	3298
877.034	3165
877.162	3230
877.29	3233
877.418	3241
877.546	3279
877.674	3249
877.802	3245
877.93	3253
878.058	3207
878.185	3108
878.313	3230
878.441	3214
878.568	3047
878.696	3169
878.824	3279
878.951	3310
879.079	3481
879.206	3580
879.333	3469
879.461	3374
879.588	3389
879.715	3507
879.842	3622
879.97	3397
880.097	3161
880.224	3142
880.351	3211
880.478	3237
880.605	3237
880.732	3176
880.859	3473
880.986	3340
881.112	3313
881.239	3211
881.366	3089
881.493	3039
881.619	3020
881.746	3085
881.872	3131
881.999	3097
882.125	3154
882.252	3249
882.378	3283
882.505	3454
882.631	3283
882.757	3173
882.883	3214
883.01	3214
883.136	3184
883.262	3116
883.388	3165
883.514	3336
883.64	3382
883.766	3310
883.892	3165
884.018	3218
884.143	3428
884.269	3584
884.395	3218
884.52	3157
884.646	3192
884.772	3123
884.897	3138
885.023	3207
885.148	3359
885.274	3401
885.399	3412
885.524	3294
885.65	3298
885.775	3332
885.9	3298
886.025	3428
886.15	3389
886.275	3313
886.4	3214
886.525	3329
886.65	3298
886.775	3294
886.9	3504
887.025	3644
887.149	3431
887.274	3256
887.399	3218
887.523	3195
887.648	3173
887.773	3214
887.897	3367
888.021	3409
888.146	3268
888.27	3439
888.395	3545
888.519	3469
888.643	3454
888.767	3466
888.891	3298
889.015	3272
889.139	3306
889.263	3233
889.387	3389
889.511	3549
889.635	3496
889.759	3298
889.883	3298
890.006	3359
890.13	3469
890.254	3313
890.377	3348
890.501	3188
890.624	3169
890.748	3275
890.871	3180
890.995	3104
891.118	3066
891.241	3169
891.364	3207
891.488	3367
891.611	3176
891.734	3260
891.857	3310
891.98	3253
892.103	3355
892.226	3287
892.349	3199
892.471	3085
892.594	3211
892.717	3287
892.839	3287
892.962	3321
893.085	3363
893.207	3279
893.33	3161
893.452	3218
893.575	3344
893.697	3241
893.819	3485
893.941	3496
894.064	3466
894.186	3260
894.308	3253
894.43	3462
894.552	3538
894.674	3515
894.796	3283
894.918	3329
895.04	3294
895.161	3416
895.283	3397
895.405	3294
895.526	3355
895.648	3420
895.769	3416
895.891	3447
896.012	3454
896.134	3469
896.255	3424
896.376	3397
896.498	3359
896.619	3431
896.74	3348
896.861	3382
896.982	3686
897.103	3835
897.224	3591
897.345	3523
897.466	3466
897.587	3511
897.708	3595
897.828	3515
897.949	3473
898.07	3336
898.19	3428
898.311	3641
898.431	3447
898.552	3538
898.672	3610
898.792	3610
898.913	3549
899.033	3359
899.153	3359
899.273	3188
899.393	3256
899.513	3329
899.633	3313
899.753	3294
899.873	3340
899.993	3359
900.113	3329
900.232	3374
900.352	3332
900.472	3298
900.591	3199
900.711	3272
900.83	3237
900.95	3428
901.069	3492
901.189	3359
901.308	3188
901.427	3127
901.546	3214
901.665	3313
901.784	3310
901.904	3203
902.023	3146
902.141	3009
902.26	3017
902.379	3135
902.498	3123
902.617	3039
902.735	3230
902.854	3233
902.973	3169
903.091	3058
903.21	3097
903.328	3112
903.446	3104
903.565	3085
903.683	3241
903.801	3169
903.919	3214
904.038	3298
904.156	3157
904.274	3279
904.392	3218
904.51	3283
904.627	3317
904.745	3439
904.863	3462
904.981	3268
905.098	3169
905.216	3218
905.334	3302
905.451	3332
905.569	3344
905.686	3409
905.803	3393
905.921	3306
906.038	3416
906.155	3382
906.272	3256
906.389	3321
906.506	3211
906.623	3275
906.74	3287
906.857	3222
906.974	3256
907.091	3439
907.208	3523
907.324	3542
907.441	3397
907.557	3260
907.674	3211
907.79	3214
907.907	3283
908.023	3344
908.139	3378
908.256	3336
908.372	3329
908.488	3363
908.604	3272
908.72	3264
908.836	3260
908.952	3249
909.068	3321
909.184	3492
909.3	3359
909.415	3458
909.531	3500
909.647	3241
909.762	3291
909.878	3272
909.993	3378
910.108	3359
910.224	3317
910.339	3454
910.454	3374
910.57	3298
910.685	3260
910.8	3591
910.915	3553
911.03	3428
911.145	3275
911.259	3256
911.374	3294
911.489	3279
911.604	3222
911.718	3127
911.833	3138
911.947	3051
912.062	2967
912.176	3165
912.291	3207
912.405	3233
912.519	3447
912.633	3481
912.748	3378
912.862	3302
912.976	3169
913.09	3070
913.204	3112
913.318	3253
913.431	3351
913.545	3332
913.659	3428
913.772	3332
913.886	3249
914	3188
914.113	3389
914.226	3431
914.34	3367
914.453	3199
914.566	3443
914.68	3306
914.793	3268
914.906	3161
915.019	3089
915.132	3085
915.245	3192
915.358	3226
915.47	3222
915.583	3241
915.696	3264
915.809	3401
915.921	3416
916.034	3268
916.146	3233
916.259	3245
916.371	3348
916.483	3310
916.595	3264
916.708	3329
916.82	3329
916.932	3348
917.044	3344
917.156	3336
917.268	3226
917.38	3298
917.491	3306
917.603	3393
917.715	3439
917.826	3450
917.938	3435
918.049	3253
918.161	3431
918.272	3523
918.384	3564
918.495	3481
918.606	3321
918.717	3260
918.828	3370
918.939	3416
919.05	3329
919.161	3298
919.272	3180
919.383	3287
919.494	3500
919.604	3637
919.715	3488
919.826	3393
919.936	3458
920.047	3545
920.157	3534
920.267	3736
920.378	3614
920.488	3561
920.598	3732
920.708	3926
920.818	3808
920.928	3831
921.038	3987
921.148	4025
921.258	3667
921.368	3629
921.477	3587
921.587	3519
921.697	3454
921.806	3603
921.916	3488
922.025	3363
922.134	3359
922.244	3302
922.353	3435
922.462	3329
922.571	3237
922.68	3119
922.789	3066
922.898	3123
923.007	3131
923.116	3207
923.224	3195
923.333	3203
923.442	3123
923.55	3112
923.659	3138
923.767	3230
923.876	3116
923.984	3256
924.092	3112
924.201	3203
924.309	3233
924.417	3291
924.525	3165
924.633	3264
924.741	4177
924.849	3039
924.956	3294
925.064	3062
925.172	3036
925.279	3108
925.387	3195
925.494	3214
925.602	3348
925.709	3348
925.816	3203
925.924	3291
926.031	3401
926.138	3336
926.245	3363
926.352	3241
926.459	3409
926.566	3454
926.673	3382
926.779	3268
926.886	3260
926.993	3184
927.099	3077
927.206	3116
927.312	3138
927.419	3211
927.525	3214
927.631	3264
927.737	3142
927.843	3138
927.95	3039
928.056	3100
928.162	3203
928.267	3272
928.373	3774
928.479	3268
928.585	3070
928.69	3211
928.796	3283
928.901	3154
929.007	3047
929.112	3211
929.218	3180
929.323	3123
929.428	3173
929.533	3332
929.638	3108
929.743	3142
929.848	3218
929.953	3207
930.058	3123
930.163	2986
930.267	3058
930.372	3195
930.477	3039
930.581	3317
930.685	3146
930.79	3070
930.894	3131
930.998	3108
931.103	3237
931.207	2944
931.311	2960
931.415	2891
931.519	2769
931.623	2807
