Data from test_V78500241_367.txt Node
Date: Fri Mar 25 16:17:44 CST 2022
User: usil
Spectrometer: V785-0024
Trigger mode: 0
Integration Time (sec): 4.000000E-1
Scans to average: 1
Nonlinearity correction enabled: false
Boxcar width: 0
Storing dark spectrum: false
XAxis mode: Wavelengths
Number of Pixels in Spectrum: 1024
>>>>>Begin Spectral Data<<<<<
801.071	2937
801.214	2967
801.356	2857
801.499	2883
801.641	2857
801.783	2941
801.926	3039
802.068	2956
802.211	2967
802.353	3055
802.496	2986
802.638	2979
802.78	3047
802.923	3085
803.065	2979
803.208	2887
803.35	2914
803.492	2887
803.635	2929
803.777	2750
803.919	2872
804.061	3226
804.204	2910
804.346	2857
804.488	2842
804.63	2952
804.773	2834
804.915	2895
805.057	3070
805.199	2918
805.341	2963
805.483	3032
805.626	2979
805.768	2941
805.91	3097
806.052	3127
806.194	3062
806.336	3218
806.478	3043
806.62	2960
806.762	2944
806.904	3062
807.046	3135
807.188	2982
807.33	2883
807.472	3005
807.614	2922
807.756	3001
807.898	2922
808.04	2880
808.182	2963
808.324	2963
808.465	2853
808.607	2910
808.749	2807
808.891	2849
809.033	2971
809.174	2994
809.316	2876
809.458	2876
809.6	2754
809.741	2781
809.883	2766
810.025	2830
810.166	2876
810.308	2823
810.45	2857
810.591	2777
810.733	2754
810.875	2811
811.016	2788
811.158	2735
811.299	2781
811.441	2922
811.582	2876
811.724	2834
811.865	2823
812.007	2910
812.148	2887
812.29	2853
812.431	2864
812.573	2937
812.714	2971
812.855	3074
812.997	3093
813.138	3100
813.279	3009
813.421	2998
813.562	2990
813.703	2864
813.845	2876
813.986	2792
814.127	2708
814.268	2819
814.41	2830
814.551	2804
814.692	2895
814.833	2811
814.974	2853
815.115	2952
815.256	2819
815.397	2785
815.539	2868
815.68	2754
815.821	2815
815.962	2937
816.103	2910
816.244	2899
816.385	2880
816.526	2960
816.666	2933
816.807	2758
816.948	2872
817.089	2952
817.23	2838
817.371	2807
817.512	2826
817.653	2838
817.793	2796
817.934	2868
818.075	2998
818.216	2994
818.356	3051
818.497	2899
818.638	2781
818.778	2830
818.919	2781
819.06	2724
819.2	2910
819.341	2792
819.481	2815
819.622	2925
819.762	3085
819.903	3017
820.043	2948
820.184	2849
820.324	2895
820.465	2982
820.605	2990
820.746	3020
820.886	2929
821.026	3093
821.167	3176
821.307	3218
821.447	3310
821.588	3226
821.728	3233
821.868	3218
822.008	3055
822.149	3188
822.289	3211
822.429	3081
822.569	3081
822.709	3154
822.849	3013
822.99	3058
823.13	3157
823.27	3199
823.41	3097
823.55	3142
823.69	3142
823.83	3146
823.97	3077
824.11	2982
824.25	3013
824.389	3001
824.529	3104
824.669	3077
824.809	3203
824.949	3249
825.089	3226
825.228	3173
825.368	2975
825.508	2963
825.648	2937
825.787	3047
825.927	3001
826.067	2971
826.206	2948
826.346	3039
826.485	3062
826.625	3119
826.765	3291
826.904	3203
827.044	2998
827.183	2918
827.323	2853
827.462	2986
827.601	2922
827.741	2902
827.88	2948
828.02	2857
828.159	2948
828.298	3024
828.437	3070
828.577	3043
828.716	3268
828.855	3077
828.994	2914
829.134	2872
829.273	2922
829.412	2861
829.551	2864
829.69	2891
829.829	2956
829.968	3123
830.107	3017
830.246	3009
830.385	2910
830.524	2887
830.663	2811
830.802	2743
830.941	2640
831.08	2644
831.219	2785
831.357	2769
831.496	2956
831.635	2727
831.774	2617
831.913	2659
832.051	2537
832.19	2556
832.329	2697
832.467	2549
832.606	2499
832.744	2587
832.883	2579
833.022	2571
833.16	2644
833.299	2670
833.437	2674
833.576	2674
833.714	2705
833.852	2758
833.991	2735
834.129	2849
834.267	2823
834.406	2811
834.544	2853
834.682	2872
834.821	2868
834.959	3036
835.097	2880
835.235	3070
835.373	3028
835.511	3039
835.65	2922
835.788	2944
835.926	2811
836.064	2788
836.202	2845
836.34	3085
836.478	3161
836.615	3058
836.753	3104
836.891	3218
837.029	3135
837.167	3116
837.305	3058
837.443	3036
837.58	2963
837.718	3127
837.856	3077
837.993	3028
838.131	3116
838.269	3093
838.406	3112
838.544	3081
838.681	2933
838.819	2922
838.956	2819
839.094	2800
839.231	2925
839.369	3032
839.506	3374
839.643	3165
839.781	2986
839.918	2960
840.055	3066
840.193	3001
840.33	3062
840.467	3074
840.604	3150
840.742	3409
840.879	3013
841.016	3043
841.153	3138
841.29	3321
841.427	3272
841.564	3264
841.701	3310
841.838	3237
841.975	3157
842.112	3154
842.249	3081
842.385	3005
842.522	3222
842.659	3058
842.796	3058
842.933	3093
843.069	3036
843.206	3009
843.343	3180
843.479	3077
843.616	3119
843.752	2902
843.889	2853
844.025	3009
844.162	2880
844.298	3024
844.435	2937
844.571	2902
844.708	3039
844.844	3180
844.98	3218
845.117	3165
845.253	3077
845.389	3009
845.525	3089
845.661	3077
845.798	3020
845.934	3112
846.07	3039
846.206	3233
846.342	3298
846.478	3222
846.614	3100
846.75	3032
846.886	3017
847.022	3195
847.158	3116
847.294	3184
847.429	3249
847.565	3199
847.701	3492
847.837	3036
847.972	2990
848.108	3146
848.244	3116
848.379	2929
848.515	2914
848.65	2948
848.786	2956
848.921	2975
849.057	3077
849.192	3131
849.328	3047
849.463	3097
849.598	3047
849.734	3017
849.869	2971
850.004	2914
850.14	2967
850.275	2872
850.41	2838
850.545	2876
850.68	2914
850.815	2963
850.95	3005
851.085	3146
851.22	3138
851.355	3032
851.49	2960
851.625	2975
851.76	2998
851.895	2941
852.03	2933
852.165	3039
852.299	3119
852.434	3161
852.569	3127
852.703	3184
852.838	3226
852.973	3329
853.107	3310
853.242	3154
853.376	3077
853.511	2941
853.645	3032
853.78	3214
853.914	3074
854.048	3085
854.183	3066
854.317	3161
854.451	3310
854.585	3123
854.72	3058
854.854	3207
854.988	3036
855.122	3066
855.256	2933
855.39	3119
855.524	3275
855.658	3203
855.792	3146
855.926	3161
856.06	3230
856.194	3214
856.327	3127
856.461	3036
856.595	3074
856.729	3058
856.862	3173
856.996	3150
857.13	3218
857.263	3233
857.397	3253
857.53	3089
857.664	3180
857.797	3237
857.931	3256
858.064	3184
858.197	3233
858.331	3127
858.464	3074
858.597	3013
858.731	3108
858.864	3127
858.997	3081
859.13	3146
859.263	3150
859.396	3169
859.529	3051
859.662	3104
859.795	3001
859.928	3127
860.061	3245
860.194	3302
860.327	3138
860.46	3070
860.592	3233
860.725	3222
860.858	3264
860.99	3097
861.123	3070
861.256	3024
861.388	3119
861.521	3869
861.653	2998
861.786	2963
861.918	2994
862.05	3074
862.183	3093
862.315	3150
862.447	3207
862.58	3047
862.712	2963
862.844	2891
862.976	2982
863.108	2990
863.24	3450
863.372	2868
863.504	2986
863.636	2929
863.768	3032
863.9	2960
864.032	2899
864.164	2937
864.296	2990
864.428	3085
864.559	3070
864.691	3039
864.823	3051
864.954	3017
865.086	3058
865.217	2948
865.349	2941
865.48	2998
865.612	2982
865.743	3154
865.875	2990
866.006	2918
866.137	2944
866.269	2944
866.4	2948
866.531	2899
866.662	2845
866.793	2876
866.924	2910
867.055	2960
867.186	2914
867.317	2887
867.448	2823
867.579	2830
867.71	2861
867.841	2766
867.972	2864
868.103	2891
868.233	2880
868.364	2853
868.495	2899
868.625	3077
868.756	3173
868.886	2967
869.017	2994
869.147	3173
869.278	3157
869.408	3013
869.539	2986
869.669	3062
869.799	2990
869.929	3131
870.06	3127
870.19	3287
870.32	3272
870.45	3275
870.58	3374
870.71	3405
870.84	3450
870.97	3237
871.1	3169
871.23	3496
871.36	3488
871.489	3344
871.619	3420
871.749	3439
871.879	3424
872.008	3435
872.138	3336
872.267	3264
872.397	3180
872.526	3123
872.656	3032
872.785	3108
872.915	3211
873.044	3336
873.173	3218
873.303	3260
873.432	3249
873.561	3260
873.69	3188
873.819	3150
873.948	3207
874.077	3131
874.206	3032
874.335	3093
874.464	3218
874.593	3351
874.722	3249
874.851	3401
874.979	3363
875.108	3351
875.237	3173
875.365	3192
875.494	3199
875.623	3298
875.751	3123
875.88	3116
876.008	3195
876.136	3253
876.265	3393
876.393	3549
876.521	3458
876.65	3447
876.778	3344
876.906	3310
877.034	3222
877.162	3264
877.29	3199
877.418	3291
877.546	3283
877.674	3283
877.802	3260
877.93	3253
878.058	3161
878.185	3161
878.313	3214
878.441	3233
878.568	3112
878.696	3214
878.824	3245
878.951	3317
879.079	3504
879.206	3694
879.333	3485
879.461	3336
879.588	3389
879.715	3530
879.842	3629
879.97	3386
880.097	3184
880.224	3176
880.351	3214
880.478	3287
880.605	3241
880.732	3237
880.859	3526
880.986	3348
881.112	3363
881.239	3230
881.366	3119
881.493	3066
881.619	3089
881.746	3112
881.872	3154
881.999	3135
882.125	3176
882.252	3298
882.378	3382
882.505	3496
882.631	3306
882.757	3226
882.883	3256
883.01	3237
883.136	3176
883.262	3138
883.388	3127
883.514	3336
883.64	3435
883.766	3370
883.892	3249
884.018	3226
884.143	3420
884.269	3599
884.395	3310
884.52	3192
884.646	3230
884.772	3154
884.897	3180
885.023	3207
885.148	3332
885.274	3443
885.399	3416
885.524	3291
885.65	3256
885.775	3351
885.9	3298
886.025	3458
886.15	3359
886.275	3317
886.4	3249
886.525	3329
886.65	3272
886.775	3313
886.9	3511
887.025	3641
887.149	3428
887.274	3249
887.399	3203
887.523	3260
887.648	3233
887.773	3226
887.897	3382
888.021	3443
888.146	3348
888.27	3447
888.395	3618
888.519	3450
888.643	3420
888.767	3507
888.891	3325
889.015	3264
889.139	3325
889.263	3275
889.387	3454
889.511	3500
889.635	3466
889.759	3321
889.883	3344
890.006	3409
890.13	3553
890.254	3283
890.377	3393
890.501	3245
890.624	3253
890.748	3321
890.871	3237
890.995	3104
891.118	3097
891.241	3207
891.364	3245
891.488	3325
891.611	3218
891.734	3260
891.857	3310
891.98	3241
892.103	3378
892.226	3275
892.349	3222
892.471	3154
892.594	3291
892.717	3306
892.839	3321
892.962	3348
893.085	3370
893.207	3355
893.33	3188
893.452	3230
893.575	3336
893.697	3291
893.819	3496
893.941	3545
894.064	3458
894.186	3340
894.308	3306
894.43	3481
894.552	3561
894.674	3469
894.796	3317
894.918	3317
895.04	3298
895.161	3454
895.283	3389
895.405	3340
895.526	3401
895.648	3469
895.769	3424
895.891	3511
896.012	3481
896.134	3488
896.255	3431
896.376	3409
896.498	3416
896.619	3504
896.74	3397
896.861	3416
896.982	3736
897.103	3888
897.224	3656
897.345	3557
897.466	3450
897.587	3519
897.708	3663
897.828	3584
897.949	3473
898.07	3374
898.19	3454
898.311	3667
898.431	3477
898.552	3500
898.672	3625
898.792	3618
898.913	3576
899.033	3454
899.153	3325
899.273	3253
899.393	3272
899.513	3348
899.633	3336
899.753	3359
899.873	3340
899.993	3428
900.113	3359
900.232	3416
900.352	3367
900.472	3329
900.591	3233
900.711	3329
900.83	3268
900.95	3443
901.069	3545
901.189	3378
901.308	3211
901.427	3138
901.546	3241
901.665	3310
901.784	3355
901.904	3272
902.023	3142
902.141	3058
902.26	3058
902.379	3211
902.498	3150
902.617	3112
902.735	3226
902.854	3302
902.973	3199
903.091	3043
903.21	3119
903.328	3180
903.446	3123
903.565	3127
903.683	3214
903.801	3157
903.919	3237
904.038	3310
904.156	3214
904.274	3298
904.392	3279
904.51	3344
904.627	3340
904.745	3466
904.863	3553
904.981	3294
905.098	3214
905.216	3222
905.334	3272
905.451	3359
905.569	3306
905.686	3431
905.803	3500
905.921	3279
906.038	3466
906.155	3363
906.272	3302
906.389	3355
906.506	3256
906.623	3245
906.74	3332
906.857	3241
906.974	3306
907.091	3481
907.208	3606
907.324	3488
907.441	3424
907.557	3256
907.674	3260
907.79	3264
907.907	3272
908.023	3370
908.139	3382
908.256	3382
908.372	3397
908.488	3393
908.604	3291
908.72	3272
908.836	3279
908.952	3310
909.068	3405
909.184	3523
909.3	3409
909.415	3519
909.531	3447
909.647	3298
909.762	3310
909.878	3283
909.993	3382
910.108	3363
910.224	3321
910.339	3447
910.454	3344
910.57	3298
910.685	3302
910.8	3637
910.915	3561
911.03	3454
911.145	3279
911.259	3298
911.374	3367
911.489	3279
911.604	3218
911.718	3157
911.833	3169
911.947	3055
912.062	3043
912.176	3222
912.291	3222
912.405	3256
912.519	3435
912.633	3481
912.748	3355
912.862	3298
912.976	3203
913.09	3085
913.204	3135
913.318	3230
913.431	3332
913.545	3351
913.659	3477
913.772	3317
913.886	3245
914	3245
914.113	3370
914.226	3435
914.34	3416
914.453	3237
914.566	3458
914.68	3317
914.793	3329
914.906	3169
915.019	3157
915.132	3085
915.245	3199
915.358	3230
915.47	3260
915.583	3260
915.696	3291
915.809	3393
915.921	3454
916.034	3272
916.146	3260
916.259	3214
916.371	3424
916.483	3424
916.595	3279
916.708	3405
916.82	3363
916.932	3332
917.044	3382
917.156	3393
917.268	3291
917.38	3355
917.491	3325
917.603	3397
917.715	3485
917.826	3488
917.938	3386
918.049	3275
918.161	3447
918.272	3595
918.384	3622
918.495	3561
918.606	3405
918.717	3306
918.828	3355
918.939	3397
919.05	3321
919.161	3389
919.272	3245
919.383	3298
919.494	3530
919.604	3720
919.715	3507
919.826	3424
919.936	3496
920.047	3587
920.157	3595
920.267	3781
920.378	3622
920.488	3557
920.598	3793
920.708	3960
920.818	3838
920.928	3850
921.038	4036
921.148	4048
921.258	3690
921.368	3698
921.477	3557
921.587	3576
921.697	3447
921.806	3679
921.916	3553
922.025	3393
922.134	3378
922.244	3344
922.353	3469
922.462	3306
922.571	3226
922.68	3135
922.789	3070
922.898	3154
923.007	3112
923.116	3214
923.224	3169
923.333	3199
923.442	3116
923.55	3131
923.659	3116
923.767	3256
923.876	3127
923.984	3275
924.092	3131
924.201	3218
924.309	3245
924.417	3237
924.525	3184
924.633	3218
924.741	4207
924.849	3074
924.956	3302
925.064	3116
925.172	3074
925.279	3085
925.387	3192
925.494	3241
925.602	3344
925.709	3325
925.816	3218
925.924	3283
926.031	3409
926.138	3294
926.245	3401
926.352	3260
926.459	3405
926.566	3462
926.673	3336
926.779	3279
926.886	3245
926.993	3169
927.099	3135
927.206	3142
927.312	3127
927.419	3218
927.525	3207
927.631	3302
927.737	3157
927.843	3142
927.95	2998
928.056	3154
928.162	3226
928.267	3256
928.373	3876
928.479	3340
928.585	3097
928.69	3230
928.796	3325
928.901	3188
929.007	3070
929.112	3241
929.218	3214
929.323	3173
929.428	3154
929.533	3321
929.638	3142
929.743	3184
929.848	3283
929.953	3214
930.058	3150
930.163	2994
930.267	3032
930.372	3199
930.477	3039
930.581	3340
930.685	3192
930.79	3051
930.894	3116
930.998	3138
931.103	3298
931.207	2975
931.311	2967
931.415	2941
931.519	2762
931.623	2830
