Data from test_V78500241_549.txt Node
Date: Fri Mar 25 16:19:00 CST 2022
User: usil
Spectrometer: V785-0024
Trigger mode: 0
Integration Time (sec): 4.000000E-1
Scans to average: 1
Nonlinearity correction enabled: false
Boxcar width: 0
Storing dark spectrum: false
XAxis mode: Wavelengths
Number of Pixels in Spectrum: 1024
>>>>>Begin Spectral Data<<<<<
801.071	2944
801.214	2963
801.356	2857
801.499	2960
801.641	2902
801.783	2948
801.926	3043
802.068	3013
802.211	3036
802.353	3032
802.496	2982
802.638	3032
802.78	3081
802.923	3150
803.065	3047
803.208	2929
803.35	2922
803.492	2948
803.635	2952
803.777	2769
803.919	2910
804.061	3195
804.204	2952
804.346	2922
804.488	2895
804.63	3013
804.773	2887
804.915	2906
805.057	3097
805.199	2948
805.341	3001
805.483	3017
805.626	3032
805.768	2994
805.91	3070
806.052	3116
806.194	3047
806.336	3253
806.478	3074
806.62	2914
806.762	2982
806.904	3058
807.046	3165
807.188	2979
807.33	2929
807.472	3009
807.614	2910
807.756	2979
807.898	2929
808.04	2933
808.182	3017
808.324	2967
808.465	2944
808.607	2849
808.749	2815
808.891	2864
809.033	2963
809.174	2979
809.316	2883
809.458	2906
809.6	2785
809.741	2788
809.883	2804
810.025	2861
810.166	2880
810.308	2838
810.45	2857
810.591	2785
810.733	2766
810.875	2849
811.016	2781
811.158	2781
811.299	2845
811.441	2922
811.582	2895
811.724	2853
811.865	2826
812.007	2922
812.148	2902
812.29	2895
812.431	2895
812.573	2944
812.714	2933
812.855	3062
812.997	3070
813.138	3119
813.279	3017
813.421	3036
813.562	2956
813.703	2880
813.845	2880
813.986	2788
814.127	2754
814.268	2826
814.41	2857
814.551	2864
814.692	2876
814.833	2811
814.974	2944
815.115	2963
815.256	2899
815.397	2811
815.539	2887
815.68	2807
815.821	2826
815.962	2956
816.103	2941
816.244	2880
816.385	2853
816.526	2979
816.666	2906
816.807	2758
816.948	2895
817.089	2925
817.23	2891
817.371	2815
817.512	2785
817.653	2826
817.793	2834
817.934	2880
818.075	2994
818.216	2998
818.356	3043
818.497	2864
818.638	2788
818.778	2830
818.919	2792
819.06	2781
819.2	2872
819.341	2819
819.481	2826
819.622	2925
819.762	3127
819.903	3039
820.043	2902
820.184	2906
820.324	2872
820.465	3009
820.605	3036
820.746	2994
820.886	2952
821.026	3097
821.167	3157
821.307	3237
821.447	3264
821.588	3260
821.728	3169
821.868	3184
822.008	3112
822.149	3195
822.289	3233
822.429	3070
822.569	3116
822.709	3131
822.849	3020
822.99	3112
823.13	3188
823.27	3203
823.41	3135
823.55	3154
823.69	3176
823.83	3173
823.97	3116
824.11	3032
824.25	3009
824.389	3085
824.529	3112
824.669	3055
824.809	3188
824.949	3253
825.089	3230
825.228	3173
825.368	3017
825.508	2956
825.648	2956
825.787	3005
825.927	3020
826.067	2979
826.206	2967
826.346	3043
826.485	3070
826.625	3116
826.765	3230
826.904	3218
827.044	2990
827.183	2925
827.323	2834
827.462	2960
827.601	2902
827.741	2925
827.88	2952
828.02	2883
828.159	2994
828.298	3039
828.437	3100
828.577	3055
828.716	3260
828.855	3074
828.994	2895
829.134	2849
829.273	2899
829.412	2857
829.551	2876
829.69	2883
829.829	2967
829.968	3119
830.107	3001
830.246	3036
830.385	2925
830.524	2880
830.663	2826
830.802	2735
830.941	2686
831.08	2613
831.219	2727
831.357	2766
831.496	2937
831.635	2720
831.774	2674
831.913	2674
832.051	2533
832.19	2606
832.329	2682
832.467	2507
832.606	2473
832.744	2579
832.883	2583
833.022	2575
833.16	2640
833.299	2697
833.437	2705
833.576	2689
833.714	2720
833.852	2743
833.991	2766
834.129	2880
834.267	2842
834.406	2792
834.544	2842
834.682	2868
834.821	2849
834.959	3047
835.097	2895
835.235	3043
835.373	2998
835.511	3017
835.65	2910
835.788	2967
835.926	2864
836.064	2792
836.202	2826
836.34	3058
836.478	3165
836.615	3070
836.753	3142
836.891	3245
837.029	3161
837.167	3127
837.305	3066
837.443	3055
837.58	2960
837.718	3138
837.856	3047
837.993	3058
838.131	3127
838.269	3127
838.406	3119
838.544	3077
838.681	2956
838.819	2925
838.956	2819
839.094	2811
839.231	2895
839.369	3020
839.506	3367
839.643	3214
839.781	3001
839.918	2925
840.055	3077
840.193	3009
840.33	3043
840.467	3081
840.604	3146
840.742	3374
840.879	3066
841.016	3043
841.153	3112
841.29	3359
841.427	3287
841.564	3253
841.701	3310
841.838	3218
841.975	3176
842.112	3222
842.249	3104
842.385	3039
842.522	3233
842.659	3089
842.796	3032
842.933	3032
843.069	3020
843.206	3028
843.343	3165
843.479	3131
843.616	3142
843.752	2922
843.889	2834
844.025	3070
844.162	2864
844.298	3062
844.435	2994
844.571	2948
844.708	3062
844.844	3199
844.98	3222
845.117	3195
845.253	3036
845.389	3036
845.525	3104
845.661	3100
845.798	3013
845.934	3093
846.07	3055
846.206	3214
846.342	3291
846.478	3211
846.614	3062
846.75	3024
846.886	3058
847.022	3245
847.158	3123
847.294	3233
847.429	3253
847.565	3157
847.701	3504
847.837	3024
847.972	2986
848.108	3154
848.244	3150
848.379	3032
848.515	2902
848.65	2952
848.786	2979
848.921	3032
849.057	3089
849.192	3146
849.328	3043
849.463	3119
849.598	3039
849.734	3047
849.869	2979
850.004	2918
850.14	2967
850.275	2929
850.41	2826
850.545	2842
850.68	2914
850.815	2963
850.95	2967
851.085	3211
851.22	3077
851.355	3028
851.49	2971
851.625	3024
851.76	3009
851.895	2922
852.03	2906
852.165	3039
852.299	3154
852.434	3135
852.569	3112
852.703	3173
852.838	3214
852.973	3332
853.107	3317
853.242	3173
853.376	3100
853.511	2956
853.645	3058
853.78	3222
853.914	3081
854.048	3127
854.183	3066
854.317	3135
854.451	3272
854.585	3157
854.72	3085
854.854	3180
854.988	3032
855.122	3066
855.256	2998
855.39	3123
855.524	3218
855.658	3184
855.792	3119
855.926	3176
856.06	3184
856.194	3253
856.327	3104
856.461	3089
856.595	3093
856.729	3074
856.862	3211
856.996	3142
857.13	3203
857.263	3218
857.397	3237
857.53	3104
857.664	3165
857.797	3241
857.931	3264
858.064	3142
858.197	3207
858.331	3176
858.464	3100
858.597	3013
858.731	3123
858.864	3131
858.997	3058
859.13	3135
859.263	3154
859.396	3188
859.529	3074
859.662	3043
859.795	3066
859.928	3123
860.061	3260
860.194	3287
860.327	3127
860.46	3058
860.592	3203
860.725	3211
860.858	3245
860.99	3123
861.123	3058
861.256	3074
861.388	3138
861.521	3724
861.653	3024
861.786	2952
861.918	2979
862.05	3047
862.183	3070
862.315	3150
862.447	3173
862.58	3043
862.712	2918
862.844	2861
862.976	3017
863.108	2994
863.24	3431
863.372	2861
863.504	2971
863.636	2948
863.768	2998
863.9	2998
864.032	2902
864.164	2948
864.296	3005
864.428	3081
864.559	3077
864.691	3077
864.823	3055
864.954	3036
865.086	3024
865.217	2990
865.349	2963
865.48	3017
865.612	3009
865.743	3127
865.875	3017
866.006	2918
866.137	2967
866.269	2956
866.4	2902
866.531	2933
866.662	2910
866.793	2861
866.924	2910
867.055	2948
867.186	2906
867.317	2891
867.448	2853
867.579	2857
867.71	2838
867.841	2804
867.972	2929
868.103	2887
868.233	2883
868.364	2857
868.495	2861
868.625	3081
868.756	3154
868.886	2952
869.017	3024
869.147	3150
869.278	3157
869.408	3062
869.539	3032
869.669	3108
869.799	3058
869.929	3135
870.06	3093
870.19	3283
870.32	3256
870.45	3253
870.58	3370
870.71	3416
870.84	3435
870.97	3298
871.1	3184
871.23	3458
871.36	3424
871.489	3336
871.619	3382
871.749	3424
871.879	3431
872.008	3488
872.138	3340
872.267	3272
872.397	3108
872.526	3123
872.656	3017
872.785	3127
872.915	3226
873.044	3321
873.173	3203
873.303	3195
873.432	3218
873.561	3211
873.69	3135
873.819	3180
873.948	3188
874.077	3112
874.206	3047
874.335	3116
874.464	3230
874.593	3321
874.722	3233
874.851	3416
874.979	3359
875.108	3336
875.237	3195
875.365	3150
875.494	3165
875.623	3211
875.751	3066
875.88	3104
876.008	3165
876.136	3230
876.265	3355
876.393	3553
876.521	3405
876.65	3389
876.778	3291
876.906	3222
877.034	3192
877.162	3253
877.29	3142
877.418	3253
877.546	3226
877.674	3218
877.802	3184
877.93	3176
878.058	3154
878.185	3093
878.313	3203
878.441	3241
878.568	3032
878.696	3131
878.824	3203
878.951	3268
879.079	3443
879.206	3595
879.333	3397
879.461	3291
879.588	3374
879.715	3485
879.842	3568
879.97	3348
880.097	3195
880.224	3138
880.351	3173
880.478	3222
880.605	3207
880.732	3173
880.859	3507
880.986	3306
881.112	3313
881.239	3214
881.366	3100
881.493	3032
881.619	2998
881.746	3070
881.872	3062
881.999	3093
882.125	3127
882.252	3241
882.378	3313
882.505	3431
882.631	3291
882.757	3176
882.883	3203
883.01	3272
883.136	3157
883.262	3097
883.388	3108
883.514	3321
883.64	3344
883.766	3233
883.892	3154
884.018	3233
884.143	3420
884.269	3591
884.395	3226
884.52	3169
884.646	3207
884.772	3123
884.897	3081
885.023	3176
885.148	3351
885.274	3424
885.399	3325
885.524	3253
885.65	3253
885.775	3283
885.9	3249
886.025	3416
886.15	3378
886.275	3321
886.4	3230
886.525	3294
886.65	3241
886.775	3268
886.9	3466
887.025	3568
887.149	3378
887.274	3260
887.399	3184
887.523	3237
887.648	3176
887.773	3188
887.897	3401
888.021	3397
888.146	3310
888.27	3420
888.395	3545
888.519	3397
888.643	3382
888.767	3428
888.891	3310
889.015	3222
889.139	3279
889.263	3226
889.387	3409
889.511	3488
889.635	3485
889.759	3298
889.883	3279
890.006	3412
890.13	3469
890.254	3291
890.377	3370
890.501	3233
890.624	3176
890.748	3279
890.871	3176
890.995	3116
891.118	3066
891.241	3192
891.364	3192
891.488	3268
891.611	3154
891.734	3233
891.857	3340
891.98	3241
892.103	3313
892.226	3287
892.349	3226
892.471	3123
892.594	3218
892.717	3332
892.839	3268
892.962	3294
893.085	3336
893.207	3294
893.33	3176
893.452	3203
893.575	3298
893.697	3230
893.819	3492
893.941	3507
894.064	3454
894.186	3287
894.308	3283
894.43	3389
894.552	3523
894.674	3504
894.796	3264
894.918	3317
895.04	3283
895.161	3447
895.283	3359
895.405	3306
895.526	3313
895.648	3450
895.769	3405
895.891	3473
896.012	3488
896.134	3420
896.255	3443
896.376	3416
896.498	3329
896.619	3447
896.74	3367
896.861	3386
896.982	3698
897.103	3816
897.224	3584
897.345	3492
897.466	3332
897.587	3485
897.708	3614
897.828	3469
897.949	3447
898.07	3367
898.19	3416
898.311	3622
898.431	3447
898.552	3507
898.672	3591
898.792	3564
898.913	3507
899.033	3443
899.153	3294
899.273	3199
899.393	3256
899.513	3325
899.633	3294
899.753	3321
899.873	3310
899.993	3382
900.113	3344
900.232	3386
900.352	3317
900.472	3287
900.591	3176
900.711	3348
900.83	3279
900.95	3401
901.069	3458
901.189	3336
901.308	3199
901.427	3119
901.546	3195
901.665	3310
901.784	3302
901.904	3207
902.023	3173
902.141	3066
902.26	2979
902.379	3203
902.498	3066
902.617	3024
902.735	3195
902.854	3192
902.973	3184
903.091	3020
903.21	3051
903.328	3119
903.446	3154
903.565	3081
903.683	3256
903.801	3131
903.919	3230
904.038	3298
904.156	3165
904.274	3272
904.392	3245
904.51	3298
904.627	3298
904.745	3450
904.863	3477
904.981	3256
905.098	3184
905.216	3211
905.334	3245
905.451	3302
905.569	3294
905.686	3424
905.803	3450
905.921	3294
906.038	3420
906.155	3336
906.272	3272
906.389	3317
906.506	3214
906.623	3253
906.74	3253
906.857	3199
906.974	3230
907.091	3420
907.208	3549
907.324	3420
907.441	3336
907.557	3241
907.674	3230
907.79	3211
907.907	3260
908.023	3405
908.139	3355
908.256	3310
908.372	3382
908.488	3336
908.604	3207
908.72	3275
908.836	3294
908.952	3272
909.068	3336
909.184	3443
909.3	3386
909.415	3511
909.531	3473
909.647	3287
909.762	3279
909.878	3233
909.993	3359
910.108	3275
910.224	3329
910.339	3386
910.454	3291
910.57	3272
910.685	3230
910.8	3618
910.915	3481
911.03	3401
911.145	3287
911.259	3275
911.374	3321
911.489	3272
911.604	3226
911.718	3116
911.833	3157
911.947	3074
912.062	2994
912.176	3161
912.291	3176
912.405	3214
912.519	3450
912.633	3469
912.748	3332
912.862	3260
912.976	3184
913.09	3036
913.204	3157
913.318	3203
913.431	3306
913.545	3325
913.659	3367
913.772	3344
913.886	3226
914	3184
914.113	3393
914.226	3412
914.34	3351
914.453	3241
914.566	3428
914.68	3272
914.793	3287
914.906	3146
915.019	3108
915.132	3097
915.245	3161
915.358	3199
915.47	3256
915.583	3249
915.696	3279
915.809	3397
915.921	3386
916.034	3268
916.146	3233
916.259	3214
916.371	3374
916.483	3340
916.595	3287
916.708	3340
916.82	3344
916.932	3329
917.044	3351
917.156	3306
917.268	3253
917.38	3310
917.491	3256
917.603	3393
917.715	3416
917.826	3397
917.938	3397
918.049	3306
918.161	3431
918.272	3614
918.384	3572
918.495	3519
918.606	3332
918.717	3264
918.828	3351
918.939	3409
919.05	3329
919.161	3370
919.272	3207
919.383	3279
919.494	3492
919.604	3698
919.715	3492
919.826	3401
919.936	3466
920.047	3606
920.157	3564
920.267	3774
920.378	3610
920.488	3561
920.598	3774
920.708	3994
920.818	3857
920.928	3827
921.038	4010
921.148	3987
921.258	3705
921.368	3648
921.477	3622
921.587	3557
921.697	3447
921.806	3644
921.916	3500
922.025	3355
922.134	3348
922.244	3344
922.353	3412
922.462	3249
922.571	3230
922.68	3100
922.789	3032
922.898	3100
923.007	3131
923.116	3222
923.224	3161
923.333	3169
923.442	3081
923.55	3070
923.659	3165
923.767	3214
923.876	3081
923.984	3222
924.092	3093
924.201	3230
924.309	3230
924.417	3245
924.525	3180
924.633	3233
924.741	3956
924.849	3051
924.956	3249
925.064	3081
925.172	3047
925.279	3081
925.387	3165
925.494	3192
925.602	3359
925.709	3317
925.816	3207
925.924	3260
926.031	3378
926.138	3359
926.245	3348
926.352	3260
926.459	3424
926.566	3500
926.673	3340
926.779	3218
926.886	3218
926.993	3131
927.099	3157
927.206	3135
927.312	3108
927.419	3241
927.525	3211
927.631	3260
927.737	3142
927.843	3123
927.95	2979
928.056	3131
928.162	3157
928.267	3214
928.373	3759
928.479	3325
928.585	3051
928.69	3199
928.796	3264
928.901	3154
929.007	3009
929.112	3203
929.218	3184
929.323	3169
929.428	3184
929.533	3348
929.638	3119
929.743	3161
929.848	3245
929.953	3226
930.058	3138
930.163	3024
930.267	3070
930.372	3222
930.477	3024
930.581	3291
930.685	3173
930.79	3131
930.894	3150
930.998	3077
931.103	3279
931.207	2963
931.311	2914
931.415	2899
931.519	2796
931.623	2834
