Data from test_V78500241_1400.txt Node
Date: Fri Mar 25 16:24:54 CST 2022
User: usil
Spectrometer: V785-0024
Trigger mode: 0
Integration Time (sec): 4.000000E-1
Scans to average: 1
Nonlinearity correction enabled: false
Boxcar width: 0
Storing dark spectrum: false
XAxis mode: Wavelengths
Number of Pixels in Spectrum: 1024
>>>>>Begin Spectral Data<<<<<
801.071	2937
801.214	2963
801.356	2887
801.499	2937
801.641	2883
801.783	2967
801.926	3047
802.068	2982
802.211	2960
802.353	3036
802.496	2929
802.638	3013
802.78	3062
802.923	3112
803.065	2998
803.208	2895
803.35	2933
803.492	2925
803.635	2979
803.777	2788
803.919	2887
804.061	3188
804.204	2967
804.346	2899
804.488	2849
804.63	2979
804.773	2880
804.915	2925
805.057	3066
805.199	2922
805.341	2967
805.483	3089
805.626	3017
805.768	2944
805.91	3074
806.052	3089
806.194	3055
806.336	3237
806.478	3058
806.62	2975
806.762	2982
806.904	3055
807.046	3211
807.188	3017
807.33	2963
807.472	2960
807.614	2910
807.756	3005
807.898	2914
808.04	2902
808.182	2960
808.324	2994
808.465	2925
808.607	2899
808.749	2823
808.891	2845
809.033	3020
809.174	2967
809.316	2910
809.458	2902
809.6	2807
809.741	2769
809.883	2758
810.025	2830
810.166	2868
810.308	2864
810.45	2883
810.591	2769
810.733	2796
810.875	2895
811.016	2781
811.158	2762
811.299	2834
811.441	2922
811.582	2880
811.724	2826
811.865	2872
812.007	2918
812.148	2864
812.29	2868
812.431	2914
812.573	2937
812.714	2994
812.855	3077
812.997	3055
813.138	3127
813.279	3043
813.421	3001
813.562	2971
813.703	2895
813.845	2864
813.986	2788
814.127	2731
814.268	2826
814.41	2880
814.551	2842
814.692	2887
814.833	2853
814.974	2906
815.115	2933
815.256	2815
815.397	2815
815.539	2872
815.68	2800
815.821	2792
815.962	2937
816.103	2910
816.244	2883
816.385	2918
816.526	2952
816.666	2902
816.807	2769
816.948	2849
817.089	2922
817.23	2845
817.371	2807
817.512	2804
817.653	2857
817.793	2804
817.934	2902
818.075	2956
818.216	3009
818.356	3043
818.497	2864
818.638	2800
818.778	2819
818.919	2804
819.06	2773
819.2	2883
819.341	2804
819.481	2796
819.622	2910
819.762	3157
819.903	3093
820.043	2986
820.184	2883
820.324	2864
820.465	3009
820.605	3020
820.746	3055
820.886	2902
821.026	3093
821.167	3154
821.307	3233
821.447	3291
821.588	3253
821.728	3188
821.868	3218
822.008	3093
822.149	3226
822.289	3230
822.429	3058
822.569	3077
822.709	3211
822.849	3036
822.99	3097
823.13	3119
823.27	3195
823.41	3138
823.55	3176
823.69	3176
823.83	3161
823.97	3093
824.11	3005
824.25	3001
824.389	3055
824.529	3138
824.669	3089
824.809	3218
824.949	3218
825.089	3245
825.228	3169
825.368	3024
825.508	2967
825.648	3005
825.787	3055
825.927	2998
826.067	3013
826.206	2986
826.346	3081
826.485	3066
826.625	3108
826.765	3253
826.904	3203
827.044	2998
827.183	2963
827.323	2838
827.462	2960
827.601	2925
827.741	2963
827.88	2960
828.02	2864
828.159	2941
828.298	3028
828.437	3157
828.577	3032
828.716	3241
828.855	3081
828.994	2937
829.134	2868
829.273	2925
829.412	2899
829.551	2864
829.69	2876
829.829	2944
829.968	3116
830.107	3036
830.246	3058
830.385	2925
830.524	2883
830.663	2826
830.802	2750
830.941	2663
831.08	2667
831.219	2766
831.357	2762
831.496	2925
831.635	2724
831.774	2659
831.913	2670
832.051	2530
832.19	2590
832.329	2712
832.467	2526
832.606	2484
832.744	2575
832.883	2602
833.022	2602
833.16	2663
833.299	2670
833.437	2651
833.576	2693
833.714	2746
833.852	2739
833.991	2758
834.129	2834
834.267	2834
834.406	2762
834.544	2849
834.682	2868
834.821	2842
834.959	3051
835.097	2918
835.235	3070
835.373	2990
835.511	3017
835.65	2941
835.788	2963
835.926	2834
836.064	2807
836.202	2857
836.34	3089
836.478	3180
836.615	3055
836.753	3100
836.891	3241
837.029	3150
837.167	3112
837.305	3070
837.443	3028
837.58	2918
837.718	3131
837.856	3108
837.993	3017
838.131	3119
838.269	3131
838.406	3097
838.544	3074
838.681	2941
838.819	2914
838.956	2785
839.094	2853
839.231	2902
839.369	3032
839.506	3363
839.643	3176
839.781	3001
839.918	2979
840.055	3017
840.193	3032
840.33	3085
840.467	3097
840.604	3131
840.742	3389
840.879	3051
841.016	3028
841.153	3089
841.29	3294
841.427	3306
841.564	3294
841.701	3310
841.838	3192
841.975	3176
842.112	3233
842.249	3066
842.385	3047
842.522	3256
842.659	3100
842.796	3058
842.933	3077
843.069	3017
843.206	3032
843.343	3180
843.479	3157
843.616	3138
843.752	2887
843.889	2880
844.025	3100
844.162	2887
844.298	3081
844.435	2937
844.571	2944
844.708	3116
844.844	3176
844.98	3241
845.117	3192
845.253	3051
845.389	2998
845.525	3176
845.661	3131
845.798	3028
845.934	3165
846.07	3058
846.206	3283
846.342	3348
846.478	3283
846.614	3104
846.75	3074
846.886	3036
847.022	3287
847.158	3195
847.294	3230
847.429	3249
847.565	3237
847.701	3500
847.837	3077
847.972	3005
848.108	3207
848.244	3188
848.379	3036
848.515	2982
848.65	2963
848.786	2982
848.921	3058
849.057	3161
849.192	3207
849.328	3127
849.463	3169
849.598	3157
849.734	3089
849.869	2979
850.004	2967
850.14	2975
850.275	2963
850.41	2895
850.545	2937
850.68	2952
850.815	2979
850.95	3032
851.085	3233
851.22	3192
851.355	3089
851.49	3020
851.625	3032
851.76	3036
851.895	2986
852.03	2971
852.165	3077
852.299	3135
852.434	3230
852.569	3211
852.703	3188
852.838	3279
852.973	3409
853.107	3378
853.242	3176
853.376	3116
853.511	3017
853.645	3077
853.78	3272
853.914	3157
854.048	3150
854.183	3131
854.317	3184
854.451	3340
854.585	3188
854.72	3123
854.854	3245
854.988	3081
855.122	3119
855.256	3017
855.39	3142
855.524	3294
855.658	3256
855.792	3135
855.926	3211
856.06	3272
856.194	3264
856.327	3207
856.461	3093
856.595	3135
856.729	3138
856.862	3272
856.996	3226
857.13	3241
857.263	3253
857.397	3275
857.53	3169
857.664	3230
857.797	3268
857.931	3302
858.064	3192
858.197	3241
858.331	3211
858.464	3100
858.597	2967
858.731	3165
858.864	3173
858.997	3146
859.13	3165
859.263	3211
859.396	3188
859.529	3089
859.662	3089
859.795	3047
859.928	3154
860.061	3306
860.194	3332
860.327	3176
860.46	3157
860.592	3268
860.725	3275
860.858	3294
860.99	3138
861.123	3081
861.256	3070
861.388	3188
861.521	3816
861.653	3077
861.786	3043
861.918	3032
862.05	3081
862.183	3116
862.315	3199
862.447	3230
862.58	3100
862.712	2986
862.844	2906
862.976	3051
863.108	3009
863.24	3389
863.372	2925
863.504	2979
863.636	2967
863.768	3066
863.9	3009
864.032	2944
864.164	2960
864.296	3043
864.428	3119
864.559	3146
864.691	3081
864.823	3058
864.954	3043
865.086	3058
865.217	3039
865.349	2971
865.48	2986
865.612	3039
865.743	3165
865.875	2990
866.006	2944
866.137	2982
866.269	2979
866.4	2960
866.531	2933
866.662	2929
866.793	2929
866.924	2929
867.055	3028
867.186	2963
867.317	2918
867.448	2880
867.579	2914
867.71	2868
867.841	2845
867.972	2944
868.103	2929
868.233	2902
868.364	2895
868.495	2925
868.625	3085
868.756	3192
868.886	3001
869.017	3017
869.147	3169
869.278	3165
869.408	3058
869.539	3055
869.669	3116
869.799	3051
869.929	3123
870.06	3150
870.19	3306
870.32	3306
870.45	3367
870.58	3378
870.71	3454
870.84	3466
870.97	3291
871.1	3298
871.23	3496
871.36	3473
871.489	3393
871.619	3420
871.749	3435
871.879	3458
872.008	3530
872.138	3355
872.267	3340
872.397	3180
872.526	3131
872.656	3024
872.785	3089
872.915	3287
873.044	3367
873.173	3264
873.303	3264
873.432	3268
873.561	3249
873.69	3188
873.819	3195
873.948	3138
874.077	3131
874.206	3089
874.335	3112
874.464	3283
874.593	3355
874.722	3279
874.851	3454
874.979	3405
875.108	3291
875.237	3211
875.365	3173
875.494	3176
875.623	3230
875.751	3097
875.88	3131
876.008	3176
876.136	3207
876.265	3409
876.393	3538
876.521	3424
876.65	3405
876.778	3393
876.906	3253
877.034	3195
877.162	3253
877.29	3184
877.418	3298
877.546	3268
877.674	3310
877.802	3283
877.93	3253
878.058	3184
878.185	3112
878.313	3241
878.441	3211
878.568	3093
878.696	3173
878.824	3298
878.951	3310
879.079	3447
879.206	3671
879.333	3443
879.461	3336
879.588	3351
879.715	3504
879.842	3606
879.97	3443
880.097	3211
880.224	3176
880.351	3211
880.478	3241
880.605	3226
880.732	3230
880.859	3500
880.986	3374
881.112	3355
881.239	3241
881.366	3112
881.493	3093
881.619	3051
881.746	3100
881.872	3112
881.999	3135
882.125	3157
882.252	3268
882.378	3306
882.505	3454
882.631	3313
882.757	3180
882.883	3241
883.01	3253
883.136	3188
883.262	3100
883.388	3127
883.514	3348
883.64	3420
883.766	3325
883.892	3226
884.018	3294
884.143	3424
884.269	3564
884.395	3199
884.52	3188
884.646	3188
884.772	3138
884.897	3112
885.023	3233
885.148	3340
885.274	3454
885.399	3386
885.524	3256
885.65	3283
885.775	3317
885.9	3313
886.025	3431
886.15	3397
886.275	3321
886.4	3241
886.525	3336
886.65	3264
886.775	3291
886.9	3496
887.025	3656
887.149	3416
887.274	3264
887.399	3176
887.523	3199
887.648	3222
887.773	3176
887.897	3370
888.021	3393
888.146	3340
888.27	3443
888.395	3526
888.519	3435
888.643	3515
888.767	3485
888.891	3348
889.015	3287
889.139	3321
889.263	3275
889.387	3412
889.511	3534
889.635	3507
889.759	3291
889.883	3344
890.006	3447
890.13	3492
890.254	3256
890.377	3397
890.501	3237
890.624	3230
890.748	3313
890.871	3161
890.995	3108
891.118	3108
891.241	3207
891.364	3233
891.488	3332
891.611	3195
891.734	3214
891.857	3317
891.98	3283
892.103	3367
892.226	3291
892.349	3203
892.471	3150
892.594	3241
892.717	3321
892.839	3287
892.962	3287
893.085	3351
893.207	3294
893.33	3180
893.452	3237
893.575	3389
893.697	3272
893.819	3439
893.941	3485
894.064	3439
894.186	3298
894.308	3256
894.43	3450
894.552	3557
894.674	3488
894.796	3279
894.918	3355
895.04	3325
895.161	3431
895.283	3397
895.405	3279
895.526	3374
895.648	3473
895.769	3431
895.891	3485
896.012	3530
896.134	3443
896.255	3382
896.376	3359
896.498	3332
896.619	3485
896.74	3382
896.861	3428
896.982	3698
897.103	3850
897.224	3648
897.345	3530
897.466	3424
897.587	3526
897.708	3671
897.828	3606
897.949	3431
898.07	3332
898.19	3409
898.311	3641
898.431	3523
898.552	3530
898.672	3614
898.792	3641
898.913	3515
899.033	3416
899.153	3283
899.273	3253
899.393	3321
899.513	3313
899.633	3317
899.753	3374
899.873	3332
899.993	3370
900.113	3374
900.232	3424
900.352	3359
900.472	3336
900.591	3249
900.711	3287
900.83	3218
900.95	3454
901.069	3538
901.189	3351
901.308	3207
901.427	3169
901.546	3214
901.665	3298
901.784	3336
901.904	3214
902.023	3192
902.141	3017
902.26	3009
902.379	3169
902.498	3108
902.617	3055
902.735	3199
902.854	3233
902.973	3222
903.091	3024
903.21	3093
903.328	3138
903.446	3127
903.565	3112
903.683	3226
903.801	3142
903.919	3279
904.038	3298
904.156	3138
904.274	3287
904.392	3264
904.51	3313
904.627	3336
904.745	3462
904.863	3511
904.981	3294
905.098	3188
905.216	3256
905.334	3340
905.451	3336
905.569	3298
905.686	3435
905.803	3431
905.921	3268
906.038	3428
906.155	3401
906.272	3272
906.389	3344
906.506	3222
906.623	3294
906.74	3287
906.857	3214
906.974	3253
907.091	3469
907.208	3568
907.324	3523
907.441	3405
907.557	3233
907.674	3249
907.79	3222
907.907	3275
908.023	3344
908.139	3367
908.256	3348
908.372	3397
908.488	3389
908.604	3291
908.72	3211
908.836	3272
908.952	3264
909.068	3359
909.184	3488
909.3	3382
909.415	3538
909.531	3488
909.647	3275
909.762	3294
909.878	3294
909.993	3359
910.108	3332
910.224	3317
910.339	3386
910.454	3351
910.57	3344
910.685	3268
910.8	3637
910.915	3523
911.03	3409
911.145	3287
911.259	3306
911.374	3321
911.489	3260
911.604	3241
911.718	3165
911.833	3150
911.947	3051
912.062	2982
912.176	3180
912.291	3230
912.405	3203
912.519	3466
912.633	3492
912.748	3348
912.862	3283
912.976	3184
913.09	3077
913.204	3165
913.318	3241
913.431	3351
913.545	3355
913.659	3389
913.772	3344
913.886	3279
914	3207
914.113	3310
914.226	3416
914.34	3351
914.453	3233
914.566	3428
914.68	3279
914.793	3321
914.906	3195
915.019	3154
915.132	3058
915.245	3146
915.358	3222
915.47	3222
915.583	3272
915.696	3294
915.809	3397
915.921	3378
916.034	3260
916.146	3249
916.259	3249
916.371	3424
916.483	3389
916.595	3268
916.708	3409
916.82	3348
916.932	3351
917.044	3317
917.156	3363
917.268	3264
917.38	3256
917.491	3245
917.603	3378
917.715	3519
917.826	3485
917.938	3405
918.049	3249
918.161	3416
918.272	3557
918.384	3591
918.495	3500
918.606	3416
918.717	3249
918.828	3389
918.939	3416
919.05	3321
919.161	3393
919.272	3161
919.383	3332
919.494	3507
919.604	3663
919.715	3481
919.826	3389
919.936	3496
920.047	3530
920.157	3530
920.267	3781
920.378	3625
920.488	3561
920.598	3838
920.708	3991
920.818	3857
920.928	3842
921.038	4021
921.148	4017
921.258	3724
921.368	3599
921.477	3587
921.587	3542
921.697	3473
921.806	3618
921.916	3492
922.025	3310
922.134	3386
922.244	3321
922.353	3431
922.462	3283
922.571	3237
922.68	3116
922.789	3062
922.898	3104
923.007	3085
923.116	3173
923.224	3203
923.333	3203
923.442	3123
923.55	3131
923.659	3108
923.767	3222
923.876	3138
923.984	3268
924.092	3100
924.201	3203
924.309	3241
924.417	3214
924.525	3146
924.633	3237
924.741	4032
924.849	3001
924.956	3279
925.064	3116
925.172	3066
925.279	3119
925.387	3222
925.494	3199
925.602	3351
925.709	3332
925.816	3154
925.924	3317
926.031	3344
926.138	3317
926.245	3359
926.352	3245
926.459	3443
926.566	3481
926.673	3310
926.779	3245
926.886	3283
926.993	3157
927.099	3154
927.206	3116
927.312	3127
927.419	3233
927.525	3214
927.631	3298
927.737	3138
927.843	3135
927.95	3039
928.056	3142
928.162	3214
928.267	3298
928.373	3876
928.479	3294
928.585	3074
928.69	3222
928.796	3287
928.901	3127
929.007	3024
929.112	3222
929.218	3192
929.323	3150
929.428	3150
929.533	3298
929.638	3142
929.743	3180
929.848	3253
929.953	3203
930.058	3165
930.163	3013
930.267	3051
930.372	3192
930.477	3062
930.581	3313
930.685	3214
930.79	3077
930.894	3093
930.998	3070
931.103	3291
931.207	2956
931.311	2902
931.415	2910
931.519	2788
931.623	2834
