Data from test_V78500241_1790.txt Node
Date: Fri Mar 25 16:27:36 CST 2022
User: usil
Spectrometer: V785-0024
Trigger mode: 0
Integration Time (sec): 4.000000E-1
Scans to average: 1
Nonlinearity correction enabled: false
Boxcar width: 0
Storing dark spectrum: false
XAxis mode: Wavelengths
Number of Pixels in Spectrum: 1024
>>>>>Begin Spectral Data<<<<<
801.071	2925
801.214	2922
801.356	2872
801.499	2842
801.641	2876
801.783	2899
801.926	3028
802.068	2963
802.211	2975
802.353	3077
802.496	2998
802.638	3024
802.78	3058
802.923	3074
803.065	2982
803.208	2895
803.35	2906
803.492	2944
803.635	2922
803.777	2781
803.919	2849
804.061	3173
804.204	2941
804.346	2910
804.488	2842
804.63	2990
804.773	2902
804.915	2971
805.057	3074
805.199	2937
805.341	3001
805.483	3097
805.626	3009
805.768	2975
805.91	3058
806.052	3077
806.194	3028
806.336	3226
806.478	3036
806.62	2933
806.762	2971
806.904	3051
807.046	3218
807.188	2979
807.33	2895
807.472	2952
807.614	2910
807.756	2998
807.898	2941
808.04	2883
808.182	2979
808.324	2944
808.465	2887
808.607	2864
808.749	2807
808.891	2861
809.033	2971
809.174	2952
809.316	2880
809.458	2868
809.6	2777
809.741	2781
809.883	2754
810.025	2872
810.166	2849
810.308	2842
810.45	2902
810.591	2811
810.733	2800
810.875	2853
811.016	2762
811.158	2781
811.299	2830
811.441	2933
811.582	2872
811.724	2845
811.865	2823
812.007	2891
812.148	2864
812.29	2838
812.431	2929
812.573	2941
812.714	2982
812.855	3058
812.997	3070
813.138	3070
813.279	2967
813.421	2963
813.562	2929
813.703	2891
813.845	2883
813.986	2769
814.127	2739
814.268	2819
814.41	2823
814.551	2838
814.692	2845
814.833	2792
814.974	2918
815.115	2963
815.256	2842
815.397	2826
815.539	2838
815.68	2781
815.821	2758
815.962	2937
816.103	2933
816.244	2899
816.385	2872
816.526	2960
816.666	2872
816.807	2731
816.948	2868
817.089	2929
817.23	2895
817.371	2773
817.512	2811
817.653	2800
817.793	2815
817.934	2880
818.075	2971
818.216	2967
818.356	3024
818.497	2883
818.638	2823
818.778	2811
818.919	2792
819.06	2769
819.2	2876
819.341	2838
819.481	2800
819.622	2925
819.762	3070
819.903	3062
820.043	2914
820.184	2872
820.324	2895
820.465	3001
820.605	3013
820.746	3032
820.886	2944
821.026	3066
821.167	3161
821.307	3249
821.447	3298
821.588	3279
821.728	3180
821.868	3195
822.008	3085
822.149	3165
822.289	3195
822.429	3066
822.569	3123
822.709	3195
822.849	3028
822.99	3070
823.13	3146
823.27	3214
823.41	3104
823.55	3138
823.69	3161
823.83	3173
823.97	3093
824.11	2979
824.25	2994
824.389	3066
824.529	3089
824.669	3017
824.809	3214
824.949	3272
825.089	3199
825.228	3150
825.368	3017
825.508	2963
825.648	2986
825.787	2979
825.927	3013
826.067	2956
826.206	2944
826.346	3043
826.485	3055
826.625	3093
826.765	3207
826.904	3237
827.044	2967
827.183	2925
827.323	2883
827.462	2952
827.601	2929
827.741	2895
827.88	2937
828.02	2842
828.159	2971
828.298	3017
828.437	3100
828.577	3066
828.716	3214
828.855	3070
828.994	2910
829.134	2842
829.273	2899
829.412	2868
829.551	2883
829.69	2880
829.829	3001
829.968	3100
830.107	2982
830.246	3009
830.385	2883
830.524	2891
830.663	2807
830.802	2720
830.941	2632
831.08	2636
831.219	2754
831.357	2754
831.496	2971
831.635	2689
831.774	2644
831.913	2667
832.051	2568
832.19	2560
832.329	2693
832.467	2514
832.606	2438
832.744	2568
832.883	2530
833.022	2587
833.16	2602
833.299	2651
833.437	2651
833.576	2712
833.714	2766
833.852	2743
833.991	2746
834.129	2834
834.267	2830
834.406	2785
834.544	2864
834.682	2902
834.821	2872
834.959	3089
835.097	2910
835.235	3070
835.373	3005
835.511	3001
835.65	2967
835.788	2948
835.926	2811
836.064	2807
836.202	2849
836.34	3100
836.478	3161
836.615	3017
836.753	3119
836.891	3199
837.029	3104
837.167	3089
837.305	3043
837.443	2994
837.58	2975
837.718	3127
837.856	3070
837.993	3020
838.131	3112
838.269	3119
838.406	3047
838.544	3077
838.681	2918
838.819	2899
838.956	2796
839.094	2796
839.231	2910
839.369	2990
839.506	3332
839.643	3211
839.781	3005
839.918	2948
840.055	3028
840.193	3043
840.33	3093
840.467	3055
840.604	3085
840.742	3374
840.879	3024
841.016	3074
841.153	3089
841.29	3351
841.427	3317
841.564	3241
841.701	3306
841.838	3192
841.975	3176
842.112	3214
842.249	3051
842.385	3032
842.522	3287
842.659	3093
842.796	3047
842.933	3062
843.069	3039
843.206	3013
843.343	3176
843.479	3116
843.616	3157
843.752	2872
843.889	2845
844.025	3089
844.162	2895
844.298	3100
844.435	2975
844.571	2887
844.708	3058
844.844	3176
844.98	3245
845.117	3184
845.253	3028
845.389	2998
845.525	3119
845.661	3081
845.798	3009
845.934	3085
846.07	3032
846.206	3192
846.342	3275
846.478	3188
846.614	3070
846.75	3055
846.886	2994
847.022	3233
847.158	3119
847.294	3195
847.429	3260
847.565	3218
847.701	3519
847.837	2998
847.972	2986
848.108	3169
848.244	3169
848.379	2979
848.515	2933
848.65	2922
848.786	2952
848.921	3013
849.057	3066
849.192	3112
849.328	3058
849.463	3112
849.598	3047
849.734	3009
849.869	2941
850.004	2922
850.14	2971
850.275	2941
850.41	2819
850.545	2861
850.68	2910
850.815	2956
850.95	2967
851.085	3180
851.22	3074
851.355	3039
851.49	2979
851.625	2979
851.76	3009
851.895	2963
852.03	2902
852.165	3020
852.299	3116
852.434	3195
852.569	3150
852.703	3184
852.838	3226
852.973	3370
853.107	3294
853.242	3180
853.376	3100
853.511	2960
853.645	3055
853.78	3214
853.914	3112
854.048	3127
854.183	3039
854.317	3077
854.451	3294
854.585	3116
854.72	3070
854.854	3218
854.988	3047
855.122	3097
855.256	2929
855.39	3131
855.524	3218
855.658	3203
855.792	3188
855.926	3180
856.06	3207
856.194	3291
856.327	3112
856.461	3070
856.595	3077
856.729	3062
856.862	3123
856.996	3180
857.13	3192
857.263	3207
857.397	3264
857.53	3123
857.664	3192
857.797	3245
857.931	3214
858.064	3127
858.197	3214
858.331	3104
858.464	3123
858.597	2971
858.731	3100
858.864	3127
858.997	3085
859.13	3161
859.263	3184
859.396	3165
859.529	3116
859.662	3112
859.795	3051
859.928	3116
860.061	3253
860.194	3287
860.327	3138
860.46	3097
860.592	3222
860.725	3233
860.858	3260
860.99	3108
861.123	3043
861.256	3005
861.388	3131
861.521	3854
861.653	3024
861.786	2982
861.918	3013
862.05	3024
862.183	3070
862.315	3150
862.447	3184
862.58	3074
862.712	2937
862.844	2864
862.976	2994
863.108	2998
863.24	3409
863.372	2880
863.504	2986
863.636	2937
863.768	3009
863.9	2948
864.032	2891
864.164	2986
864.296	3009
864.428	3085
864.559	3093
864.691	3081
864.823	3081
864.954	3036
865.086	3020
865.217	3013
865.349	2952
865.48	2967
865.612	3028
865.743	3150
865.875	2952
866.006	2914
866.137	2982
866.269	2922
866.4	2941
866.531	2918
866.662	2880
866.793	2880
866.924	2880
867.055	2975
867.186	2922
867.317	2872
867.448	2864
867.579	2853
867.71	2834
867.841	2796
867.972	2895
868.103	2895
868.233	2868
868.364	2883
868.495	2899
868.625	3089
868.756	3123
868.886	2956
869.017	3036
869.147	3165
869.278	3180
869.408	3066
869.539	3005
869.669	3055
869.799	3055
869.929	3157
870.06	3100
870.19	3317
870.32	3298
870.45	3313
870.58	3378
870.71	3409
870.84	3428
870.97	3275
871.1	3199
871.23	3477
871.36	3469
871.489	3351
871.619	3378
871.749	3428
871.879	3454
872.008	3473
872.138	3348
872.267	3306
872.397	3138
872.526	3085
872.656	2982
872.785	3116
872.915	3222
873.044	3298
873.173	3218
873.303	3237
873.432	3241
873.561	3180
873.69	3135
873.819	3157
873.948	3192
874.077	3085
874.206	3043
874.335	3093
874.464	3199
874.593	3313
874.722	3283
874.851	3389
874.979	3351
875.108	3310
875.237	3207
875.365	3161
875.494	3180
875.623	3211
875.751	3058
875.88	3097
876.008	3176
876.136	3253
876.265	3386
876.393	3511
876.521	3397
876.65	3359
876.778	3344
876.906	3241
877.034	3188
877.162	3233
877.29	3199
877.418	3249
877.546	3264
877.674	3249
877.802	3237
877.93	3214
878.058	3097
878.185	3077
878.313	3176
878.441	3211
878.568	3066
878.696	3150
878.824	3233
878.951	3336
879.079	3469
879.206	3599
879.333	3431
879.461	3291
879.588	3344
879.715	3485
879.842	3568
879.97	3359
880.097	3195
880.224	3127
880.351	3176
880.478	3241
880.605	3192
880.732	3199
880.859	3469
880.986	3287
881.112	3344
881.239	3192
881.366	3100
881.493	3028
881.619	3039
881.746	3047
881.872	3077
881.999	3123
882.125	3146
882.252	3298
882.378	3287
882.505	3412
882.631	3256
882.757	3116
882.883	3222
883.01	3237
883.136	3173
883.262	3089
883.388	3119
883.514	3306
883.64	3393
883.766	3264
883.892	3184
884.018	3245
884.143	3424
884.269	3526
884.395	3188
884.52	3142
884.646	3180
884.772	3119
884.897	3085
885.023	3203
885.148	3355
885.274	3409
885.399	3340
885.524	3310
885.65	3283
885.775	3275
885.9	3279
886.025	3443
886.15	3367
886.275	3298
886.4	3245
886.525	3325
886.65	3237
886.775	3291
886.9	3485
887.025	3663
887.149	3374
887.274	3249
887.399	3195
887.523	3203
887.648	3173
887.773	3218
887.897	3340
888.021	3420
888.146	3298
888.27	3416
888.395	3523
888.519	3431
888.643	3469
888.767	3466
888.891	3264
889.015	3241
889.139	3294
889.263	3249
889.387	3367
889.511	3534
889.635	3428
889.759	3268
889.883	3313
890.006	3397
890.13	3477
890.254	3287
890.377	3355
890.501	3203
890.624	3169
890.748	3275
890.871	3192
890.995	3142
891.118	3108
891.241	3165
891.364	3253
891.488	3370
891.611	3169
891.734	3233
891.857	3283
891.98	3230
892.103	3313
892.226	3241
892.349	3237
892.471	3100
892.594	3233
892.717	3279
892.839	3241
892.962	3325
893.085	3386
893.207	3264
893.33	3119
893.452	3203
893.575	3351
893.697	3237
893.819	3496
893.941	3447
894.064	3454
894.186	3253
894.308	3272
894.43	3439
894.552	3504
894.674	3500
894.796	3249
894.918	3321
895.04	3275
895.161	3469
895.283	3389
895.405	3272
895.526	3340
895.648	3389
895.769	3378
895.891	3397
896.012	3439
896.134	3481
896.255	3401
896.376	3363
896.498	3374
896.619	3435
896.74	3355
896.861	3401
896.982	3641
897.103	3808
897.224	3584
897.345	3519
897.466	3435
897.587	3549
897.708	3614
897.828	3545
897.949	3462
898.07	3275
898.19	3389
898.311	3614
898.431	3428
898.552	3523
898.672	3595
898.792	3561
898.913	3549
899.033	3386
899.153	3287
899.273	3214
899.393	3336
899.513	3287
899.633	3325
899.753	3336
899.873	3310
899.993	3340
900.113	3348
900.232	3378
900.352	3329
900.472	3245
900.591	3192
900.711	3306
900.83	3230
900.95	3397
901.069	3496
901.189	3340
901.308	3138
901.427	3127
901.546	3203
901.665	3279
901.784	3306
901.904	3211
902.023	3112
902.141	3009
902.26	3013
902.379	3112
902.498	3047
902.617	3036
902.735	3184
902.854	3188
902.973	3211
903.091	3077
903.21	3077
903.328	3085
903.446	3127
903.565	3123
903.683	3233
903.801	3123
903.919	3287
904.038	3253
904.156	3188
904.274	3287
904.392	3241
904.51	3287
904.627	3329
904.745	3428
904.863	3485
904.981	3256
905.098	3192
905.216	3192
905.334	3264
905.451	3313
905.569	3279
905.686	3412
905.803	3466
905.921	3279
906.038	3420
906.155	3363
906.272	3272
906.389	3298
906.506	3211
906.623	3237
906.74	3279
906.857	3203
906.974	3218
907.091	3420
907.208	3500
907.324	3488
907.441	3412
907.557	3237
907.674	3272
907.79	3233
907.907	3264
908.023	3370
908.139	3351
908.256	3325
908.372	3332
908.488	3321
908.604	3260
908.72	3222
908.836	3298
908.952	3264
909.068	3310
909.184	3462
909.3	3397
909.415	3485
909.531	3447
909.647	3256
909.762	3283
909.878	3294
909.993	3355
910.108	3359
910.224	3329
910.339	3355
910.454	3332
910.57	3294
910.685	3268
910.8	3618
910.915	3572
911.03	3439
911.145	3230
911.259	3313
911.374	3291
911.489	3226
911.604	3207
911.718	3074
911.833	3131
911.947	3062
912.062	2994
912.176	3211
912.291	3207
912.405	3214
912.519	3477
912.633	3458
912.748	3325
912.862	3283
912.976	3154
913.09	3039
913.204	3138
913.318	3207
913.431	3298
913.545	3298
913.659	3428
913.772	3336
913.886	3222
914	3188
914.113	3332
914.226	3386
914.34	3374
914.453	3188
914.566	3367
914.68	3279
914.793	3283
914.906	3165
915.019	3108
915.132	3058
915.245	3165
915.358	3199
915.47	3207
915.583	3256
915.696	3279
915.809	3397
915.921	3401
916.034	3272
916.146	3260
916.259	3233
916.371	3374
916.483	3374
916.595	3283
916.708	3332
916.82	3325
916.932	3344
917.044	3344
917.156	3351
917.268	3275
917.38	3306
917.491	3283
917.603	3367
917.715	3477
917.826	3473
917.938	3405
918.049	3287
918.161	3439
918.272	3564
918.384	3564
918.495	3450
918.606	3306
918.717	3287
918.828	3386
918.939	3435
919.05	3272
919.161	3332
919.272	3154
919.383	3302
919.494	3469
919.604	3698
919.715	3477
919.826	3393
919.936	3458
920.047	3622
920.157	3534
920.267	3724
920.378	3572
920.488	3538
920.598	3804
920.708	3926
920.818	3816
920.928	3854
921.038	4029
921.148	4002
921.258	3675
921.368	3629
921.477	3576
921.587	3545
921.697	3447
921.806	3625
921.916	3511
922.025	3317
922.134	3332
922.244	3348
922.353	3443
922.462	3264
922.571	3207
922.68	3058
922.789	3032
922.898	3119
923.007	3081
923.116	3218
923.224	3142
923.333	3154
923.442	3104
923.55	3089
923.659	3146
923.767	3180
923.876	3104
923.984	3233
924.092	3074
924.201	3176
924.309	3173
924.417	3256
924.525	3184
924.633	3199
924.741	4036
924.849	3032
924.956	3249
925.064	3081
925.172	3032
925.279	3070
925.387	3199
925.494	3165
925.602	3389
925.709	3332
925.816	3226
925.924	3272
926.031	3374
926.138	3321
926.245	3370
926.352	3230
926.459	3416
926.566	3443
926.673	3321
926.779	3253
926.886	3253
926.993	3142
927.099	3150
927.206	3123
927.312	3127
927.419	3203
927.525	3211
927.631	3268
927.737	3154
927.843	3112
927.95	3047
928.056	3161
928.162	3154
928.267	3249
928.373	3857
928.479	3306
928.585	3043
928.69	3256
928.796	3260
928.901	3157
929.007	3070
929.112	3233
929.218	3165
929.323	3116
929.428	3135
929.533	3348
929.638	3135
929.743	3173
929.848	3226
929.953	3214
930.058	3157
930.163	2956
930.267	3017
930.372	3184
930.477	3039
930.581	3336
930.685	3161
930.79	3089
930.894	3116
930.998	3112
931.103	3291
931.207	2986
931.311	2933
931.415	2944
931.519	2739
931.623	2811
