Data from test_V78500241_1529.txt Node
Date: Fri Mar 25 16:25:47 CST 2022
User: usil
Spectrometer: V785-0024
Trigger mode: 0
Integration Time (sec): 4.000000E-1
Scans to average: 1
Nonlinearity correction enabled: false
Boxcar width: 0
Storing dark spectrum: false
XAxis mode: Wavelengths
Number of Pixels in Spectrum: 1024
>>>>>Begin Spectral Data<<<<<
801.071	2948
801.214	2994
801.356	2899
801.499	2937
801.641	2929
801.783	2956
801.926	3062
802.068	2998
802.211	3009
802.353	3066
802.496	2998
802.638	3028
802.78	3074
802.923	3070
803.065	3005
803.208	2922
803.35	2952
803.492	2948
803.635	2952
803.777	2796
803.919	2887
804.061	3192
804.204	3005
804.346	2925
804.488	2880
804.63	2979
804.773	2910
804.915	2937
805.057	3081
805.199	2944
805.341	2944
805.483	3028
805.626	3032
805.768	2967
805.91	3089
806.052	3138
806.194	3066
806.336	3233
806.478	3062
806.62	2979
806.762	2990
806.904	3051
807.046	3161
807.188	3001
807.33	2937
807.472	2990
807.614	2944
807.756	2960
807.898	2944
808.04	2937
808.182	2979
808.324	2982
808.465	2906
808.607	2876
808.749	2811
808.891	2872
809.033	2982
809.174	2998
809.316	2880
809.458	2918
809.6	2804
809.741	2773
809.883	2811
810.025	2864
810.166	2880
810.308	2876
810.45	2868
810.591	2766
810.733	2785
810.875	2826
811.016	2773
811.158	2796
811.299	2845
811.441	2963
811.582	2948
811.724	2823
811.865	2834
812.007	2944
812.148	2883
812.29	2864
812.431	2906
812.573	2937
812.714	2982
812.855	3032
812.997	3036
813.138	3157
813.279	3009
813.421	3001
813.562	2956
813.703	2883
813.845	2933
813.986	2777
814.127	2731
814.268	2804
814.41	2868
814.551	2807
814.692	2876
814.833	2823
814.974	2906
815.115	2925
815.256	2857
815.397	2834
815.539	2899
815.68	2785
815.821	2792
815.962	2948
816.103	2925
816.244	2895
816.385	2868
816.526	2975
816.666	2918
816.807	2762
816.948	2876
817.089	2902
817.23	2891
817.371	2819
817.512	2788
817.653	2864
817.793	2785
817.934	2872
818.075	2952
818.216	2990
818.356	3005
818.497	2883
818.638	2777
818.778	2823
818.919	2746
819.06	2773
819.2	2887
819.341	2807
819.481	2800
819.622	2902
819.762	3097
819.903	3055
820.043	2944
820.184	2883
820.324	2948
820.465	2979
820.605	3036
820.746	3036
820.886	2944
821.026	3131
821.167	3165
821.307	3302
821.447	3313
821.588	3249
821.728	3218
821.868	3214
822.008	3066
822.149	3169
822.289	3241
822.429	3127
822.569	3093
822.709	3188
822.849	3051
822.99	3066
823.13	3142
823.27	3218
823.41	3138
823.55	3138
823.69	3154
823.83	3169
823.97	3127
824.11	3017
824.25	2967
824.389	3081
824.529	3119
824.669	3074
824.809	3176
824.949	3253
825.089	3222
825.228	3184
825.368	3028
825.508	2941
825.648	2975
825.787	2982
825.927	3001
826.067	2975
826.206	2982
826.346	3047
826.485	3097
826.625	3108
826.765	3245
826.904	3233
827.044	3020
827.183	2952
827.323	2823
827.462	2975
827.601	2887
827.741	2929
827.88	2944
828.02	2857
828.159	2986
828.298	3062
828.437	3089
828.577	3036
828.716	3249
828.855	3074
828.994	2910
829.134	2883
829.273	2956
829.412	2872
829.551	2853
829.69	2902
829.829	3005
829.968	3176
830.107	3036
830.246	3028
830.385	2902
830.524	2880
830.663	2853
830.802	2743
830.941	2663
831.08	2629
831.219	2754
831.357	2727
831.496	2937
831.635	2720
831.774	2659
831.913	2674
832.051	2526
832.19	2587
832.329	2697
832.467	2530
832.606	2488
832.744	2590
832.883	2606
833.022	2602
833.16	2640
833.299	2697
833.437	2701
833.576	2689
833.714	2731
833.852	2731
833.991	2766
834.129	2796
834.267	2853
834.406	2788
834.544	2883
834.682	2883
834.821	2826
834.959	3077
835.097	2883
835.235	3074
835.373	2990
835.511	3013
835.65	2971
835.788	2952
835.926	2849
836.064	2826
836.202	2845
836.34	3081
836.478	3150
836.615	3028
836.753	3131
836.891	3199
837.029	3142
837.167	3104
837.305	3085
837.443	3055
837.58	2979
837.718	3142
837.856	3081
837.993	3051
838.131	3138
838.269	3108
838.406	3070
838.544	3108
838.681	2937
838.819	2914
838.956	2796
839.094	2834
839.231	2937
839.369	3043
839.506	3382
839.643	3230
839.781	3020
839.918	2982
840.055	3051
840.193	3039
840.33	3062
840.467	3108
840.604	3173
840.742	3416
840.879	3047
841.016	3062
841.153	3100
841.29	3351
841.427	3294
841.564	3245
841.701	3268
841.838	3222
841.975	3214
842.112	3222
842.249	3089
842.385	3051
842.522	3268
842.659	3081
842.796	3055
842.933	3119
843.069	3024
843.206	2998
843.343	3207
843.479	3070
843.616	3157
843.752	2910
843.889	2887
844.025	3055
844.162	2887
844.298	3089
844.435	2952
844.571	2937
844.708	3058
844.844	3211
844.98	3237
845.117	3180
845.253	3066
845.389	2998
845.525	3127
845.661	3104
845.798	2982
845.934	3116
846.07	3020
846.206	3207
846.342	3268
846.478	3211
846.614	3108
846.75	3058
846.886	3043
847.022	3237
847.158	3146
847.294	3176
847.429	3268
847.565	3199
847.701	3450
847.837	3009
847.972	2971
848.108	3176
848.244	3131
848.379	3013
848.515	2952
848.65	2960
848.786	2994
848.921	3005
849.057	3077
849.192	3127
849.328	3047
849.463	3112
849.598	3108
849.734	3055
849.869	2971
850.004	2918
850.14	2937
850.275	2906
850.41	2838
850.545	2864
850.68	2925
850.815	2960
850.95	2963
851.085	3214
851.22	3085
851.355	3036
851.49	2975
851.625	2994
851.76	3077
851.895	2975
852.03	2929
852.165	3024
852.299	3097
852.434	3180
852.569	3154
852.703	3161
852.838	3253
852.973	3317
853.107	3310
853.242	3142
853.376	3085
853.511	2990
853.645	3005
853.78	3253
853.914	3108
854.048	3097
854.183	3055
854.317	3188
854.451	3272
854.585	3135
854.72	3070
854.854	3184
854.988	3047
855.122	3055
855.256	2956
855.39	3119
855.524	3226
855.658	3135
855.792	3165
855.926	3192
856.06	3226
856.194	3275
856.327	3150
856.461	3051
856.595	3100
856.729	3119
856.862	3207
856.996	3123
857.13	3195
857.263	3188
857.397	3256
857.53	3119
857.664	3169
857.797	3222
857.931	3256
858.064	3188
858.197	3237
858.331	3142
858.464	3070
858.597	3005
858.731	3077
858.864	3131
858.997	3085
859.13	3157
859.263	3154
859.396	3203
859.529	3112
859.662	3077
859.795	3062
859.928	3116
860.061	3241
860.194	3279
860.327	3146
860.46	3074
860.592	3218
860.725	3253
860.858	3264
860.99	3112
861.123	3066
861.256	3093
861.388	3176
861.521	3918
861.653	3032
861.786	2971
861.918	3017
862.05	3047
862.183	3085
862.315	3138
862.447	3203
862.58	3081
862.712	2941
862.844	2842
862.976	2963
863.108	2998
863.24	3298
863.372	2891
863.504	2979
863.636	2922
863.768	3013
863.9	2982
864.032	2937
864.164	2948
864.296	3028
864.428	3077
864.559	3089
864.691	3062
864.823	3089
864.954	3032
865.086	3020
865.217	3013
865.349	2975
865.48	2963
865.612	2979
865.743	3089
865.875	2971
866.006	2922
866.137	2982
866.269	2944
866.4	2929
866.531	2929
866.662	2887
866.793	2861
866.924	2899
867.055	2990
867.186	2918
867.317	2891
867.448	2811
867.579	2845
867.71	2876
867.841	2842
867.972	2883
868.103	2880
868.233	2910
868.364	2883
868.495	2876
868.625	3024
868.756	3184
868.886	3001
869.017	3020
869.147	3188
869.278	3146
869.408	3020
869.539	3005
869.669	3127
869.799	3036
869.929	3108
870.06	3093
870.19	3325
870.32	3253
870.45	3264
870.58	3329
870.71	3428
870.84	3397
870.97	3291
871.1	3298
871.23	3450
871.36	3488
871.489	3397
871.619	3378
871.749	3428
871.879	3428
872.008	3496
872.138	3370
872.267	3279
872.397	3173
872.526	3104
872.656	3005
872.785	3097
872.915	3253
873.044	3317
873.173	3214
873.303	3218
873.432	3245
873.561	3241
873.69	3161
873.819	3203
873.948	3207
874.077	3097
874.206	3055
874.335	3070
874.464	3192
874.593	3340
874.722	3260
874.851	3416
874.979	3332
875.108	3264
875.237	3173
875.365	3157
875.494	3154
875.623	3249
875.751	3074
875.88	3119
876.008	3180
876.136	3241
876.265	3351
876.393	3492
876.521	3409
876.65	3397
876.778	3317
876.906	3272
877.034	3176
877.162	3207
877.29	3199
877.418	3233
877.546	3275
877.674	3230
877.802	3237
877.93	3222
878.058	3173
878.185	3093
878.313	3203
878.441	3184
878.568	3077
878.696	3154
878.824	3241
878.951	3287
879.079	3428
879.206	3603
879.333	3450
879.461	3336
879.588	3344
879.715	3507
879.842	3587
879.97	3370
880.097	3154
880.224	3123
880.351	3195
880.478	3184
880.605	3203
880.732	3176
880.859	3511
880.986	3313
881.112	3321
881.239	3176
881.366	3123
881.493	3020
881.619	3013
881.746	3062
881.872	3089
881.999	3058
882.125	3146
882.252	3245
882.378	3260
882.505	3447
882.631	3298
882.757	3146
882.883	3230
883.01	3192
883.136	3142
883.262	3093
883.388	3104
883.514	3302
883.64	3336
883.766	3283
883.892	3173
884.018	3241
884.143	3435
884.269	3526
884.395	3192
884.52	3169
884.646	3195
884.772	3104
884.897	3119
885.023	3203
885.148	3313
885.274	3389
885.399	3332
885.524	3249
885.65	3245
885.775	3325
885.9	3256
886.025	3439
886.15	3374
886.275	3272
886.4	3253
886.525	3317
886.65	3256
886.775	3272
886.9	3496
887.025	3641
887.149	3389
887.274	3256
887.399	3173
887.523	3188
887.648	3154
887.773	3184
887.897	3386
888.021	3435
888.146	3275
888.27	3458
888.395	3530
888.519	3412
888.643	3424
888.767	3458
888.891	3321
889.015	3260
889.139	3275
889.263	3233
889.387	3393
889.511	3507
889.635	3450
889.759	3283
889.883	3298
890.006	3393
890.13	3469
890.254	3237
890.377	3351
890.501	3180
890.624	3188
890.748	3291
890.871	3188
890.995	3119
891.118	3097
891.241	3169
891.364	3230
891.488	3336
891.611	3195
891.734	3226
891.857	3317
891.98	3222
892.103	3329
892.226	3272
892.349	3184
892.471	3081
892.594	3245
892.717	3253
892.839	3256
892.962	3275
893.085	3363
893.207	3279
893.33	3154
893.452	3184
893.575	3332
893.697	3237
893.819	3473
893.941	3507
894.064	3439
894.186	3264
894.308	3272
894.43	3462
894.552	3549
894.674	3450
894.796	3291
894.918	3310
895.04	3272
895.161	3409
895.283	3374
895.405	3256
895.526	3370
895.648	3447
895.769	3420
895.891	3488
896.012	3454
896.134	3439
896.255	3409
896.376	3355
896.498	3351
896.619	3435
896.74	3348
896.861	3355
896.982	3656
897.103	3838
897.224	3576
897.345	3534
897.466	3389
897.587	3507
897.708	3625
897.828	3568
897.949	3454
898.07	3313
898.19	3416
898.311	3629
898.431	3443
898.552	3507
898.672	3610
898.792	3523
898.913	3530
899.033	3420
899.153	3298
899.273	3203
899.393	3241
899.513	3344
899.633	3298
899.753	3325
899.873	3359
899.993	3412
900.113	3317
900.232	3409
900.352	3336
900.472	3272
900.591	3211
900.711	3291
900.83	3260
900.95	3386
901.069	3450
901.189	3306
901.308	3142
901.427	3127
901.546	3154
901.665	3291
901.784	3348
901.904	3207
902.023	3192
902.141	3005
902.26	2986
902.379	3138
902.498	3062
902.617	3066
902.735	3180
902.854	3233
902.973	3218
903.091	3047
903.21	3024
903.328	3138
903.446	3074
903.565	3116
903.683	3211
903.801	3108
903.919	3233
904.038	3283
904.156	3165
904.274	3291
904.392	3226
904.51	3310
904.627	3378
904.745	3416
904.863	3450
904.981	3264
905.098	3184
905.216	3230
905.334	3260
905.451	3344
905.569	3287
905.686	3439
905.803	3454
905.921	3310
906.038	3469
906.155	3336
906.272	3264
906.389	3348
906.506	3237
906.623	3230
906.74	3279
906.857	3180
906.974	3264
907.091	3485
907.208	3622
907.324	3439
907.441	3336
907.557	3226
907.674	3256
907.79	3195
907.907	3291
908.023	3351
908.139	3344
908.256	3272
908.372	3355
908.488	3340
908.604	3237
908.72	3256
908.836	3260
908.952	3264
909.068	3336
909.184	3488
909.3	3435
909.415	3488
909.531	3447
909.647	3268
909.762	3321
909.878	3260
909.993	3374
910.108	3340
910.224	3313
910.339	3367
910.454	3344
910.57	3325
910.685	3264
910.8	3580
910.915	3549
911.03	3405
911.145	3268
911.259	3264
911.374	3294
911.489	3249
911.604	3192
911.718	3112
911.833	3157
911.947	3028
912.062	2971
912.176	3169
912.291	3173
912.405	3173
912.519	3428
912.633	3477
912.748	3325
912.862	3260
912.976	3192
913.09	3055
913.204	3081
913.318	3203
913.431	3321
913.545	3317
913.659	3435
913.772	3325
913.886	3241
914	3211
914.113	3351
914.226	3405
914.34	3321
914.453	3241
914.566	3420
914.68	3291
914.793	3291
914.906	3112
915.019	3097
915.132	3013
915.245	3157
915.358	3180
915.47	3233
915.583	3214
915.696	3283
915.809	3374
915.921	3405
916.034	3226
916.146	3260
916.259	3192
916.371	3389
916.483	3374
916.595	3241
916.708	3378
916.82	3325
916.932	3348
917.044	3348
917.156	3359
917.268	3256
917.38	3283
917.491	3241
917.603	3374
917.715	3420
917.826	3485
917.938	3374
918.049	3291
918.161	3393
918.272	3542
918.384	3557
918.495	3504
918.606	3317
918.717	3279
918.828	3409
918.939	3424
919.05	3287
919.161	3363
919.272	3218
919.383	3298
919.494	3504
919.604	3671
919.715	3500
919.826	3386
919.936	3454
920.047	3568
920.157	3545
920.267	3747
920.378	3629
920.488	3515
920.598	3781
920.708	3892
920.818	3831
920.928	3774
921.038	4017
921.148	3972
921.258	3720
921.368	3603
921.477	3580
921.587	3549
921.697	3447
921.806	3660
921.916	3542
922.025	3359
922.134	3340
922.244	3313
922.353	3405
922.462	3264
922.571	3211
922.68	3074
922.789	3116
922.898	3135
923.007	3135
923.116	3233
923.224	3184
923.333	3211
923.442	3081
923.55	3116
923.659	3176
923.767	3226
923.876	3081
923.984	3211
924.092	3116
924.201	3184
924.309	3218
924.417	3249
924.525	3184
924.633	3195
924.741	4139
924.849	3070
924.956	3283
925.064	3097
925.172	3062
925.279	3093
925.387	3169
925.494	3203
925.602	3359
925.709	3317
925.816	3218
925.924	3237
926.031	3363
926.138	3325
926.245	3401
926.352	3233
926.459	3412
926.566	3504
926.673	3321
926.779	3279
926.886	3237
926.993	3154
927.099	3097
927.206	3127
927.312	3108
927.419	3211
927.525	3199
927.631	3279
927.737	3142
927.843	3150
927.95	3039
928.056	3150
928.162	3195
928.267	3253
928.373	3736
928.479	3306
928.585	3077
928.69	3237
928.796	3275
928.901	3169
929.007	3062
929.112	3211
929.218	3180
929.323	3150
929.428	3154
929.533	3310
929.638	3100
929.743	3203
929.848	3222
929.953	3188
930.058	3138
930.163	2956
930.267	3074
930.372	3226
930.477	3039
930.581	3332
930.685	3188
930.79	3047
930.894	3142
930.998	3077
931.103	3294
931.207	2956
931.311	2925
931.415	2902
931.519	2830
931.623	2811
