Data from test_V78500241_270.txt Node
Date: Fri Mar 25 16:17:04 CST 2022
User: usil
Spectrometer: V785-0024
Trigger mode: 0
Integration Time (sec): 4.000000E-1
Scans to average: 1
Nonlinearity correction enabled: false
Boxcar width: 0
Storing dark spectrum: false
XAxis mode: Wavelengths
Number of Pixels in Spectrum: 1024
>>>>>Begin Spectral Data<<<<<
801.071	2922
801.214	2971
801.356	2883
801.499	2883
801.641	2876
801.783	2941
801.926	3024
802.068	3017
802.211	2986
802.353	3032
802.496	2975
802.638	3043
802.78	3055
802.923	3104
803.065	3024
803.208	2941
803.35	2956
803.492	2986
803.635	2963
803.777	2781
803.919	2864
804.061	3195
804.204	2941
804.346	2914
804.488	2845
804.63	2998
804.773	2906
804.915	2925
805.057	3077
805.199	2952
805.341	2998
805.483	3039
805.626	3024
805.768	2990
805.91	3116
806.052	3119
806.194	3036
806.336	3195
806.478	3013
806.62	2941
806.762	2975
806.904	3047
807.046	3184
807.188	2998
807.33	2929
807.472	3039
807.614	2933
807.756	3013
807.898	2906
808.04	2891
808.182	2975
808.324	2975
808.465	2876
808.607	2868
808.749	2781
808.891	2861
809.033	2925
809.174	2990
809.316	2895
809.458	2891
809.6	2811
809.741	2739
809.883	2762
810.025	2849
810.166	2864
810.308	2830
810.45	2842
810.591	2777
810.733	2762
810.875	2826
811.016	2796
811.158	2766
811.299	2788
811.441	2929
811.582	2883
811.724	2826
811.865	2826
812.007	2925
812.148	2880
812.29	2853
812.431	2883
812.573	2941
812.714	2986
812.855	3058
812.997	3074
813.138	3138
813.279	3005
813.421	2982
813.562	2948
813.703	2895
813.845	2883
813.986	2796
814.127	2720
814.268	2826
814.41	2834
814.551	2842
814.692	2887
814.833	2811
814.974	2899
815.115	2960
815.256	2849
815.397	2781
815.539	2857
815.68	2785
815.821	2796
815.962	2918
816.103	2933
816.244	2883
816.385	2868
816.526	2967
816.666	2929
816.807	2735
816.948	2887
817.089	2918
817.23	2857
817.371	2823
817.512	2762
817.653	2868
817.793	2842
817.934	2914
818.075	2960
818.216	2994
818.356	3028
818.497	2864
818.638	2781
818.778	2823
818.919	2766
819.06	2731
819.2	2861
819.341	2807
819.481	2800
819.622	2944
819.762	3123
819.903	3036
820.043	2910
820.184	2902
820.324	2933
820.465	2994
820.605	3020
820.746	3028
820.886	2929
821.026	3085
821.167	3173
821.307	3256
821.447	3302
821.588	3245
821.728	3188
821.868	3199
822.008	3085
822.149	3192
822.289	3222
822.429	3077
822.569	3100
822.709	3192
822.849	2979
822.99	3055
823.13	3169
823.27	3195
823.41	3116
823.55	3138
823.69	3135
823.83	3165
823.97	3108
824.11	3013
824.25	2998
824.389	3043
824.529	3108
824.669	3085
824.809	3203
824.949	3253
825.089	3237
825.228	3142
825.368	3020
825.508	2941
825.648	3005
825.787	3013
825.927	3028
826.067	2960
826.206	2982
826.346	3020
826.485	3085
826.625	3119
826.765	3279
826.904	3211
827.044	2967
827.183	2933
827.323	2815
827.462	2971
827.601	2933
827.741	2925
827.88	2952
828.02	2845
828.159	2979
828.298	3058
828.437	3116
828.577	3028
828.716	3245
828.855	3070
828.994	2933
829.134	2872
829.273	2944
829.412	2876
829.551	2849
829.69	2857
829.829	2998
829.968	3138
830.107	3039
830.246	3039
830.385	2960
830.524	2861
830.663	2826
830.802	2716
830.941	2663
831.08	2659
831.219	2766
831.357	2724
831.496	2963
831.635	2735
831.774	2636
831.913	2678
832.051	2530
832.19	2564
832.329	2659
832.467	2511
832.606	2537
832.744	2602
832.883	2598
833.022	2579
833.16	2632
833.299	2686
833.437	2682
833.576	2644
833.714	2708
833.852	2727
833.991	2762
834.129	2857
834.267	2845
834.406	2762
834.544	2883
834.682	2864
834.821	2880
834.959	3077
835.097	2895
835.235	3028
835.373	3001
835.511	3013
835.65	2948
835.788	2944
835.926	2868
836.064	2792
836.202	2880
836.34	3123
836.478	3157
836.615	3039
836.753	3119
836.891	3195
837.029	3138
837.167	3100
837.305	3089
837.443	3066
837.58	2979
837.718	3176
837.856	3039
837.993	3043
838.131	3142
838.269	3074
838.406	3089
838.544	3047
838.681	2960
838.819	2922
838.956	2823
839.094	2857
839.231	2887
839.369	3055
839.506	3405
839.643	3249
839.781	3013
839.918	2967
840.055	3047
840.193	3070
840.33	3070
840.467	3081
840.604	3184
840.742	3409
840.879	3070
841.016	3074
841.153	3119
841.29	3329
841.427	3313
841.564	3272
841.701	3306
841.838	3230
841.975	3192
842.112	3192
842.249	3043
842.385	3024
842.522	3283
842.659	3047
842.796	3055
842.933	3089
843.069	3066
843.206	3024
843.343	3192
843.479	3097
843.616	3119
843.752	2883
843.889	2853
844.025	3043
844.162	2883
844.298	3093
844.435	2952
844.571	2925
844.708	3077
844.844	3154
844.98	3203
845.117	3214
845.253	3047
845.389	3005
845.525	3119
845.661	3070
845.798	3009
845.934	3112
846.07	3043
846.206	3237
846.342	3298
846.478	3245
846.614	3119
846.75	3070
846.886	3013
847.022	3222
847.158	3093
847.294	3180
847.429	3268
847.565	3214
847.701	3481
847.837	3039
847.972	3005
848.108	3154
848.244	3097
848.379	3024
848.515	2963
848.65	2963
848.786	2975
848.921	2994
849.057	3104
849.192	3157
849.328	3070
849.463	3089
849.598	3058
849.734	3047
849.869	2975
850.004	2922
850.14	2960
850.275	2880
850.41	2838
850.545	2861
850.68	2922
850.815	2956
850.95	2975
851.085	3180
851.22	3104
851.355	3032
851.49	2982
851.625	2986
851.76	3020
851.895	2933
852.03	2944
852.165	3047
852.299	3081
852.434	3180
852.569	3135
852.703	3138
852.838	3275
852.973	3336
853.107	3340
853.242	3165
853.376	3077
853.511	2994
853.645	3039
853.78	3272
853.914	3089
854.048	3131
854.183	3020
854.317	3192
854.451	3268
854.585	3127
854.72	3112
854.854	3207
854.988	3062
855.122	3062
855.256	2967
855.39	3161
855.524	3230
855.658	3176
855.792	3138
855.926	3154
856.06	3203
856.194	3268
856.327	3180
856.461	3108
856.595	3100
856.729	3081
856.862	3192
856.996	3142
857.13	3199
857.263	3199
857.397	3249
857.53	3131
857.664	3184
857.797	3256
857.931	3272
858.064	3146
858.197	3233
858.331	3123
858.464	3097
858.597	2990
858.731	3116
858.864	3108
858.997	3097
859.13	3146
859.263	3176
859.396	3211
859.529	3108
859.662	3081
859.795	3051
859.928	3116
860.061	3264
860.194	3279
860.327	3123
860.46	3119
860.592	3237
860.725	3287
860.858	3249
860.99	3097
861.123	3024
861.256	3017
861.388	3123
861.521	3865
861.653	2994
861.786	2998
861.918	3028
862.05	3028
862.183	3077
862.315	3154
862.447	3203
862.58	3062
862.712	2948
862.844	2868
862.976	3055
863.108	2982
863.24	3268
863.372	2872
863.504	2948
863.636	2956
863.768	3013
863.9	2944
864.032	2845
864.164	2952
864.296	3001
864.428	3055
864.559	3131
864.691	3039
864.823	3066
864.954	3047
865.086	3039
865.217	2990
865.349	2952
865.48	2990
865.612	2994
865.743	3218
865.875	3013
866.006	2929
866.137	2979
866.269	2948
866.4	2937
866.531	2929
866.662	2872
866.793	2891
866.924	2933
867.055	2986
867.186	2906
867.317	2910
867.448	2830
867.579	2842
867.71	2838
867.841	2788
867.972	2891
868.103	2902
868.233	2880
868.364	2849
868.495	2864
868.625	3089
868.756	3192
868.886	2960
869.017	3043
869.147	3161
869.278	3169
869.408	3005
869.539	3020
869.669	3085
869.799	3039
869.929	3192
870.06	3085
870.19	3313
870.32	3245
870.45	3329
870.58	3344
870.71	3412
870.84	3420
870.97	3260
871.1	3253
871.23	3477
871.36	3515
871.489	3386
871.619	3412
871.749	3397
871.879	3409
872.008	3511
872.138	3412
872.267	3302
872.397	3173
872.526	3108
872.656	3024
872.785	3093
872.915	3214
873.044	3291
873.173	3256
873.303	3268
873.432	3245
873.561	3226
873.69	3154
873.819	3169
873.948	3226
874.077	3150
874.206	3047
874.335	3108
874.464	3203
874.593	3344
874.722	3256
874.851	3386
874.979	3386
875.108	3302
875.237	3180
875.365	3180
875.494	3161
875.623	3260
875.751	3085
875.88	3112
876.008	3199
876.136	3199
876.265	3344
876.393	3485
876.521	3401
876.65	3386
876.778	3298
876.906	3218
877.034	3184
877.162	3203
877.29	3203
877.418	3253
877.546	3256
877.674	3237
877.802	3218
877.93	3203
878.058	3142
878.185	3127
878.313	3192
878.441	3207
878.568	3066
878.696	3127
878.824	3264
878.951	3313
879.079	3424
879.206	3610
879.333	3424
879.461	3363
879.588	3332
879.715	3458
879.842	3576
879.97	3363
880.097	3188
880.224	3138
880.351	3203
880.478	3222
880.605	3195
880.732	3192
880.859	3504
880.986	3313
881.112	3313
881.239	3180
881.366	3097
881.493	3032
881.619	3020
881.746	3119
881.872	3077
881.999	3104
882.125	3138
882.252	3199
882.378	3310
882.505	3431
882.631	3287
882.757	3150
882.883	3203
883.01	3184
883.136	3184
883.262	3119
883.388	3081
883.514	3344
883.64	3340
883.766	3279
883.892	3192
884.018	3214
884.143	3397
884.269	3542
884.395	3233
884.52	3176
884.646	3188
884.772	3100
884.897	3100
885.023	3211
885.148	3272
885.274	3382
885.399	3367
885.524	3253
885.65	3272
885.775	3264
885.9	3283
886.025	3412
886.15	3355
886.275	3245
886.4	3214
886.525	3298
886.65	3256
886.775	3268
886.9	3454
887.025	3637
887.149	3424
887.274	3253
887.399	3192
887.523	3218
887.648	3203
887.773	3207
887.897	3393
888.021	3412
888.146	3291
888.27	3424
888.395	3519
888.519	3397
888.643	3443
888.767	3447
888.891	3332
889.015	3226
889.139	3264
889.263	3272
889.387	3416
889.511	3519
889.635	3519
889.759	3279
889.883	3294
890.006	3405
890.13	3496
890.254	3268
890.377	3344
890.501	3222
890.624	3214
890.748	3313
890.871	3207
890.995	3119
891.118	3112
891.241	3211
891.364	3199
891.488	3363
891.611	3214
891.734	3249
891.857	3313
891.98	3317
892.103	3382
892.226	3329
892.349	3237
892.471	3142
892.594	3264
892.717	3313
892.839	3302
892.962	3313
893.085	3382
893.207	3336
893.33	3195
893.452	3237
893.575	3389
893.697	3298
893.819	3485
893.941	3564
894.064	3515
894.186	3321
894.308	3313
894.43	3481
894.552	3622
894.674	3526
894.796	3306
894.918	3363
895.04	3340
895.161	3485
895.283	3462
895.405	3359
895.526	3401
895.648	3469
895.769	3458
895.891	3481
896.012	3526
896.134	3534
896.255	3481
896.376	3420
896.498	3393
896.619	3481
896.74	3382
896.861	3416
896.982	3720
897.103	3911
897.224	3591
897.345	3591
897.466	3504
897.587	3515
897.708	3663
897.828	3614
897.949	3485
898.07	3348
898.19	3435
898.311	3633
898.431	3450
898.552	3549
898.672	3610
898.792	3622
898.913	3603
899.033	3447
899.153	3291
899.273	3230
899.393	3321
899.513	3397
899.633	3359
899.753	3401
899.873	3370
899.993	3439
900.113	3344
900.232	3431
900.352	3374
900.472	3348
900.591	3256
900.711	3344
900.83	3283
900.95	3424
901.069	3515
901.189	3416
901.308	3218
901.427	3135
901.546	3214
901.665	3291
901.784	3378
901.904	3268
902.023	3161
902.141	3085
902.26	3074
902.379	3161
902.498	3108
902.617	3116
902.735	3245
902.854	3260
902.973	3241
903.091	3077
903.21	3066
903.328	3157
903.446	3146
903.565	3142
903.683	3226
903.801	3161
903.919	3241
904.038	3321
904.156	3230
904.274	3374
904.392	3287
904.51	3336
904.627	3363
904.745	3477
904.863	3572
904.981	3287
905.098	3214
905.216	3268
905.334	3336
905.451	3340
905.569	3332
905.686	3466
905.803	3469
905.921	3332
906.038	3469
906.155	3382
906.272	3310
906.389	3367
906.506	3275
906.623	3275
906.74	3332
906.857	3230
906.974	3325
907.091	3477
907.208	3618
907.324	3496
907.441	3409
907.557	3287
907.674	3310
907.79	3245
907.907	3294
908.023	3412
908.139	3382
908.256	3382
908.372	3412
908.488	3389
908.604	3321
908.72	3249
908.836	3348
908.952	3344
909.068	3386
909.184	3523
909.3	3450
909.415	3568
909.531	3530
909.647	3294
909.762	3340
909.878	3279
909.993	3397
910.108	3386
910.224	3363
910.339	3447
910.454	3393
910.57	3332
910.685	3275
910.8	3652
910.915	3519
911.03	3534
911.145	3313
911.259	3275
911.374	3340
911.489	3283
911.604	3283
911.718	3150
911.833	3203
911.947	3055
912.062	3043
912.176	3207
912.291	3241
912.405	3249
912.519	3507
912.633	3469
912.748	3344
912.862	3310
912.976	3195
913.09	3131
913.204	3188
913.318	3230
913.431	3355
913.545	3374
913.659	3450
913.772	3386
913.886	3279
914	3260
914.113	3378
914.226	3431
914.34	3405
914.453	3279
914.566	3435
914.68	3325
914.793	3355
914.906	3150
915.019	3165
915.132	3135
915.245	3195
915.358	3256
915.47	3256
915.583	3291
915.696	3313
915.809	3458
915.921	3473
916.034	3272
916.146	3298
916.259	3268
916.371	3409
916.483	3378
916.595	3298
916.708	3382
916.82	3344
916.932	3363
917.044	3424
917.156	3382
917.268	3287
917.38	3344
917.491	3321
917.603	3378
917.715	3466
917.826	3523
917.938	3405
918.049	3313
918.161	3420
918.272	3656
918.384	3591
918.495	3496
918.606	3359
918.717	3294
918.828	3466
918.939	3431
919.05	3310
919.161	3393
919.272	3207
919.383	3325
919.494	3515
919.604	3705
919.715	3526
919.826	3450
919.936	3485
920.047	3568
920.157	3591
920.267	3835
920.378	3660
920.488	3629
920.598	3827
920.708	3972
920.818	3888
920.928	3831
921.038	4048
921.148	4021
921.258	3698
921.368	3656
921.477	3625
921.587	3564
921.697	3488
921.806	3648
921.916	3526
922.025	3374
922.134	3416
922.244	3332
922.353	3428
922.462	3317
922.571	3264
922.68	3154
922.789	3058
922.898	3161
923.007	3135
923.116	3218
923.224	3199
923.333	3237
923.442	3127
923.55	3116
923.659	3199
923.767	3241
923.876	3119
923.984	3291
924.092	3123
924.201	3180
924.309	3222
924.417	3310
924.525	3237
924.633	3237
924.741	4200
924.849	3108
924.956	3348
925.064	3127
925.172	3062
925.279	3154
925.387	3249
925.494	3245
925.602	3405
925.709	3340
925.816	3230
925.924	3351
926.031	3473
926.138	3374
926.245	3344
926.352	3306
926.459	3496
926.566	3481
926.673	3344
926.779	3287
926.886	3253
926.993	3165
927.099	3154
927.206	3131
927.312	3135
927.419	3298
927.525	3241
927.631	3313
927.737	3195
927.843	3150
927.95	3104
928.056	3157
928.162	3226
928.267	3245
928.373	3850
928.479	3336
928.585	3154
928.69	3226
928.796	3302
928.901	3192
929.007	3081
929.112	3260
929.218	3195
929.323	3173
929.428	3146
929.533	3351
929.638	3142
929.743	3256
929.848	3264
929.953	3233
930.058	3165
930.163	2990
930.267	3074
930.372	3218
930.477	3024
930.581	3321
930.685	3226
930.79	3097
930.894	3157
930.998	3157
931.103	3291
931.207	2975
931.311	2986
931.415	2960
931.519	2823
931.623	2845
