Data from test_V78500241_696.txt Node
Date: Fri Mar 25 16:20:01 CST 2022
User: usil
Spectrometer: V785-0024
Trigger mode: 0
Integration Time (sec): 4.000000E-1
Scans to average: 1
Nonlinearity correction enabled: false
Boxcar width: 0
Storing dark spectrum: false
XAxis mode: Wavelengths
Number of Pixels in Spectrum: 1024
>>>>>Begin Spectral Data<<<<<
801.071	2910
801.214	2933
801.356	2914
801.499	2925
801.641	2864
801.783	2925
801.926	3081
802.068	2956
802.211	3047
802.353	3062
802.496	2956
802.638	3001
802.78	3013
802.923	3131
803.065	3020
803.208	2906
803.35	2929
803.492	2967
803.635	2944
803.777	2743
803.919	2883
804.061	3214
804.204	3005
804.346	2933
804.488	2887
804.63	2990
804.773	2883
804.915	2918
805.057	3089
805.199	2918
805.341	2963
805.483	3039
805.626	3013
805.768	2986
805.91	3058
806.052	3112
806.194	3013
806.336	3230
806.478	3032
806.62	2933
806.762	2994
806.904	3097
807.046	3180
807.188	2994
807.33	2922
807.472	2998
807.614	2933
807.756	2998
807.898	2944
808.04	2891
808.182	2971
808.324	2952
808.465	2906
808.607	2876
808.749	2845
808.891	2883
809.033	2971
809.174	2982
809.316	2864
809.458	2906
809.6	2788
809.741	2792
809.883	2766
810.025	2830
810.166	2880
810.308	2842
810.45	2872
810.591	2766
810.733	2788
810.875	2861
811.016	2777
811.158	2773
811.299	2830
811.441	2895
811.582	2899
811.724	2838
811.865	2845
812.007	2899
812.148	2834
812.29	2868
812.431	2902
812.573	2937
812.714	2971
812.855	3058
812.997	3032
813.138	3180
813.279	3020
813.421	2994
813.562	2963
813.703	2876
813.845	2914
813.986	2743
814.127	2731
814.268	2788
814.41	2872
814.551	2834
814.692	2861
814.833	2800
814.974	2887
815.115	2933
815.256	2823
815.397	2796
815.539	2853
815.68	2807
815.821	2773
815.962	2929
816.103	2963
816.244	2864
816.385	2853
816.526	2960
816.666	2891
816.807	2750
816.948	2891
817.089	2906
817.23	2864
817.371	2800
817.512	2788
817.653	2857
817.793	2807
817.934	2842
818.075	2967
818.216	2994
818.356	3009
818.497	2876
818.638	2777
818.778	2853
818.919	2800
819.06	2758
819.2	2891
819.341	2800
819.481	2838
819.622	2967
819.762	3116
819.903	3051
820.043	2902
820.184	2941
820.324	2895
820.465	3024
820.605	3017
820.746	3032
820.886	2960
821.026	3074
821.167	3188
821.307	3253
821.447	3329
821.588	3260
821.728	3211
821.868	3199
822.008	3085
822.149	3154
822.289	3272
822.429	3077
822.569	3097
822.709	3192
822.849	3058
822.99	3093
823.13	3230
823.27	3188
823.41	3112
823.55	3150
823.69	3192
823.83	3222
823.97	3100
824.11	3005
824.25	3036
824.389	3108
824.529	3180
824.669	3043
824.809	3218
824.949	3272
825.089	3218
825.228	3173
825.368	3028
825.508	3009
825.648	3005
825.787	3039
825.927	3051
826.067	3009
826.206	3013
826.346	3081
826.485	3104
826.625	3116
826.765	3348
826.904	3272
827.044	3017
827.183	2937
827.323	2872
827.462	3066
827.601	2971
827.741	2971
827.88	2982
828.02	2868
828.159	3001
828.298	3081
828.437	3173
828.577	3097
828.716	3306
828.855	3157
828.994	2963
829.134	2914
829.273	2986
829.412	2895
829.551	2925
829.69	2944
829.829	3017
829.968	3146
830.107	3047
830.246	3100
830.385	2963
830.524	2937
830.663	2861
830.802	2769
830.941	2693
831.08	2670
831.219	2830
831.357	2792
831.496	2990
831.635	2777
831.774	2663
831.913	2693
832.051	2587
832.19	2648
832.329	2724
832.467	2575
832.606	2549
832.744	2610
832.883	2606
833.022	2625
833.16	2712
833.299	2708
833.437	2708
833.576	2750
833.714	2746
833.852	2788
833.991	2792
834.129	2849
834.267	2876
834.406	2819
834.544	2941
834.682	2906
834.821	2883
834.959	3085
835.097	2963
835.235	3093
835.373	3028
835.511	3043
835.65	3009
835.788	3001
835.926	2891
836.064	2853
836.202	2883
836.34	3154
836.478	3176
836.615	3085
836.753	3192
836.891	3253
837.029	3214
837.167	3142
837.305	3108
837.443	3032
837.58	3005
837.718	3199
837.856	3108
837.993	3097
838.131	3131
838.269	3119
838.406	3154
838.544	3062
838.681	2929
838.819	2971
838.956	2842
839.094	2838
839.231	2944
839.369	2990
839.506	3393
839.643	3264
839.781	3032
839.918	2971
840.055	3104
840.193	3097
840.33	3070
840.467	3108
840.604	3180
840.742	3443
840.879	3081
841.016	3081
841.153	3169
841.29	3370
841.427	3332
841.564	3310
841.701	3302
841.838	3222
841.975	3253
842.112	3249
842.249	3089
842.385	3055
842.522	3321
842.659	3089
842.796	3104
842.933	3154
843.069	3081
843.206	3104
843.343	3199
843.479	3150
843.616	3169
843.752	2960
843.889	2902
844.025	3116
844.162	2895
844.298	3119
844.435	2960
844.571	2944
844.708	3119
844.844	3207
844.98	3279
845.117	3222
845.253	3062
845.389	3024
845.525	3104
845.661	3119
845.798	3020
845.934	3165
846.07	3074
846.206	3268
846.342	3351
846.478	3275
846.614	3097
846.75	3058
846.886	3055
847.022	3260
847.158	3180
847.294	3241
847.429	3268
847.565	3230
847.701	3488
847.837	3085
847.972	3001
848.108	3169
848.244	3173
848.379	3039
848.515	2979
848.65	2956
848.786	3009
848.921	3017
849.057	3116
849.192	3157
849.328	3127
849.463	3146
849.598	3085
849.734	3066
849.869	2960
850.004	2933
850.14	2990
850.275	2941
850.41	2876
850.545	2883
850.68	2956
850.815	2990
850.95	2994
851.085	3211
851.22	3119
851.355	3089
851.49	2979
851.625	3039
851.76	3058
851.895	2986
852.03	2944
852.165	3020
852.299	3157
852.434	3180
852.569	3188
852.703	3218
852.838	3272
852.973	3336
853.107	3374
853.242	3157
853.376	3154
853.511	3036
853.645	3043
853.78	3260
853.914	3161
854.048	3123
854.183	3077
854.317	3226
854.451	3329
854.585	3180
854.72	3104
854.854	3237
854.988	3100
855.122	3131
855.256	3047
855.39	3146
855.524	3283
855.658	3218
855.792	3195
855.926	3214
856.06	3253
856.194	3317
856.327	3176
856.461	3119
856.595	3104
856.729	3104
856.862	3230
856.996	3165
857.13	3233
857.263	3245
857.397	3298
857.53	3135
857.664	3173
857.797	3233
857.931	3268
858.064	3138
858.197	3233
858.331	3157
858.464	3123
858.597	2998
858.731	3150
858.864	3176
858.997	3070
859.13	3192
859.263	3203
859.396	3214
859.529	3100
859.662	3123
859.795	3066
859.928	3157
860.061	3313
860.194	3344
860.327	3154
860.46	3100
860.592	3230
860.725	3256
860.858	3268
860.99	3142
861.123	3093
861.256	3097
861.388	3169
861.521	3922
861.653	3066
861.786	2982
861.918	3039
862.05	3058
862.183	3127
862.315	3161
862.447	3207
862.58	3157
862.712	2979
862.844	2895
862.976	3070
863.108	3028
863.24	3412
863.372	2891
863.504	2979
863.636	2994
863.768	3074
863.9	3017
864.032	2910
864.164	2990
864.296	3077
864.428	3116
864.559	3135
864.691	3089
864.823	3062
864.954	3047
865.086	3085
865.217	3032
865.349	2990
865.48	3020
865.612	3051
865.743	3195
865.875	3009
866.006	2952
866.137	3005
866.269	2975
866.4	2967
866.531	2944
866.662	2910
866.793	2906
866.924	2914
867.055	2998
867.186	2944
867.317	2937
867.448	2845
867.579	2842
867.71	2899
867.841	2861
867.972	2963
868.103	2952
868.233	2922
868.364	2929
868.495	2899
868.625	3077
868.756	3195
868.886	2971
869.017	3032
869.147	3150
869.278	3176
869.408	3058
869.539	3066
869.669	3119
869.799	3089
869.929	3131
870.06	3154
870.19	3344
870.32	3279
870.45	3310
870.58	3389
870.71	3488
870.84	3500
870.97	3340
871.1	3272
871.23	3481
871.36	3488
871.489	3389
871.619	3401
871.749	3431
871.879	3458
872.008	3523
872.138	3378
872.267	3310
872.397	3165
872.526	3135
872.656	3036
872.785	3135
872.915	3237
873.044	3351
873.173	3272
873.303	3272
873.432	3260
873.561	3268
873.69	3203
873.819	3161
873.948	3211
874.077	3116
874.206	3028
874.335	3116
874.464	3253
874.593	3344
874.722	3287
874.851	3401
874.979	3351
875.108	3348
875.237	3233
875.365	3146
875.494	3165
875.623	3253
875.751	3070
875.88	3123
876.008	3222
876.136	3249
876.265	3386
876.393	3557
876.521	3469
876.65	3443
876.778	3344
876.906	3298
877.034	3218
877.162	3237
877.29	3203
877.418	3264
877.546	3241
877.674	3279
877.802	3256
877.93	3237
878.058	3169
878.185	3119
878.313	3214
878.441	3237
878.568	3093
878.696	3207
878.824	3253
878.951	3317
879.079	3409
879.206	3637
879.333	3466
879.461	3351
879.588	3348
879.715	3485
879.842	3606
879.97	3397
880.097	3165
880.224	3150
880.351	3195
880.478	3233
880.605	3214
880.732	3218
880.859	3481
880.986	3313
881.112	3313
881.239	3218
881.366	3119
881.493	3085
881.619	3024
881.746	3077
881.872	3093
881.999	3127
882.125	3146
882.252	3256
882.378	3306
882.505	3420
882.631	3321
882.757	3157
882.883	3211
883.01	3256
883.136	3176
883.262	3131
883.388	3093
883.514	3313
883.64	3389
883.766	3325
883.892	3249
884.018	3275
884.143	3420
884.269	3553
884.395	3222
884.52	3173
884.646	3199
884.772	3119
884.897	3116
885.023	3245
885.148	3321
885.274	3416
885.399	3382
885.524	3306
885.65	3302
885.775	3317
885.9	3321
886.025	3450
886.15	3367
886.275	3279
886.4	3218
886.525	3298
886.65	3310
886.775	3298
886.9	3504
887.025	3652
887.149	3454
887.274	3249
887.399	3211
887.523	3230
887.648	3188
887.773	3233
887.897	3386
888.021	3420
888.146	3294
888.27	3439
888.395	3515
888.519	3450
888.643	3466
888.767	3431
888.891	3332
889.015	3260
889.139	3321
889.263	3256
889.387	3409
889.511	3530
889.635	3447
889.759	3283
889.883	3310
890.006	3386
890.13	3545
890.254	3302
890.377	3321
890.501	3241
890.624	3218
890.748	3317
890.871	3173
890.995	3104
891.118	3097
891.241	3180
891.364	3222
891.488	3302
891.611	3245
891.734	3218
891.857	3294
891.98	3283
892.103	3313
892.226	3294
892.349	3188
892.471	3093
892.594	3245
892.717	3287
892.839	3302
892.962	3287
893.085	3344
893.207	3279
893.33	3207
893.452	3211
893.575	3336
893.697	3226
893.819	3492
893.941	3519
894.064	3450
894.186	3313
894.308	3291
894.43	3500
894.552	3538
894.674	3492
894.796	3287
894.918	3325
895.04	3321
895.161	3409
895.283	3424
895.405	3325
895.526	3389
895.648	3443
895.769	3416
895.891	3511
896.012	3447
896.134	3466
896.255	3420
896.376	3393
896.498	3367
896.619	3488
896.74	3405
896.861	3378
896.982	3717
897.103	3854
897.224	3629
897.345	3500
897.466	3420
897.587	3500
897.708	3629
897.828	3580
897.949	3435
898.07	3370
898.19	3424
898.311	3637
898.431	3473
898.552	3530
898.672	3599
898.792	3629
898.913	3534
899.033	3412
899.153	3275
899.273	3226
899.393	3313
899.513	3336
899.633	3317
899.753	3298
899.873	3310
899.993	3374
900.113	3374
900.232	3370
900.352	3344
900.472	3283
900.591	3230
900.711	3287
900.83	3226
900.95	3370
901.069	3511
901.189	3370
901.308	3157
901.427	3165
901.546	3222
901.665	3325
901.784	3336
901.904	3226
902.023	3176
902.141	3028
902.26	3009
902.379	3104
902.498	3074
902.617	3047
902.735	3203
902.854	3245
902.973	3161
903.091	3005
903.21	3066
903.328	3116
903.446	3127
903.565	3074
903.683	3230
903.801	3150
903.919	3256
904.038	3272
904.156	3173
904.274	3306
904.392	3298
904.51	3310
904.627	3374
904.745	3492
904.863	3477
904.981	3275
905.098	3176
905.216	3245
905.334	3306
905.451	3310
905.569	3268
905.686	3424
905.803	3435
905.921	3306
906.038	3397
906.155	3359
906.272	3298
906.389	3344
906.506	3237
906.623	3264
906.74	3283
906.857	3222
906.974	3218
907.091	3488
907.208	3576
907.324	3462
907.441	3393
907.557	3211
907.674	3272
907.79	3245
907.907	3294
908.023	3370
908.139	3378
908.256	3351
908.372	3409
908.488	3370
908.604	3272
908.72	3256
908.836	3287
908.952	3264
909.068	3336
909.184	3545
909.3	3412
909.415	3496
909.531	3420
909.647	3287
909.762	3329
909.878	3245
909.993	3359
910.108	3310
910.224	3313
910.339	3420
910.454	3340
910.57	3332
910.685	3279
910.8	3584
910.915	3561
911.03	3431
911.145	3260
911.259	3268
911.374	3306
911.489	3249
911.604	3233
911.718	3138
911.833	3165
911.947	3043
912.062	2986
912.176	3180
912.291	3207
912.405	3230
912.519	3443
912.633	3431
912.748	3348
912.862	3287
912.976	3169
913.09	3043
913.204	3173
913.318	3203
913.431	3351
913.545	3351
913.659	3462
913.772	3348
913.886	3203
914	3207
914.113	3367
914.226	3412
914.34	3355
914.453	3237
914.566	3393
914.68	3317
914.793	3302
914.906	3112
915.019	3100
915.132	3043
915.245	3169
915.358	3222
915.47	3256
915.583	3283
915.696	3298
915.809	3393
915.921	3416
916.034	3291
916.146	3294
916.259	3211
916.371	3409
916.483	3359
916.595	3256
916.708	3363
916.82	3344
916.932	3344
917.044	3344
917.156	3367
917.268	3249
917.38	3306
917.491	3317
917.603	3351
917.715	3454
917.826	3443
917.938	3382
918.049	3233
918.161	3428
918.272	3591
918.384	3603
918.495	3507
918.606	3317
918.717	3245
918.828	3416
918.939	3405
919.05	3325
919.161	3351
919.272	3222
919.383	3268
919.494	3492
919.604	3660
919.715	3523
919.826	3435
919.936	3450
920.047	3599
920.157	3530
920.267	3778
920.378	3587
920.488	3580
920.598	3728
920.708	3907
920.818	3842
920.928	3831
921.038	3991
921.148	3949
921.258	3698
921.368	3633
921.477	3606
921.587	3534
921.697	3469
921.806	3648
921.916	3553
922.025	3363
922.134	3382
922.244	3321
922.353	3397
922.462	3260
922.571	3237
922.68	3093
922.789	3093
922.898	3146
923.007	3138
923.116	3161
923.224	3146
923.333	3184
923.442	3104
923.55	3112
923.659	3127
923.767	3233
923.876	3131
923.984	3253
924.092	3097
924.201	3203
924.309	3203
924.417	3256
924.525	3184
924.633	3195
924.741	4002
924.849	3066
924.956	3279
925.064	3100
925.172	3009
925.279	3077
925.387	3218
925.494	3218
925.602	3367
925.709	3348
925.816	3203
925.924	3253
926.031	3367
926.138	3344
926.245	3374
926.352	3237
926.459	3401
926.566	3458
926.673	3302
926.779	3253
926.886	3211
926.993	3142
927.099	3142
927.206	3100
927.312	3089
927.419	3218
927.525	3241
927.631	3226
927.737	3169
927.843	3157
927.95	3013
928.056	3138
928.162	3192
928.267	3218
928.373	3854
928.479	3336
928.585	3062
928.69	3214
928.796	3298
928.901	3184
929.007	3039
929.112	3211
929.218	3195
929.323	3173
929.428	3135
929.533	3306
929.638	3127
929.743	3127
929.848	3287
929.953	3226
930.058	3119
930.163	3005
930.267	3043
930.372	3165
930.477	3024
930.581	3317
930.685	3161
930.79	3020
930.894	3116
930.998	3062
931.103	3287
931.207	2948
931.311	2956
931.415	2895
931.519	2796
931.623	2815
