Data from test_V78500241_1985.txt Node
Date: Fri Mar 25 16:28:57 CST 2022
User: usil
Spectrometer: V785-0024
Trigger mode: 0
Integration Time (sec): 4.000000E-1
Scans to average: 1
Nonlinearity correction enabled: false
Boxcar width: 0
Storing dark spectrum: false
XAxis mode: Wavelengths
Number of Pixels in Spectrum: 1024
>>>>>Begin Spectral Data<<<<<
801.071	2925
801.214	3017
801.356	2925
801.499	2933
801.641	2906
801.783	2967
801.926	3093
802.068	3036
802.211	3013
802.353	3112
802.496	2986
802.638	3017
802.78	3089
802.923	3119
803.065	3070
803.208	2918
803.35	2956
803.492	2982
803.635	2971
803.777	2796
803.919	2918
804.061	3226
804.204	3028
804.346	2948
804.488	2853
804.63	3077
804.773	2891
804.915	2975
805.057	3089
805.199	2979
805.341	3013
805.483	3070
805.626	3058
805.768	2975
805.91	3089
806.052	3150
806.194	3077
806.336	3287
806.478	3062
806.62	2960
806.762	3001
806.904	3070
807.046	3192
807.188	3020
807.33	2925
807.472	3028
807.614	2929
807.756	3024
807.898	2956
808.04	2941
808.182	2967
808.324	2952
808.465	2937
808.607	2914
808.749	2842
808.891	2887
809.033	3005
809.174	3020
809.316	2925
809.458	2899
809.6	2796
809.741	2800
809.883	2819
810.025	2902
810.166	2895
810.308	2849
810.45	2887
810.591	2788
810.733	2788
810.875	2876
811.016	2834
811.158	2796
811.299	2804
811.441	2944
811.582	2918
811.724	2845
811.865	2834
812.007	2925
812.148	2925
812.29	2925
812.431	2902
812.573	2967
812.714	2979
812.855	3077
812.997	3058
813.138	3173
813.279	3089
813.421	3039
813.562	2960
813.703	2910
813.845	2887
813.986	2796
814.127	2781
814.268	2849
814.41	2872
814.551	2872
814.692	2906
814.833	2857
814.974	2937
815.115	2994
815.256	2895
815.397	2864
815.539	2868
815.68	2769
815.821	2800
815.962	2937
816.103	2922
816.244	2883
816.385	2883
816.526	3009
816.666	2971
816.807	2796
816.948	2918
817.089	2937
817.23	2872
817.371	2804
817.512	2823
817.653	2876
817.793	2853
817.934	2937
818.075	2986
818.216	3039
818.356	3036
818.497	2944
818.638	2800
818.778	2861
818.919	2819
819.06	2773
819.2	2902
819.341	2857
819.481	2830
819.622	2952
819.762	3154
819.903	3081
820.043	2948
820.184	2937
820.324	2933
820.465	3047
820.605	3024
820.746	3043
820.886	2960
821.026	3104
821.167	3188
821.307	3253
821.447	3329
821.588	3260
821.728	3249
821.868	3214
822.008	3077
822.149	3192
822.289	3249
822.429	3135
822.569	3097
822.709	3226
822.849	3058
822.99	3100
823.13	3169
823.27	3192
823.41	3161
823.55	3195
823.69	3184
823.83	3195
823.97	3081
824.11	3051
824.25	3032
824.389	3089
824.529	3154
824.669	3093
824.809	3195
824.949	3287
825.089	3260
825.228	3161
825.368	3058
825.508	2994
825.648	2982
825.787	3089
825.927	3028
826.067	3017
826.206	2982
826.346	3070
826.485	3066
826.625	3127
826.765	3256
826.904	3233
827.044	3017
827.183	2960
827.323	2887
827.462	2982
827.601	2952
827.741	2948
827.88	2967
828.02	2906
828.159	3009
828.298	3081
828.437	3119
828.577	3097
828.716	3268
828.855	3135
828.994	2937
829.134	2895
829.273	2937
829.412	2895
829.551	2864
829.69	2910
829.829	3001
829.968	3135
830.107	3024
830.246	3062
830.385	2933
830.524	2891
830.663	2815
830.802	2773
830.941	2686
831.08	2667
831.219	2811
831.357	2777
831.496	2971
831.635	2743
831.774	2636
831.913	2655
832.051	2598
832.19	2625
832.329	2689
832.467	2560
832.606	2514
832.744	2621
832.883	2590
833.022	2640
833.16	2682
833.299	2705
833.437	2720
833.576	2727
833.714	2758
833.852	2750
833.991	2758
834.129	2845
834.267	2849
834.406	2853
834.544	2880
834.682	2880
834.821	2918
834.959	3077
835.097	2922
835.235	3070
835.373	2990
835.511	3036
835.65	3001
835.788	2929
835.926	2834
836.064	2823
836.202	2891
836.34	3100
836.478	3150
836.615	3066
836.753	3169
836.891	3188
837.029	3218
837.167	3150
837.305	3070
837.443	3066
837.58	2960
837.718	3150
837.856	3089
837.993	3051
838.131	3123
838.269	3142
838.406	3131
838.544	3131
838.681	2971
838.819	2941
838.956	2838
839.094	2883
839.231	2979
839.369	3074
839.506	3435
839.643	3241
839.781	3013
839.918	2956
840.055	3070
840.193	3047
840.33	3085
840.467	3108
840.604	3150
840.742	3409
840.879	3058
841.016	3077
841.153	3108
841.29	3370
841.427	3287
841.564	3302
841.701	3329
841.838	3237
841.975	3222
842.112	3211
842.249	3116
842.385	3070
842.522	3264
842.659	3077
842.796	3051
842.933	3138
843.069	3055
843.206	3089
843.343	3233
843.479	3138
843.616	3146
843.752	2887
843.889	2906
844.025	3119
844.162	2899
844.298	3104
844.435	3017
844.571	2910
844.708	3104
844.844	3154
844.98	3260
845.117	3184
845.253	3085
845.389	3013
845.525	3135
845.661	3150
845.798	3013
845.934	3100
846.07	3074
846.206	3272
846.342	3355
846.478	3233
846.614	3116
846.75	3051
846.886	3024
847.022	3253
847.158	3154
847.294	3184
847.429	3275
847.565	3207
847.701	3462
847.837	3081
847.972	2990
848.108	3146
848.244	3127
848.379	2975
848.515	2948
848.65	2941
848.786	3017
848.921	3066
849.057	3138
849.192	3226
849.328	3097
849.463	3108
849.598	3070
849.734	3036
849.869	2975
850.004	2918
850.14	2948
850.275	2914
850.41	2876
850.545	2918
850.68	2956
850.815	2963
850.95	2986
851.085	3203
851.22	3127
851.355	3093
851.49	2979
851.625	3020
851.76	3036
851.895	2914
852.03	2918
852.165	3055
852.299	3154
852.434	3222
852.569	3123
852.703	3180
852.838	3249
852.973	3370
853.107	3363
853.242	3138
853.376	3104
853.511	2975
853.645	3066
853.78	3264
853.914	3176
854.048	3116
854.183	3070
854.317	3150
854.451	3291
854.585	3146
854.72	3116
854.854	3253
854.988	3081
855.122	3123
855.256	3024
855.39	3138
855.524	3275
855.658	3157
855.792	3169
855.926	3207
856.06	3211
856.194	3272
856.327	3154
856.461	3104
856.595	3058
856.729	3119
856.862	3199
856.996	3188
857.13	3237
857.263	3241
857.397	3264
857.53	3169
857.664	3199
857.797	3245
857.931	3275
858.064	3207
858.197	3245
858.331	3157
858.464	3097
858.597	3032
858.731	3089
858.864	3123
858.997	3116
859.13	3165
859.263	3211
859.396	3241
859.529	3097
859.662	3100
859.795	3077
859.928	3146
860.061	3332
860.194	3275
860.327	3161
860.46	3108
860.592	3256
860.725	3275
860.858	3233
860.99	3146
861.123	3051
861.256	3085
861.388	3150
861.521	3876
861.653	3047
861.786	3013
861.918	3009
862.05	3081
862.183	3112
862.315	3188
862.447	3233
862.58	3108
862.712	2960
862.844	2887
862.976	3028
863.108	3032
863.24	3416
863.372	2918
863.504	2990
863.636	2986
863.768	3081
863.9	3017
864.032	2902
864.164	2975
864.296	3032
864.428	3081
864.559	3146
864.691	3100
864.823	3055
864.954	3055
865.086	3039
865.217	3020
865.349	2952
865.48	2990
865.612	3077
865.743	3146
865.875	2975
866.006	2986
866.137	2960
866.269	2979
866.4	2967
866.531	2948
866.662	2906
866.793	2895
866.924	2906
867.055	2986
867.186	2933
867.317	2895
867.448	2834
867.579	2838
867.71	2902
867.841	2845
867.972	2891
868.103	2887
868.233	2895
868.364	2849
868.495	2914
868.625	3089
868.756	3161
868.886	2975
869.017	3020
869.147	3161
869.278	3176
869.408	3047
869.539	3028
869.669	3058
869.799	3081
869.929	3131
870.06	3097
870.19	3355
870.32	3298
870.45	3275
870.58	3397
870.71	3458
870.84	3431
870.97	3317
871.1	3233
871.23	3466
871.36	3466
871.489	3378
871.619	3386
871.749	3424
871.879	3412
872.008	3519
872.138	3393
872.267	3241
872.397	3161
872.526	3097
872.656	2998
872.785	3116
872.915	3230
873.044	3313
873.173	3245
873.303	3279
873.432	3245
873.561	3218
873.69	3180
873.819	3123
873.948	3199
874.077	3119
874.206	3058
874.335	3104
874.464	3195
874.593	3348
874.722	3272
874.851	3397
874.979	3359
875.108	3344
875.237	3241
875.365	3176
875.494	3173
875.623	3222
875.751	3112
875.88	3097
876.008	3195
876.136	3211
876.265	3389
876.393	3542
876.521	3450
876.65	3416
876.778	3321
876.906	3245
877.034	3169
877.162	3245
877.29	3165
877.418	3241
877.546	3237
877.674	3249
877.802	3237
877.93	3230
878.058	3157
878.185	3104
878.313	3214
878.441	3199
878.568	3074
878.696	3161
878.824	3279
878.951	3310
879.079	3428
879.206	3625
879.333	3428
879.461	3351
879.588	3367
879.715	3466
879.842	3580
879.97	3393
880.097	3207
880.224	3131
880.351	3176
880.478	3195
880.605	3195
880.732	3161
880.859	3504
880.986	3313
881.112	3340
881.239	3176
881.366	3131
881.493	3020
881.619	3020
881.746	3055
881.872	3062
881.999	3104
882.125	3123
882.252	3226
882.378	3283
882.505	3431
882.631	3279
882.757	3165
882.883	3214
883.01	3256
883.136	3131
883.262	3131
883.388	3142
883.514	3298
883.64	3374
883.766	3306
883.892	3188
884.018	3218
884.143	3401
884.269	3504
884.395	3203
884.52	3165
884.646	3176
884.772	3135
884.897	3119
885.023	3211
885.148	3313
885.274	3428
885.399	3329
885.524	3294
885.65	3287
885.775	3317
885.9	3310
886.025	3477
886.15	3389
886.275	3283
886.4	3233
886.525	3306
886.65	3279
886.775	3264
886.9	3496
887.025	3614
887.149	3401
887.274	3249
887.399	3214
887.523	3203
887.648	3199
887.773	3150
887.897	3367
888.021	3389
888.146	3298
888.27	3393
888.395	3530
888.519	3435
888.643	3443
888.767	3443
888.891	3344
889.015	3272
889.139	3291
889.263	3268
889.387	3424
889.511	3481
889.635	3412
889.759	3298
889.883	3302
890.006	3416
890.13	3485
890.254	3233
890.377	3310
890.501	3237
890.624	3135
890.748	3287
890.871	3176
890.995	3100
891.118	3043
891.241	3173
891.364	3203
891.488	3306
891.611	3180
891.734	3211
891.857	3317
891.98	3195
892.103	3302
892.226	3298
892.349	3233
892.471	3112
892.594	3222
892.717	3279
892.839	3268
892.962	3294
893.085	3348
893.207	3294
893.33	3146
893.452	3184
893.575	3340
893.697	3241
893.819	3469
893.941	3469
894.064	3393
894.186	3253
894.308	3302
894.43	3450
894.552	3549
894.674	3469
894.796	3264
894.918	3272
895.04	3264
895.161	3443
895.283	3386
895.405	3310
895.526	3348
895.648	3416
895.769	3389
895.891	3443
896.012	3485
896.134	3466
896.255	3397
896.376	3401
896.498	3382
896.619	3420
896.74	3359
896.861	3424
896.982	3690
897.103	3899
897.224	3614
897.345	3481
897.466	3431
897.587	3485
897.708	3614
897.828	3542
897.949	3416
898.07	3313
898.19	3447
898.311	3644
898.431	3462
898.552	3496
898.672	3587
898.792	3595
898.913	3530
899.033	3405
899.153	3317
899.273	3169
899.393	3298
899.513	3302
899.633	3317
899.753	3359
899.873	3279
899.993	3359
900.113	3370
900.232	3359
900.352	3355
900.472	3264
900.591	3192
900.711	3294
900.83	3245
900.95	3424
901.069	3519
901.189	3344
901.308	3188
901.427	3074
901.546	3203
901.665	3283
901.784	3317
901.904	3184
902.023	3173
902.141	3005
902.26	3005
902.379	3146
902.498	3070
902.617	3058
902.735	3176
902.854	3233
902.973	3214
903.091	3024
903.21	3070
903.328	3154
903.446	3081
903.565	3097
903.683	3154
903.801	3131
903.919	3264
904.038	3294
904.156	3154
904.274	3298
904.392	3245
904.51	3241
904.627	3344
904.745	3454
904.863	3477
904.981	3226
905.098	3146
905.216	3230
905.334	3264
905.451	3283
905.569	3306
905.686	3420
905.803	3409
905.921	3306
906.038	3416
906.155	3359
906.272	3272
906.389	3298
906.506	3264
906.623	3233
906.74	3306
906.857	3142
906.974	3283
907.091	3428
907.208	3591
907.324	3458
907.441	3386
907.557	3211
907.674	3222
907.79	3230
907.907	3279
908.023	3382
908.139	3359
908.256	3359
908.372	3359
908.488	3325
908.604	3279
908.72	3211
908.836	3298
908.952	3279
909.068	3348
909.184	3504
909.3	3370
909.415	3496
909.531	3492
909.647	3310
909.762	3294
909.878	3253
909.993	3329
910.108	3344
910.224	3317
910.339	3405
910.454	3313
910.57	3302
910.685	3241
910.8	3564
910.915	3511
911.03	3409
911.145	3245
911.259	3268
911.374	3306
911.489	3253
911.604	3230
911.718	3089
911.833	3127
911.947	3024
912.062	2982
912.176	3188
912.291	3203
912.405	3214
912.519	3409
912.633	3466
912.748	3344
912.862	3283
912.976	3138
913.09	3062
913.204	3116
913.318	3226
913.431	3359
913.545	3317
913.659	3405
913.772	3355
913.886	3233
914	3176
914.113	3367
914.226	3450
914.34	3363
914.453	3253
914.566	3389
914.68	3294
914.793	3313
914.906	3161
915.019	3116
915.132	3077
915.245	3180
915.358	3199
915.47	3226
915.583	3275
915.696	3279
915.809	3412
915.921	3405
916.034	3237
916.146	3245
916.259	3218
916.371	3351
916.483	3363
916.595	3237
916.708	3359
916.82	3348
916.932	3321
917.044	3359
917.156	3363
917.268	3245
917.38	3302
917.491	3283
917.603	3359
917.715	3447
917.826	3481
917.938	3397
918.049	3241
918.161	3477
918.272	3542
918.384	3587
918.495	3504
918.606	3348
918.717	3249
918.828	3382
918.939	3416
919.05	3283
919.161	3386
919.272	3165
919.383	3237
919.494	3534
919.604	3660
919.715	3488
919.826	3378
919.936	3435
920.047	3576
920.157	3599
920.267	3713
920.378	3606
920.488	3564
920.598	3800
920.708	3934
920.818	3823
920.928	3823
921.038	4010
921.148	3972
921.258	3690
921.368	3584
921.477	3572
921.587	3530
921.697	3458
921.806	3625
921.916	3496
922.025	3325
922.134	3348
922.244	3332
922.353	3401
922.462	3260
922.571	3264
922.68	3100
922.789	3043
922.898	3161
923.007	3085
923.116	3188
923.224	3169
923.333	3207
923.442	3070
923.55	3097
923.659	3123
923.767	3222
923.876	3108
923.984	3253
924.092	3077
924.201	3207
924.309	3214
924.417	3272
924.525	3180
924.633	3230
924.741	4116
924.849	3047
924.956	3268
925.064	3108
925.172	3017
925.279	3104
925.387	3199
925.494	3203
925.602	3332
925.709	3332
925.816	3169
925.924	3272
926.031	3370
926.138	3332
926.245	3363
926.352	3268
926.459	3382
926.566	3458
926.673	3317
926.779	3268
926.886	3264
926.993	3135
927.099	3097
927.206	3104
927.312	3104
927.419	3237
927.525	3222
927.631	3253
927.737	3135
927.843	3104
927.95	3020
928.056	3119
928.162	3138
928.267	3226
928.373	3850
928.479	3279
928.585	3055
928.69	3165
928.796	3272
928.901	3146
929.007	3036
929.112	3169
929.218	3127
929.323	3123
929.428	3142
929.533	3294
929.638	3116
929.743	3199
929.848	3249
929.953	3211
930.058	3146
930.163	2979
930.267	3020
930.372	3173
930.477	3032
930.581	3287
930.685	3154
930.79	3047
930.894	3146
930.998	3062
931.103	3275
931.207	2937
931.311	2933
931.415	2895
931.519	2800
931.623	2788
