Data from test_V78500241_665.txt Node
Date: Fri Mar 25 16:19:48 CST 2022
User: usil
Spectrometer: V785-0024
Trigger mode: 0
Integration Time (sec): 4.000000E-1
Scans to average: 1
Nonlinearity correction enabled: false
Boxcar width: 0
Storing dark spectrum: false
XAxis mode: Wavelengths
Number of Pixels in Spectrum: 1024
>>>>>Begin Spectral Data<<<<<
801.071	2887
801.214	2918
801.356	2891
801.499	2910
801.641	2868
801.783	2902
801.926	3032
802.068	2975
802.211	3005
802.353	3005
802.496	2944
802.638	3017
802.78	3074
802.923	3028
803.065	2975
803.208	2864
803.35	2906
803.492	2895
803.635	2922
803.777	2727
803.919	2880
804.061	3218
804.204	2925
804.346	2883
804.488	2842
804.63	2994
804.773	2876
804.915	2914
805.057	3085
805.199	2899
805.341	2975
805.483	3043
805.626	3009
805.768	2941
805.91	3055
806.052	3135
806.194	3020
806.336	3214
806.478	3013
806.62	2941
806.762	2937
806.904	3058
807.046	3150
807.188	2998
807.33	2906
807.472	2979
807.614	2895
807.756	2937
807.898	2910
808.04	2914
808.182	2944
808.324	2914
808.465	2880
808.607	2883
808.749	2758
808.891	2819
809.033	2963
809.174	2963
809.316	2906
809.458	2925
809.6	2754
809.741	2762
809.883	2777
810.025	2861
810.166	2887
810.308	2845
810.45	2849
810.591	2796
810.733	2796
810.875	2823
811.016	2758
811.158	2792
811.299	2796
811.441	2960
811.582	2902
811.724	2830
811.865	2826
812.007	2922
812.148	2895
812.29	2830
812.431	2880
812.573	2956
812.714	2986
812.855	3024
812.997	3028
813.138	3119
813.279	3001
813.421	2979
813.562	2990
813.703	2880
813.845	2887
813.986	2785
814.127	2750
814.268	2811
814.41	2788
814.551	2807
814.692	2853
814.833	2807
814.974	2891
815.115	2906
815.256	2800
815.397	2811
815.539	2864
815.68	2777
815.821	2746
815.962	2952
816.103	2891
816.244	2857
816.385	2868
816.526	2963
816.666	2902
816.807	2766
816.948	2872
817.089	2910
817.23	2861
817.371	2792
817.512	2800
817.653	2834
817.793	2849
817.934	2823
818.075	2948
818.216	3009
818.356	3005
818.497	2906
818.638	2773
818.778	2819
818.919	2792
819.06	2754
819.2	2891
819.341	2830
819.481	2727
819.622	2902
819.762	3097
819.903	3058
820.043	2933
820.184	2895
820.324	2891
820.465	3005
820.605	3028
820.746	3028
820.886	2944
821.026	3074
821.167	3154
821.307	3279
821.447	3256
821.588	3222
821.728	3214
821.868	3161
822.008	3097
822.149	3157
822.289	3245
822.429	3070
822.569	3097
822.709	3203
822.849	3028
822.99	3013
823.13	3154
823.27	3176
823.41	3100
823.55	3173
823.69	3104
823.83	3173
823.97	3093
824.11	2994
824.25	2967
824.389	3039
824.529	3062
824.669	3020
824.809	3176
824.949	3245
825.089	3169
825.228	3127
825.368	3013
825.508	2975
825.648	2944
825.787	3032
825.927	3051
826.067	2929
826.206	2937
826.346	3032
826.485	3074
826.625	3108
826.765	3294
826.904	3165
827.044	2975
827.183	2941
827.323	2838
827.462	2944
827.601	2906
827.741	2925
827.88	2952
828.02	2838
828.159	2944
828.298	3055
828.437	3070
828.577	3024
828.716	3188
828.855	3077
828.994	2918
829.134	2864
829.273	2895
829.412	2842
829.551	2815
829.69	2880
829.829	2975
829.968	3104
830.107	3009
830.246	3055
830.385	2906
830.524	2842
830.663	2815
830.802	2712
830.941	2625
831.08	2648
831.219	2731
831.357	2781
831.496	2952
831.635	2724
831.774	2636
831.913	2655
832.051	2537
832.19	2568
832.329	2667
832.467	2526
832.606	2461
832.744	2568
832.883	2552
833.022	2579
833.16	2659
833.299	2663
833.437	2697
833.576	2705
833.714	2701
833.852	2731
833.991	2716
834.129	2823
834.267	2823
834.406	2766
834.544	2880
834.682	2876
834.821	2861
834.959	3047
835.097	2883
835.235	3047
835.373	3028
835.511	3036
835.65	2944
835.788	2914
835.926	2788
836.064	2819
836.202	2826
836.34	3051
836.478	3127
836.615	3036
836.753	3089
836.891	3211
837.029	3154
837.167	3135
837.305	3043
837.443	3062
837.58	3028
837.718	3104
837.856	3077
837.993	3055
838.131	3081
838.269	3058
838.406	3097
838.544	3074
838.681	2948
838.819	2868
838.956	2804
839.094	2823
839.231	2899
839.369	2971
839.506	3374
839.643	3184
839.781	3032
839.918	2941
840.055	3062
840.193	3043
840.33	3051
840.467	3058
840.604	3150
840.742	3412
840.879	3043
841.016	3070
841.153	3058
841.29	3321
841.427	3294
841.564	3253
841.701	3294
841.838	3237
841.975	3157
842.112	3226
842.249	3093
842.385	3055
842.522	3279
842.659	3032
842.796	3066
842.933	3097
843.069	3017
843.206	3032
843.343	3127
843.479	3104
843.616	3154
843.752	2906
843.889	2849
844.025	3055
844.162	2845
844.298	3089
844.435	2929
844.571	2864
844.708	3066
844.844	3214
844.98	3260
845.117	3176
845.253	3062
845.389	2982
845.525	3131
845.661	3089
845.798	3009
845.934	3112
846.07	3039
846.206	3195
846.342	3325
846.478	3230
846.614	3097
846.75	3043
846.886	2994
847.022	3241
847.158	3131
847.294	3180
847.429	3256
847.565	3214
847.701	3473
847.837	3017
847.972	3001
848.108	3131
848.244	3123
848.379	3001
848.515	2922
848.65	2975
848.786	2982
848.921	3020
849.057	3077
849.192	3154
849.328	3028
849.463	3093
849.598	3058
849.734	3062
849.869	2937
850.004	2914
850.14	2986
850.275	2910
850.41	2788
850.545	2876
850.68	2929
850.815	2956
850.95	2960
851.085	3154
851.22	3116
851.355	3013
851.49	2990
851.625	3032
851.76	3013
851.895	2929
852.03	2914
852.165	3039
852.299	3112
852.434	3203
852.569	3131
852.703	3154
852.838	3222
852.973	3313
853.107	3310
853.242	3138
853.376	3066
853.511	2948
853.645	2990
853.78	3214
853.914	3097
854.048	3093
854.183	3062
854.317	3142
854.451	3279
854.585	3135
854.72	3055
854.854	3207
854.988	3036
855.122	3074
855.256	2971
855.39	3100
855.524	3256
855.658	3146
855.792	3146
855.926	3157
856.06	3188
856.194	3245
856.327	3119
856.461	3077
856.595	3055
856.729	3104
856.862	3211
856.996	3226
857.13	3203
857.263	3233
857.397	3294
857.53	3089
857.664	3176
857.797	3222
857.931	3256
858.064	3142
858.197	3214
858.331	3119
858.464	3104
858.597	3013
858.731	3074
858.864	3100
858.997	3085
859.13	3108
859.263	3188
859.396	3169
859.529	3047
859.662	3074
859.795	3032
859.928	3119
860.061	3275
860.194	3233
860.327	3157
860.46	3070
860.592	3218
860.725	3272
860.858	3233
860.99	3108
861.123	3055
861.256	3062
861.388	3135
861.521	3850
861.653	3058
861.786	2967
861.918	2975
862.05	3085
862.183	3066
862.315	3157
862.447	3146
862.58	3093
862.712	2929
862.844	2857
862.976	2986
863.108	3017
863.24	3386
863.372	2899
863.504	2948
863.636	2902
863.768	3017
863.9	2948
864.032	2883
864.164	2933
864.296	3028
864.428	3070
864.559	3062
864.691	3047
864.823	3039
864.954	2986
865.086	3005
865.217	2956
865.349	2918
865.48	2948
865.612	2994
865.743	3135
865.875	2952
866.006	2960
866.137	3020
866.269	2941
866.4	2910
866.531	2922
866.662	2883
866.793	2864
866.924	2902
867.055	2967
867.186	2960
867.317	2857
867.448	2849
867.579	2834
867.71	2853
867.841	2830
867.972	2899
868.103	2899
868.233	2849
868.364	2887
868.495	2876
868.625	3043
868.756	3161
868.886	2952
869.017	3009
869.147	3127
869.278	3165
869.408	3024
869.539	2979
869.669	3097
869.799	3009
869.929	3116
870.06	3089
870.19	3321
870.32	3291
870.45	3291
870.58	3329
870.71	3439
870.84	3439
870.97	3275
871.1	3203
871.23	3473
871.36	3420
871.489	3348
871.619	3355
871.749	3367
871.879	3409
872.008	3496
872.138	3294
872.267	3226
872.397	3180
872.526	3089
872.656	3013
872.785	3070
872.915	3222
873.044	3298
873.173	3180
873.303	3222
873.432	3180
873.561	3256
873.69	3150
873.819	3108
873.948	3199
874.077	3081
874.206	3005
874.335	3047
874.464	3199
874.593	3329
874.722	3230
874.851	3382
874.979	3329
875.108	3291
875.237	3211
875.365	3138
875.494	3165
875.623	3222
875.751	3047
875.88	3112
876.008	3161
876.136	3222
876.265	3355
876.393	3469
876.521	3401
876.65	3397
876.778	3321
876.906	3264
877.034	3188
877.162	3253
877.29	3112
877.418	3241
877.546	3237
877.674	3222
877.802	3233
877.93	3207
878.058	3123
878.185	3070
878.313	3211
878.441	3207
878.568	3093
878.696	3176
878.824	3249
878.951	3298
879.079	3409
879.206	3629
879.333	3454
879.461	3302
879.588	3359
879.715	3466
879.842	3584
879.97	3378
880.097	3161
880.224	3146
880.351	3173
880.478	3214
880.605	3184
880.732	3184
880.859	3500
880.986	3283
881.112	3325
881.239	3165
881.366	3093
881.493	3001
881.619	3020
881.746	3047
881.872	3089
881.999	3097
882.125	3150
882.252	3264
882.378	3310
882.505	3401
882.631	3233
882.757	3188
882.883	3203
883.01	3211
883.136	3157
883.262	3043
883.388	3131
883.514	3321
883.64	3389
883.766	3332
883.892	3157
884.018	3199
884.143	3431
884.269	3511
884.395	3203
884.52	3161
884.646	3173
884.772	3100
884.897	3097
885.023	3180
885.148	3283
885.274	3435
885.399	3329
885.524	3218
885.65	3241
885.775	3306
885.9	3317
886.025	3363
886.15	3363
886.275	3279
886.4	3230
886.525	3287
886.65	3256
886.775	3283
886.9	3450
887.025	3629
887.149	3431
887.274	3233
887.399	3161
887.523	3165
887.648	3180
887.773	3192
887.897	3325
888.021	3374
888.146	3275
888.27	3431
888.395	3523
888.519	3420
888.643	3431
888.767	3431
888.891	3329
889.015	3214
889.139	3272
889.263	3245
889.387	3393
889.511	3485
889.635	3428
889.759	3310
889.883	3268
890.006	3378
890.13	3466
890.254	3241
890.377	3325
890.501	3218
890.624	3169
890.748	3287
890.871	3165
890.995	3085
891.118	3020
891.241	3173
891.364	3222
891.488	3298
891.611	3165
891.734	3222
891.857	3260
891.98	3241
892.103	3336
892.226	3302
892.349	3192
892.471	3100
892.594	3275
892.717	3310
892.839	3313
892.962	3332
893.085	3382
893.207	3332
893.33	3211
893.452	3256
893.575	3389
893.697	3294
893.819	3496
893.941	3549
894.064	3496
894.186	3260
894.308	3294
894.43	3435
894.552	3523
894.674	3485
894.796	3351
894.918	3367
895.04	3310
895.161	3466
895.283	3420
895.405	3317
895.526	3367
895.648	3469
895.769	3428
895.891	3504
896.012	3485
896.134	3523
896.255	3469
896.376	3401
896.498	3374
896.619	3504
896.74	3393
896.861	3447
896.982	3717
897.103	3896
897.224	3606
897.345	3515
897.466	3435
897.587	3564
897.708	3660
897.828	3564
897.949	3424
898.07	3393
898.19	3428
898.311	3641
898.431	3481
898.552	3538
898.672	3675
898.792	3679
898.913	3549
899.033	3511
899.153	3374
899.273	3268
899.393	3378
899.513	3355
899.633	3329
899.753	3363
899.873	3348
899.993	3428
900.113	3351
900.232	3435
900.352	3424
900.472	3329
900.591	3264
900.711	3332
900.83	3279
900.95	3424
901.069	3557
901.189	3367
901.308	3211
901.427	3157
901.546	3233
901.665	3275
901.784	3348
901.904	3230
902.023	3203
902.141	3013
902.26	2990
902.379	3161
902.498	3085
902.617	3085
902.735	3203
902.854	3249
902.973	3241
903.091	3104
903.21	3070
903.328	3157
903.446	3131
903.565	3165
903.683	3214
903.801	3135
903.919	3317
904.038	3355
904.156	3195
904.274	3313
904.392	3272
904.51	3291
904.627	3344
904.745	3450
904.863	3557
904.981	3268
905.098	3184
905.216	3256
905.334	3336
905.451	3310
905.569	3317
905.686	3469
905.803	3515
905.921	3306
906.038	3409
906.155	3367
906.272	3317
906.389	3363
906.506	3260
906.623	3302
906.74	3317
906.857	3211
906.974	3310
907.091	3462
907.208	3576
907.324	3507
907.441	3450
907.557	3260
907.674	3237
907.79	3222
907.907	3291
908.023	3382
908.139	3401
908.256	3370
908.372	3409
908.488	3351
908.604	3287
908.72	3256
908.836	3317
908.952	3306
909.068	3329
909.184	3507
909.3	3393
909.415	3515
909.531	3492
909.647	3306
909.762	3340
909.878	3298
909.993	3355
910.108	3370
910.224	3340
910.339	3382
910.454	3363
910.57	3313
910.685	3283
910.8	3595
910.915	3557
911.03	3412
911.145	3264
911.259	3275
911.374	3359
911.489	3283
911.604	3241
911.718	3188
911.833	3169
911.947	3066
912.062	3013
912.176	3233
912.291	3241
912.405	3260
912.519	3492
912.633	3526
912.748	3374
912.862	3332
912.976	3180
913.09	3089
913.204	3157
913.318	3233
913.431	3382
913.545	3378
913.659	3435
913.772	3351
913.886	3222
914	3230
914.113	3389
914.226	3507
914.34	3409
914.453	3287
914.566	3428
914.68	3298
914.793	3363
914.906	3192
915.019	3165
915.132	3070
915.245	3199
915.358	3237
915.47	3253
915.583	3325
915.696	3302
915.809	3431
915.921	3469
916.034	3291
916.146	3291
916.259	3283
916.371	3462
916.483	3397
916.595	3294
916.708	3351
916.82	3344
916.932	3359
917.044	3332
917.156	3355
917.268	3287
917.38	3329
917.491	3291
917.603	3409
917.715	3458
917.826	3504
917.938	3386
918.049	3291
918.161	3469
918.272	3534
918.384	3595
918.495	3492
918.606	3374
918.717	3310
918.828	3424
918.939	3428
919.05	3317
919.161	3351
919.272	3176
919.383	3340
919.494	3515
919.604	3709
919.715	3542
919.826	3447
919.936	3488
920.047	3610
920.157	3572
920.267	3789
920.378	3603
920.488	3561
920.598	3823
920.708	3922
920.818	3854
920.928	3918
921.038	4059
921.148	4006
921.258	3732
921.368	3641
921.477	3595
921.587	3538
921.697	3526
921.806	3644
921.916	3542
922.025	3367
922.134	3405
922.244	3355
922.353	3424
922.462	3287
922.571	3260
922.68	3127
922.789	3100
922.898	3154
923.007	3108
923.116	3230
923.224	3214
923.333	3211
923.442	3104
923.55	3108
923.659	3165
923.767	3256
923.876	3146
923.984	3230
924.092	3112
924.201	3203
924.309	3245
924.417	3230
924.525	3199
924.633	3256
924.741	4044
924.849	3089
924.956	3279
925.064	3123
925.172	3093
925.279	3104
925.387	3226
925.494	3203
925.602	3351
925.709	3409
925.816	3203
925.924	3344
926.031	3401
926.138	3336
926.245	3386
926.352	3275
926.459	3443
926.566	3500
926.673	3306
926.779	3264
926.886	3272
926.993	3192
927.099	3169
927.206	3123
927.312	3142
927.419	3230
927.525	3230
927.631	3275
927.737	3161
927.843	3138
927.95	3005
928.056	3173
928.162	3207
928.267	3275
928.373	3766
928.479	3321
928.585	3077
928.69	3230
928.796	3306
928.901	3188
929.007	3066
929.112	3256
929.218	3230
929.323	3192
929.428	3211
929.533	3321
929.638	3146
929.743	3180
929.848	3283
929.953	3226
930.058	3142
930.163	3028
930.267	3081
930.372	3260
930.477	3055
930.581	3340
930.685	3218
930.79	3097
930.894	3165
930.998	3093
931.103	3287
931.207	2982
931.311	2948
931.415	2937
931.519	2811
931.623	2849
