Data from test_V78500241_349.txt Node
Date: Fri Mar 25 16:17:37 CST 2022
User: usil
Spectrometer: V785-0024
Trigger mode: 0
Integration Time (sec): 4.000000E-1
Scans to average: 1
Nonlinearity correction enabled: false
Boxcar width: 0
Storing dark spectrum: false
XAxis mode: Wavelengths
Number of Pixels in Spectrum: 1024
>>>>>Begin Spectral Data<<<<<
801.071	2914
801.214	2891
801.356	2876
801.499	2880
801.641	2861
801.783	2849
801.926	3047
802.068	2960
802.211	2986
802.353	3055
802.496	2948
802.638	3032
802.78	2982
802.923	3077
803.065	3009
803.208	2910
803.35	2941
803.492	2929
803.635	2933
803.777	2758
803.919	2853
804.061	3188
804.204	2952
804.346	2872
804.488	2838
804.63	2982
804.773	2849
804.915	2933
805.057	3097
805.199	2929
805.341	2941
805.483	3051
805.626	3001
805.768	2925
805.91	3085
806.052	3104
806.194	3032
806.336	3195
806.478	3051
806.62	2937
806.762	3009
806.904	3028
807.046	3161
807.188	2944
807.33	2906
807.472	2941
807.614	2922
807.756	2960
807.898	2906
808.04	2902
808.182	2979
808.324	2952
808.465	2861
808.607	2910
808.749	2830
808.891	2823
809.033	2986
809.174	2937
809.316	2883
809.458	2887
809.6	2766
809.741	2746
809.883	2758
810.025	2834
810.166	2857
810.308	2838
810.45	2887
810.591	2785
810.733	2773
810.875	2815
811.016	2766
811.158	2739
811.299	2819
811.441	2891
811.582	2880
811.724	2815
811.865	2823
812.007	2906
812.148	2872
812.29	2849
812.431	2918
812.573	2937
812.714	2929
812.855	3039
812.997	3055
813.138	3127
813.279	2990
813.421	3009
813.562	2948
813.703	2883
813.845	2918
813.986	2735
814.127	2663
814.268	2819
814.41	2834
814.551	2826
814.692	2868
814.833	2807
814.974	2849
815.115	2952
815.256	2845
815.397	2811
815.539	2853
815.68	2769
815.821	2788
815.962	2952
816.103	2902
816.244	2883
816.385	2853
816.526	2956
816.666	2925
816.807	2739
816.948	2880
817.089	2883
817.23	2861
817.371	2788
817.512	2788
817.653	2834
817.793	2807
817.934	2868
818.075	2944
818.216	2986
818.356	3055
818.497	2876
818.638	2785
818.778	2804
818.919	2777
819.06	2762
819.2	2849
819.341	2758
819.481	2769
819.622	2922
819.762	3081
819.903	3043
820.043	2918
820.184	2868
820.324	2906
820.465	3020
820.605	3039
820.746	3047
820.886	2925
821.026	3108
821.167	3169
821.307	3237
821.447	3310
821.588	3199
821.728	3199
821.868	3176
822.008	3077
822.149	3218
822.289	3222
822.429	3058
822.569	3112
822.709	3188
822.849	3024
822.99	3032
823.13	3146
823.27	3165
823.41	3119
823.55	3150
823.69	3154
823.83	3195
823.97	3116
824.11	3024
824.25	2994
824.389	3055
824.529	3077
824.669	3093
824.809	3203
824.949	3233
825.089	3230
825.228	3154
825.368	3009
825.508	2994
825.648	2994
825.787	3032
825.927	2979
826.067	2956
826.206	2960
826.346	3062
826.485	3058
826.625	3108
826.765	3291
826.904	3180
827.044	2963
827.183	2910
827.323	2876
827.462	2975
827.601	2925
827.741	2956
827.88	2941
828.02	2853
828.159	2994
828.298	3039
828.437	3108
828.577	3036
828.716	3245
828.855	3070
828.994	2925
829.134	2883
829.273	2891
829.412	2876
829.551	2826
829.69	2906
829.829	2975
829.968	3150
830.107	2986
830.246	3017
830.385	2910
830.524	2864
830.663	2788
830.802	2750
830.941	2682
831.08	2636
831.219	2735
831.357	2724
831.496	2963
831.635	2739
831.774	2629
831.913	2651
832.051	2556
832.19	2571
832.329	2697
832.467	2522
832.606	2484
832.744	2556
832.883	2606
833.022	2579
833.16	2594
833.299	2697
833.437	2697
833.576	2697
833.714	2708
833.852	2701
833.991	2785
834.129	2804
834.267	2849
834.406	2792
834.544	2876
834.682	2876
834.821	2861
834.959	3047
835.097	2914
835.235	3032
835.373	2994
835.511	3009
835.65	2914
835.788	2960
835.926	2834
836.064	2788
836.202	2838
836.34	3077
836.478	3142
836.615	3051
836.753	3131
836.891	3184
837.029	3135
837.167	3100
837.305	3047
837.443	3020
837.58	2944
837.718	3123
837.856	3055
837.993	3017
838.131	3093
838.269	3097
838.406	3104
838.544	3066
838.681	2891
838.819	2914
838.956	2819
839.094	2834
839.231	2910
839.369	3001
839.506	3351
839.643	3222
839.781	3001
839.918	2948
840.055	3051
840.193	3070
840.33	3039
840.467	3055
840.604	3142
840.742	3393
840.879	3074
841.016	3043
841.153	3093
841.29	3325
841.427	3256
841.564	3256
841.701	3317
841.838	3195
841.975	3165
842.112	3222
842.249	3039
842.385	3043
842.522	3249
842.659	3070
842.796	3070
842.933	3074
843.069	3039
843.206	3028
843.343	3169
843.479	3081
843.616	3184
843.752	2902
843.889	2883
844.025	3093
844.162	2876
844.298	3055
844.435	2975
844.571	2910
844.708	3066
844.844	3203
844.98	3214
845.117	3218
845.253	3066
845.389	3001
845.525	3097
845.661	3077
845.798	2994
845.934	3108
846.07	3036
846.206	3218
846.342	3302
846.478	3260
846.614	3104
846.75	3024
846.886	3013
847.022	3230
847.158	3119
847.294	3192
847.429	3226
847.565	3218
847.701	3458
847.837	3020
847.972	2986
848.108	3161
848.244	3119
848.379	2967
848.515	2906
848.65	2906
848.786	2982
848.921	2975
849.057	3104
849.192	3180
849.328	3100
849.463	3127
849.598	3039
849.734	3039
849.869	2941
850.004	2925
850.14	2944
850.275	2910
850.41	2834
850.545	2891
850.68	2910
850.815	2952
850.95	2952
851.085	3142
851.22	3070
851.355	3013
851.49	2990
851.625	3028
851.76	2979
851.895	2937
852.03	2918
852.165	3009
852.299	3100
852.434	3154
852.569	3142
852.703	3131
852.838	3233
852.973	3348
853.107	3359
853.242	3138
853.376	3108
853.511	2960
853.645	3005
853.78	3218
853.914	3135
854.048	3108
854.183	3039
854.317	3157
854.451	3268
854.585	3119
854.72	3104
854.854	3211
854.988	3032
855.122	3085
855.256	2952
855.39	3097
855.524	3264
855.658	3192
855.792	3150
855.926	3184
856.06	3211
856.194	3226
856.327	3116
856.461	3070
856.595	3058
856.729	3085
856.862	3188
856.996	3138
857.13	3180
857.263	3218
857.397	3272
857.53	3112
857.664	3192
857.797	3218
857.931	3237
858.064	3165
858.197	3203
858.331	3093
858.464	3108
858.597	2990
858.731	3146
858.864	3131
858.997	3097
859.13	3150
859.263	3173
859.396	3176
859.529	3077
859.662	3032
859.795	3020
859.928	3154
860.061	3313
860.194	3283
860.327	3138
860.46	3112
860.592	3237
860.725	3253
860.858	3188
860.99	3028
861.123	3066
861.256	3047
861.388	3135
861.521	3728
861.653	2979
861.786	2994
861.918	2971
862.05	3070
862.183	3077
862.315	3119
862.447	3150
862.58	3112
862.712	2956
862.844	2872
862.976	2998
863.108	2982
863.24	3424
863.372	2880
863.504	2986
863.636	2948
863.768	3028
863.9	2982
864.032	2933
864.164	2933
864.296	3013
864.428	3112
864.559	3116
864.691	3039
864.823	3085
864.954	3024
865.086	3036
865.217	2952
865.349	2929
865.48	3001
865.612	3009
865.743	3184
865.875	2990
866.006	2963
866.137	2941
866.269	2933
866.4	2891
866.531	2929
866.662	2861
866.793	2929
866.924	2883
867.055	2963
867.186	2925
867.317	2880
867.448	2845
867.579	2807
867.71	2845
867.841	2845
867.972	2887
868.103	2906
868.233	2868
868.364	2906
868.495	2883
868.625	3070
868.756	3188
868.886	2994
869.017	3020
869.147	3169
869.278	3157
869.408	3051
869.539	3001
869.669	3097
869.799	3047
869.929	3154
870.06	3142
870.19	3283
870.32	3302
870.45	3298
870.58	3363
870.71	3443
870.84	3439
870.97	3291
871.1	3264
871.23	3466
871.36	3450
871.489	3367
871.619	3393
871.749	3428
871.879	3405
872.008	3428
872.138	3317
872.267	3256
872.397	3104
872.526	3116
872.656	3001
872.785	3123
872.915	3214
873.044	3325
873.173	3249
873.303	3237
873.432	3233
873.561	3253
873.69	3146
873.819	3173
873.948	3180
874.077	3100
874.206	3058
874.335	3085
874.464	3195
874.593	3359
874.722	3249
874.851	3412
874.979	3321
875.108	3332
875.237	3180
875.365	3188
875.494	3119
875.623	3192
875.751	3077
875.88	3070
876.008	3207
876.136	3199
876.265	3351
876.393	3523
876.521	3397
876.65	3363
876.778	3332
876.906	3157
877.034	3199
877.162	3237
877.29	3214
877.418	3253
877.546	3279
877.674	3207
877.802	3237
877.93	3245
878.058	3135
878.185	3116
878.313	3192
878.441	3192
878.568	3070
878.696	3142
878.824	3233
878.951	3321
879.079	3401
879.206	3580
879.333	3431
879.461	3329
879.588	3317
879.715	3424
879.842	3580
879.97	3351
880.097	3169
880.224	3142
880.351	3249
880.478	3211
880.605	3173
880.732	3184
880.859	3485
880.986	3325
881.112	3348
881.239	3180
881.366	3074
881.493	2994
881.619	3001
881.746	3066
881.872	3104
881.999	3074
882.125	3119
882.252	3264
882.378	3275
882.505	3431
882.631	3294
882.757	3161
882.883	3211
883.01	3203
883.136	3157
883.262	3116
883.388	3100
883.514	3268
883.64	3355
883.766	3306
883.892	3184
884.018	3233
884.143	3405
884.269	3538
884.395	3214
884.52	3176
884.646	3199
884.772	3104
884.897	3108
885.023	3184
885.148	3329
885.274	3405
885.399	3370
885.524	3279
885.65	3249
885.775	3287
885.9	3275
886.025	3378
886.15	3363
886.275	3294
886.4	3275
886.525	3310
886.65	3264
886.775	3230
886.9	3515
887.025	3656
887.149	3389
887.274	3237
887.399	3180
887.523	3230
887.648	3154
887.773	3169
887.897	3344
888.021	3382
888.146	3249
888.27	3401
888.395	3511
888.519	3420
888.643	3409
888.767	3466
888.891	3291
889.015	3245
889.139	3233
889.263	3245
889.387	3367
889.511	3466
889.635	3431
889.759	3302
889.883	3317
890.006	3382
890.13	3504
890.254	3222
890.377	3306
890.501	3184
890.624	3157
890.748	3294
890.871	3150
890.995	3077
891.118	3051
891.241	3176
891.364	3203
891.488	3279
891.611	3157
891.734	3207
891.857	3298
891.98	3222
892.103	3344
892.226	3253
892.349	3188
892.471	3112
892.594	3218
892.717	3272
892.839	3249
892.962	3249
893.085	3393
893.207	3310
893.33	3127
893.452	3199
893.575	3348
893.697	3218
893.819	3473
893.941	3473
894.064	3466
894.186	3256
894.308	3264
894.43	3443
894.552	3534
894.674	3504
894.796	3275
894.918	3344
895.04	3313
895.161	3428
895.283	3378
895.405	3287
895.526	3393
895.648	3439
895.769	3416
895.891	3492
896.012	3477
896.134	3481
896.255	3458
896.376	3397
896.498	3363
896.619	3439
896.74	3393
896.861	3454
896.982	3698
897.103	3865
897.224	3599
897.345	3557
897.466	3496
897.587	3534
897.708	3633
897.828	3584
897.949	3466
898.07	3401
898.19	3469
898.311	3679
898.431	3473
898.552	3568
898.672	3637
898.792	3614
898.913	3549
899.033	3401
899.153	3332
899.273	3253
899.393	3355
899.513	3378
899.633	3302
899.753	3393
899.873	3332
899.993	3409
900.113	3382
900.232	3412
900.352	3374
900.472	3321
900.591	3249
900.711	3332
900.83	3256
900.95	3424
901.069	3595
901.189	3397
901.308	3188
901.427	3173
901.546	3241
901.665	3336
901.784	3367
901.904	3222
902.023	3203
902.141	3066
902.26	3047
902.379	3165
902.498	3123
902.617	3081
902.735	3268
902.854	3264
902.973	3222
903.091	3089
903.21	3074
903.328	3173
903.446	3104
903.565	3157
903.683	3230
903.801	3154
903.919	3291
904.038	3306
904.156	3249
904.274	3348
904.392	3268
904.51	3302
904.627	3378
904.745	3447
904.863	3492
904.981	3313
905.098	3199
905.216	3275
905.334	3344
905.451	3378
905.569	3393
905.686	3481
905.803	3481
905.921	3332
906.038	3450
906.155	3393
906.272	3294
906.389	3416
906.506	3249
906.623	3287
906.74	3306
906.857	3302
906.974	3332
907.091	3462
907.208	3625
907.324	3507
907.441	3450
907.557	3256
907.674	3241
907.79	3214
907.907	3310
908.023	3447
908.139	3424
908.256	3370
908.372	3405
908.488	3374
908.604	3294
908.72	3241
908.836	3306
908.952	3275
909.068	3367
909.184	3507
909.3	3431
909.415	3496
909.531	3526
909.647	3313
909.762	3302
909.878	3306
909.993	3389
910.108	3389
910.224	3370
910.339	3431
910.454	3344
910.57	3336
910.685	3287
910.8	3614
910.915	3584
911.03	3428
911.145	3291
911.259	3306
911.374	3363
911.489	3294
911.604	3226
911.718	3176
911.833	3161
911.947	3074
912.062	3013
912.176	3173
912.291	3226
912.405	3226
912.519	3443
912.633	3473
912.748	3370
912.862	3329
912.976	3199
913.09	3077
913.204	3176
913.318	3214
913.431	3416
913.545	3386
913.659	3481
913.772	3370
913.886	3264
914	3249
914.113	3439
914.226	3435
914.34	3416
914.453	3253
914.566	3443
914.68	3306
914.793	3367
914.906	3142
915.019	3173
915.132	3093
915.245	3214
915.358	3245
915.47	3245
915.583	3306
915.696	3298
915.809	3439
915.921	3447
916.034	3310
916.146	3294
916.259	3268
916.371	3401
916.483	3348
916.595	3325
916.708	3355
916.82	3386
916.932	3378
917.044	3389
917.156	3374
917.268	3287
917.38	3329
917.491	3329
917.603	3389
917.715	3443
917.826	3496
917.938	3367
918.049	3332
918.161	3466
918.272	3595
918.384	3625
918.495	3542
918.606	3340
918.717	3294
918.828	3401
918.939	3424
919.05	3317
919.161	3393
919.272	3218
919.383	3310
919.494	3526
919.604	3728
919.715	3511
919.826	3450
919.936	3466
920.047	3629
920.157	3587
920.267	3766
920.378	3660
920.488	3587
920.598	3835
920.708	3968
920.818	3850
920.928	3857
921.038	4013
921.148	4013
921.258	3732
921.368	3625
921.477	3595
921.587	3557
921.697	3481
921.806	3682
921.916	3500
922.025	3401
922.134	3416
922.244	3325
922.353	3454
922.462	3294
922.571	3264
922.68	3157
922.789	3112
922.898	3176
923.007	3150
923.116	3233
923.224	3207
923.333	3211
923.442	3142
923.55	3157
923.659	3195
923.767	3272
923.876	3112
923.984	3291
924.092	3123
924.201	3230
924.309	3253
924.417	3256
924.525	3241
924.633	3230
924.741	4238
924.849	3093
924.956	3302
925.064	3127
925.172	3062
925.279	3100
925.387	3230
925.494	3279
925.602	3363
925.709	3332
925.816	3184
925.924	3363
926.031	3378
926.138	3351
926.245	3401
926.352	3253
926.459	3393
926.566	3485
926.673	3386
926.779	3287
926.886	3310
926.993	3184
927.099	3165
927.206	3131
927.312	3142
927.419	3279
927.525	3249
927.631	3279
927.737	3180
927.843	3203
927.95	3009
928.056	3165
928.162	3214
928.267	3272
928.373	3884
928.479	3351
928.585	3085
928.69	3230
928.796	3260
928.901	3192
929.007	3077
929.112	3226
929.218	3203
929.323	3184
929.428	3165
929.533	3287
929.638	3176
929.743	3199
929.848	3294
929.953	3233
930.058	3188
930.163	3024
930.267	3066
930.372	3230
930.477	3062
930.581	3310
930.685	3207
930.79	3131
930.894	3176
930.998	3112
931.103	3313
931.207	2967
931.311	2982
931.415	2952
931.519	2815
931.623	2826
