Data from test_V78500241_922.txt Node
Date: Fri Mar 25 16:21:35 CST 2022
User: usil
Spectrometer: V785-0024
Trigger mode: 0
Integration Time (sec): 4.000000E-1
Scans to average: 1
Nonlinearity correction enabled: false
Boxcar width: 0
Storing dark spectrum: false
XAxis mode: Wavelengths
Number of Pixels in Spectrum: 1024
>>>>>Begin Spectral Data<<<<<
801.071	2914
801.214	2922
801.356	2853
801.499	2891
801.641	2887
801.783	2929
801.926	3017
802.068	2998
802.211	3032
802.353	3032
802.496	2960
802.638	2986
802.78	3047
802.923	3055
803.065	3005
803.208	2906
803.35	2922
803.492	2910
803.635	2906
803.777	2743
803.919	2880
804.061	3226
804.204	2948
804.346	2910
804.488	2857
804.63	2975
804.773	2872
804.915	2868
805.057	3100
805.199	2925
805.341	2986
805.483	3036
805.626	2994
805.768	2948
805.91	3081
806.052	3108
806.194	3039
806.336	3264
806.478	2998
806.62	2979
806.762	2990
806.904	3062
807.046	3154
807.188	2979
807.33	2922
807.472	2975
807.614	2902
807.756	3001
807.898	2925
808.04	2944
808.182	2937
808.324	2952
808.465	2910
808.607	2902
808.749	2807
808.891	2861
809.033	2982
809.174	2941
809.316	2872
809.458	2933
809.6	2811
809.741	2792
809.883	2785
810.025	2880
810.166	2834
810.308	2834
810.45	2895
810.591	2754
810.733	2750
810.875	2826
811.016	2781
811.158	2739
811.299	2842
811.441	2948
811.582	2910
811.724	2830
811.865	2853
812.007	2933
812.148	2872
812.29	2876
812.431	2853
812.573	2956
812.714	2948
812.855	3024
812.997	3047
813.138	3119
813.279	2975
813.421	2975
813.562	2952
813.703	2853
813.845	2872
813.986	2804
814.127	2743
814.268	2834
814.41	2830
814.551	2792
814.692	2849
814.833	2792
814.974	2910
815.115	2967
815.256	2796
815.397	2796
815.539	2842
815.68	2743
815.821	2777
815.962	2937
816.103	2902
816.244	2868
816.385	2857
816.526	2967
816.666	2925
816.807	2762
816.948	2872
817.089	2918
817.23	2807
817.371	2766
817.512	2811
817.653	2842
817.793	2819
817.934	2876
818.075	2941
818.216	2986
818.356	3024
818.497	2902
818.638	2811
818.778	2785
818.919	2815
819.06	2758
819.2	2910
819.341	2807
819.481	2838
819.622	2906
819.762	3066
819.903	3036
820.043	2952
820.184	2891
820.324	2922
820.465	3043
820.605	3001
820.746	2998
820.886	2941
821.026	3142
821.167	3157
821.307	3279
821.447	3264
821.588	3211
821.728	3184
821.868	3165
822.008	3043
822.149	3214
822.289	3203
822.429	3085
822.569	3074
822.709	3184
822.849	3017
822.99	3100
823.13	3161
823.27	3214
823.41	3100
823.55	3161
823.69	3138
823.83	3199
823.97	3093
824.11	2998
824.25	2990
824.389	3085
824.529	3161
824.669	3051
824.809	3192
824.949	3230
825.089	3188
825.228	3176
825.368	3001
825.508	2963
825.648	2948
825.787	3001
825.927	3005
826.067	2986
826.206	2990
826.346	3036
826.485	3112
826.625	3150
826.765	3279
826.904	3218
827.044	2982
827.183	2929
827.323	2853
827.462	2963
827.601	2918
827.741	2918
827.88	2933
828.02	2876
828.159	2963
828.298	3020
828.437	3077
828.577	3032
828.716	3260
828.855	3081
828.994	2914
829.134	2895
829.273	2933
829.412	2845
829.551	2872
829.69	2880
829.829	2982
829.968	3127
830.107	3020
830.246	3009
830.385	2933
830.524	2861
830.663	2853
830.802	2724
830.941	2617
831.08	2632
831.219	2743
831.357	2758
831.496	2918
831.635	2720
831.774	2644
831.913	2670
832.051	2545
832.19	2629
832.329	2701
832.467	2541
832.606	2480
832.744	2560
832.883	2560
833.022	2590
833.16	2663
833.299	2686
833.437	2708
833.576	2693
833.714	2716
833.852	2731
833.991	2762
834.129	2807
834.267	2838
834.406	2762
834.544	2845
834.682	2861
834.821	2899
834.959	3066
835.097	2910
835.235	3055
835.373	2994
835.511	3028
835.65	2952
835.788	2971
835.926	2826
836.064	2781
836.202	2845
836.34	3112
836.478	3138
836.615	3058
836.753	3138
836.891	3192
837.029	3169
837.167	3097
837.305	3077
837.443	3047
837.58	2948
837.718	3112
837.856	3062
837.993	3047
838.131	3100
838.269	3089
838.406	3085
838.544	3055
838.681	2937
838.819	2914
838.956	2830
839.094	2853
839.231	2941
839.369	3039
839.506	3355
839.643	3199
839.781	2998
839.918	3001
840.055	3051
840.193	3051
840.33	3085
840.467	3062
840.604	3150
840.742	3420
840.879	3081
841.016	3028
841.153	3123
841.29	3287
841.427	3344
841.564	3260
841.701	3306
841.838	3214
841.975	3176
842.112	3161
842.249	3066
842.385	3036
842.522	3249
842.659	3081
842.796	3028
842.933	3100
843.069	3036
843.206	3043
843.343	3146
843.479	3104
843.616	3165
843.752	2887
843.889	2883
844.025	3074
844.162	2868
844.298	3066
844.435	2929
844.571	2922
844.708	3093
844.844	3207
844.98	3211
845.117	3218
845.253	3051
845.389	2971
845.525	3112
845.661	3074
845.798	3024
845.934	3138
846.07	3055
846.206	3245
846.342	3306
846.478	3283
846.614	3051
846.75	3024
846.886	3043
847.022	3272
847.158	3161
847.294	3184
847.429	3233
847.565	3203
847.701	3450
847.837	3055
847.972	2994
848.108	3116
848.244	3154
848.379	3013
848.515	2922
848.65	2914
848.786	2986
848.921	2998
849.057	3100
849.192	3146
849.328	3081
849.463	3119
849.598	3047
849.734	3047
849.869	2967
850.004	2925
850.14	2960
850.275	2891
850.41	2868
850.545	2861
850.68	2887
850.815	2918
850.95	2956
851.085	3176
851.22	3108
851.355	2998
851.49	2990
851.625	2979
851.76	3020
851.895	2910
852.03	2914
852.165	3062
852.299	3123
852.434	3154
852.569	3127
852.703	3165
852.838	3226
852.973	3332
853.107	3344
853.242	3123
853.376	3093
853.511	2952
853.645	3047
853.78	3230
853.914	3108
854.048	3097
854.183	3100
854.317	3127
854.451	3287
854.585	3043
854.72	3093
854.854	3176
854.988	3047
855.122	3074
855.256	2986
855.39	3119
855.524	3256
855.658	3188
855.792	3192
855.926	3226
856.06	3211
856.194	3264
856.327	3154
856.461	3074
856.595	3070
856.729	3112
856.862	3203
856.996	3188
857.13	3207
857.263	3222
857.397	3279
857.53	3112
857.664	3211
857.797	3184
857.931	3279
858.064	3146
858.197	3176
858.331	3097
858.464	3062
858.597	3001
858.731	3142
858.864	3135
858.997	3074
859.13	3146
859.263	3184
859.396	3203
859.529	3077
859.662	3062
859.795	3043
859.928	3123
860.061	3230
860.194	3260
860.327	3142
860.46	3146
860.592	3214
860.725	3253
860.858	3272
860.99	3055
861.123	3070
861.256	3051
861.388	3104
861.521	3816
861.653	2971
861.786	3001
861.918	2975
862.05	3070
862.183	3066
862.315	3131
862.447	3218
862.58	3100
862.712	2937
862.844	2872
862.976	3039
863.108	3017
863.24	3310
863.372	2853
863.504	2914
863.636	2937
863.768	3013
863.9	2990
864.032	2922
864.164	2925
864.296	3005
864.428	3077
864.559	3127
864.691	3047
864.823	3097
864.954	3009
865.086	3032
865.217	2941
865.349	2925
865.48	3001
865.612	3028
865.743	3142
865.875	2986
866.006	2914
866.137	2929
866.269	2952
866.4	2929
866.531	2891
866.662	2876
866.793	2872
866.924	2902
867.055	2937
867.186	2902
867.317	2853
867.448	2834
867.579	2819
867.71	2830
867.841	2815
867.972	2899
868.103	2845
868.233	2883
868.364	2880
868.495	2910
868.625	3070
868.756	3104
868.886	2963
869.017	2998
869.147	3146
869.278	3176
869.408	3028
869.539	2994
869.669	3104
869.799	3013
869.929	3131
870.06	3112
870.19	3283
870.32	3253
870.45	3260
870.58	3359
870.71	3405
870.84	3469
870.97	3283
871.1	3226
871.23	3488
871.36	3439
871.489	3363
871.619	3389
871.749	3397
871.879	3439
872.008	3458
872.138	3367
872.267	3268
872.397	3123
872.526	3089
872.656	3001
872.785	3085
872.915	3241
873.044	3302
873.173	3233
873.303	3226
873.432	3211
873.561	3253
873.69	3157
873.819	3154
873.948	3218
874.077	3123
874.206	3043
874.335	3093
874.464	3199
874.593	3355
874.722	3214
874.851	3409
874.979	3340
875.108	3272
875.237	3195
875.365	3150
875.494	3131
875.623	3272
875.751	3089
875.88	3097
876.008	3199
876.136	3218
876.265	3325
876.393	3500
876.521	3428
876.65	3393
876.778	3348
876.906	3241
877.034	3214
877.162	3241
877.29	3192
877.418	3245
877.546	3253
877.674	3222
877.802	3237
877.93	3245
878.058	3161
878.185	3119
878.313	3199
878.441	3188
878.568	3043
878.696	3131
878.824	3230
878.951	3313
879.079	3450
879.206	3606
879.333	3405
879.461	3298
879.588	3359
879.715	3454
879.842	3618
879.97	3367
880.097	3161
880.224	3112
880.351	3138
880.478	3188
880.605	3226
880.732	3161
880.859	3504
880.986	3268
881.112	3348
881.239	3176
881.366	3062
881.493	3032
881.619	3001
881.746	3058
881.872	3104
881.999	3081
882.125	3112
882.252	3211
882.378	3256
882.505	3420
882.631	3298
882.757	3127
882.883	3233
883.01	3211
883.136	3104
883.262	3108
883.388	3150
883.514	3355
883.64	3351
883.766	3264
883.892	3173
884.018	3241
884.143	3397
884.269	3481
884.395	3192
884.52	3169
884.646	3150
884.772	3127
884.897	3093
885.023	3241
885.148	3329
885.274	3412
885.399	3329
885.524	3279
885.65	3279
885.775	3283
885.9	3283
886.025	3386
886.15	3420
886.275	3283
886.4	3253
886.525	3283
886.65	3283
886.775	3302
886.9	3492
887.025	3599
887.149	3405
887.274	3230
887.399	3207
887.523	3211
887.648	3207
887.773	3173
887.897	3359
888.021	3363
888.146	3279
888.27	3454
888.395	3584
888.519	3389
888.643	3420
888.767	3469
888.891	3321
889.015	3233
889.139	3272
889.263	3233
889.387	3363
889.511	3500
889.635	3454
889.759	3268
889.883	3283
890.006	3393
890.13	3511
890.254	3241
890.377	3348
890.501	3214
890.624	3180
890.748	3283
890.871	3184
890.995	3089
891.118	3074
891.241	3195
891.364	3165
891.488	3310
891.611	3195
891.734	3226
891.857	3313
891.98	3279
892.103	3329
892.226	3268
892.349	3226
892.471	3116
892.594	3253
892.717	3302
892.839	3294
892.962	3275
893.085	3378
893.207	3264
893.33	3135
893.452	3203
893.575	3359
893.697	3249
893.819	3435
893.941	3485
894.064	3435
894.186	3275
894.308	3249
894.43	3485
894.552	3549
894.674	3485
894.796	3268
894.918	3298
895.04	3302
895.161	3420
895.283	3416
895.405	3317
895.526	3409
895.648	3401
895.769	3416
895.891	3447
896.012	3496
896.134	3416
896.255	3386
896.376	3355
896.498	3340
896.619	3409
896.74	3359
896.861	3378
896.982	3652
897.103	3861
897.224	3572
897.345	3526
897.466	3397
897.587	3507
897.708	3625
897.828	3568
897.949	3466
898.07	3294
898.19	3412
898.311	3610
898.431	3450
898.552	3492
898.672	3564
898.792	3572
898.913	3511
899.033	3416
899.153	3313
899.273	3188
899.393	3287
899.513	3294
899.633	3291
899.753	3344
899.873	3351
899.993	3416
900.113	3321
900.232	3389
900.352	3332
900.472	3291
900.591	3188
900.711	3310
900.83	3211
900.95	3431
901.069	3477
901.189	3363
901.308	3188
901.427	3154
901.546	3203
901.665	3313
901.784	3329
901.904	3241
902.023	3138
902.141	3032
902.26	2979
902.379	3104
902.498	3066
902.617	3032
902.735	3195
902.854	3233
902.973	3161
903.091	3062
903.21	3077
903.328	3127
903.446	3093
903.565	3085
903.683	3207
903.801	3135
903.919	3233
904.038	3291
904.156	3165
904.274	3275
904.392	3233
904.51	3294
904.627	3313
904.745	3439
904.863	3507
904.981	3237
905.098	3173
905.216	3245
905.334	3275
905.451	3302
905.569	3302
905.686	3428
905.803	3424
905.921	3332
906.038	3393
906.155	3332
906.272	3279
906.389	3275
906.506	3256
906.623	3241
906.74	3253
906.857	3226
906.974	3268
907.091	3428
907.208	3511
907.324	3473
907.441	3355
907.557	3211
907.674	3241
907.79	3218
907.907	3302
908.023	3382
908.139	3370
908.256	3340
908.372	3363
908.488	3355
908.604	3230
908.72	3226
908.836	3249
908.952	3249
909.068	3325
909.184	3447
909.3	3374
909.415	3492
909.531	3462
909.647	3291
909.762	3268
909.878	3218
909.993	3370
910.108	3321
910.224	3302
910.339	3378
910.454	3348
910.57	3245
910.685	3275
910.8	3622
910.915	3530
911.03	3420
911.145	3294
911.259	3253
911.374	3329
911.489	3253
911.604	3207
911.718	3154
911.833	3131
911.947	3028
912.062	2952
912.176	3135
912.291	3138
912.405	3218
912.519	3428
912.633	3439
912.748	3302
912.862	3279
912.976	3188
913.09	3047
913.204	3192
913.318	3249
913.431	3355
913.545	3321
913.659	3370
913.772	3294
913.886	3241
914	3180
914.113	3355
914.226	3405
914.34	3363
914.453	3237
914.566	3386
914.68	3268
914.793	3313
914.906	3154
915.019	3100
915.132	3093
915.245	3138
915.358	3176
915.47	3249
915.583	3237
915.696	3302
915.809	3428
915.921	3435
916.034	3249
916.146	3245
916.259	3245
916.371	3363
916.483	3325
916.595	3241
916.708	3329
916.82	3325
916.932	3302
917.044	3389
917.156	3363
917.268	3264
917.38	3275
917.491	3298
917.603	3382
917.715	3462
917.826	3454
917.938	3355
918.049	3260
918.161	3416
918.272	3545
918.384	3576
918.495	3447
918.606	3332
918.717	3264
918.828	3382
918.939	3393
919.05	3279
919.161	3348
919.272	3142
919.383	3287
919.494	3526
919.604	3679
919.715	3507
919.826	3420
919.936	3454
920.047	3614
920.157	3564
920.267	3732
920.378	3591
920.488	3568
920.598	3743
920.708	3960
920.818	3827
920.928	3800
921.038	4036
921.148	3994
921.258	3698
921.368	3652
921.477	3603
921.587	3515
921.697	3450
921.806	3610
921.916	3519
922.025	3344
922.134	3374
922.244	3287
922.353	3447
922.462	3275
922.571	3249
922.68	3112
922.789	3081
922.898	3150
923.007	3085
923.116	3199
923.224	3176
923.333	3188
923.442	3108
923.55	3081
923.659	3146
923.767	3211
923.876	3097
923.984	3260
924.092	3097
924.201	3184
924.309	3218
924.417	3253
924.525	3192
924.633	3233
924.741	4147
924.849	3028
924.956	3218
925.064	3104
925.172	3039
925.279	3108
925.387	3203
925.494	3207
925.602	3344
925.709	3306
925.816	3146
925.924	3294
926.031	3374
926.138	3351
926.245	3325
926.352	3180
926.459	3443
926.566	3469
926.673	3317
926.779	3275
926.886	3249
926.993	3138
927.099	3135
927.206	3097
927.312	3138
927.419	3184
927.525	3230
927.631	3260
927.737	3135
927.843	3123
927.95	3017
928.056	3100
928.162	3127
928.267	3241
928.373	3854
928.479	3264
928.585	3085
928.69	3192
928.796	3268
928.901	3150
929.007	3066
929.112	3176
929.218	3211
929.323	3169
929.428	3173
929.533	3329
929.638	3108
929.743	3165
929.848	3237
929.953	3211
930.058	3123
930.163	2986
930.267	3032
930.372	3218
930.477	3009
930.581	3336
930.685	3176
930.79	3089
930.894	3146
930.998	3089
931.103	3233
931.207	2960
931.311	2925
931.415	2941
931.519	2773
931.623	2800
