Data from test_V78500241_768.txt Node
Date: Fri Mar 25 16:20:31 CST 2022
User: usil
Spectrometer: V785-0024
Trigger mode: 0
Integration Time (sec): 4.000000E-1
Scans to average: 1
Nonlinearity correction enabled: false
Boxcar width: 0
Storing dark spectrum: false
XAxis mode: Wavelengths
Number of Pixels in Spectrum: 1024
>>>>>Begin Spectral Data<<<<<
801.071	2887
801.214	2990
801.356	2891
801.499	2861
801.641	2849
801.783	2910
801.926	3070
802.068	2925
802.211	2971
802.353	3039
802.496	2956
802.638	3001
802.78	3020
802.923	3055
803.065	3020
803.208	2883
803.35	2868
803.492	2944
803.635	2902
803.777	2758
803.919	2864
804.061	3169
804.204	2941
804.346	2864
804.488	2823
804.63	2910
804.773	2891
804.915	2914
805.057	3089
805.199	2922
805.341	2937
805.483	3062
805.626	2990
805.768	2979
805.91	3066
806.052	3112
806.194	3024
806.336	3249
806.478	3024
806.62	2986
806.762	2952
806.904	3032
807.046	3180
807.188	2960
807.33	2918
807.472	2986
807.614	2883
807.756	2971
807.898	2906
808.04	2887
808.182	2967
808.324	2925
808.465	2834
808.607	2838
808.749	2754
808.891	2830
809.033	2994
809.174	2933
809.316	2868
809.458	2883
809.6	2754
809.741	2739
809.883	2743
810.025	2815
810.166	2872
810.308	2811
810.45	2826
810.591	2758
810.733	2777
810.875	2853
811.016	2826
811.158	2739
811.299	2766
811.441	2902
811.582	2887
811.724	2849
811.865	2849
812.007	2929
812.148	2861
812.29	2838
812.431	2910
812.573	2914
812.714	2956
812.855	3055
812.997	3005
813.138	3104
813.279	3020
813.421	2971
813.562	2925
813.703	2895
813.845	2906
813.986	2804
814.127	2689
814.268	2769
814.41	2811
814.551	2807
814.692	2887
814.833	2834
814.974	2880
815.115	2956
815.256	2819
815.397	2807
815.539	2842
815.68	2796
815.821	2758
815.962	2963
816.103	2914
816.244	2887
816.385	2849
816.526	2975
816.666	2918
816.807	2708
816.948	2887
817.089	2906
817.23	2823
817.371	2781
817.512	2807
817.653	2826
817.793	2815
817.934	2864
818.075	2941
818.216	2956
818.356	3043
818.497	2887
818.638	2804
818.778	2769
818.919	2762
819.06	2766
819.2	2826
819.341	2834
819.481	2788
819.622	2948
819.762	3074
819.903	3070
820.043	2937
820.184	2868
820.324	2868
820.465	3047
820.605	3020
820.746	3036
820.886	2899
821.026	3066
821.167	3184
821.307	3222
821.447	3272
821.588	3222
821.728	3226
821.868	3188
822.008	3074
822.149	3192
822.289	3211
822.429	3100
822.569	3104
822.709	3161
822.849	3009
822.99	3081
823.13	3165
823.27	3195
823.41	3081
823.55	3112
823.69	3127
823.83	3161
823.97	3104
824.11	2979
824.25	3005
824.389	3097
824.529	3116
824.669	3070
824.809	3176
824.949	3237
825.089	3211
825.228	3169
825.368	3005
825.508	2986
825.648	2960
825.787	3020
825.927	2986
826.067	2944
826.206	2933
826.346	3058
826.485	3055
826.625	3093
826.765	3256
826.904	3199
827.044	2986
827.183	2952
827.323	2868
827.462	2952
827.601	2902
827.741	2948
827.88	2971
828.02	2857
828.159	2948
828.298	3020
828.437	3089
828.577	3051
828.716	3268
828.855	3036
828.994	2883
829.134	2861
829.273	2929
829.412	2857
829.551	2861
829.69	2883
829.829	2971
829.968	3108
830.107	3017
830.246	3001
830.385	2918
830.524	2880
830.663	2800
830.802	2746
830.941	2659
831.08	2644
831.219	2735
831.357	2743
831.496	2952
831.635	2720
831.774	2640
831.913	2640
832.051	2533
832.19	2568
832.329	2686
832.467	2537
832.606	2476
832.744	2590
832.883	2564
833.022	2590
833.16	2640
833.299	2712
833.437	2667
833.576	2667
833.714	2693
833.852	2708
833.991	2766
834.129	2849
834.267	2815
834.406	2815
834.544	2868
834.682	2883
834.821	2899
834.959	3119
835.097	2891
835.235	3093
835.373	2971
835.511	3032
835.65	2887
835.788	2960
835.926	2815
836.064	2796
836.202	2823
836.34	3077
836.478	3135
836.615	2994
836.753	3157
836.891	3195
837.029	3184
837.167	3089
837.305	3051
837.443	3028
837.58	2948
837.718	3123
837.856	3047
837.993	3028
838.131	3116
838.269	3055
838.406	3104
838.544	3070
838.681	2929
838.819	2925
838.956	2826
839.094	2807
839.231	2902
839.369	3024
839.506	3378
839.643	3241
839.781	3024
839.918	2944
840.055	3020
840.193	3039
840.33	3039
840.467	3100
840.604	3165
840.742	3378
840.879	3043
841.016	3028
841.153	3089
841.29	3336
841.427	3279
841.564	3245
841.701	3268
841.838	3207
841.975	3180
842.112	3203
842.249	3077
842.385	3020
842.522	3260
842.659	3062
842.796	3020
842.933	3081
843.069	3036
843.206	3039
843.343	3180
843.479	3074
843.616	3127
843.752	2902
843.889	2864
844.025	3055
844.162	2868
844.298	3043
844.435	2960
844.571	2902
844.708	3051
844.844	3142
844.98	3214
845.117	3180
845.253	3058
845.389	2979
845.525	3097
845.661	3077
845.798	3024
845.934	3104
846.07	3070
846.206	3233
846.342	3298
846.478	3237
846.614	3100
846.75	3024
846.886	3005
847.022	3237
847.158	3116
847.294	3214
847.429	3253
847.565	3199
847.701	3485
847.837	3024
847.972	2971
848.108	3165
848.244	3097
848.379	2982
848.515	2925
848.65	2906
848.786	2937
848.921	3005
849.057	3108
849.192	3119
849.328	3005
849.463	3085
849.598	3055
849.734	3051
849.869	2960
850.004	2880
850.14	2941
850.275	2929
850.41	2807
850.545	2899
850.68	2925
850.815	2960
850.95	2994
851.085	3207
851.22	3070
851.355	2994
851.49	2952
851.625	2990
851.76	3039
851.895	2906
852.03	2933
852.165	3013
852.299	3112
852.434	3142
852.569	3116
852.703	3127
852.838	3207
852.973	3351
853.107	3344
853.242	3157
853.376	3066
853.511	2994
853.645	3028
853.78	3233
853.914	3119
854.048	3100
854.183	3100
854.317	3100
854.451	3275
854.585	3142
854.72	3077
854.854	3207
854.988	3047
855.122	3043
855.256	2963
855.39	3100
855.524	3245
855.658	3127
855.792	3146
855.926	3165
856.06	3176
856.194	3279
856.327	3150
856.461	3089
856.595	3055
856.729	3058
856.862	3222
856.996	3116
857.13	3161
857.263	3207
857.397	3275
857.53	3135
857.664	3176
857.797	3253
857.931	3256
858.064	3146
858.197	3218
858.331	3150
858.464	3070
858.597	3013
858.731	3123
858.864	3135
858.997	3127
859.13	3142
859.263	3195
859.396	3150
859.529	3077
859.662	3036
859.795	3070
859.928	3119
860.061	3287
860.194	3272
860.327	3116
860.46	3070
860.592	3226
860.725	3237
860.858	3222
860.99	3081
861.123	3020
861.256	3043
861.388	3161
861.521	3907
861.653	2998
861.786	2982
861.918	2986
862.05	3093
862.183	3100
862.315	3165
862.447	3218
862.58	3055
862.712	2937
862.844	2887
862.976	3024
863.108	2941
863.24	3397
863.372	2887
863.504	2994
863.636	2922
863.768	2986
863.9	2948
864.032	2883
864.164	2933
864.296	3017
864.428	3051
864.559	3036
864.691	3074
864.823	3070
864.954	3005
865.086	3032
865.217	2975
865.349	2941
865.48	2986
865.612	3005
865.743	3135
865.875	2948
866.006	2952
866.137	2937
866.269	2971
866.4	2948
866.531	2914
866.662	2864
866.793	2899
866.924	2853
867.055	2971
867.186	2887
867.317	2853
867.448	2823
867.579	2861
867.71	2834
867.841	2819
867.972	2868
868.103	2891
868.233	2902
868.364	2880
868.495	2922
868.625	3055
868.756	3180
868.886	2994
869.017	2990
869.147	3188
869.278	3146
869.408	3032
869.539	2994
869.669	3089
869.799	3062
869.929	3116
870.06	3047
870.19	3317
870.32	3268
870.45	3310
870.58	3355
870.71	3462
870.84	3481
870.97	3287
871.1	3256
871.23	3473
871.36	3435
871.489	3344
871.619	3386
871.749	3367
871.879	3435
872.008	3496
872.138	3367
872.267	3226
872.397	3119
872.526	3100
872.656	3020
872.785	3097
872.915	3203
873.044	3336
873.173	3226
873.303	3233
873.432	3184
873.561	3237
873.69	3131
873.819	3119
873.948	3195
874.077	3112
874.206	3047
874.335	3055
874.464	3192
874.593	3336
874.722	3207
874.851	3389
874.979	3287
875.108	3329
875.237	3173
875.365	3150
875.494	3195
875.623	3283
875.751	3074
875.88	3100
876.008	3142
876.136	3272
876.265	3382
876.393	3507
876.521	3386
876.65	3401
876.778	3313
876.906	3222
877.034	3211
877.162	3226
877.29	3176
877.418	3260
877.546	3211
877.674	3226
877.802	3237
877.93	3211
878.058	3108
878.185	3097
878.313	3230
878.441	3180
878.568	3070
878.696	3116
878.824	3199
878.951	3291
879.079	3382
879.206	3610
879.333	3473
879.461	3275
879.588	3321
879.715	3458
879.842	3584
879.97	3351
880.097	3142
880.224	3081
880.351	3214
880.478	3249
880.605	3150
880.732	3176
880.859	3454
880.986	3268
881.112	3302
881.239	3214
881.366	3077
881.493	2982
881.619	3001
881.746	3047
881.872	3077
881.999	3066
882.125	3112
882.252	3218
882.378	3268
882.505	3428
882.631	3272
882.757	3165
882.883	3207
883.01	3195
883.136	3157
883.262	3100
883.388	3089
883.514	3317
883.64	3401
883.766	3291
883.892	3199
884.018	3214
884.143	3393
884.269	3557
884.395	3165
884.52	3146
884.646	3180
884.772	3127
884.897	3104
885.023	3157
885.148	3336
885.274	3355
885.399	3386
885.524	3283
885.65	3283
885.775	3306
885.9	3272
886.025	3466
886.15	3321
886.275	3302
886.4	3245
886.525	3310
886.65	3230
886.775	3237
886.9	3466
887.025	3633
887.149	3378
887.274	3241
887.399	3142
887.523	3207
887.648	3119
887.773	3207
887.897	3332
888.021	3363
888.146	3287
888.27	3447
888.395	3496
888.519	3454
888.643	3450
888.767	3428
888.891	3283
889.015	3218
889.139	3325
889.263	3241
889.387	3420
889.511	3515
889.635	3435
889.759	3306
889.883	3268
890.006	3344
890.13	3462
890.254	3264
890.377	3340
890.501	3173
890.624	3199
890.748	3302
890.871	3184
890.995	3085
891.118	3036
891.241	3184
891.364	3195
891.488	3325
891.611	3157
891.734	3233
891.857	3275
891.98	3253
892.103	3336
892.226	3283
892.349	3253
892.471	3135
892.594	3230
892.717	3268
892.839	3233
892.962	3233
893.085	3351
893.207	3256
893.33	3119
893.452	3176
893.575	3298
893.697	3245
893.819	3462
893.941	3454
894.064	3435
894.186	3245
894.308	3226
894.43	3424
894.552	3477
894.674	3500
894.796	3264
894.918	3306
895.04	3256
895.161	3405
895.283	3428
895.405	3291
895.526	3363
895.648	3439
895.769	3359
895.891	3435
896.012	3504
896.134	3443
896.255	3355
896.376	3370
896.498	3374
896.619	3416
896.74	3374
896.861	3405
896.982	3675
897.103	3797
897.224	3587
897.345	3515
897.466	3439
897.587	3515
897.708	3618
897.828	3523
897.949	3469
898.07	3306
898.19	3378
898.311	3587
898.431	3454
898.552	3519
898.672	3587
898.792	3553
898.913	3526
899.033	3401
899.153	3272
899.273	3184
899.393	3256
899.513	3294
899.633	3272
899.753	3348
899.873	3291
899.993	3348
900.113	3344
900.232	3378
900.352	3367
900.472	3272
900.591	3150
900.711	3298
900.83	3218
900.95	3393
901.069	3511
901.189	3344
901.308	3116
901.427	3169
901.546	3169
901.665	3272
901.784	3264
901.904	3173
902.023	3154
902.141	3028
902.26	2979
902.379	3127
902.498	3055
902.617	3001
902.735	3214
902.854	3203
902.973	3199
903.091	3009
903.21	3024
903.328	3089
903.446	3112
903.565	3104
903.683	3207
903.801	3131
903.919	3256
904.038	3253
904.156	3180
904.274	3272
904.392	3268
904.51	3302
904.627	3336
904.745	3454
904.863	3515
904.981	3245
905.098	3142
905.216	3199
905.334	3310
905.451	3291
905.569	3336
905.686	3405
905.803	3420
905.921	3283
906.038	3412
906.155	3374
906.272	3260
906.389	3348
906.506	3233
906.623	3253
906.74	3279
906.857	3169
906.974	3245
907.091	3458
907.208	3580
907.324	3435
907.441	3336
907.557	3256
907.674	3211
907.79	3199
907.907	3237
908.023	3367
908.139	3393
908.256	3336
908.372	3363
908.488	3348
908.604	3241
908.72	3173
908.836	3275
908.952	3275
909.068	3329
909.184	3458
909.3	3382
909.415	3492
909.531	3447
909.647	3249
909.762	3249
909.878	3230
909.993	3336
910.108	3336
910.224	3294
910.339	3431
910.454	3306
910.57	3264
910.685	3249
910.8	3584
910.915	3553
911.03	3409
911.145	3283
911.259	3268
911.374	3313
911.489	3237
911.604	3211
911.718	3093
911.833	3150
911.947	3024
912.062	2933
912.176	3154
912.291	3207
912.405	3203
912.519	3412
912.633	3492
912.748	3332
912.862	3283
912.976	3176
913.09	3043
913.204	3154
913.318	3192
913.431	3294
913.545	3351
913.659	3389
913.772	3287
913.886	3184
914	3188
914.113	3359
914.226	3424
914.34	3367
914.453	3188
914.566	3401
914.68	3317
914.793	3332
914.906	3123
915.019	3127
915.132	3066
915.245	3165
915.358	3207
915.47	3214
915.583	3241
915.696	3275
915.809	3367
915.921	3370
916.034	3245
916.146	3233
916.259	3211
916.371	3397
916.483	3340
916.595	3279
916.708	3306
916.82	3382
916.932	3298
917.044	3348
917.156	3344
917.268	3249
917.38	3260
917.491	3268
917.603	3370
917.715	3447
917.826	3435
917.938	3363
918.049	3268
918.161	3428
918.272	3572
918.384	3591
918.495	3473
918.606	3310
918.717	3260
918.828	3393
918.939	3428
919.05	3275
919.161	3370
919.272	3146
919.383	3283
919.494	3462
919.604	3671
919.715	3523
919.826	3401
919.936	3439
920.047	3591
920.157	3511
920.267	3759
920.378	3580
920.488	3542
920.598	3759
920.708	3964
920.818	3804
920.928	3831
921.038	4017
921.148	3975
921.258	3701
921.368	3599
921.477	3553
921.587	3511
921.697	3424
921.806	3603
921.916	3515
922.025	3348
922.134	3355
922.244	3306
922.353	3382
922.462	3226
922.571	3211
922.68	3089
922.789	3100
922.898	3116
923.007	3047
923.116	3188
923.224	3127
923.333	3161
923.442	3062
923.55	3051
923.659	3131
923.767	3199
923.876	3074
923.984	3218
924.092	3017
924.201	3165
924.309	3218
924.417	3249
924.525	3173
924.633	3233
924.741	4147
924.849	3009
924.956	3214
925.064	3077
925.172	3028
925.279	3062
925.387	3161
925.494	3233
925.602	3325
925.709	3336
925.816	3154
925.924	3291
926.031	3370
926.138	3310
926.245	3363
926.352	3241
926.459	3412
926.566	3473
926.673	3321
926.779	3230
926.886	3294
926.993	3161
927.099	3131
927.206	3173
927.312	3138
927.419	3241
927.525	3192
927.631	3283
927.737	3169
927.843	3169
927.95	3077
928.056	3157
928.162	3218
928.267	3294
928.373	3808
928.479	3325
928.585	3097
928.69	3241
928.796	3321
928.901	3150
929.007	3062
929.112	3218
929.218	3222
929.323	3157
929.428	3116
929.533	3367
929.638	3180
929.743	3211
929.848	3317
929.953	3264
930.058	3203
930.163	3005
930.267	3097
930.372	3222
930.477	3112
930.581	3351
930.685	3218
930.79	3104
930.894	3142
930.998	3157
931.103	3294
931.207	2990
931.311	3013
931.415	2979
931.519	2769
931.623	2857
