Data from test_V78500241_380.txt Node
Date: Fri Mar 25 16:17:50 CST 2022
User: usil
Spectrometer: V785-0024
Trigger mode: 0
Integration Time (sec): 4.000000E-1
Scans to average: 1
Nonlinearity correction enabled: false
Boxcar width: 0
Storing dark spectrum: false
XAxis mode: Wavelengths
Number of Pixels in Spectrum: 1024
>>>>>Begin Spectral Data<<<<<
801.071	2929
801.214	2944
801.356	2845
801.499	2933
801.641	2853
801.783	2925
801.926	3036
802.068	2975
802.211	2998
802.353	3024
802.496	2933
802.638	3009
802.78	3043
802.923	3093
803.065	2994
803.208	2880
803.35	2914
803.492	2910
803.635	2933
803.777	2762
803.919	2857
804.061	3195
804.204	2937
804.346	2895
804.488	2819
804.63	3005
804.773	2845
804.915	2918
805.057	3070
805.199	2933
805.341	2979
805.483	3001
805.626	2979
805.768	2960
805.91	3089
806.052	3142
806.194	3039
806.336	3203
806.478	3043
806.62	2963
806.762	2956
806.904	3077
807.046	3161
807.188	2998
807.33	2876
807.472	2982
807.614	2918
807.756	2971
807.898	2929
808.04	2891
808.182	2994
808.324	2948
808.465	2902
808.607	2899
808.749	2804
808.891	2788
809.033	2963
809.174	2979
809.316	2861
809.458	2880
809.6	2781
809.741	2735
809.883	2762
810.025	2834
810.166	2864
810.308	2842
810.45	2876
810.591	2773
810.733	2773
810.875	2876
811.016	2727
811.158	2750
811.299	2811
811.441	2941
811.582	2902
811.724	2815
811.865	2823
812.007	2857
812.148	2853
812.29	2830
812.431	2906
812.573	2933
812.714	2998
812.855	3013
812.997	3070
813.138	3142
813.279	3017
813.421	2990
813.562	2963
813.703	2849
813.845	2857
813.986	2792
814.127	2750
814.268	2876
814.41	2864
814.551	2796
814.692	2864
814.833	2811
814.974	2906
815.115	2986
815.256	2834
815.397	2807
815.539	2849
815.68	2750
815.821	2811
815.962	2975
816.103	2883
816.244	2883
816.385	2899
816.526	2963
816.666	2929
816.807	2731
816.948	2906
817.089	2895
817.23	2826
817.371	2777
817.512	2754
817.653	2845
817.793	2864
817.934	2880
818.075	2975
818.216	2998
818.356	3020
818.497	2880
818.638	2804
818.778	2819
818.919	2769
819.06	2762
819.2	2830
819.341	2773
819.481	2800
819.622	2880
819.762	3108
819.903	3024
820.043	2933
820.184	2922
820.324	2902
820.465	3009
820.605	3009
820.746	3024
820.886	2941
821.026	3085
821.167	3161
821.307	3199
821.447	3313
821.588	3256
821.728	3214
821.868	3214
822.008	3043
822.149	3195
822.289	3214
822.429	3074
822.569	3066
822.709	3169
822.849	3028
822.99	3055
823.13	3161
823.27	3218
823.41	3112
823.55	3165
823.69	3116
823.83	3157
823.97	3100
824.11	2990
824.25	2975
824.389	3028
824.529	3108
824.669	3051
824.809	3207
824.949	3245
825.089	3199
825.228	3116
825.368	2963
825.508	2963
825.648	3013
825.787	2994
825.927	3017
826.067	2975
826.206	2967
826.346	3066
826.485	3062
826.625	3100
826.765	3237
826.904	3203
827.044	2990
827.183	2948
827.323	2845
827.462	2986
827.601	2922
827.741	2922
827.88	2948
828.02	2834
828.159	2956
828.298	3036
828.437	3097
828.577	3039
828.716	3214
828.855	3077
828.994	2933
829.134	2872
829.273	2914
829.412	2861
829.551	2853
829.69	2872
829.829	2963
829.968	3108
830.107	2998
830.246	3032
830.385	2922
830.524	2899
830.663	2788
830.802	2693
830.941	2659
831.08	2651
831.219	2739
831.357	2746
831.496	2971
831.635	2697
831.774	2636
831.913	2625
832.051	2522
832.19	2587
832.329	2644
832.467	2541
832.606	2476
832.744	2575
832.883	2625
833.022	2579
833.16	2663
833.299	2663
833.437	2712
833.576	2682
833.714	2712
833.852	2766
833.991	2735
834.129	2853
834.267	2796
834.406	2750
834.544	2853
834.682	2853
834.821	2857
834.959	3032
835.097	2929
835.235	3077
835.373	2994
835.511	3051
835.65	2925
835.788	2963
835.926	2842
836.064	2819
836.202	2868
836.34	3066
836.478	3161
836.615	3055
836.753	3119
836.891	3199
837.029	3165
837.167	3077
837.305	3062
837.443	2998
837.58	2937
837.718	3127
837.856	3081
837.993	3009
838.131	3089
838.269	3116
838.406	3077
838.544	3097
838.681	2952
838.819	2925
838.956	2785
839.094	2815
839.231	2906
839.369	3039
839.506	3386
839.643	3211
839.781	3017
839.918	2941
840.055	3024
840.193	2982
840.33	3036
840.467	3100
840.604	3154
840.742	3386
840.879	3036
841.016	3055
841.153	3119
841.29	3313
841.427	3275
841.564	3256
841.701	3321
841.838	3184
841.975	3165
842.112	3188
842.249	3074
842.385	3024
842.522	3226
842.659	3070
842.796	3077
842.933	3093
843.069	3055
843.206	3066
843.343	3176
843.479	3119
843.616	3127
843.752	2902
843.889	2876
844.025	3066
844.162	2864
844.298	3085
844.435	2922
844.571	2895
844.708	3058
844.844	3157
844.98	3203
845.117	3184
845.253	3074
845.389	2986
845.525	3131
845.661	3116
845.798	2998
845.934	3119
846.07	3036
846.206	3218
846.342	3264
846.478	3245
846.614	3070
846.75	3051
846.886	3024
847.022	3245
847.158	3131
847.294	3218
847.429	3214
847.565	3203
847.701	3458
847.837	3058
847.972	2998
848.108	3138
848.244	3154
848.379	2971
848.515	2925
848.65	2937
848.786	2960
848.921	2998
849.057	3127
849.192	3123
849.328	3055
849.463	3100
849.598	3055
849.734	3024
849.869	2994
850.004	2948
850.14	2948
850.275	2929
850.41	2853
850.545	2910
850.68	2929
850.815	2948
850.95	2990
851.085	3173
851.22	3074
851.355	3009
851.49	2952
851.625	2975
851.76	3036
851.895	2922
852.03	2925
852.165	3043
852.299	3100
852.434	3184
852.569	3131
852.703	3192
852.838	3207
852.973	3294
853.107	3359
853.242	3138
853.376	3085
853.511	2948
853.645	3043
853.78	3268
853.914	3112
854.048	3142
854.183	3089
854.317	3150
854.451	3298
854.585	3142
854.72	3070
854.854	3192
854.988	3017
855.122	3093
855.256	2925
855.39	3119
855.524	3207
855.658	3165
855.792	3154
855.926	3218
856.06	3176
856.194	3253
856.327	3176
856.461	3062
856.595	3036
856.729	3070
856.862	3195
856.996	3180
857.13	3195
857.263	3245
857.397	3264
857.53	3135
857.664	3169
857.797	3222
857.931	3237
858.064	3188
858.197	3218
858.331	3138
858.464	3123
858.597	3028
858.731	3123
858.864	3131
858.997	3112
859.13	3169
859.263	3161
859.396	3165
859.529	3074
859.662	3055
859.795	3020
859.928	3116
860.061	3237
860.194	3268
860.327	3154
860.46	3097
860.592	3237
860.725	3272
860.858	3294
860.99	3100
861.123	3032
861.256	3024
861.388	3135
861.521	3857
861.653	3024
861.786	2979
861.918	3005
862.05	3074
862.183	3123
862.315	3165
862.447	3214
862.58	3081
862.712	2975
862.844	2830
862.976	3055
863.108	2998
863.24	3435
863.372	2887
863.504	2956
863.636	2941
863.768	3001
863.9	2979
864.032	2925
864.164	2960
864.296	2994
864.428	3097
864.559	3089
864.691	3077
864.823	3062
864.954	3051
865.086	3085
865.217	2956
865.349	2982
865.48	2975
865.612	2986
865.743	3176
865.875	2952
866.006	2963
866.137	2963
866.269	2948
866.4	2952
866.531	2891
866.662	2864
866.793	2906
866.924	2906
867.055	2944
867.186	2925
867.317	2868
867.448	2838
867.579	2883
867.71	2845
867.841	2826
867.972	2857
868.103	2883
868.233	2883
868.364	2849
868.495	2918
868.625	3093
868.756	3157
868.886	2979
869.017	3032
869.147	3142
869.278	3154
869.408	3024
869.539	2998
869.669	3074
869.799	3036
869.929	3131
870.06	3112
870.19	3336
870.32	3275
870.45	3264
870.58	3355
870.71	3477
870.84	3431
870.97	3291
871.1	3249
871.23	3492
871.36	3477
871.489	3332
871.619	3359
871.749	3359
871.879	3428
872.008	3473
872.138	3370
872.267	3287
872.397	3131
872.526	3089
872.656	3009
872.785	3077
872.915	3256
873.044	3302
873.173	3195
873.303	3245
873.432	3241
873.561	3230
873.69	3169
873.819	3142
873.948	3165
874.077	3112
874.206	3013
874.335	3123
874.464	3188
874.593	3340
874.722	3264
874.851	3386
874.979	3310
875.108	3302
875.237	3184
875.365	3100
875.494	3195
875.623	3253
875.751	3062
875.88	3161
876.008	3203
876.136	3214
876.265	3370
876.393	3530
876.521	3386
876.65	3378
876.778	3310
876.906	3279
877.034	3203
877.162	3237
877.29	3203
877.418	3230
877.546	3207
877.674	3264
877.802	3233
877.93	3218
878.058	3203
878.185	3116
878.313	3211
878.441	3176
878.568	3089
878.696	3157
878.824	3260
878.951	3268
879.079	3428
879.206	3641
879.333	3462
879.461	3317
879.588	3382
879.715	3519
879.842	3564
879.97	3367
880.097	3161
880.224	3142
880.351	3154
880.478	3241
880.605	3176
880.732	3203
880.859	3473
880.986	3298
881.112	3298
881.239	3184
881.366	3058
881.493	3032
881.619	3017
881.746	3085
881.872	3066
881.999	3123
882.125	3154
882.252	3195
882.378	3287
882.505	3435
882.631	3264
882.757	3150
882.883	3192
883.01	3180
883.136	3119
883.262	3108
883.388	3097
883.514	3348
883.64	3370
883.766	3291
883.892	3169
884.018	3256
884.143	3412
884.269	3530
884.395	3214
884.52	3154
884.646	3207
884.772	3131
884.897	3074
885.023	3188
885.148	3340
885.274	3424
885.399	3359
885.524	3237
885.65	3287
885.775	3310
885.9	3283
886.025	3397
886.15	3359
886.275	3336
886.4	3222
886.525	3306
886.65	3275
886.775	3283
886.9	3485
887.025	3633
887.149	3424
887.274	3233
887.399	3165
887.523	3241
887.648	3142
887.773	3161
887.897	3329
888.021	3389
888.146	3272
888.27	3435
888.395	3534
888.519	3393
888.643	3496
888.767	3416
888.891	3294
889.015	3241
889.139	3233
889.263	3256
889.387	3435
889.511	3523
889.635	3450
889.759	3268
889.883	3275
890.006	3386
890.13	3496
890.254	3237
890.377	3367
890.501	3211
890.624	3165
890.748	3306
890.871	3180
890.995	3100
891.118	3058
891.241	3199
891.364	3218
891.488	3310
891.611	3180
891.734	3184
891.857	3241
891.98	3230
892.103	3317
892.226	3279
892.349	3211
892.471	3085
892.594	3249
892.717	3294
892.839	3268
892.962	3272
893.085	3348
893.207	3344
893.33	3135
893.452	3211
893.575	3348
893.697	3222
893.819	3450
893.941	3492
894.064	3473
894.186	3279
894.308	3241
894.43	3447
894.552	3530
894.674	3500
894.796	3329
894.918	3279
895.04	3294
895.161	3416
895.283	3332
895.405	3325
895.526	3321
895.648	3412
895.769	3428
895.891	3473
896.012	3481
896.134	3435
896.255	3420
896.376	3412
896.498	3370
896.619	3424
896.74	3386
896.861	3462
896.982	3694
897.103	3800
897.224	3587
897.345	3488
897.466	3443
897.587	3507
897.708	3591
897.828	3561
897.949	3439
898.07	3302
898.19	3382
898.311	3644
898.431	3412
898.552	3557
898.672	3591
898.792	3561
898.913	3564
899.033	3386
899.153	3268
899.273	3195
899.393	3287
899.513	3332
899.633	3348
899.753	3287
899.873	3329
899.993	3386
900.113	3336
900.232	3431
900.352	3310
900.472	3291
900.591	3195
900.711	3310
900.83	3195
900.95	3397
901.069	3488
901.189	3359
901.308	3169
901.427	3119
901.546	3165
901.665	3272
901.784	3298
901.904	3222
902.023	3157
902.141	3005
902.26	3009
902.379	3108
902.498	3051
902.617	3077
902.735	3214
902.854	3256
902.973	3207
903.091	3047
903.21	3055
903.328	3150
903.446	3116
903.565	3051
903.683	3237
903.801	3142
903.919	3256
904.038	3245
904.156	3188
904.274	3313
904.392	3249
904.51	3279
904.627	3329
904.745	3435
904.863	3477
904.981	3211
905.098	3184
905.216	3260
905.334	3294
905.451	3321
905.569	3329
905.686	3428
905.803	3393
905.921	3264
906.038	3428
906.155	3374
906.272	3272
906.389	3325
906.506	3211
906.623	3226
906.74	3279
906.857	3214
906.974	3291
907.091	3458
907.208	3553
907.324	3469
907.441	3351
907.557	3226
907.674	3218
907.79	3199
907.907	3272
908.023	3378
908.139	3359
908.256	3332
908.372	3355
908.488	3378
908.604	3222
908.72	3214
908.836	3313
908.952	3256
909.068	3294
909.184	3469
909.3	3374
909.415	3523
909.531	3447
909.647	3253
909.762	3294
909.878	3230
909.993	3393
910.108	3344
910.224	3348
910.339	3393
910.454	3302
910.57	3260
910.685	3226
910.8	3599
910.915	3534
911.03	3439
911.145	3283
911.259	3272
911.374	3325
911.489	3256
911.604	3241
911.718	3081
911.833	3173
911.947	3089
912.062	2952
912.176	3135
912.291	3135
912.405	3184
912.519	3469
912.633	3462
912.748	3313
912.862	3298
912.976	3157
913.09	3066
913.204	3138
913.318	3218
913.431	3321
913.545	3313
913.659	3466
913.772	3329
913.886	3226
914	3195
914.113	3359
914.226	3412
914.34	3363
914.453	3218
914.566	3447
914.68	3264
914.793	3306
914.906	3154
915.019	3146
915.132	3093
915.245	3173
915.358	3203
915.47	3214
915.583	3226
915.696	3317
915.809	3382
915.921	3428
916.034	3291
916.146	3256
916.259	3222
916.371	3393
916.483	3336
916.595	3279
916.708	3363
916.82	3325
916.932	3344
917.044	3351
917.156	3340
917.268	3260
917.38	3287
917.491	3279
917.603	3382
917.715	3454
917.826	3492
917.938	3386
918.049	3253
918.161	3431
918.272	3542
918.384	3568
918.495	3485
918.606	3378
918.717	3264
918.828	3374
918.939	3389
919.05	3336
919.161	3367
919.272	3176
919.383	3249
919.494	3485
919.604	3667
919.715	3481
919.826	3401
919.936	3443
920.047	3564
920.157	3523
920.267	3762
920.378	3584
920.488	3561
920.598	3740
920.708	3964
920.818	3819
920.928	3812
921.038	4013
921.148	3998
921.258	3641
921.368	3618
921.477	3561
921.587	3587
921.697	3439
921.806	3591
921.916	3523
922.025	3393
922.134	3382
922.244	3291
922.353	3420
922.462	3218
922.571	3203
922.68	3100
922.789	3058
922.898	3123
923.007	3074
923.116	3211
923.224	3157
923.333	3184
923.442	3112
923.55	3077
923.659	3165
923.767	3233
923.876	3150
923.984	3268
924.092	3100
924.201	3188
924.309	3188
924.417	3241
924.525	3169
924.633	3260
924.741	4147
924.849	3055
924.956	3241
925.064	3119
925.172	3055
925.279	3093
925.387	3157
925.494	3218
925.602	3340
925.709	3336
925.816	3188
925.924	3279
926.031	3416
926.138	3321
926.245	3367
926.352	3268
926.459	3378
926.566	3466
926.673	3291
926.779	3272
926.886	3226
926.993	3138
927.099	3138
927.206	3169
927.312	3127
927.419	3169
927.525	3211
927.631	3272
927.737	3150
927.843	3104
927.95	3013
928.056	3165
928.162	3165
928.267	3253
928.373	3850
928.479	3344
928.585	3074
928.69	3207
928.796	3241
928.901	3116
929.007	3032
929.112	3230
929.218	3127
929.323	3150
929.428	3142
929.533	3298
929.638	3131
929.743	3146
929.848	3256
929.953	3241
930.058	3131
930.163	3009
930.267	3051
930.372	3222
930.477	3036
930.581	3287
930.685	3180
930.79	3024
930.894	3108
930.998	3097
931.103	3264
931.207	2952
931.311	2918
931.415	2902
931.519	2727
931.623	2796
