Data from test_V78500241_384.txt Node
Date: Fri Mar 25 16:17:51 CST 2022
User: usil
Spectrometer: V785-0024
Trigger mode: 0
Integration Time (sec): 4.000000E-1
Scans to average: 1
Nonlinearity correction enabled: false
Boxcar width: 0
Storing dark spectrum: false
XAxis mode: Wavelengths
Number of Pixels in Spectrum: 1024
>>>>>Begin Spectral Data<<<<<
801.071	2971
801.214	2963
801.356	2880
801.499	2887
801.641	2876
801.783	2925
801.926	3066
802.068	3001
802.211	2998
802.353	3001
802.496	2933
802.638	3028
802.78	3024
802.923	3112
803.065	3032
803.208	2929
803.35	2948
803.492	2941
803.635	2925
803.777	2800
803.919	2845
804.061	3199
804.204	2925
804.346	2899
804.488	2838
804.63	3001
804.773	2876
804.915	2891
805.057	3066
805.199	2910
805.341	2979
805.483	3043
805.626	3013
805.768	2971
805.91	3047
806.052	3093
806.194	3043
806.336	3245
806.478	3039
806.62	2948
806.762	2960
806.904	3062
807.046	3169
807.188	3009
807.33	2929
807.472	2979
807.614	2910
807.756	2975
807.898	2944
808.04	2895
808.182	2967
808.324	2967
808.465	2880
808.607	2861
808.749	2811
808.891	2845
809.033	2975
809.174	2944
809.316	2887
809.458	2914
809.6	2788
809.741	2777
809.883	2781
810.025	2853
810.166	2868
810.308	2853
810.45	2845
810.591	2792
810.733	2773
810.875	2868
811.016	2781
811.158	2769
811.299	2857
811.441	2910
811.582	2872
811.724	2823
811.865	2819
812.007	2895
812.148	2887
812.29	2849
812.431	2895
812.573	2937
812.714	2971
812.855	3047
812.997	3051
813.138	3104
813.279	2963
813.421	2982
813.562	2944
813.703	2861
813.845	2838
813.986	2807
814.127	2716
814.268	2781
814.41	2823
814.551	2819
814.692	2899
814.833	2792
814.974	2887
815.115	2944
815.256	2857
815.397	2773
815.539	2861
815.68	2769
815.821	2785
815.962	2925
816.103	2914
816.244	2883
816.385	2880
816.526	2960
816.666	2937
816.807	2697
816.948	2864
817.089	2899
817.23	2807
817.371	2758
817.512	2785
817.653	2845
817.793	2815
817.934	2899
818.075	2925
818.216	2979
818.356	2994
818.497	2849
818.638	2785
818.778	2785
818.919	2811
819.06	2743
819.2	2845
819.341	2773
819.481	2788
819.622	2899
819.762	3081
819.903	3013
820.043	2937
820.184	2883
820.324	2922
820.465	3020
820.605	3013
820.746	3024
820.886	2937
821.026	3085
821.167	3184
821.307	3256
821.447	3310
821.588	3233
821.728	3230
821.868	3218
822.008	3066
822.149	3150
822.289	3230
822.429	3108
822.569	3112
822.709	3214
822.849	3032
822.99	3100
823.13	3150
823.27	3169
823.41	3093
823.55	3157
823.69	3165
823.83	3211
823.97	3100
824.11	3013
824.25	3020
824.389	3081
824.529	3093
824.669	3131
824.809	3207
824.949	3275
825.089	3275
825.228	3169
825.368	3028
825.508	2990
825.648	2986
825.787	3028
825.927	3055
826.067	2986
826.206	2982
826.346	3077
826.485	3112
826.625	3131
826.765	3287
826.904	3199
827.044	3028
827.183	2967
827.323	2906
827.462	3036
827.601	2933
827.741	3005
827.88	2982
828.02	2880
828.159	3043
828.298	3055
828.437	3165
828.577	3066
828.716	3294
828.855	3085
828.994	2960
829.134	2948
829.273	2982
829.412	2918
829.551	2906
829.69	2914
829.829	3051
829.968	3165
830.107	3047
830.246	3047
830.385	2948
830.524	2922
830.663	2826
830.802	2754
830.941	2697
831.08	2701
831.219	2781
831.357	2807
831.496	2990
831.635	2769
831.774	2686
831.913	2712
832.051	2594
832.19	2575
832.329	2720
832.467	2583
832.606	2507
832.744	2621
832.883	2636
833.022	2644
833.16	2701
833.299	2701
833.437	2743
833.576	2750
833.714	2796
833.852	2788
833.991	2807
834.129	2834
834.267	2861
834.406	2834
834.544	2891
834.682	2933
834.821	2880
834.959	3066
835.097	2914
835.235	3116
835.373	3058
835.511	3074
835.65	3005
835.788	3020
835.926	2857
836.064	2826
836.202	2872
836.34	3135
836.478	3188
836.615	3062
836.753	3142
836.891	3260
837.029	3180
837.167	3119
837.305	3097
837.443	3036
837.58	2982
837.718	3176
837.856	3135
837.993	3097
838.131	3142
838.269	3127
838.406	3161
838.544	3112
838.681	2967
838.819	2975
838.956	2880
839.094	2853
839.231	2971
839.369	3028
839.506	3435
839.643	3230
839.781	3066
839.918	2971
840.055	3138
840.193	3051
840.33	3097
840.467	3123
840.604	3150
840.742	3416
840.879	3081
841.016	3108
841.153	3180
841.29	3355
841.427	3317
841.564	3310
841.701	3298
841.838	3241
841.975	3199
842.112	3222
842.249	3081
842.385	3070
842.522	3279
842.659	3142
842.796	3100
842.933	3138
843.069	3058
843.206	3058
843.343	3207
843.479	3119
843.616	3146
843.752	2952
843.889	2891
844.025	3077
844.162	2868
844.298	3089
844.435	2979
844.571	2925
844.708	3119
844.844	3249
844.98	3283
845.117	3214
845.253	3104
845.389	2994
845.525	3131
845.661	3085
845.798	3001
845.934	3119
846.07	3097
846.206	3214
846.342	3378
846.478	3302
846.614	3108
846.75	3093
846.886	3066
847.022	3272
847.158	3188
847.294	3218
847.429	3264
847.565	3211
847.701	3519
847.837	3066
847.972	3032
848.108	3188
848.244	3150
848.379	3051
848.515	2960
848.65	2982
848.786	2990
848.921	3020
849.057	3119
849.192	3161
849.328	3131
849.463	3135
849.598	3097
849.734	3093
849.869	2990
850.004	2941
850.14	2979
850.275	2929
850.41	2880
850.545	2902
850.68	2960
850.815	2982
850.95	2998
851.085	3203
851.22	3150
851.355	3077
851.49	3058
851.625	3024
851.76	3032
851.895	2963
852.03	2944
852.165	3089
852.299	3112
852.434	3203
852.569	3203
852.703	3192
852.838	3287
852.973	3351
853.107	3348
853.242	3195
853.376	3154
853.511	2975
853.645	3047
853.78	3268
853.914	3157
854.048	3138
854.183	3108
854.317	3180
854.451	3302
854.585	3150
854.72	3127
854.854	3241
854.988	3081
855.122	3138
855.256	3005
855.39	3161
855.524	3279
855.658	3222
855.792	3207
855.926	3233
856.06	3275
856.194	3268
856.327	3169
856.461	3097
856.595	3157
856.729	3100
856.862	3230
856.996	3192
857.13	3211
857.263	3233
857.397	3298
857.53	3157
857.664	3237
857.797	3279
857.931	3294
858.064	3180
858.197	3264
858.331	3176
858.464	3116
858.597	3005
858.731	3138
858.864	3135
858.997	3089
859.13	3154
859.263	3188
859.396	3237
859.529	3104
859.662	3138
859.795	3062
859.928	3150
860.061	3279
860.194	3332
860.327	3135
860.46	3135
860.592	3249
860.725	3279
860.858	3264
860.99	3135
861.123	3043
861.256	3127
861.388	3188
861.521	3823
861.653	3066
861.786	2986
861.918	3005
862.05	3074
862.183	3119
862.315	3195
862.447	3230
862.58	3123
862.712	2944
862.844	2914
862.976	3020
863.108	3051
863.24	3450
863.372	2902
863.504	2986
863.636	2929
863.768	3017
863.9	3005
864.032	2906
864.164	2979
864.296	3001
864.428	3123
864.559	3116
864.691	3131
864.823	3104
864.954	3051
865.086	3093
865.217	2975
865.349	2956
865.48	3013
865.612	3081
865.743	3180
865.875	3024
866.006	2982
866.137	2979
866.269	2967
866.4	2937
866.531	2937
866.662	2899
866.793	2922
866.924	2937
867.055	2986
867.186	2952
867.317	2906
867.448	2845
867.579	2864
867.71	2872
867.841	2849
867.972	2914
868.103	2967
868.233	2883
868.364	2899
868.495	2899
868.625	3123
868.756	3195
868.886	2986
869.017	3005
869.147	3207
869.278	3199
869.408	3081
869.539	3051
869.669	3146
869.799	3077
869.929	3165
870.06	3093
870.19	3382
870.32	3275
870.45	3336
870.58	3378
870.71	3458
870.84	3477
870.97	3317
871.1	3264
871.23	3519
871.36	3526
871.489	3355
871.619	3435
871.749	3412
871.879	3469
872.008	3515
872.138	3412
872.267	3313
872.397	3157
872.526	3104
872.656	3032
872.785	3074
872.915	3260
873.044	3340
873.173	3218
873.303	3260
873.432	3253
873.561	3272
873.69	3154
873.819	3169
873.948	3195
874.077	3131
874.206	3077
874.335	3089
874.464	3207
874.593	3374
874.722	3256
874.851	3363
874.979	3351
875.108	3359
875.237	3188
875.365	3188
875.494	3180
875.623	3279
875.751	3074
875.88	3142
876.008	3253
876.136	3222
876.265	3401
876.393	3545
876.521	3454
876.65	3416
876.778	3355
876.906	3230
877.034	3199
877.162	3218
877.29	3207
877.418	3275
877.546	3272
877.674	3287
877.802	3253
877.93	3230
878.058	3135
878.185	3112
878.313	3176
878.441	3241
878.568	3150
878.696	3146
878.824	3249
878.951	3321
879.079	3462
879.206	3648
879.333	3439
879.461	3298
879.588	3344
879.715	3469
879.842	3599
879.97	3374
880.097	3161
880.224	3127
880.351	3214
880.478	3245
880.605	3176
880.732	3188
880.859	3511
880.986	3310
881.112	3306
881.239	3188
881.366	3119
881.493	3043
881.619	3043
881.746	3074
881.872	3104
881.999	3104
882.125	3150
882.252	3272
882.378	3298
882.505	3447
882.631	3294
882.757	3154
882.883	3237
883.01	3226
883.136	3138
883.262	3100
883.388	3131
883.514	3355
883.64	3363
883.766	3344
883.892	3230
884.018	3245
884.143	3401
884.269	3515
884.395	3226
884.52	3184
884.646	3214
884.772	3173
884.897	3146
885.023	3214
885.148	3336
885.274	3393
885.399	3348
885.524	3253
885.65	3256
885.775	3294
885.9	3317
886.025	3424
886.15	3344
886.275	3298
886.4	3275
886.525	3321
886.65	3321
886.775	3283
886.9	3545
887.025	3667
887.149	3447
887.274	3279
887.399	3169
887.523	3230
887.648	3245
887.773	3233
887.897	3397
888.021	3420
888.146	3317
888.27	3450
888.395	3530
888.519	3454
888.643	3447
888.767	3488
888.891	3306
889.015	3291
889.139	3287
889.263	3260
889.387	3428
889.511	3526
889.635	3435
889.759	3298
889.883	3310
890.006	3409
890.13	3507
890.254	3332
890.377	3344
890.501	3199
890.624	3192
890.748	3310
890.871	3131
890.995	3142
891.118	3104
891.241	3192
891.364	3184
891.488	3340
891.611	3222
891.734	3226
891.857	3268
891.98	3279
892.103	3351
892.226	3264
892.349	3199
892.471	3131
892.594	3249
892.717	3294
892.839	3264
892.962	3287
893.085	3386
893.207	3340
893.33	3184
893.452	3192
893.575	3374
893.697	3268
893.819	3412
893.941	3500
894.064	3458
894.186	3294
894.308	3313
894.43	3431
894.552	3519
894.674	3447
894.796	3306
894.918	3336
895.04	3310
895.161	3420
895.283	3378
895.405	3332
895.526	3409
895.648	3431
895.769	3458
895.891	3485
896.012	3454
896.134	3458
896.255	3431
896.376	3374
896.498	3370
896.619	3424
896.74	3378
896.861	3363
896.982	3652
897.103	3854
897.224	3584
897.345	3519
897.466	3416
897.587	3488
897.708	3606
897.828	3538
897.949	3477
898.07	3332
898.19	3409
898.311	3641
898.431	3473
898.552	3492
898.672	3599
898.792	3622
898.913	3511
899.033	3416
899.153	3279
899.273	3222
899.393	3302
899.513	3313
899.633	3355
899.753	3367
899.873	3355
899.993	3378
900.113	3317
900.232	3397
900.352	3355
900.472	3287
900.591	3237
900.711	3287
900.83	3256
900.95	3405
901.069	3504
901.189	3359
901.308	3203
901.427	3089
901.546	3211
901.665	3313
901.784	3310
901.904	3245
902.023	3161
902.141	3020
902.26	3013
902.379	3135
902.498	3127
902.617	3036
902.735	3188
902.854	3226
902.973	3218
903.091	3055
903.21	3047
903.328	3127
903.446	3146
903.565	3138
903.683	3192
903.801	3127
903.919	3241
904.038	3355
904.156	3192
904.274	3268
904.392	3253
904.51	3272
904.627	3336
904.745	3462
904.863	3496
904.981	3241
905.098	3169
905.216	3211
905.334	3291
905.451	3363
905.569	3279
905.686	3469
905.803	3477
905.921	3291
906.038	3424
906.155	3348
906.272	3245
906.389	3340
906.506	3260
906.623	3260
906.74	3264
906.857	3253
906.974	3241
907.091	3428
907.208	3572
907.324	3496
907.441	3401
907.557	3279
907.674	3233
907.79	3256
907.907	3264
908.023	3370
908.139	3389
908.256	3351
908.372	3386
908.488	3370
908.604	3264
908.72	3249
908.836	3294
908.952	3279
909.068	3344
909.184	3458
909.3	3405
909.415	3504
909.531	3488
909.647	3287
909.762	3287
909.878	3256
909.993	3367
910.108	3359
910.224	3351
910.339	3435
910.454	3386
910.57	3268
910.685	3260
910.8	3610
910.915	3526
911.03	3450
911.145	3264
911.259	3245
911.374	3302
911.489	3245
911.604	3241
911.718	3104
911.833	3169
911.947	3051
912.062	3009
912.176	3169
912.291	3176
912.405	3233
912.519	3435
912.633	3492
912.748	3325
912.862	3283
912.976	3195
913.09	3055
913.204	3123
913.318	3161
913.431	3344
913.545	3348
913.659	3382
913.772	3329
913.886	3192
914	3222
914.113	3363
914.226	3401
914.34	3348
914.453	3207
914.566	3401
914.68	3294
914.793	3336
914.906	3157
915.019	3116
915.132	3100
915.245	3165
915.358	3195
915.47	3218
915.583	3230
915.696	3279
915.809	3412
915.921	3412
916.034	3241
916.146	3253
916.259	3214
916.371	3370
916.483	3367
916.595	3306
916.708	3348
916.82	3317
916.932	3351
917.044	3386
917.156	3351
917.268	3260
917.38	3313
917.491	3287
917.603	3363
917.715	3466
917.826	3485
917.938	3389
918.049	3260
918.161	3420
918.272	3568
918.384	3610
918.495	3511
918.606	3329
918.717	3287
918.828	3370
918.939	3401
919.05	3291
919.161	3378
919.272	3180
919.383	3283
919.494	3511
919.604	3698
919.715	3466
919.826	3424
919.936	3435
920.047	3568
920.157	3584
920.267	3800
920.378	3610
920.488	3587
920.598	3770
920.708	3949
920.818	3838
920.928	3819
921.038	4040
921.148	4002
921.258	3713
921.368	3618
921.477	3568
921.587	3523
921.697	3458
921.806	3633
921.916	3507
922.025	3363
922.134	3378
922.244	3336
922.353	3447
922.462	3298
922.571	3199
922.68	3123
922.789	3043
922.898	3100
923.007	3108
923.116	3154
923.224	3146
923.333	3184
923.442	3112
923.55	3108
923.659	3154
923.767	3233
923.876	3119
923.984	3241
924.092	3138
924.201	3180
924.309	3211
924.417	3279
924.525	3195
924.633	3264
924.741	4227
924.849	3085
924.956	3279
925.064	3100
925.172	3032
925.279	3123
925.387	3180
925.494	3184
925.602	3336
925.709	3310
925.816	3214
925.924	3298
926.031	3401
926.138	3313
926.245	3332
926.352	3268
926.459	3401
926.566	3473
926.673	3378
926.779	3237
926.886	3218
926.993	3157
927.099	3157
927.206	3104
927.312	3093
927.419	3253
927.525	3188
927.631	3279
927.737	3119
927.843	3127
927.95	3020
928.056	3104
928.162	3180
928.267	3222
928.373	3888
928.479	3298
928.585	3062
928.69	3218
928.796	3249
928.901	3188
929.007	3093
929.112	3195
929.218	3169
929.323	3176
929.428	3161
929.533	3344
929.638	3112
929.743	3161
929.848	3237
929.953	3249
930.058	3097
930.163	3013
930.267	3020
930.372	3207
930.477	3051
930.581	3325
930.685	3180
930.79	3051
930.894	3112
930.998	3081
931.103	3256
931.207	2960
931.311	2971
931.415	2910
931.519	2762
931.623	2830
