Data from test_V78500241_491.txt Node
Date: Fri Mar 25 16:18:36 CST 2022
User: usil
Spectrometer: V785-0024
Trigger mode: 0
Integration Time (sec): 4.000000E-1
Scans to average: 1
Nonlinearity correction enabled: false
Boxcar width: 0
Storing dark spectrum: false
XAxis mode: Wavelengths
Number of Pixels in Spectrum: 1024
>>>>>Begin Spectral Data<<<<<
801.071	2918
801.214	2963
801.356	2887
801.499	2899
801.641	2891
801.783	2948
801.926	3028
802.068	2956
802.211	3005
802.353	3036
802.496	2899
802.638	2960
802.78	3028
802.923	3070
803.065	2956
803.208	2864
803.35	2880
803.492	2963
803.635	2925
803.777	2739
803.919	2838
804.061	3184
804.204	2963
804.346	2906
804.488	2853
804.63	3001
804.773	2902
804.915	2895
805.057	3051
805.199	2929
805.341	2960
805.483	3024
805.626	2971
805.768	2963
805.91	3036
806.052	3089
806.194	3020
806.336	3260
806.478	3032
806.62	2944
806.762	2963
806.904	3039
807.046	3157
807.188	2986
807.33	2929
807.472	2986
807.614	2906
807.756	2952
807.898	2895
808.04	2857
808.182	2960
808.324	2994
808.465	2872
808.607	2861
808.749	2815
808.891	2864
809.033	3001
809.174	2975
809.316	2891
809.458	2922
809.6	2766
809.741	2743
809.883	2739
810.025	2864
810.166	2849
810.308	2819
810.45	2823
810.591	2762
810.733	2754
810.875	2792
811.016	2777
811.158	2758
811.299	2815
811.441	2952
811.582	2861
811.724	2826
811.865	2830
812.007	2918
812.148	2872
812.29	2864
812.431	2864
812.573	2941
812.714	2948
812.855	3055
812.997	3028
813.138	3077
813.279	3009
813.421	3001
813.562	2952
813.703	2880
813.845	2895
813.986	2743
814.127	2735
814.268	2830
814.41	2819
814.551	2785
814.692	2864
814.833	2823
814.974	2895
815.115	2933
815.256	2834
815.397	2857
815.539	2861
815.68	2758
815.821	2811
815.962	2948
816.103	2891
816.244	2872
816.385	2914
816.526	2960
816.666	2914
816.807	2754
816.948	2872
817.089	2902
817.23	2811
817.371	2762
817.512	2796
817.653	2842
817.793	2826
817.934	2872
818.075	2975
818.216	2986
818.356	2998
818.497	2868
818.638	2815
818.778	2807
818.919	2788
819.06	2708
819.2	2842
819.341	2819
819.481	2815
819.622	2899
819.762	3081
819.903	3028
820.043	2952
820.184	2872
820.324	2891
820.465	2990
820.605	3020
820.746	3001
820.886	2933
821.026	3093
821.167	3161
821.307	3260
821.447	3279
821.588	3222
821.728	3211
821.868	3180
822.008	3093
822.149	3188
822.289	3233
822.429	3097
822.569	3138
822.709	3138
822.849	3020
822.99	3062
823.13	3161
823.27	3169
823.41	3135
823.55	3100
823.69	3135
823.83	3214
823.97	3093
824.11	2960
824.25	2986
824.389	3009
824.529	3093
824.669	3051
824.809	3173
824.949	3211
825.089	3184
825.228	3165
825.368	3001
825.508	2971
825.648	2948
825.787	2975
825.927	2986
826.067	2933
826.206	2937
826.346	3055
826.485	3104
826.625	3089
826.765	3268
826.904	3249
827.044	3009
827.183	2925
827.323	2857
827.462	3001
827.601	2891
827.741	2933
827.88	2929
828.02	2823
828.159	2979
828.298	3020
828.437	3119
828.577	3009
828.716	3249
828.855	3055
828.994	2910
829.134	2895
829.273	2922
829.412	2807
829.551	2838
829.69	2895
829.829	2975
829.968	3138
830.107	3005
830.246	3009
830.385	2891
830.524	2906
830.663	2815
830.802	2754
830.941	2674
831.08	2625
831.219	2777
831.357	2746
831.496	2948
831.635	2731
831.774	2648
831.913	2651
832.051	2560
832.19	2545
832.329	2701
832.467	2556
832.606	2461
832.744	2556
832.883	2575
833.022	2610
833.16	2625
833.299	2629
833.437	2735
833.576	2705
833.714	2689
833.852	2724
833.991	2754
834.129	2834
834.267	2823
834.406	2777
834.544	2876
834.682	2861
834.821	2861
834.959	3058
835.097	2891
835.235	3032
835.373	2998
835.511	3001
835.65	2952
835.788	2990
835.926	2838
836.064	2777
836.202	2815
836.34	3070
836.478	3085
836.615	3062
836.753	3089
836.891	3169
837.029	3150
837.167	3127
837.305	3017
837.443	3043
837.58	3001
837.718	3112
837.856	3055
837.993	3047
838.131	3135
838.269	3058
838.406	3138
838.544	3081
838.681	2922
838.819	2876
838.956	2838
839.094	2830
839.231	2887
839.369	3024
839.506	3374
839.643	3195
839.781	2994
839.918	2986
840.055	3028
840.193	3020
840.33	3051
840.467	3097
840.604	3112
840.742	3386
840.879	3020
841.016	3032
841.153	3135
841.29	3310
841.427	3287
841.564	3241
841.701	3268
841.838	3165
841.975	3165
842.112	3199
842.249	3108
842.385	3043
842.522	3211
842.659	3108
842.796	3047
842.933	3097
843.069	3047
843.206	2986
843.343	3192
843.479	3085
843.616	3135
843.752	2868
843.889	2864
844.025	3043
844.162	2849
844.298	3085
844.435	2929
844.571	2914
844.708	3089
844.844	3173
844.98	3249
845.117	3173
845.253	3066
845.389	2990
845.525	3074
845.661	3104
845.798	2994
845.934	3116
846.07	3036
846.206	3211
846.342	3279
846.478	3230
846.614	3066
846.75	3093
846.886	2982
847.022	3207
847.158	3142
847.294	3176
847.429	3222
847.565	3207
847.701	3469
847.837	3032
847.972	2998
848.108	3131
848.244	3123
848.379	2971
848.515	2963
848.65	2941
848.786	2963
848.921	3017
849.057	3081
849.192	3150
849.328	3032
849.463	3070
849.598	3062
849.734	3058
849.869	3005
850.004	2922
850.14	2941
850.275	2910
850.41	2864
850.545	2906
850.68	2963
850.815	2960
850.95	3001
851.085	3199
851.22	3100
851.355	3020
851.49	2944
851.625	2998
851.76	3047
851.895	2929
852.03	2914
852.165	3020
852.299	3100
852.434	3214
852.569	3131
852.703	3199
852.838	3222
852.973	3306
853.107	3313
853.242	3100
853.376	3104
853.511	2967
853.645	3036
853.78	3214
853.914	3104
854.048	3104
854.183	3055
854.317	3146
854.451	3302
854.585	3116
854.72	3108
854.854	3195
854.988	3039
855.122	3047
855.256	3009
855.39	3127
855.524	3222
855.658	3169
855.792	3135
855.926	3230
856.06	3249
856.194	3249
856.327	3131
856.461	3058
856.595	3066
856.729	3043
856.862	3230
856.996	3131
857.13	3176
857.263	3161
857.397	3253
857.53	3123
857.664	3173
857.797	3218
857.931	3214
858.064	3146
858.197	3230
858.331	3127
858.464	3093
858.597	3017
858.731	3093
858.864	3135
858.997	3081
859.13	3169
859.263	3180
859.396	3192
859.529	3070
859.662	3047
859.795	3032
859.928	3150
860.061	3302
860.194	3317
860.327	3085
860.46	3093
860.592	3214
860.725	3203
860.858	3237
860.99	3123
861.123	3051
861.256	3020
861.388	3142
861.521	3869
861.653	3039
861.786	2982
861.918	2998
862.05	3051
862.183	3116
862.315	3142
862.447	3195
862.58	3043
862.712	2933
862.844	2861
862.976	3024
863.108	2979
863.24	3310
863.372	2872
863.504	2960
863.636	2906
863.768	3051
863.9	2971
864.032	2902
864.164	2922
864.296	3001
864.428	3062
864.559	3150
864.691	3100
864.823	3020
864.954	3009
865.086	3028
865.217	2967
865.349	2944
865.48	2963
865.612	3001
865.743	3119
865.875	3017
866.006	2944
866.137	2963
866.269	2956
866.4	2967
866.531	2861
866.662	2880
866.793	2895
866.924	2880
867.055	2956
867.186	2895
867.317	2842
867.448	2815
867.579	2834
867.71	2864
867.841	2826
867.972	2864
868.103	2880
868.233	2826
868.364	2845
868.495	2891
868.625	3077
868.756	3131
868.886	2998
869.017	3032
869.147	3150
869.278	3176
869.408	3051
869.539	3013
869.669	3104
869.799	3017
869.929	3108
870.06	3074
870.19	3302
870.32	3279
870.45	3294
870.58	3355
870.71	3450
870.84	3469
870.97	3222
871.1	3256
871.23	3485
871.36	3466
871.489	3378
871.619	3382
871.749	3431
871.879	3462
872.008	3462
872.138	3351
872.267	3256
872.397	3154
872.526	3100
872.656	2986
872.785	3123
872.915	3226
873.044	3325
873.173	3195
873.303	3253
873.432	3272
873.561	3237
873.69	3173
873.819	3142
873.948	3176
874.077	3089
874.206	3009
874.335	3074
874.464	3226
874.593	3370
874.722	3237
874.851	3344
874.979	3367
875.108	3355
875.237	3230
875.365	3154
875.494	3176
875.623	3192
875.751	3036
875.88	3112
876.008	3192
876.136	3214
876.265	3359
876.393	3507
876.521	3439
876.65	3389
876.778	3302
876.906	3226
877.034	3184
877.162	3226
877.29	3199
877.418	3241
877.546	3241
877.674	3249
877.802	3233
877.93	3203
878.058	3135
878.185	3074
878.313	3233
878.441	3203
878.568	3097
878.696	3123
878.824	3272
878.951	3302
879.079	3428
879.206	3637
879.333	3447
879.461	3344
879.588	3374
879.715	3481
879.842	3587
879.97	3363
880.097	3142
880.224	3135
880.351	3188
880.478	3192
880.605	3214
880.732	3180
880.859	3500
880.986	3302
881.112	3268
881.239	3150
881.366	3085
881.493	3032
881.619	3005
881.746	3028
881.872	3112
881.999	3100
882.125	3142
882.252	3253
882.378	3302
882.505	3416
882.631	3249
882.757	3157
882.883	3226
883.01	3245
883.136	3176
883.262	3093
883.388	3127
883.514	3325
883.64	3378
883.766	3260
883.892	3195
884.018	3245
884.143	3405
884.269	3534
884.395	3199
884.52	3150
884.646	3184
884.772	3138
884.897	3116
885.023	3211
885.148	3340
885.274	3401
885.399	3370
885.524	3233
885.65	3233
885.775	3306
885.9	3291
886.025	3420
886.15	3370
886.275	3310
886.4	3233
886.525	3275
886.65	3291
886.775	3268
886.9	3477
887.025	3606
887.149	3409
887.274	3214
887.399	3192
887.523	3199
887.648	3180
887.773	3218
887.897	3332
888.021	3370
888.146	3302
888.27	3439
888.395	3519
888.519	3412
888.643	3458
888.767	3428
888.891	3332
889.015	3253
889.139	3302
889.263	3275
889.387	3412
889.511	3485
889.635	3435
889.759	3306
889.883	3336
890.006	3359
890.13	3492
890.254	3230
890.377	3351
890.501	3176
890.624	3169
890.748	3313
890.871	3176
890.995	3104
891.118	3058
891.241	3237
891.364	3218
891.488	3313
891.611	3211
891.734	3211
891.857	3283
891.98	3245
892.103	3310
892.226	3321
892.349	3226
892.471	3097
892.594	3233
892.717	3302
892.839	3283
892.962	3287
893.085	3329
893.207	3325
893.33	3146
893.452	3173
893.575	3306
893.697	3237
893.819	3466
893.941	3466
894.064	3450
894.186	3279
894.308	3218
894.43	3416
894.552	3485
894.674	3469
894.796	3283
894.918	3336
895.04	3279
895.161	3431
895.283	3401
895.405	3329
895.526	3332
895.648	3420
895.769	3382
895.891	3420
896.012	3488
896.134	3466
896.255	3405
896.376	3393
896.498	3340
896.619	3409
896.74	3370
896.861	3412
896.982	3675
897.103	3831
897.224	3584
897.345	3507
897.466	3420
897.587	3519
897.708	3633
897.828	3545
897.949	3447
898.07	3332
898.19	3435
898.311	3606
898.431	3469
898.552	3481
898.672	3580
898.792	3561
898.913	3466
899.033	3363
899.153	3279
899.273	3203
899.393	3264
899.513	3321
899.633	3302
899.753	3313
899.873	3298
899.993	3329
900.113	3317
900.232	3382
900.352	3317
900.472	3283
900.591	3195
900.711	3260
900.83	3199
900.95	3401
901.069	3488
901.189	3355
901.308	3176
901.427	3100
901.546	3192
901.665	3253
901.784	3329
901.904	3203
902.023	3165
902.141	3051
902.26	2990
902.379	3157
902.498	3058
902.617	3051
902.735	3233
902.854	3241
902.973	3226
903.091	3020
903.21	3013
903.328	3150
903.446	3093
903.565	3108
903.683	3203
903.801	3104
903.919	3249
904.038	3310
904.156	3161
904.274	3279
904.392	3291
904.51	3302
904.627	3329
904.745	3481
904.863	3496
904.981	3207
905.098	3154
905.216	3203
905.334	3260
905.451	3332
905.569	3325
905.686	3416
905.803	3447
905.921	3317
906.038	3435
906.155	3325
906.272	3291
906.389	3310
906.506	3218
906.623	3237
906.74	3279
906.857	3199
906.974	3256
907.091	3450
907.208	3580
907.324	3511
907.441	3405
907.557	3199
907.674	3199
907.79	3188
907.907	3298
908.023	3378
908.139	3389
908.256	3351
908.372	3359
908.488	3348
908.604	3226
908.72	3222
908.836	3268
908.952	3272
909.068	3355
909.184	3477
909.3	3409
909.415	3496
909.531	3488
909.647	3237
909.762	3302
909.878	3218
909.993	3340
910.108	3317
910.224	3336
910.339	3416
910.454	3287
910.57	3329
910.685	3256
910.8	3549
910.915	3511
911.03	3389
911.145	3256
911.259	3260
911.374	3306
911.489	3268
911.604	3230
911.718	3081
911.833	3154
911.947	3055
912.062	3009
912.176	3161
912.291	3173
912.405	3207
912.519	3439
912.633	3462
912.748	3329
912.862	3256
912.976	3169
913.09	3039
913.204	3157
913.318	3195
913.431	3313
913.545	3336
913.659	3439
913.772	3306
913.886	3233
914	3203
914.113	3401
914.226	3393
914.34	3367
914.453	3184
914.566	3424
914.68	3241
914.793	3256
914.906	3146
915.019	3138
915.132	3081
915.245	3154
915.358	3203
915.47	3180
915.583	3222
915.696	3279
915.809	3397
915.921	3416
916.034	3249
916.146	3249
916.259	3237
916.371	3370
916.483	3378
916.595	3268
916.708	3340
916.82	3355
916.932	3340
917.044	3386
917.156	3325
917.268	3233
917.38	3279
917.491	3313
917.603	3359
917.715	3458
917.826	3477
917.938	3367
918.049	3249
918.161	3397
918.272	3599
918.384	3561
918.495	3450
918.606	3340
918.717	3256
918.828	3397
918.939	3386
919.05	3275
919.161	3370
919.272	3173
919.383	3245
919.494	3450
919.604	3660
919.715	3511
919.826	3351
919.936	3431
920.047	3587
920.157	3519
920.267	3728
920.378	3622
920.488	3542
920.598	3797
920.708	3911
920.818	3857
920.928	3808
921.038	4017
921.148	3956
921.258	3736
921.368	3641
921.477	3580
921.587	3515
921.697	3454
921.806	3629
921.916	3519
922.025	3344
922.134	3351
922.244	3272
922.353	3439
922.462	3249
922.571	3218
922.68	3127
922.789	3081
922.898	3142
923.007	3047
923.116	3199
923.224	3214
923.333	3192
923.442	3077
923.55	3070
923.659	3138
923.767	3161
923.876	3127
923.984	3275
924.092	3066
924.201	3146
924.309	3218
924.417	3222
924.525	3176
924.633	3245
924.741	3998
924.849	3070
924.956	3283
925.064	3146
925.172	3089
925.279	3112
925.387	3173
925.494	3169
925.602	3355
925.709	3332
925.816	3176
925.924	3279
926.031	3389
926.138	3340
926.245	3340
926.352	3245
926.459	3428
926.566	3458
926.673	3313
926.779	3226
926.886	3249
926.993	3157
927.099	3180
927.206	3097
927.312	3104
927.419	3226
927.525	3192
927.631	3264
927.737	3119
927.843	3116
927.95	2998
928.056	3131
928.162	3157
928.267	3279
928.373	3778
928.479	3294
928.585	3070
928.69	3218
928.796	3256
928.901	3138
929.007	3051
929.112	3188
929.218	3154
929.323	3135
929.428	3135
929.533	3340
929.638	3154
929.743	3165
929.848	3268
929.953	3237
930.058	3123
930.163	3005
930.267	3062
930.372	3268
930.477	3032
930.581	3310
930.685	3192
930.79	3043
930.894	3112
930.998	3066
931.103	3283
931.207	2960
931.311	2963
931.415	2910
931.519	2781
931.623	2804
