Data from test_V78500241_62.txt Node
Date: Fri Mar 25 16:15:38 CST 2022
User: usil
Spectrometer: V785-0024
Trigger mode: 0
Integration Time (sec): 4.000000E-1
Scans to average: 1
Nonlinearity correction enabled: false
Boxcar width: 0
Storing dark spectrum: false
XAxis mode: Wavelengths
Number of Pixels in Spectrum: 1024
>>>>>Begin Spectral Data<<<<<
801.071	2933
801.214	2986
801.356	2880
801.499	2914
801.641	2914
801.783	2937
801.926	3085
802.068	2975
802.211	3055
802.353	3036
802.496	2986
802.638	3047
802.78	3081
802.923	3135
803.065	3043
803.208	2910
803.35	2963
803.492	2948
803.635	2971
803.777	2804
803.919	2842
804.061	3233
804.204	2922
804.346	2956
804.488	2872
804.63	3013
804.773	2918
804.915	2948
805.057	3119
805.199	2941
805.341	2975
805.483	3047
805.626	2998
805.768	2979
805.91	3150
806.052	3131
806.194	3017
806.336	3275
806.478	3062
806.62	2986
806.762	3005
806.904	3108
807.046	3214
807.188	2986
807.33	2967
807.472	3051
807.614	2937
807.756	3009
807.898	2937
808.04	2922
808.182	3028
808.324	2994
808.465	2941
808.607	2910
808.749	2815
808.891	2857
809.033	3055
809.174	2979
809.316	2922
809.458	2925
809.6	2804
809.741	2796
809.883	2796
810.025	2861
810.166	2880
810.308	2880
810.45	2887
810.591	2788
810.733	2766
810.875	2872
811.016	2792
811.158	2807
811.299	2853
811.441	2922
811.582	2914
811.724	2845
811.865	2823
812.007	2971
812.148	2902
812.29	2933
812.431	2895
812.573	2971
812.714	3005
812.855	3100
812.997	3085
813.138	3119
813.279	3001
813.421	3013
813.562	2982
813.703	2895
813.845	2941
813.986	2842
814.127	2777
814.268	2868
814.41	2845
814.551	2853
814.692	2864
814.833	2853
814.974	2922
815.115	3009
815.256	2868
815.397	2845
815.539	2891
815.68	2804
815.821	2804
815.962	2971
816.103	2941
816.244	2902
816.385	2933
816.526	2971
816.666	2922
816.807	2758
816.948	2952
817.089	2944
817.23	2891
817.371	2804
817.512	2815
817.653	2842
817.793	2864
817.934	2944
818.075	3001
818.216	2990
818.356	3051
818.497	2895
818.638	2838
818.778	2845
818.919	2807
819.06	2807
819.2	2929
819.341	2807
819.481	2845
819.622	3001
819.762	3150
819.903	3116
820.043	2937
820.184	2906
820.324	2944
820.465	3013
820.605	3039
820.746	3066
820.886	2922
821.026	3123
821.167	3199
821.307	3279
821.447	3306
821.588	3275
821.728	3249
821.868	3245
822.008	3081
822.149	3233
822.289	3310
822.429	3100
822.569	3089
822.709	3218
822.849	3062
822.99	3108
823.13	3154
823.27	3264
823.41	3154
823.55	3161
823.69	3165
823.83	3188
823.97	3119
824.11	3062
824.25	3036
824.389	3089
824.529	3138
824.669	3074
824.809	3253
824.949	3279
825.089	3226
825.228	3192
825.368	3070
825.508	2979
825.648	2975
825.787	3043
825.927	3062
826.067	2963
826.206	2937
826.346	3085
826.485	3089
826.625	3169
826.765	3272
826.904	3233
827.044	3005
827.183	2941
827.323	2895
827.462	3043
827.601	2956
827.741	2967
827.88	3009
828.02	2891
828.159	2979
828.298	3108
828.437	3138
828.577	3051
828.716	3291
828.855	3123
828.994	2929
829.134	2880
829.273	2937
829.412	2883
829.551	2891
829.69	2906
829.829	2971
829.968	3138
830.107	3074
830.246	3039
830.385	2944
830.524	2899
830.663	2826
830.802	2758
830.941	2682
831.08	2644
831.219	2796
831.357	2796
831.496	2963
831.635	2754
831.774	2667
831.913	2674
832.051	2568
832.19	2621
832.329	2701
832.467	2602
832.606	2495
832.744	2594
832.883	2606
833.022	2644
833.16	2678
833.299	2716
833.437	2712
833.576	2708
833.714	2743
833.852	2731
833.991	2792
834.129	2853
834.267	2845
834.406	2811
834.544	2849
834.682	2914
834.821	2864
834.959	3093
835.097	2906
835.235	3104
835.373	3028
835.511	3047
835.65	3013
835.788	2963
835.926	2830
836.064	2842
836.202	2826
836.34	3131
836.478	3203
836.615	3066
836.753	3184
836.891	3237
837.029	3203
837.167	3123
837.305	3085
837.443	3131
837.58	2982
837.718	3173
837.856	3085
837.993	3070
838.131	3138
838.269	3116
838.406	3116
838.544	3123
838.681	2933
838.819	2948
838.956	2826
839.094	2864
839.231	2952
839.369	3058
839.506	3416
839.643	3268
839.781	3020
839.918	2963
840.055	3104
840.193	3093
840.33	3100
840.467	3123
840.604	3169
840.742	3412
840.879	3104
841.016	3062
841.153	3127
841.29	3363
841.427	3291
841.564	3306
841.701	3344
841.838	3260
841.975	3207
842.112	3268
842.249	3123
842.385	3081
842.522	3321
842.659	3135
842.796	3081
842.933	3135
843.069	3085
843.206	3062
843.343	3192
843.479	3161
843.616	3176
843.752	2906
843.889	2880
844.025	3081
844.162	2899
844.298	3131
844.435	2967
844.571	2922
844.708	3119
844.844	3222
844.98	3260
845.117	3245
845.253	3039
845.389	3020
845.525	3116
845.661	3123
845.798	2982
845.934	3161
846.07	3066
846.206	3291
846.342	3340
846.478	3306
846.614	3127
846.75	3085
846.886	3085
847.022	3260
847.158	3142
847.294	3218
847.429	3275
847.565	3245
847.701	3572
847.837	3039
847.972	3036
848.108	3180
848.244	3188
848.379	3024
848.515	2967
848.65	2944
848.786	2975
848.921	3017
849.057	3157
849.192	3180
849.328	3108
849.463	3173
849.598	3116
849.734	3028
849.869	2990
850.004	2956
850.14	2982
850.275	2929
850.41	2864
850.545	2887
850.68	2956
850.815	2975
850.95	2971
851.085	3218
851.22	3123
851.355	3043
851.49	3036
851.625	2998
851.76	3055
851.895	2956
852.03	2937
852.165	3097
852.299	3165
852.434	3203
852.569	3203
852.703	3146
852.838	3279
852.973	3351
853.107	3370
853.242	3176
853.376	3108
853.511	2994
853.645	3074
853.78	3249
853.914	3150
854.048	3104
854.183	3104
854.317	3188
854.451	3321
854.585	3184
854.72	3131
854.854	3260
854.988	3116
855.122	3123
855.256	3028
855.39	3135
855.524	3272
855.658	3226
855.792	3192
855.926	3245
856.06	3249
856.194	3321
856.327	3199
856.461	3123
856.595	3104
856.729	3108
856.862	3237
856.996	3173
857.13	3222
857.263	3260
857.397	3283
857.53	3192
857.664	3233
857.797	3279
857.931	3253
858.064	3214
858.197	3233
858.331	3157
858.464	3108
858.597	3036
858.731	3142
858.864	3157
858.997	3150
859.13	3157
859.263	3199
859.396	3230
859.529	3138
859.662	3127
859.795	3070
859.928	3112
860.061	3279
860.194	3310
860.327	3104
860.46	3119
860.592	3264
860.725	3264
860.858	3332
860.99	3123
861.123	3055
861.256	3097
861.388	3192
861.521	3896
861.653	3043
861.786	2986
861.918	3024
862.05	3100
862.183	3100
862.315	3165
862.447	3241
862.58	3123
862.712	2979
862.844	2929
862.976	3032
863.108	3013
863.24	3321
863.372	2864
863.504	2967
863.636	2956
863.768	3055
863.9	3024
864.032	2914
864.164	2937
864.296	3009
864.428	3127
864.559	3116
864.691	3093
864.823	3097
864.954	3013
865.086	3036
865.217	3020
865.349	2975
865.48	3043
865.612	3058
865.743	3150
865.875	3001
866.006	2975
866.137	3024
866.269	2990
866.4	2967
866.531	2975
866.662	2937
866.793	2880
866.924	2960
867.055	2990
867.186	2956
867.317	2910
867.448	2842
867.579	2857
867.71	2883
867.841	2849
867.972	2910
868.103	2937
868.233	2895
868.364	2941
868.495	2963
868.625	3100
868.756	3203
868.886	2990
869.017	3039
869.147	3180
869.278	3199
869.408	3039
869.539	3055
869.669	3104
869.799	3093
869.929	3131
870.06	3142
870.19	3351
870.32	3310
870.45	3329
870.58	3401
870.71	3488
870.84	3485
870.97	3256
871.1	3268
871.23	3481
871.36	3485
871.489	3397
871.619	3454
871.749	3481
871.879	3458
872.008	3511
872.138	3405
872.267	3325
872.397	3192
872.526	3108
872.656	3024
872.785	3127
872.915	3245
873.044	3370
873.173	3233
873.303	3260
873.432	3245
873.561	3294
873.69	3203
873.819	3150
873.948	3180
874.077	3119
874.206	3039
874.335	3112
874.464	3211
874.593	3336
874.722	3275
874.851	3409
874.979	3386
875.108	3321
875.237	3218
875.365	3161
875.494	3211
875.623	3283
875.751	3104
875.88	3135
876.008	3218
876.136	3253
876.265	3416
876.393	3500
876.521	3477
876.65	3412
876.778	3370
876.906	3264
877.034	3218
877.162	3264
877.29	3199
877.418	3321
877.546	3268
877.674	3283
877.802	3264
877.93	3226
878.058	3169
878.185	3135
878.313	3260
878.441	3275
878.568	3093
878.696	3184
878.824	3325
878.951	3348
879.079	3477
879.206	3667
879.333	3469
879.461	3370
879.588	3386
879.715	3572
879.842	3652
879.97	3431
880.097	3241
880.224	3176
880.351	3253
880.478	3268
880.605	3272
880.732	3245
880.859	3526
880.986	3374
881.112	3431
881.239	3264
881.366	3161
881.493	3104
881.619	3093
881.746	3127
881.872	3142
881.999	3176
882.125	3233
882.252	3283
882.378	3386
882.505	3473
882.631	3313
882.757	3253
882.883	3298
883.01	3294
883.136	3256
883.262	3161
883.388	3211
883.514	3378
883.64	3450
883.766	3393
883.892	3298
884.018	3294
884.143	3530
884.269	3652
884.395	3287
884.52	3249
884.646	3245
884.772	3203
884.897	3192
885.023	3279
885.148	3374
885.274	3504
885.399	3424
885.524	3359
885.65	3359
885.775	3389
885.9	3393
886.025	3564
886.15	3412
886.275	3367
886.4	3291
886.525	3386
886.65	3355
886.775	3351
886.9	3572
887.025	3705
887.149	3477
887.274	3332
887.399	3279
887.523	3287
887.648	3218
887.773	3268
887.897	3450
888.021	3477
888.146	3397
888.27	3553
888.395	3610
888.519	3500
888.643	3488
888.767	3519
888.891	3382
889.015	3344
889.139	3336
889.263	3325
889.387	3496
889.511	3580
889.635	3545
889.759	3370
889.883	3363
890.006	3450
890.13	3572
890.254	3378
890.377	3397
890.501	3287
890.624	3253
890.748	3370
890.871	3268
890.995	3184
891.118	3135
891.241	3287
891.364	3344
891.488	3393
891.611	3275
891.734	3287
891.857	3355
891.98	3302
892.103	3355
892.226	3370
892.349	3332
892.471	3211
892.594	3344
892.717	3378
892.839	3329
892.962	3344
893.085	3435
893.207	3344
893.33	3222
893.452	3279
893.575	3393
893.697	3310
893.819	3534
893.941	3599
894.064	3553
894.186	3298
894.308	3321
894.43	3523
894.552	3641
894.674	3511
894.796	3336
894.918	3420
895.04	3344
895.161	3488
895.283	3450
895.405	3351
895.526	3450
895.648	3523
895.769	3485
895.891	3523
896.012	3526
896.134	3553
896.255	3450
896.376	3450
896.498	3424
896.619	3530
896.74	3401
896.861	3485
896.982	3720
897.103	3934
897.224	3686
897.345	3618
897.466	3526
897.587	3515
897.708	3663
897.828	3622
897.949	3504
898.07	3405
898.19	3504
898.311	3682
898.431	3534
898.552	3591
898.672	3652
898.792	3675
898.913	3584
899.033	3496
899.153	3325
899.273	3283
899.393	3348
899.513	3393
899.633	3386
899.753	3397
899.873	3405
899.993	3466
900.113	3393
900.232	3466
900.352	3412
900.472	3332
900.591	3245
900.711	3340
900.83	3306
900.95	3469
901.069	3587
901.189	3420
901.308	3230
901.427	3241
901.546	3264
901.665	3351
901.784	3420
901.904	3313
902.023	3195
902.141	3093
902.26	3089
902.379	3214
902.498	3154
902.617	3119
902.735	3260
902.854	3313
902.973	3279
903.091	3131
903.21	3119
903.328	3214
903.446	3237
903.565	3169
903.683	3302
903.801	3214
903.919	3279
904.038	3367
904.156	3226
904.274	3363
904.392	3313
904.51	3363
904.627	3435
904.745	3511
904.863	3629
904.981	3420
905.098	3264
905.216	3306
905.334	3389
905.451	3355
905.569	3374
905.686	3496
905.803	3549
905.921	3374
906.038	3481
906.155	3424
906.272	3329
906.389	3405
906.506	3306
906.623	3294
906.74	3340
906.857	3233
906.974	3275
907.091	3519
907.208	3656
907.324	3538
907.441	3450
907.557	3298
907.674	3302
907.79	3336
907.907	3344
908.023	3431
908.139	3450
908.256	3428
908.372	3431
908.488	3412
908.604	3332
908.72	3310
908.836	3374
908.952	3351
909.068	3439
909.184	3549
909.3	3473
909.415	3568
909.531	3553
909.647	3386
909.762	3344
909.878	3310
909.993	3420
910.108	3428
910.224	3386
910.339	3477
910.454	3409
910.57	3370
910.685	3291
910.8	3675
910.915	3584
911.03	3511
911.145	3329
911.259	3348
911.374	3401
911.489	3317
911.604	3291
911.718	3195
911.833	3245
911.947	3100
912.062	3009
912.176	3192
912.291	3233
912.405	3310
912.519	3477
912.633	3545
912.748	3409
912.862	3344
912.976	3230
913.09	3119
913.204	3214
913.318	3291
913.431	3397
913.545	3393
913.659	3504
913.772	3428
913.886	3291
914	3264
914.113	3420
914.226	3469
914.34	3439
914.453	3256
914.566	3462
914.68	3370
914.793	3389
914.906	3211
915.019	3173
915.132	3157
915.245	3211
915.358	3268
915.47	3279
915.583	3336
915.696	3332
915.809	3447
915.921	3488
916.034	3336
916.146	3264
916.259	3279
916.371	3488
916.483	3458
916.595	3317
916.708	3386
916.82	3435
916.932	3416
917.044	3431
917.156	3428
917.268	3275
917.38	3367
917.491	3344
917.603	3477
917.715	3485
917.826	3485
917.938	3431
918.049	3370
918.161	3496
918.272	3656
918.384	3660
918.495	3591
918.606	3420
918.717	3348
918.828	3428
918.939	3469
919.05	3363
919.161	3454
919.272	3256
919.383	3336
919.494	3568
919.604	3705
919.715	3526
919.826	3435
919.936	3515
920.047	3614
920.157	3618
920.267	3857
920.378	3675
920.488	3603
920.598	3861
920.708	4006
920.818	3926
920.928	3918
921.038	4063
921.148	4021
921.258	3751
921.368	3656
921.477	3622
921.587	3568
921.697	3519
921.806	3698
921.916	3610
922.025	3412
922.134	3439
922.244	3382
922.353	3431
922.462	3344
922.571	3237
922.68	3157
922.789	3157
922.898	3203
923.007	3188
923.116	3264
923.224	3222
923.333	3253
923.442	3142
923.55	3146
923.659	3173
923.767	3260
923.876	3211
923.984	3272
924.092	3142
924.201	3260
924.309	3298
924.417	3336
924.525	3233
924.633	3291
924.741	4249
924.849	3119
924.956	3313
925.064	3146
925.172	3116
925.279	3150
925.387	3268
925.494	3268
925.602	3420
925.709	3401
925.816	3230
925.924	3332
926.031	3439
926.138	3382
926.245	3420
926.352	3317
926.459	3485
926.566	3542
926.673	3416
926.779	3351
926.886	3283
926.993	3207
927.099	3199
927.206	3123
927.312	3157
927.419	3310
927.525	3241
927.631	3321
927.737	3173
927.843	3176
927.95	3116
928.056	3169
928.162	3253
928.267	3317
928.373	3896
928.479	3351
928.585	3112
928.69	3264
928.796	3325
928.901	3214
929.007	3112
929.112	3256
929.218	3245
929.323	3214
929.428	3199
929.533	3351
929.638	3154
929.743	3214
929.848	3325
929.953	3249
930.058	3211
930.163	3077
930.267	3108
930.372	3253
930.477	3055
930.581	3355
930.685	3233
930.79	3112
930.894	3157
930.998	3192
931.103	3317
931.207	2990
931.311	2956
931.415	2982
931.519	2853
931.623	2872
