Data from test_V78500241_1753.txt Node
Date: Fri Mar 25 16:27:20 CST 2022
User: usil
Spectrometer: V785-0024
Trigger mode: 0
Integration Time (sec): 4.000000E-1
Scans to average: 1
Nonlinearity correction enabled: false
Boxcar width: 0
Storing dark spectrum: false
XAxis mode: Wavelengths
Number of Pixels in Spectrum: 1024
>>>>>Begin Spectral Data<<<<<
801.071	2902
801.214	2925
801.356	2864
801.499	2933
801.641	2891
801.783	2948
801.926	3081
802.068	2979
802.211	2975
802.353	2994
802.496	2948
802.638	3024
802.78	3020
802.923	3058
803.065	3013
803.208	2887
803.35	2906
803.492	2925
803.635	2941
803.777	2762
803.919	2868
804.061	3173
804.204	2887
804.346	2880
804.488	2834
804.63	2960
804.773	2883
804.915	2883
805.057	3070
805.199	2944
805.341	2990
805.483	3032
805.626	2994
805.768	2944
805.91	3081
806.052	3116
806.194	3001
806.336	3226
806.478	3028
806.62	2929
806.762	2979
806.904	3039
807.046	3154
807.188	2963
807.33	2868
807.472	2986
807.614	2914
807.756	2982
807.898	2918
808.04	2899
808.182	2963
808.324	2963
808.465	2872
808.607	2868
808.749	2781
808.891	2853
809.033	2963
809.174	2956
809.316	2883
809.458	2910
809.6	2792
809.741	2762
809.883	2739
810.025	2872
810.166	2845
810.308	2807
810.45	2842
810.591	2777
810.733	2746
810.875	2838
811.016	2766
811.158	2724
811.299	2830
811.441	2937
811.582	2914
811.724	2826
811.865	2785
812.007	2899
812.148	2899
812.29	2826
812.431	2891
812.573	2941
812.714	2975
812.855	2998
812.997	2994
813.138	3116
813.279	2994
813.421	2990
813.562	2975
813.703	2853
813.845	2876
813.986	2735
814.127	2708
814.268	2804
814.41	2853
814.551	2830
814.692	2845
814.833	2788
814.974	2906
815.115	2937
815.256	2826
815.397	2815
815.539	2849
815.68	2766
815.821	2826
815.962	2960
816.103	2929
816.244	2864
816.385	2899
816.526	2937
816.666	2914
816.807	2743
816.948	2895
817.089	2876
817.23	2849
817.371	2788
817.512	2811
817.653	2826
817.793	2811
817.934	2864
818.075	2960
818.216	3017
818.356	3017
818.497	2857
818.638	2785
818.778	2811
818.919	2785
819.06	2739
819.2	2864
819.341	2800
819.481	2815
819.622	2925
819.762	3085
819.903	3020
820.043	2933
820.184	2914
820.324	2872
820.465	3009
820.605	3032
820.746	2994
820.886	2918
821.026	3108
821.167	3150
821.307	3291
821.447	3310
821.588	3245
821.728	3207
821.868	3195
822.008	3093
822.149	3154
822.289	3222
822.429	3058
822.569	3062
822.709	3157
822.849	3001
822.99	3024
823.13	3157
823.27	3214
823.41	3093
823.55	3116
823.69	3135
823.83	3169
823.97	3070
824.11	3001
824.25	2994
824.389	3062
824.529	3058
824.669	3085
824.809	3138
824.949	3230
825.089	3233
825.228	3150
825.368	2982
825.508	2956
825.648	2922
825.787	3013
825.927	2990
826.067	2990
826.206	2963
826.346	3036
826.485	3093
826.625	3112
826.765	3233
826.904	3218
827.044	2960
827.183	2910
827.323	2864
827.462	2967
827.601	2925
827.741	2914
827.88	2979
828.02	2857
828.159	2967
828.298	3028
828.437	3127
828.577	3032
828.716	3230
828.855	3081
828.994	2883
829.134	2872
829.273	2914
829.412	2857
829.551	2830
829.69	2887
829.829	2986
829.968	3081
830.107	2994
830.246	3036
830.385	2868
830.524	2845
830.663	2788
830.802	2727
830.941	2621
831.08	2636
831.219	2769
831.357	2758
831.496	2925
831.635	2682
831.774	2613
831.913	2651
832.051	2537
832.19	2545
832.329	2674
832.467	2507
832.606	2495
832.744	2549
832.883	2549
833.022	2568
833.16	2648
833.299	2682
833.437	2663
833.576	2670
833.714	2746
833.852	2693
833.991	2746
834.129	2868
834.267	2807
834.406	2811
834.544	2887
834.682	2853
834.821	2830
834.959	3020
835.097	2902
835.235	3036
835.373	3001
835.511	2971
835.65	2925
835.788	2960
835.926	2838
836.064	2826
836.202	2815
836.34	3062
836.478	3169
836.615	3036
836.753	3127
836.891	3195
837.029	3157
837.167	3089
837.305	3089
837.443	3039
837.58	2944
837.718	3119
837.856	3089
837.993	3001
838.131	3112
838.269	3108
838.406	3077
838.544	3051
838.681	2937
838.819	2880
838.956	2788
839.094	2800
839.231	2918
839.369	3043
839.506	3370
839.643	3173
839.781	2998
839.918	2952
840.055	3058
840.193	3055
840.33	3051
840.467	3077
840.604	3138
840.742	3382
840.879	3055
841.016	3017
841.153	3100
841.29	3313
841.427	3294
841.564	3230
841.701	3317
841.838	3214
841.975	3150
842.112	3188
842.249	3047
842.385	3039
842.522	3214
842.659	3104
842.796	3058
842.933	3127
843.069	3028
843.206	3039
843.343	3169
843.479	3077
843.616	3150
843.752	2891
843.889	2857
844.025	2998
844.162	2899
844.298	3074
844.435	2876
844.571	2883
844.708	3081
844.844	3142
844.98	3195
845.117	3192
845.253	3077
845.389	2975
845.525	3081
845.661	3108
845.798	2952
845.934	3093
846.07	3024
846.206	3188
846.342	3332
846.478	3192
846.614	3066
846.75	3024
846.886	2967
847.022	3203
847.158	3081
847.294	3146
847.429	3188
847.565	3184
847.701	3485
847.837	3039
847.972	2971
848.108	3127
848.244	3112
848.379	2956
848.515	2986
848.65	2906
848.786	2979
848.921	3005
849.057	3077
849.192	3142
849.328	3017
849.463	3119
849.598	3085
849.734	3017
849.869	2922
850.004	2864
850.14	2925
850.275	2902
850.41	2838
850.545	2830
850.68	2906
850.815	2918
850.95	2925
851.085	3165
851.22	3085
851.355	3017
851.49	2960
851.625	2971
851.76	3005
851.895	2918
852.03	2891
852.165	3036
852.299	3085
852.434	3154
852.569	3093
852.703	3131
852.838	3279
852.973	3355
853.107	3317
853.242	3138
853.376	3081
853.511	2944
853.645	3028
853.78	3226
853.914	3127
854.048	3066
854.183	3036
854.317	3135
854.451	3256
854.585	3131
854.72	3089
854.854	3211
854.988	3017
855.122	3077
855.256	2956
855.39	3112
855.524	3256
855.658	3188
855.792	3150
855.926	3211
856.06	3279
856.194	3306
856.327	3142
856.461	3100
856.595	3093
856.729	3116
856.862	3237
856.996	3173
857.13	3207
857.263	3218
857.397	3268
857.53	3097
857.664	3237
857.797	3249
857.931	3272
858.064	3203
858.197	3237
858.331	3154
858.464	3112
858.597	3017
858.731	3131
858.864	3188
858.997	3146
859.13	3195
859.263	3188
859.396	3222
859.529	3142
859.662	3100
859.795	3089
859.928	3184
860.061	3344
860.194	3310
860.327	3165
860.46	3150
860.592	3226
860.725	3256
860.858	3287
860.99	3165
861.123	3055
861.256	3112
861.388	3192
861.521	3956
861.653	3058
861.786	3036
861.918	3036
862.05	3089
862.183	3146
862.315	3188
862.447	3218
862.58	3154
862.712	2986
862.844	2902
862.976	3070
863.108	3047
863.24	3340
863.372	2887
863.504	3009
863.636	2971
863.768	3070
863.9	3005
864.032	2979
864.164	2994
864.296	3055
864.428	3135
864.559	3161
864.691	3116
864.823	3081
864.954	3085
865.086	3066
865.217	3028
865.349	2982
865.48	3051
865.612	3055
865.743	3199
865.875	2971
866.006	2990
866.137	3013
866.269	2979
866.4	2994
866.531	2971
866.662	2895
866.793	2960
866.924	2929
867.055	3013
867.186	2982
867.317	2925
867.448	2876
867.579	2906
867.71	2876
867.841	2868
867.972	2933
868.103	2960
868.233	2895
868.364	2937
868.495	2922
868.625	3089
868.756	3218
868.886	2986
869.017	3058
869.147	3195
869.278	3176
869.408	3039
869.539	3077
869.669	3119
869.799	3074
869.929	3184
870.06	3108
870.19	3348
870.32	3313
870.45	3344
870.58	3397
870.71	3500
870.84	3507
870.97	3302
871.1	3218
871.23	3507
871.36	3466
871.489	3382
871.619	3458
871.749	3443
871.879	3416
872.008	3473
872.138	3382
872.267	3294
872.397	3154
872.526	3142
872.656	3039
872.785	3112
872.915	3256
873.044	3355
873.173	3211
873.303	3291
873.432	3275
873.561	3241
873.69	3173
873.819	3157
873.948	3207
874.077	3131
874.206	3074
874.335	3066
874.464	3211
874.593	3363
874.722	3245
874.851	3405
874.979	3329
875.108	3336
875.237	3214
875.365	3188
875.494	3173
875.623	3264
875.751	3116
875.88	3154
876.008	3214
876.136	3256
876.265	3382
876.393	3564
876.521	3450
876.65	3431
876.778	3374
876.906	3230
877.034	3207
877.162	3294
877.29	3173
877.418	3279
877.546	3283
877.674	3268
877.802	3264
877.93	3253
878.058	3173
878.185	3127
878.313	3222
878.441	3222
878.568	3081
878.696	3184
878.824	3291
878.951	3313
879.079	3469
879.206	3656
879.333	3424
879.461	3344
879.588	3348
879.715	3538
879.842	3618
879.97	3401
880.097	3218
880.224	3138
880.351	3230
880.478	3249
880.605	3237
880.732	3211
880.859	3538
880.986	3374
881.112	3359
881.239	3233
881.366	3138
881.493	3062
881.619	3047
881.746	3104
881.872	3138
881.999	3135
882.125	3161
882.252	3283
882.378	3340
882.505	3443
882.631	3306
882.757	3211
882.883	3214
883.01	3249
883.136	3214
883.262	3135
883.388	3135
883.514	3355
883.64	3351
883.766	3325
883.892	3214
884.018	3279
884.143	3439
884.269	3584
884.395	3230
884.52	3184
884.646	3180
884.772	3188
884.897	3097
885.023	3245
885.148	3355
885.274	3458
885.399	3416
885.524	3291
885.65	3275
885.775	3336
885.9	3317
886.025	3450
886.15	3428
886.275	3294
886.4	3249
886.525	3291
886.65	3298
886.775	3302
886.9	3530
887.025	3663
887.149	3412
887.274	3256
887.399	3165
887.523	3233
887.648	3203
887.773	3207
887.897	3397
888.021	3416
888.146	3298
888.27	3462
888.395	3553
888.519	3428
888.643	3443
888.767	3466
888.891	3336
889.015	3268
889.139	3291
889.263	3279
889.387	3420
889.511	3538
889.635	3477
889.759	3306
889.883	3279
890.006	3439
890.13	3500
890.254	3302
890.377	3370
890.501	3226
890.624	3218
890.748	3351
890.871	3176
890.995	3112
891.118	3116
891.241	3218
891.364	3249
891.488	3370
891.611	3230
891.734	3207
891.857	3325
891.98	3279
892.103	3348
892.226	3294
892.349	3222
892.471	3131
892.594	3275
892.717	3306
892.839	3291
892.962	3348
893.085	3370
893.207	3298
893.33	3150
893.452	3211
893.575	3351
893.697	3230
893.819	3481
893.941	3488
894.064	3504
894.186	3253
894.308	3302
894.43	3477
894.552	3519
894.674	3492
894.796	3268
894.918	3329
895.04	3302
895.161	3447
895.283	3393
895.405	3313
895.526	3363
895.648	3477
895.769	3416
895.891	3500
896.012	3496
896.134	3519
896.255	3386
896.376	3424
896.498	3378
896.619	3424
896.74	3393
896.861	3412
896.982	3709
897.103	3861
897.224	3587
897.345	3534
897.466	3458
897.587	3542
897.708	3637
897.828	3595
897.949	3469
898.07	3340
898.19	3420
898.311	3625
898.431	3466
898.552	3530
898.672	3625
898.792	3572
898.913	3481
899.033	3450
899.153	3306
899.273	3226
899.393	3275
899.513	3332
899.633	3321
899.753	3359
899.873	3306
899.993	3397
900.113	3340
900.232	3389
900.352	3355
900.472	3336
900.591	3249
900.711	3294
900.83	3264
900.95	3466
901.069	3507
901.189	3389
901.308	3226
901.427	3165
901.546	3195
901.665	3317
901.784	3332
901.904	3249
902.023	3176
902.141	3108
902.26	3024
902.379	3142
902.498	3104
902.617	3085
902.735	3222
902.854	3218
902.973	3180
903.091	3070
903.21	3062
903.328	3157
903.446	3142
903.565	3127
903.683	3173
903.801	3097
903.919	3207
904.038	3287
904.156	3176
904.274	3287
904.392	3321
904.51	3291
904.627	3370
904.745	3496
904.863	3523
904.981	3256
905.098	3207
905.216	3226
905.334	3279
905.451	3340
905.569	3321
905.686	3466
905.803	3435
905.921	3336
906.038	3462
906.155	3382
906.272	3272
906.389	3382
906.506	3237
906.623	3253
906.74	3298
906.857	3214
906.974	3283
907.091	3466
907.208	3561
907.324	3515
907.441	3389
907.557	3226
907.674	3256
907.79	3180
907.907	3310
908.023	3363
908.139	3412
908.256	3340
908.372	3348
908.488	3401
908.604	3268
908.72	3249
908.836	3310
908.952	3325
909.068	3317
909.184	3511
909.3	3412
909.415	3542
909.531	3507
909.647	3329
909.762	3287
909.878	3279
909.993	3374
910.108	3393
910.224	3363
910.339	3424
910.454	3344
910.57	3313
910.685	3275
910.8	3637
910.915	3515
911.03	3469
911.145	3268
911.259	3279
911.374	3336
911.489	3264
911.604	3268
911.718	3135
911.833	3142
911.947	3066
912.062	3001
912.176	3142
912.291	3211
912.405	3241
912.519	3473
912.633	3504
912.748	3332
912.862	3279
912.976	3138
913.09	3047
913.204	3119
913.318	3233
913.431	3340
913.545	3348
913.659	3405
913.772	3336
913.886	3222
914	3241
914.113	3351
914.226	3374
914.34	3382
914.453	3214
914.566	3401
914.68	3302
914.793	3310
914.906	3154
915.019	3116
915.132	3062
915.245	3161
915.358	3218
915.47	3256
915.583	3264
915.696	3340
915.809	3416
915.921	3439
916.034	3241
916.146	3256
916.259	3256
916.371	3359
916.483	3412
916.595	3241
916.708	3386
916.82	3317
916.932	3367
917.044	3401
917.156	3393
917.268	3241
917.38	3294
917.491	3268
917.603	3378
917.715	3431
917.826	3500
917.938	3401
918.049	3306
918.161	3435
918.272	3580
918.384	3561
918.495	3496
918.606	3348
918.717	3294
918.828	3401
918.939	3458
919.05	3306
919.161	3439
919.272	3161
919.383	3294
919.494	3507
919.604	3717
919.715	3511
919.826	3424
919.936	3481
920.047	3568
920.157	3564
920.267	3766
920.378	3622
920.488	3542
920.598	3816
920.708	3972
920.818	3819
920.928	3823
921.038	4055
921.148	3968
921.258	3732
921.368	3610
921.477	3580
921.587	3507
921.697	3469
921.806	3587
921.916	3542
922.025	3374
922.134	3363
922.244	3321
922.353	3443
922.462	3275
922.571	3249
922.68	3112
922.789	3081
922.898	3154
923.007	3119
923.116	3241
923.224	3203
923.333	3237
923.442	3116
923.55	3100
923.659	3154
923.767	3237
923.876	3146
923.984	3256
924.092	3142
924.201	3230
924.309	3245
924.417	3275
924.525	3230
924.633	3260
924.741	4048
924.849	3131
924.956	3306
925.064	3157
925.172	3085
925.279	3127
925.387	3218
925.494	3207
925.602	3374
925.709	3367
925.816	3241
925.924	3332
926.031	3401
926.138	3386
926.245	3397
926.352	3279
926.459	3462
926.566	3530
926.673	3389
926.779	3306
926.886	3298
926.993	3199
927.099	3135
927.206	3165
927.312	3154
927.419	3302
927.525	3241
927.631	3317
927.737	3165
927.843	3199
927.95	3089
928.056	3154
928.162	3260
928.267	3302
928.373	3884
928.479	3336
928.585	3104
928.69	3291
928.796	3283
928.901	3222
929.007	3123
929.112	3264
929.218	3218
929.323	3184
929.428	3188
929.533	3313
929.638	3195
929.743	3203
929.848	3287
929.953	3294
930.058	3176
930.163	3032
930.267	3066
930.372	3253
930.477	3074
930.581	3359
930.685	3192
930.79	3097
930.894	3157
930.998	3116
931.103	3325
931.207	2990
931.311	2986
931.415	2971
931.519	2842
931.623	2834
