Data from test_V78500241_985.txt Node
Date: Fri Mar 25 16:22:01 CST 2022
User: usil
Spectrometer: V785-0024
Trigger mode: 0
Integration Time (sec): 4.000000E-1
Scans to average: 1
Nonlinearity correction enabled: false
Boxcar width: 0
Storing dark spectrum: false
XAxis mode: Wavelengths
Number of Pixels in Spectrum: 1024
>>>>>Begin Spectral Data<<<<<
801.071	2922
801.214	2960
801.356	2883
801.499	2883
801.641	2887
801.783	2952
801.926	3074
802.068	2986
802.211	3001
802.353	3032
802.496	2956
802.638	3039
802.78	3020
802.923	3089
803.065	3024
803.208	2933
803.35	2944
803.492	2929
803.635	2910
803.777	2769
803.919	2845
804.061	3180
804.204	2952
804.346	2918
804.488	2872
804.63	2979
804.773	2887
804.915	2914
805.057	3089
805.199	2944
805.341	2986
805.483	3043
805.626	3024
805.768	2975
805.91	3077
806.052	3119
806.194	3051
806.336	3249
806.478	3020
806.62	2960
806.762	2998
806.904	3055
807.046	3184
807.188	3005
807.33	2922
807.472	2990
807.614	2891
807.756	3001
807.898	2895
808.04	2883
808.182	2971
808.324	2971
808.465	2887
808.607	2876
808.749	2773
808.891	2861
809.033	3020
809.174	2982
809.316	2922
809.458	2895
809.6	2781
809.741	2792
809.883	2777
810.025	2853
810.166	2887
810.308	2868
810.45	2861
810.591	2796
810.733	2777
810.875	2842
811.016	2792
811.158	2758
811.299	2823
811.441	2952
811.582	2948
811.724	2838
811.865	2823
812.007	2933
812.148	2906
812.29	2845
812.431	2895
812.573	2941
812.714	2956
812.855	3013
812.997	3085
813.138	3146
813.279	3039
813.421	3005
813.562	2960
813.703	2857
813.845	2914
813.986	2785
814.127	2739
814.268	2834
814.41	2834
814.551	2807
814.692	2883
814.833	2842
814.974	2880
815.115	2971
815.256	2823
815.397	2800
815.539	2857
815.68	2792
815.821	2819
815.962	2918
816.103	2929
816.244	2864
816.385	2857
816.526	2956
816.666	2902
816.807	2712
816.948	2899
817.089	2933
817.23	2883
817.371	2785
817.512	2792
817.653	2872
817.793	2838
817.934	2895
818.075	2975
818.216	3001
818.356	3028
818.497	2880
818.638	2838
818.778	2819
818.919	2792
819.06	2781
819.2	2887
819.341	2807
819.481	2834
819.622	2891
819.762	3150
819.903	3062
820.043	2967
820.184	2910
820.324	2918
820.465	3024
820.605	3039
820.746	3043
820.886	2914
821.026	3070
821.167	3161
821.307	3283
821.447	3256
821.588	3233
821.728	3207
821.868	3192
822.008	3028
822.149	3188
822.289	3211
822.429	3051
822.569	3108
822.709	3199
822.849	3013
822.99	3047
823.13	3165
823.27	3192
823.41	3058
823.55	3146
823.69	3192
823.83	3176
823.97	3108
824.11	3001
824.25	2986
824.389	3058
824.529	3119
824.669	3058
824.809	3184
824.949	3226
825.089	3249
825.228	3150
825.368	3013
825.508	2956
825.648	2994
825.787	3013
825.927	2994
826.067	2967
826.206	2963
826.346	3055
826.485	3058
826.625	3104
826.765	3253
826.904	3214
827.044	2979
827.183	2899
827.323	2853
827.462	3009
827.601	2864
827.741	2948
827.88	2956
828.02	2861
828.159	2960
828.298	3036
828.437	3066
828.577	3055
828.716	3226
828.855	3089
828.994	2910
829.134	2910
829.273	2952
829.412	2876
829.551	2883
829.69	2914
829.829	2986
829.968	3146
830.107	2963
830.246	3013
830.385	2891
830.524	2902
830.663	2819
830.802	2712
830.941	2648
831.08	2636
831.219	2766
831.357	2766
831.496	2971
831.635	2739
831.774	2648
831.913	2655
832.051	2533
832.19	2568
832.329	2678
832.467	2545
832.606	2492
832.744	2602
832.883	2579
833.022	2602
833.16	2674
833.299	2701
833.437	2701
833.576	2670
833.714	2701
833.852	2712
833.991	2769
834.129	2857
834.267	2838
834.406	2792
834.544	2861
834.682	2895
834.821	2861
834.959	3058
835.097	2902
835.235	3043
835.373	2944
835.511	2998
835.65	2944
835.788	2963
835.926	2826
836.064	2804
836.202	2796
836.34	3097
836.478	3116
836.615	3024
836.753	3100
836.891	3211
837.029	3173
837.167	3085
837.305	3070
837.443	3055
837.58	2944
837.718	3112
837.856	3051
837.993	3051
838.131	3157
838.269	3135
838.406	3085
838.544	3077
838.681	2925
838.819	2925
838.956	2845
839.094	2819
839.231	2902
839.369	3055
839.506	3351
839.643	3184
839.781	3028
839.918	2941
840.055	3047
840.193	3036
840.33	3043
840.467	3119
840.604	3119
840.742	3431
840.879	3074
841.016	3066
841.153	3081
841.29	3325
841.427	3294
841.564	3214
841.701	3302
841.838	3203
841.975	3226
842.112	3207
842.249	3089
842.385	3039
842.522	3230
842.659	3077
842.796	3093
842.933	3093
843.069	3051
843.206	3005
843.343	3195
843.479	3066
843.616	3146
843.752	2880
843.889	2883
844.025	3039
844.162	2883
844.298	3074
844.435	2979
844.571	2952
844.708	3074
844.844	3207
844.98	3207
845.117	3199
845.253	3039
845.389	3005
845.525	3119
845.661	3127
845.798	3009
845.934	3085
846.07	3043
846.206	3214
846.342	3291
846.478	3230
846.614	3070
846.75	3066
846.886	3028
847.022	3241
847.158	3123
847.294	3226
847.429	3279
847.565	3165
847.701	3473
847.837	3081
847.972	3047
848.108	3142
848.244	3165
848.379	3009
848.515	2952
848.65	2910
848.786	2979
848.921	3001
849.057	3112
849.192	3123
849.328	3085
849.463	3108
849.598	3055
849.734	3009
849.869	2986
850.004	2887
850.14	2933
850.275	2906
850.41	2845
850.545	2876
850.68	2895
850.815	2937
850.95	2979
851.085	3203
851.22	3138
851.355	3039
851.49	2986
851.625	2956
851.76	2979
851.895	2910
852.03	2899
852.165	3055
852.299	3089
852.434	3176
852.569	3135
852.703	3184
852.838	3260
852.973	3302
853.107	3306
853.242	3165
853.376	3089
853.511	2971
853.645	3051
853.78	3237
853.914	3093
854.048	3142
854.183	3074
854.317	3154
854.451	3272
854.585	3150
854.72	3074
854.854	3184
854.988	3047
855.122	3085
855.256	2963
855.39	3085
855.524	3233
855.658	3165
855.792	3112
855.926	3176
856.06	3237
856.194	3260
856.327	3154
856.461	3089
856.595	3074
856.729	3058
856.862	3222
856.996	3150
857.13	3195
857.263	3222
857.397	3279
857.53	3131
857.664	3192
857.797	3207
857.931	3268
858.064	3142
858.197	3214
858.331	3127
858.464	3055
858.597	3005
858.731	3062
858.864	3123
858.997	3081
859.13	3154
859.263	3180
859.396	3192
859.529	3077
859.662	3036
859.795	3051
859.928	3127
860.061	3275
860.194	3264
860.327	3150
860.46	3093
860.592	3233
860.725	3253
860.858	3245
860.99	3032
861.123	3024
861.256	3043
861.388	3138
861.521	3827
861.653	3009
861.786	3013
861.918	3005
862.05	3051
862.183	3108
862.315	3093
862.447	3180
862.58	3058
862.712	2944
862.844	2887
862.976	3047
863.108	2998
863.24	3424
863.372	2861
863.504	2960
863.636	2937
863.768	3024
863.9	3001
864.032	2944
864.164	2956
864.296	2998
864.428	3062
864.559	3089
864.691	3055
864.823	3058
864.954	3005
865.086	3043
865.217	2967
865.349	2914
865.48	2960
865.612	2998
865.743	3157
865.875	2975
866.006	2941
866.137	2967
866.269	2933
866.4	2937
866.531	2933
866.662	2887
866.793	2872
866.924	2883
867.055	2960
867.186	2906
867.317	2899
867.448	2815
867.579	2868
867.71	2857
867.841	2800
867.972	2895
868.103	2899
868.233	2880
868.364	2849
868.495	2891
868.625	3017
868.756	3146
868.886	2979
869.017	3024
869.147	3131
869.278	3154
869.408	3043
869.539	3001
869.669	3077
869.799	3009
869.929	3146
870.06	3077
870.19	3294
870.32	3268
870.45	3268
870.58	3348
870.71	3420
870.84	3462
870.97	3275
871.1	3275
871.23	3500
871.36	3462
871.489	3367
871.619	3351
871.749	3386
871.879	3458
872.008	3481
872.138	3317
872.267	3279
872.397	3146
872.526	3089
872.656	3017
872.785	3070
872.915	3256
873.044	3294
873.173	3195
873.303	3230
873.432	3211
873.561	3237
873.69	3112
873.819	3154
873.948	3211
874.077	3100
874.206	3036
874.335	3062
874.464	3192
874.593	3348
874.722	3230
874.851	3382
874.979	3306
875.108	3291
875.237	3176
875.365	3161
875.494	3154
875.623	3253
875.751	3070
875.88	3119
876.008	3142
876.136	3192
876.265	3363
876.393	3492
876.521	3397
876.65	3370
876.778	3351
876.906	3245
877.034	3195
877.162	3192
877.29	3222
877.418	3279
877.546	3256
877.674	3279
877.802	3218
877.93	3203
878.058	3157
878.185	3097
878.313	3214
878.441	3237
878.568	3074
878.696	3123
878.824	3245
878.951	3279
879.079	3428
879.206	3641
879.333	3439
879.461	3283
879.588	3332
879.715	3462
879.842	3591
879.97	3382
880.097	3138
880.224	3112
880.351	3203
880.478	3188
880.605	3195
880.732	3192
880.859	3496
880.986	3302
881.112	3317
881.239	3161
881.366	3104
881.493	3028
881.619	3024
881.746	3047
881.872	3112
881.999	3100
882.125	3157
882.252	3249
882.378	3279
882.505	3420
882.631	3302
882.757	3150
882.883	3211
883.01	3237
883.136	3154
883.262	3097
883.388	3100
883.514	3374
883.64	3370
883.766	3287
883.892	3165
884.018	3249
884.143	3370
884.269	3553
884.395	3188
884.52	3157
884.646	3195
884.772	3100
884.897	3146
885.023	3233
885.148	3313
885.274	3389
885.399	3344
885.524	3268
885.65	3264
885.775	3340
885.9	3287
886.025	3458
886.15	3348
886.275	3279
886.4	3222
886.525	3291
886.65	3272
886.775	3245
886.9	3519
887.025	3610
887.149	3431
887.274	3222
887.399	3176
887.523	3226
887.648	3203
887.773	3142
887.897	3367
888.021	3401
888.146	3313
888.27	3412
888.395	3496
888.519	3393
888.643	3428
888.767	3477
888.891	3329
889.015	3245
889.139	3294
889.263	3268
889.387	3405
889.511	3496
889.635	3431
889.759	3279
889.883	3260
890.006	3389
890.13	3485
890.254	3272
890.377	3340
890.501	3203
890.624	3176
890.748	3268
890.871	3173
890.995	3116
891.118	3077
891.241	3207
891.364	3207
891.488	3344
891.611	3176
891.734	3245
891.857	3298
891.98	3264
892.103	3317
892.226	3275
892.349	3195
892.471	3123
892.594	3298
892.717	3287
892.839	3256
892.962	3283
893.085	3348
893.207	3294
893.33	3203
893.452	3161
893.575	3340
893.697	3283
893.819	3466
893.941	3485
894.064	3397
894.186	3272
894.308	3241
894.43	3435
894.552	3542
894.674	3485
894.796	3306
894.918	3302
895.04	3245
895.161	3389
895.283	3344
895.405	3313
895.526	3389
895.648	3412
895.769	3435
895.891	3447
896.012	3481
896.134	3454
896.255	3389
896.376	3401
896.498	3374
896.619	3420
896.74	3355
896.861	3397
896.982	3705
897.103	3835
897.224	3576
897.345	3515
897.466	3405
897.587	3477
897.708	3606
897.828	3534
897.949	3397
898.07	3336
898.19	3397
898.311	3587
898.431	3416
898.552	3530
898.672	3641
898.792	3576
898.913	3511
899.033	3412
899.153	3291
899.273	3256
899.393	3302
899.513	3313
899.633	3302
899.753	3329
899.873	3302
899.993	3359
900.113	3302
900.232	3393
900.352	3355
900.472	3310
900.591	3192
900.711	3283
900.83	3214
900.95	3409
901.069	3462
901.189	3298
901.308	3176
901.427	3116
901.546	3180
901.665	3253
901.784	3329
901.904	3188
902.023	3116
902.141	3036
902.26	2998
902.379	3127
902.498	3077
902.617	3047
902.735	3211
902.854	3230
902.973	3180
903.091	3028
903.21	3093
903.328	3100
903.446	3135
903.565	3093
903.683	3199
903.801	3180
903.919	3256
904.038	3272
904.156	3195
904.274	3291
904.392	3264
904.51	3279
904.627	3382
904.745	3424
904.863	3477
904.981	3233
905.098	3199
905.216	3222
905.334	3249
905.451	3283
905.569	3291
905.686	3428
905.803	3431
905.921	3298
906.038	3367
906.155	3378
906.272	3264
906.389	3306
906.506	3237
906.623	3218
906.74	3302
906.857	3180
906.974	3233
907.091	3420
907.208	3561
907.324	3492
907.441	3370
907.557	3207
907.674	3222
907.79	3211
907.907	3279
908.023	3389
908.139	3370
908.256	3336
908.372	3370
908.488	3386
908.604	3256
908.72	3218
908.836	3291
908.952	3294
909.068	3351
909.184	3496
909.3	3359
909.415	3462
909.531	3450
909.647	3241
909.762	3317
909.878	3245
909.993	3393
910.108	3321
910.224	3325
910.339	3416
910.454	3340
910.57	3306
910.685	3249
910.8	3553
910.915	3496
911.03	3447
911.145	3241
911.259	3279
911.374	3321
911.489	3237
911.604	3237
911.718	3116
911.833	3146
911.947	3066
912.062	2990
912.176	3173
912.291	3184
912.405	3184
912.519	3420
912.633	3469
912.748	3321
912.862	3291
912.976	3184
913.09	3036
913.204	3123
913.318	3218
913.431	3302
913.545	3310
913.659	3386
913.772	3348
913.886	3237
914	3169
914.113	3336
914.226	3389
914.34	3355
914.453	3195
914.566	3389
914.68	3264
914.793	3291
914.906	3154
915.019	3108
915.132	3100
915.245	3169
915.358	3176
915.47	3199
915.583	3249
915.696	3313
915.809	3374
915.921	3424
916.034	3310
916.146	3264
916.259	3199
916.371	3355
916.483	3332
916.595	3237
916.708	3355
916.82	3313
916.932	3344
917.044	3344
917.156	3397
917.268	3226
917.38	3283
917.491	3241
917.603	3374
917.715	3428
917.826	3447
917.938	3382
918.049	3306
918.161	3424
918.272	3572
918.384	3599
918.495	3481
918.606	3313
918.717	3241
918.828	3370
918.939	3412
919.05	3298
919.161	3351
919.272	3180
919.383	3275
919.494	3504
919.604	3675
919.715	3500
919.826	3401
919.936	3462
920.047	3549
920.157	3523
920.267	3755
920.378	3549
920.488	3538
920.598	3770
920.708	3941
920.818	3869
920.928	3793
921.038	3983
921.148	3991
921.258	3740
921.368	3637
921.477	3561
921.587	3591
921.697	3450
921.806	3629
921.916	3542
922.025	3348
922.134	3355
922.244	3340
922.353	3424
922.462	3272
922.571	3188
922.68	3119
922.789	3070
922.898	3135
923.007	3135
923.116	3218
923.224	3165
923.333	3180
923.442	3077
923.55	3077
923.659	3146
923.767	3253
923.876	3116
923.984	3214
924.092	3089
924.201	3199
924.309	3180
924.417	3272
924.525	3226
924.633	3237
924.741	4196
924.849	3024
924.956	3310
925.064	3077
925.172	3024
925.279	3127
925.387	3173
925.494	3188
925.602	3351
925.709	3355
925.816	3173
925.924	3268
926.031	3351
926.138	3344
926.245	3374
926.352	3249
926.459	3428
926.566	3431
926.673	3306
926.779	3211
926.886	3233
926.993	3188
927.099	3104
927.206	3108
927.312	3123
927.419	3214
927.525	3218
927.631	3275
927.737	3112
927.843	3127
927.95	3062
928.056	3135
928.162	3192
928.267	3233
928.373	3892
928.479	3321
928.585	3039
928.69	3184
928.796	3214
928.901	3146
929.007	3017
929.112	3222
929.218	3142
929.323	3127
929.428	3142
929.533	3310
929.638	3112
929.743	3184
929.848	3275
929.953	3192
930.058	3154
930.163	2994
930.267	3051
930.372	3207
930.477	3009
930.581	3283
930.685	3184
930.79	3070
930.894	3173
930.998	3085
931.103	3298
931.207	2941
931.311	2925
931.415	2910
931.519	2788
931.623	2834
