Data from test_V78500241_1216.txt Node
Date: Fri Mar 25 16:23:37 CST 2022
User: usil
Spectrometer: V785-0024
Trigger mode: 0
Integration Time (sec): 4.000000E-1
Scans to average: 1
Nonlinearity correction enabled: false
Boxcar width: 0
Storing dark spectrum: false
XAxis mode: Wavelengths
Number of Pixels in Spectrum: 1024
>>>>>Begin Spectral Data<<<<<
801.071	2910
801.214	2956
801.356	2853
801.499	2864
801.641	2868
801.783	2963
801.926	3032
802.068	3001
802.211	3020
802.353	3024
802.496	2941
802.638	3001
802.78	3032
802.923	3066
803.065	2990
803.208	2906
803.35	2914
803.492	2922
803.635	2941
803.777	2766
803.919	2849
804.061	3188
804.204	2895
804.346	2895
804.488	2826
804.63	2960
804.773	2845
804.915	2902
805.057	3081
805.199	2922
805.341	2994
805.483	3009
805.626	2975
805.768	2948
805.91	3066
806.052	3112
806.194	2998
806.336	3218
806.478	3028
806.62	2933
806.762	2956
806.904	3062
807.046	3161
807.188	2956
807.33	2887
807.472	2982
807.614	2880
807.756	2994
807.898	2895
808.04	2883
808.182	2956
808.324	2933
808.465	2883
808.607	2849
808.749	2819
808.891	2842
809.033	2963
809.174	2967
809.316	2880
809.458	2906
809.6	2766
809.741	2777
809.883	2758
810.025	2826
810.166	2830
810.308	2811
810.45	2811
810.591	2777
810.733	2754
810.875	2830
811.016	2766
811.158	2758
811.299	2811
811.441	2941
811.582	2895
811.724	2830
811.865	2788
812.007	2902
812.148	2842
812.29	2883
812.431	2895
812.573	2929
812.714	2956
812.855	3047
812.997	3017
813.138	3131
813.279	3017
813.421	2963
813.562	2960
813.703	2861
813.845	2880
813.986	2769
814.127	2689
814.268	2826
814.41	2823
814.551	2815
814.692	2872
814.833	2815
814.974	2872
815.115	2941
815.256	2811
815.397	2811
815.539	2857
815.68	2766
815.821	2777
815.962	2910
816.103	2941
816.244	2872
816.385	2849
816.526	2975
816.666	2914
816.807	2735
816.948	2891
817.089	2914
817.23	2842
817.371	2758
817.512	2754
817.653	2830
817.793	2792
817.934	2876
818.075	2914
818.216	3009
818.356	3005
818.497	2895
818.638	2743
818.778	2811
818.919	2773
819.06	2754
819.2	2853
819.341	2792
819.481	2781
819.622	2963
819.762	3032
819.903	3039
820.043	2922
820.184	2861
820.324	2880
820.465	3005
820.605	3005
820.746	2967
820.886	2899
821.026	3085
821.167	3131
821.307	3241
821.447	3253
821.588	3237
821.728	3199
821.868	3173
822.008	3066
822.149	3188
822.289	3211
822.429	3077
822.569	3077
822.709	3157
822.849	2998
822.99	3051
823.13	3138
823.27	3203
823.41	3104
823.55	3119
823.69	3165
823.83	3161
823.97	3058
824.11	2971
824.25	2990
824.389	3024
824.529	3119
824.669	3043
824.809	3199
824.949	3226
825.089	3207
825.228	3127
825.368	3001
825.508	2948
825.648	2982
825.787	3055
825.927	3043
826.067	2960
826.206	2941
826.346	3058
826.485	3108
826.625	3062
826.765	3241
826.904	3241
827.044	2982
827.183	2914
827.323	2872
827.462	2944
827.601	2918
827.741	2910
827.88	2899
828.02	2838
828.159	2929
828.298	3013
828.437	3081
828.577	3020
828.716	3237
828.855	3074
828.994	2895
829.134	2842
829.273	2906
829.412	2868
829.551	2872
829.69	2853
829.829	2963
829.968	3097
830.107	3039
830.246	2990
830.385	2902
830.524	2834
830.663	2819
830.802	2720
830.941	2663
831.08	2629
831.219	2781
831.357	2746
831.496	2922
831.635	2708
831.774	2697
831.913	2651
832.051	2537
832.19	2552
832.329	2678
832.467	2514
832.606	2450
832.744	2552
832.883	2587
833.022	2568
833.16	2625
833.299	2667
833.437	2705
833.576	2697
833.714	2682
833.852	2750
833.991	2750
834.129	2815
834.267	2800
834.406	2773
834.544	2849
834.682	2838
834.821	2853
834.959	3074
835.097	2880
835.235	3074
835.373	2960
835.511	2990
835.65	2963
835.788	2941
835.926	2823
836.064	2819
836.202	2826
836.34	3062
836.478	3135
836.615	3055
836.753	3142
836.891	3218
837.029	3169
837.167	3089
837.305	3017
837.443	3036
837.58	2952
837.718	3131
837.856	3051
837.993	3036
838.131	3131
838.269	3085
838.406	3089
838.544	3047
838.681	2891
838.819	2902
838.956	2826
839.094	2834
839.231	2910
839.369	2982
839.506	3374
839.643	3214
839.781	2979
839.918	2994
840.055	3005
840.193	3051
840.33	3039
840.467	3081
840.604	3142
840.742	3382
840.879	3051
841.016	3070
841.153	3089
841.29	3340
841.427	3249
841.564	3241
841.701	3283
841.838	3222
841.975	3165
842.112	3214
842.249	3062
842.385	3043
842.522	3241
842.659	3085
842.796	3039
842.933	3093
843.069	3051
843.206	3051
843.343	3169
843.479	3104
843.616	3161
843.752	2899
843.889	2853
844.025	3028
844.162	2876
844.298	3062
844.435	2929
844.571	2944
844.708	3081
844.844	3154
844.98	3184
845.117	3176
845.253	3055
845.389	3001
845.525	3108
845.661	3112
845.798	3013
845.934	3112
846.07	3058
846.206	3203
846.342	3249
846.478	3192
846.614	3047
846.75	3043
846.886	3032
847.022	3226
847.158	3100
847.294	3176
847.429	3260
847.565	3176
847.701	3477
847.837	3009
847.972	2952
848.108	3157
848.244	3119
848.379	2941
848.515	2937
848.65	2941
848.786	2956
848.921	3036
849.057	3085
849.192	3089
849.328	3036
849.463	3097
849.598	3039
849.734	3043
849.869	2971
850.004	2891
850.14	2971
850.275	2887
850.41	2838
850.545	2868
850.68	2902
850.815	2933
850.95	2952
851.085	3184
851.22	3097
851.355	3051
851.49	2975
851.625	2998
851.76	3009
851.895	2925
852.03	2914
852.165	3005
852.299	3100
852.434	3192
852.569	3135
852.703	3127
852.838	3214
852.973	3325
853.107	3348
853.242	3138
853.376	3127
853.511	3001
853.645	3058
853.78	3173
853.914	3085
854.048	3032
854.183	3036
854.317	3131
854.451	3249
854.585	3123
854.72	3055
854.854	3203
854.988	3013
855.122	3074
855.256	2960
855.39	3089
855.524	3207
855.658	3169
855.792	3123
855.926	3169
856.06	3199
856.194	3260
856.327	3097
856.461	3074
856.595	3028
856.729	3051
856.862	3207
856.996	3119
857.13	3180
857.263	3230
857.397	3222
857.53	3104
857.664	3184
857.797	3226
857.931	3245
858.064	3138
858.197	3222
858.331	3161
858.464	3085
858.597	3039
858.731	3097
858.864	3108
858.997	3093
859.13	3157
859.263	3165
859.396	3207
859.529	3077
859.662	3058
859.795	3093
859.928	3138
860.061	3268
860.194	3268
860.327	3161
860.46	3077
860.592	3233
860.725	3237
860.858	3241
860.99	3150
861.123	3085
861.256	3081
861.388	3146
861.521	3793
861.653	2994
861.786	3013
861.918	3043
862.05	3119
862.183	3131
862.315	3173
862.447	3211
862.58	3112
862.712	2956
862.844	2922
862.976	3020
863.108	3024
863.24	3428
863.372	2933
863.504	2994
863.636	2963
863.768	3024
863.9	3032
864.032	2944
864.164	2982
864.296	3070
864.428	3123
864.559	3127
864.691	3100
864.823	3116
864.954	3081
865.086	3051
865.217	3043
865.349	2948
865.48	3051
865.612	3047
865.743	3161
865.875	2979
866.006	2948
866.137	2986
866.269	2986
866.4	2967
866.531	2952
866.662	2929
866.793	2948
866.924	2960
867.055	2994
867.186	2971
867.317	2979
867.448	2899
867.579	2872
867.71	2872
867.841	2880
867.972	2918
868.103	2937
868.233	2887
868.364	2895
868.495	2922
868.625	3123
868.756	3199
868.886	3017
869.017	3047
869.147	3184
869.278	3195
869.408	3066
869.539	3066
869.669	3135
869.799	3055
869.929	3176
870.06	3157
870.19	3374
870.32	3306
870.45	3344
870.58	3416
870.71	3473
870.84	3473
870.97	3317
871.1	3279
871.23	3526
871.36	3458
871.489	3370
871.619	3435
871.749	3428
871.879	3469
872.008	3538
872.138	3397
872.267	3279
872.397	3184
872.526	3176
872.656	3005
872.785	3112
872.915	3268
873.044	3374
873.173	3230
873.303	3256
873.432	3256
873.561	3279
873.69	3192
873.819	3150
873.948	3214
874.077	3119
874.206	3077
874.335	3085
874.464	3256
874.593	3389
874.722	3233
874.851	3416
874.979	3378
875.108	3348
875.237	3199
875.365	3237
875.494	3226
875.623	3279
875.751	3100
875.88	3142
876.008	3245
876.136	3283
876.265	3405
876.393	3545
876.521	3431
876.65	3431
876.778	3363
876.906	3279
877.034	3230
877.162	3237
877.29	3222
877.418	3310
877.546	3283
877.674	3260
877.802	3279
877.93	3241
878.058	3195
878.185	3119
878.313	3176
878.441	3241
878.568	3062
878.696	3173
878.824	3241
878.951	3359
879.079	3481
879.206	3663
879.333	3458
879.461	3386
879.588	3355
879.715	3515
879.842	3648
879.97	3424
880.097	3169
880.224	3154
880.351	3192
880.478	3233
880.605	3241
880.732	3188
880.859	3469
880.986	3329
881.112	3332
881.239	3222
881.366	3104
881.493	3093
881.619	3051
881.746	3108
881.872	3077
881.999	3154
882.125	3199
882.252	3294
882.378	3329
882.505	3424
882.631	3332
882.757	3173
882.883	3256
883.01	3253
883.136	3154
883.262	3127
883.388	3112
883.514	3329
883.64	3405
883.766	3302
883.892	3203
884.018	3279
884.143	3458
884.269	3564
884.395	3207
884.52	3230
884.646	3161
884.772	3165
884.897	3097
885.023	3199
885.148	3351
885.274	3424
885.399	3409
885.524	3310
885.65	3264
885.775	3351
885.9	3348
886.025	3454
886.15	3401
886.275	3363
886.4	3237
886.525	3355
886.65	3302
886.775	3298
886.9	3523
887.025	3679
887.149	3401
887.274	3260
887.399	3241
887.523	3241
887.648	3195
887.773	3214
887.897	3389
888.021	3420
888.146	3344
888.27	3462
888.395	3553
888.519	3454
888.643	3481
888.767	3496
888.891	3294
889.015	3321
889.139	3306
889.263	3237
889.387	3416
889.511	3538
889.635	3458
889.759	3317
889.883	3291
890.006	3416
890.13	3515
890.254	3298
890.377	3340
890.501	3241
890.624	3226
890.748	3321
890.871	3222
890.995	3169
891.118	3089
891.241	3192
891.364	3211
891.488	3370
891.611	3195
891.734	3203
891.857	3321
891.98	3268
892.103	3351
892.226	3291
892.349	3230
892.471	3142
892.594	3283
892.717	3329
892.839	3325
892.962	3287
893.085	3409
893.207	3351
893.33	3195
893.452	3241
893.575	3348
893.697	3264
893.819	3469
893.941	3557
894.064	3469
894.186	3272
894.308	3264
894.43	3405
894.552	3564
894.674	3485
894.796	3249
894.918	3336
895.04	3344
895.161	3439
895.283	3416
895.405	3355
895.526	3397
895.648	3492
895.769	3450
895.891	3469
896.012	3538
896.134	3469
896.255	3420
896.376	3405
896.498	3382
896.619	3500
896.74	3382
896.861	3431
896.982	3713
897.103	3869
897.224	3580
897.345	3526
897.466	3454
897.587	3515
897.708	3629
897.828	3549
897.949	3439
898.07	3325
898.19	3382
898.311	3648
898.431	3462
898.552	3542
898.672	3633
898.792	3564
898.913	3523
899.033	3439
899.153	3260
899.273	3203
899.393	3313
899.513	3329
899.633	3325
899.753	3336
899.873	3348
899.993	3397
900.113	3321
900.232	3420
900.352	3374
900.472	3344
900.591	3211
900.711	3332
900.83	3287
900.95	3443
901.069	3469
901.189	3386
901.308	3222
901.427	3131
901.546	3222
901.665	3313
901.784	3382
901.904	3214
902.023	3176
902.141	3032
902.26	2990
902.379	3154
902.498	3104
902.617	3062
902.735	3253
902.854	3233
902.973	3169
903.091	3058
903.21	3093
903.328	3119
903.446	3123
903.565	3093
903.683	3233
903.801	3157
903.919	3268
904.038	3329
904.156	3169
904.274	3298
904.392	3260
904.51	3325
904.627	3332
904.745	3462
904.863	3507
904.981	3291
905.098	3199
905.216	3279
905.334	3317
905.451	3310
905.569	3283
905.686	3447
905.803	3454
905.921	3287
906.038	3435
906.155	3397
906.272	3294
906.389	3313
906.506	3203
906.623	3340
906.74	3279
906.857	3199
906.974	3279
907.091	3462
907.208	3576
907.324	3500
907.441	3348
907.557	3218
907.674	3275
907.79	3249
907.907	3329
908.023	3382
908.139	3382
908.256	3310
908.372	3431
908.488	3351
908.604	3264
908.72	3249
908.836	3298
908.952	3275
909.068	3382
909.184	3469
909.3	3409
909.415	3488
909.531	3477
909.647	3264
909.762	3298
909.878	3283
909.993	3363
910.108	3348
910.224	3340
910.339	3431
910.454	3363
910.57	3287
910.685	3287
910.8	3618
910.915	3534
911.03	3450
911.145	3325
911.259	3283
911.374	3310
911.489	3241
911.604	3249
911.718	3157
911.833	3169
911.947	3066
912.062	3005
912.176	3146
912.291	3165
912.405	3218
912.519	3447
912.633	3504
912.748	3348
912.862	3302
912.976	3241
913.09	3085
913.204	3154
913.318	3214
913.431	3367
913.545	3340
913.659	3412
913.772	3340
913.886	3226
914	3188
914.113	3382
914.226	3439
914.34	3378
914.453	3173
914.566	3450
914.68	3317
914.793	3317
914.906	3123
915.019	3150
915.132	3070
915.245	3184
915.358	3214
915.47	3298
915.583	3283
915.696	3298
915.809	3428
915.921	3439
916.034	3268
916.146	3237
916.259	3180
916.371	3370
916.483	3348
916.595	3298
916.708	3389
916.82	3370
916.932	3389
917.044	3378
917.156	3378
917.268	3291
917.38	3291
917.491	3283
917.603	3348
917.715	3462
917.826	3466
917.938	3389
918.049	3287
918.161	3481
918.272	3618
918.384	3606
918.495	3526
918.606	3325
918.717	3294
918.828	3412
918.939	3443
919.05	3321
919.161	3409
919.272	3180
919.383	3302
919.494	3504
919.604	3713
919.715	3492
919.826	3412
919.936	3443
920.047	3584
920.157	3568
920.267	3770
920.378	3591
920.488	3572
920.598	3774
920.708	3937
920.818	3762
920.928	3823
921.038	4044
921.148	3994
921.258	3728
921.368	3633
921.477	3557
921.587	3561
921.697	3477
921.806	3644
921.916	3500
922.025	3374
922.134	3351
922.244	3340
922.353	3469
922.462	3237
922.571	3256
922.68	3142
922.789	3123
922.898	3100
923.007	3112
923.116	3249
923.224	3195
923.333	3188
923.442	3142
923.55	3093
923.659	3150
923.767	3176
923.876	3146
923.984	3233
924.092	3085
924.201	3230
924.309	3199
924.417	3256
924.525	3195
924.633	3241
924.741	4010
924.849	3039
924.956	3268
925.064	3116
925.172	3039
925.279	3089
925.387	3161
925.494	3207
925.602	3351
925.709	3294
925.816	3214
925.924	3291
926.031	3348
926.138	3348
926.245	3386
926.352	3245
926.459	3397
926.566	3469
926.673	3298
926.779	3275
926.886	3253
926.993	3161
927.099	3142
927.206	3131
927.312	3108
927.419	3222
927.525	3256
927.631	3310
927.737	3180
927.843	3119
927.95	3024
928.056	3184
928.162	3184
928.267	3237
928.373	3926
928.479	3317
928.585	3127
928.69	3237
928.796	3253
928.901	3195
929.007	3089
929.112	3203
929.218	3214
929.323	3176
929.428	3180
929.533	3374
929.638	3146
929.743	3222
929.848	3298
929.953	3245
930.058	3173
930.163	3058
930.267	3077
930.372	3249
930.477	3062
930.581	3363
930.685	3256
930.79	3104
930.894	3154
930.998	3131
931.103	3348
931.207	3001
931.311	2994
931.415	2998
931.519	2842
931.623	2819
