Data from test_V78500241_1445.txt Node
Date: Fri Mar 25 16:25:12 CST 2022
User: usil
Spectrometer: V785-0024
Trigger mode: 0
Integration Time (sec): 4.000000E-1
Scans to average: 1
Nonlinearity correction enabled: false
Boxcar width: 0
Storing dark spectrum: false
XAxis mode: Wavelengths
Number of Pixels in Spectrum: 1024
>>>>>Begin Spectral Data<<<<<
801.071	2941
801.214	2941
801.356	2823
801.499	2887
801.641	2895
801.783	2937
801.926	3020
802.068	2963
802.211	2986
802.353	2986
802.496	2914
802.638	3017
802.78	3051
802.923	3077
803.065	3009
803.208	2872
803.35	2914
803.492	2948
803.635	2891
803.777	2766
803.919	2842
804.061	3199
804.204	2906
804.346	2910
804.488	2861
804.63	2982
804.773	2853
804.915	2922
805.057	3070
805.199	2941
805.341	2967
805.483	3039
805.626	2998
805.768	2925
805.91	3097
806.052	3138
806.194	3051
806.336	3268
806.478	3013
806.62	2952
806.762	2963
806.904	3051
807.046	3146
807.188	2960
807.33	2941
807.472	2952
807.614	2902
807.756	2971
807.898	2922
808.04	2941
808.182	2963
808.324	2971
808.465	2868
808.607	2864
808.749	2819
808.891	2861
809.033	2960
809.174	2998
809.316	2929
809.458	2849
809.6	2766
809.741	2762
809.883	2777
810.025	2864
810.166	2823
810.308	2857
810.45	2823
810.591	2785
810.733	2773
810.875	2876
811.016	2743
811.158	2758
811.299	2796
811.441	2933
811.582	2925
811.724	2811
811.865	2796
812.007	2922
812.148	2906
812.29	2864
812.431	2891
812.573	2899
812.714	2944
812.855	3074
812.997	3028
813.138	3108
813.279	3001
813.421	2967
813.562	2956
813.703	2849
813.845	2895
813.986	2807
814.127	2735
814.268	2792
814.41	2834
814.551	2826
814.692	2849
814.833	2815
814.974	2941
815.115	2941
815.256	2807
815.397	2849
815.539	2838
815.68	2758
815.821	2796
815.962	2941
816.103	2925
816.244	2864
816.385	2914
816.526	2952
816.666	2929
816.807	2735
816.948	2872
817.089	2914
817.23	2857
817.371	2773
817.512	2800
817.653	2834
817.793	2845
817.934	2876
818.075	2944
818.216	2979
818.356	3009
818.497	2899
818.638	2785
818.778	2815
818.919	2773
819.06	2758
819.2	2876
819.341	2807
819.481	2823
819.622	2902
819.762	3097
819.903	3036
820.043	2899
820.184	2887
820.324	2902
820.465	3028
820.605	3024
820.746	3005
820.886	2914
821.026	3066
821.167	3165
821.307	3253
821.447	3279
821.588	3192
821.728	3173
821.868	3154
822.008	3055
822.149	3180
822.289	3195
822.429	3089
822.569	3104
822.709	3173
822.849	3013
822.99	3055
823.13	3131
823.27	3207
823.41	3104
823.55	3127
823.69	3116
823.83	3180
823.97	3081
824.11	3013
824.25	3032
824.389	3097
824.529	3097
824.669	3097
824.809	3154
824.949	3233
825.089	3211
825.228	3154
825.368	2979
825.508	3009
825.648	2941
825.787	2998
825.927	2982
826.067	2956
826.206	2933
826.346	3070
826.485	3062
826.625	3116
826.765	3241
826.904	3199
827.044	2998
827.183	2941
827.323	2834
827.462	2982
827.601	2906
827.741	2914
827.88	2960
828.02	2811
828.159	2979
828.298	3024
828.437	3070
828.577	3005
828.716	3260
828.855	3093
828.994	2891
829.134	2845
829.273	2895
829.412	2857
829.551	2876
829.69	2880
829.829	2990
829.968	3135
830.107	3005
830.246	3009
830.385	2902
830.524	2891
830.663	2804
830.802	2716
830.941	2629
831.08	2651
831.219	2743
831.357	2731
831.496	2922
831.635	2743
831.774	2640
831.913	2659
832.051	2560
832.19	2545
832.329	2689
832.467	2526
832.606	2476
832.744	2556
832.883	2590
833.022	2575
833.16	2705
833.299	2674
833.437	2678
833.576	2701
833.714	2743
833.852	2701
833.991	2769
834.129	2853
834.267	2807
834.406	2785
834.544	2872
834.682	2853
834.821	2815
834.959	3032
835.097	2899
835.235	3055
835.373	2963
835.511	3001
835.65	2910
835.788	2975
835.926	2823
836.064	2811
836.202	2857
836.34	3074
836.478	3138
836.615	3036
836.753	3093
836.891	3173
837.029	3150
837.167	3112
837.305	3009
837.443	3024
837.58	2929
837.718	3104
837.856	3058
837.993	3005
838.131	3116
838.269	3081
838.406	3123
838.544	3074
838.681	2956
838.819	2906
838.956	2807
839.094	2826
839.231	2857
839.369	3009
839.506	3389
839.643	3222
839.781	3032
839.918	2963
840.055	3055
840.193	3036
840.33	3043
840.467	3070
840.604	3157
840.742	3374
840.879	3066
841.016	3032
841.153	3108
841.29	3332
841.427	3264
841.564	3268
841.701	3321
841.838	3207
841.975	3207
842.112	3203
842.249	3085
842.385	3017
842.522	3218
842.659	3093
842.796	3081
842.933	3081
843.069	3005
843.206	3055
843.343	3199
843.479	3131
843.616	3146
843.752	2902
843.889	2883
844.025	3055
844.162	2872
844.298	3097
844.435	2937
844.571	2887
844.708	3070
844.844	3169
844.98	3237
845.117	3214
845.253	3013
845.389	3036
845.525	3104
845.661	3081
845.798	3032
845.934	3116
846.07	3024
846.206	3222
846.342	3268
846.478	3237
846.614	3108
846.75	3047
846.886	3043
847.022	3245
847.158	3154
847.294	3176
847.429	3237
847.565	3214
847.701	3431
847.837	3043
847.972	2982
848.108	3123
848.244	3138
848.379	3001
848.515	2937
848.65	2899
848.786	2971
848.921	2979
849.057	3066
849.192	3165
849.328	3066
849.463	3119
849.598	3089
849.734	3024
849.869	2963
850.004	2937
850.14	2956
850.275	2929
850.41	2842
850.545	2887
850.68	2937
850.815	2922
850.95	2967
851.085	3180
851.22	3093
851.355	3020
851.49	2971
851.625	3001
851.76	3005
851.895	2944
852.03	2910
852.165	3074
852.299	3116
852.434	3161
852.569	3119
852.703	3180
852.838	3245
852.973	3313
853.107	3351
853.242	3184
853.376	3097
853.511	2952
853.645	3028
853.78	3226
853.914	3123
854.048	3119
854.183	3081
854.317	3157
854.451	3294
854.585	3100
854.72	3089
854.854	3249
854.988	3009
855.122	3085
855.256	2990
855.39	3150
855.524	3241
855.658	3180
855.792	3146
855.926	3157
856.06	3226
856.194	3214
856.327	3127
856.461	3058
856.595	3055
856.729	3085
856.862	3207
856.996	3146
857.13	3203
857.263	3222
857.397	3249
857.53	3066
857.664	3241
857.797	3218
857.931	3226
858.064	3138
858.197	3218
858.331	3119
858.464	3097
858.597	3028
858.731	3108
858.864	3116
858.997	3104
859.13	3161
859.263	3150
859.396	3222
859.529	3123
859.662	3070
859.795	3066
859.928	3131
860.061	3313
860.194	3298
860.327	3146
860.46	3081
860.592	3199
860.725	3272
860.858	3249
860.99	3089
861.123	3066
861.256	3055
861.388	3097
861.521	3808
861.653	3013
861.786	2986
861.918	2979
862.05	3058
862.183	3097
862.315	3165
862.447	3176
862.58	3074
862.712	2922
862.844	2876
862.976	2998
863.108	2979
863.24	3329
863.372	2842
863.504	2956
863.636	2948
863.768	2994
863.9	2956
864.032	2902
864.164	2914
864.296	2986
864.428	3062
864.559	3097
864.691	3066
864.823	3066
864.954	3005
865.086	3028
865.217	2967
865.349	2963
865.48	2975
865.612	3013
865.743	3157
865.875	2937
866.006	2948
866.137	2979
866.269	2944
866.4	2948
866.531	2922
866.662	2922
866.793	2887
866.924	2883
867.055	2967
867.186	2910
867.317	2861
867.448	2872
867.579	2830
867.71	2853
867.841	2819
867.972	2887
868.103	2899
868.233	2891
868.364	2902
868.495	2918
868.625	3081
868.756	3173
868.886	2944
869.017	3001
869.147	3169
869.278	3138
869.408	3055
869.539	3036
869.669	3100
869.799	3043
869.929	3119
870.06	3116
870.19	3306
870.32	3287
870.45	3275
870.58	3351
870.71	3439
870.84	3428
870.97	3268
871.1	3245
871.23	3450
871.36	3477
871.489	3332
871.619	3389
871.749	3412
871.879	3405
872.008	3477
872.138	3359
872.267	3317
872.397	3119
872.526	3085
872.656	2994
872.785	3108
872.915	3199
873.044	3336
873.173	3230
873.303	3245
873.432	3253
873.561	3218
873.69	3176
873.819	3131
873.948	3176
874.077	3085
874.206	3051
874.335	3085
874.464	3222
874.593	3336
874.722	3218
874.851	3428
874.979	3344
875.108	3317
875.237	3203
875.365	3161
875.494	3165
875.623	3230
875.751	3051
875.88	3104
876.008	3218
876.136	3211
876.265	3367
876.393	3504
876.521	3439
876.65	3370
876.778	3321
876.906	3249
877.034	3218
877.162	3226
877.29	3188
877.418	3256
877.546	3207
877.674	3237
877.802	3237
877.93	3199
878.058	3192
878.185	3123
878.313	3184
878.441	3211
878.568	3070
878.696	3154
878.824	3233
878.951	3291
879.079	3412
879.206	3606
879.333	3420
879.461	3306
879.588	3401
879.715	3450
879.842	3629
879.97	3359
880.097	3180
880.224	3100
880.351	3176
880.478	3188
880.605	3184
880.732	3169
880.859	3488
880.986	3298
881.112	3344
881.239	3211
881.366	3108
881.493	3032
881.619	3009
881.746	3047
881.872	3100
881.999	3051
882.125	3131
882.252	3218
882.378	3287
882.505	3450
882.631	3321
882.757	3146
882.883	3226
883.01	3203
883.136	3154
883.262	3039
883.388	3085
883.514	3317
883.64	3367
883.766	3340
883.892	3180
884.018	3211
884.143	3389
884.269	3576
884.395	3203
884.52	3169
884.646	3157
884.772	3135
884.897	3104
885.023	3207
885.148	3272
885.274	3420
885.399	3367
885.524	3306
885.65	3241
885.775	3298
885.9	3291
886.025	3424
886.15	3386
886.275	3291
886.4	3207
886.525	3325
886.65	3241
886.775	3268
886.9	3447
887.025	3606
887.149	3386
887.274	3233
887.399	3161
887.523	3199
887.648	3199
887.773	3188
887.897	3351
888.021	3355
888.146	3279
888.27	3428
888.395	3545
888.519	3443
888.643	3431
888.767	3447
888.891	3321
889.015	3192
889.139	3275
889.263	3211
889.387	3378
889.511	3515
889.635	3409
889.759	3287
889.883	3302
890.006	3389
890.13	3500
890.254	3291
890.377	3306
890.501	3173
890.624	3180
890.748	3283
890.871	3150
890.995	3104
891.118	3047
891.241	3154
891.364	3184
891.488	3279
891.611	3176
891.734	3249
891.857	3275
891.98	3222
892.103	3321
892.226	3279
892.349	3233
892.471	3108
892.594	3241
892.717	3279
892.839	3253
892.962	3291
893.085	3351
893.207	3294
893.33	3169
893.452	3207
893.575	3332
893.697	3218
893.819	3454
893.941	3496
894.064	3458
894.186	3241
894.308	3272
894.43	3424
894.552	3504
894.674	3481
894.796	3256
894.918	3313
895.04	3313
895.161	3409
895.283	3355
895.405	3302
895.526	3355
895.648	3367
895.769	3412
895.891	3458
896.012	3447
896.134	3443
896.255	3420
896.376	3340
896.498	3363
896.619	3401
896.74	3336
896.861	3393
896.982	3690
897.103	3850
897.224	3564
897.345	3466
897.466	3428
897.587	3507
897.708	3595
897.828	3545
897.949	3424
898.07	3325
898.19	3355
898.311	3595
898.431	3401
898.552	3488
898.672	3580
898.792	3622
898.913	3515
899.033	3409
899.153	3298
899.273	3230
899.393	3237
899.513	3313
899.633	3279
899.753	3332
899.873	3367
899.993	3382
900.113	3351
900.232	3363
900.352	3378
900.472	3302
900.591	3214
900.711	3253
900.83	3237
900.95	3374
901.069	3477
901.189	3363
901.308	3165
901.427	3142
901.546	3192
901.665	3298
901.784	3283
901.904	3188
902.023	3146
902.141	3024
902.26	2975
902.379	3127
902.498	3043
902.617	3039
902.735	3218
902.854	3233
902.973	3150
903.091	3024
903.21	3070
903.328	3131
903.446	3119
903.565	3127
903.683	3203
903.801	3119
903.919	3230
904.038	3275
904.156	3150
904.274	3279
904.392	3283
904.51	3260
904.627	3325
904.745	3424
904.863	3500
904.981	3207
905.098	3203
905.216	3214
905.334	3287
905.451	3313
905.569	3264
905.686	3416
905.803	3435
905.921	3313
906.038	3435
906.155	3332
906.272	3245
906.389	3302
906.506	3241
906.623	3237
906.74	3253
906.857	3218
906.974	3256
907.091	3428
907.208	3523
907.324	3469
907.441	3401
907.557	3241
907.674	3233
907.79	3199
907.907	3264
908.023	3351
908.139	3382
908.256	3291
908.372	3378
908.488	3313
908.604	3245
908.72	3230
908.836	3253
908.952	3233
909.068	3332
909.184	3481
909.3	3397
909.415	3488
909.531	3469
909.647	3287
909.762	3272
909.878	3241
909.993	3378
910.108	3321
910.224	3351
910.339	3397
910.454	3348
910.57	3272
910.685	3199
910.8	3580
910.915	3572
911.03	3386
911.145	3241
911.259	3245
911.374	3310
911.489	3245
911.604	3199
911.718	3119
911.833	3127
911.947	3028
912.062	2990
912.176	3146
912.291	3188
912.405	3188
912.519	3424
912.633	3473
912.748	3325
912.862	3256
912.976	3161
913.09	3074
913.204	3138
913.318	3211
913.431	3313
913.545	3363
913.659	3424
913.772	3321
913.886	3176
914	3188
914.113	3443
914.226	3393
914.34	3317
914.453	3218
914.566	3397
914.68	3275
914.793	3317
914.906	3119
915.019	3135
915.132	3036
915.245	3150
915.358	3165
915.47	3218
915.583	3237
915.696	3268
915.809	3420
915.921	3409
916.034	3264
916.146	3245
916.259	3211
916.371	3325
916.483	3397
916.595	3222
916.708	3313
916.82	3313
916.932	3325
917.044	3329
917.156	3317
917.268	3233
917.38	3291
917.491	3237
917.603	3363
917.715	3412
917.826	3466
917.938	3344
918.049	3260
918.161	3409
918.272	3557
918.384	3534
918.495	3454
918.606	3336
918.717	3260
918.828	3374
918.939	3397
919.05	3317
919.161	3336
919.272	3165
919.383	3226
919.494	3469
919.604	3637
919.715	3473
919.826	3363
919.936	3435
920.047	3553
920.157	3542
920.267	3724
920.378	3587
920.488	3545
920.598	3766
920.708	3956
920.818	3816
920.928	3812
921.038	4044
921.148	4021
921.258	3667
921.368	3618
921.477	3576
921.587	3542
921.697	3397
921.806	3648
921.916	3523
922.025	3344
922.134	3355
922.244	3279
922.353	3435
922.462	3283
922.571	3218
922.68	3131
922.789	3066
922.898	3154
923.007	3093
923.116	3207
923.224	3195
923.333	3188
923.442	3135
923.55	3119
923.659	3199
923.767	3256
923.876	3157
923.984	3287
924.092	3131
924.201	3230
924.309	3241
924.417	3275
924.525	3237
924.633	3268
924.741	4257
924.849	3123
924.956	3317
925.064	3108
925.172	3070
925.279	3108
925.387	3256
925.494	3241
925.602	3397
925.709	3344
925.816	3214
925.924	3313
926.031	3424
926.138	3367
926.245	3447
926.352	3260
926.459	3428
926.566	3526
926.673	3329
926.779	3272
926.886	3268
926.993	3180
927.099	3173
927.206	3154
927.312	3161
927.419	3253
927.525	3237
927.631	3325
927.737	3218
927.843	3146
927.95	3039
928.056	3184
928.162	3180
928.267	3287
928.373	3869
928.479	3340
928.585	3112
928.69	3253
928.796	3272
928.901	3214
929.007	3112
929.112	3256
929.218	3188
929.323	3203
929.428	3184
929.533	3329
929.638	3161
929.743	3199
929.848	3245
929.953	3253
930.058	3142
930.163	3070
930.267	3089
930.372	3218
930.477	3058
930.581	3367
930.685	3222
930.79	3100
930.894	3135
930.998	3077
931.103	3336
931.207	2982
931.311	2994
931.415	2922
931.519	2830
931.623	2845
