Data from test_V78500241_389.txt Node
Date: Fri Mar 25 16:17:53 CST 2022
User: usil
Spectrometer: V785-0024
Trigger mode: 0
Integration Time (sec): 4.000000E-1
Scans to average: 1
Nonlinearity correction enabled: false
Boxcar width: 0
Storing dark spectrum: false
XAxis mode: Wavelengths
Number of Pixels in Spectrum: 1024
>>>>>Begin Spectral Data<<<<<
801.071	2906
801.214	2971
801.356	2887
801.499	2937
801.641	2868
801.783	2975
801.926	3055
802.068	2986
802.211	3001
802.353	3070
802.496	2994
802.638	2986
802.78	3024
802.923	3093
803.065	3058
803.208	2914
803.35	2963
803.492	2960
803.635	2956
803.777	2777
803.919	2895
804.061	3245
804.204	2952
804.346	2899
804.488	2891
804.63	3005
804.773	2918
804.915	2929
805.057	3089
805.199	2929
805.341	2990
805.483	3051
805.626	2986
805.768	2975
805.91	3104
806.052	3104
806.194	3051
806.336	3256
806.478	3055
806.62	2948
806.762	2952
806.904	3036
807.046	3203
807.188	3005
807.33	2883
807.472	3001
807.614	2895
807.756	3009
807.898	2914
808.04	2918
808.182	2971
808.324	2933
808.465	2906
808.607	2891
808.749	2746
808.891	2857
809.033	2963
809.174	3005
809.316	2906
809.458	2899
809.6	2754
809.741	2785
809.883	2785
810.025	2872
810.166	2838
810.308	2842
810.45	2883
810.591	2758
810.733	2807
810.875	2830
811.016	2804
811.158	2754
811.299	2792
811.441	2902
811.582	2914
811.724	2807
811.865	2823
812.007	2944
812.148	2876
812.29	2845
812.431	2887
812.573	2925
812.714	2986
812.855	3058
812.997	3066
813.138	3142
813.279	3001
813.421	2982
813.562	2971
813.703	2902
813.845	2906
813.986	2773
814.127	2769
814.268	2830
814.41	2842
814.551	2792
814.692	2876
814.833	2823
814.974	2906
815.115	2948
815.256	2861
815.397	2800
815.539	2880
815.68	2773
815.821	2796
815.962	2971
816.103	2941
816.244	2883
816.385	2891
816.526	2952
816.666	2922
816.807	2724
816.948	2906
817.089	2906
817.23	2857
817.371	2743
817.512	2781
817.653	2864
817.793	2842
817.934	2895
818.075	2971
818.216	3005
818.356	3039
818.497	2880
818.638	2773
818.778	2819
818.919	2838
819.06	2788
819.2	2918
819.341	2807
819.481	2804
819.622	2918
819.762	3127
819.903	3062
820.043	2899
820.184	2941
820.324	2906
820.465	3047
820.605	3001
820.746	3036
820.886	2975
821.026	3157
821.167	3180
821.307	3283
821.447	3329
821.588	3230
821.728	3245
821.868	3222
822.008	3112
822.149	3173
822.289	3264
822.429	3123
822.569	3119
822.709	3192
822.849	3066
822.99	3116
823.13	3188
823.27	3230
823.41	3135
823.55	3192
823.69	3154
823.83	3214
823.97	3146
824.11	3036
824.25	3039
824.389	3077
824.529	3108
824.669	3093
824.809	3211
824.949	3272
825.089	3241
825.228	3218
825.368	3036
825.508	3005
825.648	3005
825.787	3051
825.927	3024
826.067	3001
826.206	2979
826.346	3100
826.485	3085
826.625	3161
826.765	3298
826.904	3260
827.044	3028
827.183	2982
827.323	2910
827.462	3028
827.601	2971
827.741	2986
827.88	2990
828.02	2891
828.159	3020
828.298	3085
828.437	3161
828.577	3138
828.716	3272
828.855	3135
828.994	2960
829.134	2887
829.273	2922
829.412	2883
829.551	2925
829.69	2933
829.829	3013
829.968	3180
830.107	3070
830.246	3036
830.385	2948
830.524	2929
830.663	2857
830.802	2796
830.941	2712
831.08	2708
831.219	2788
831.357	2807
831.496	2967
831.635	2769
831.774	2686
831.913	2682
832.051	2606
832.19	2606
832.329	2693
832.467	2568
832.606	2549
832.744	2613
832.883	2617
833.022	2613
833.16	2686
833.299	2735
833.437	2743
833.576	2739
833.714	2788
833.852	2762
833.991	2796
834.129	2830
834.267	2868
834.406	2781
834.544	2861
834.682	2910
834.821	2914
834.959	3066
835.097	2910
835.235	3097
835.373	2998
835.511	3039
835.65	2990
835.788	3017
835.926	2864
836.064	2815
836.202	2861
836.34	3116
836.478	3161
836.615	3100
836.753	3184
836.891	3214
837.029	3142
837.167	3108
837.305	3100
837.443	3085
837.58	3009
837.718	3184
837.856	3077
837.993	3043
838.131	3116
838.269	3135
838.406	3157
838.544	3089
838.681	2990
838.819	2967
838.956	2830
839.094	2861
839.231	2922
839.369	3062
839.506	3389
839.643	3226
839.781	3047
839.918	2979
840.055	3062
840.193	3066
840.33	3100
840.467	3154
840.604	3161
840.742	3443
840.879	3097
841.016	3070
841.153	3135
841.29	3374
841.427	3336
841.564	3272
841.701	3325
841.838	3222
841.975	3199
842.112	3233
842.249	3108
842.385	3081
842.522	3310
842.659	3100
842.796	3097
842.933	3119
843.069	3074
843.206	3066
843.343	3214
843.479	3157
843.616	3169
843.752	2914
843.889	2895
844.025	3085
844.162	2899
844.298	3127
844.435	3009
844.571	2944
844.708	3135
844.844	3199
844.98	3264
845.117	3260
845.253	3089
845.389	3036
845.525	3154
845.661	3119
845.798	3066
845.934	3135
846.07	3093
846.206	3214
846.342	3348
846.478	3272
846.614	3112
846.75	3077
846.886	3036
847.022	3256
847.158	3165
847.294	3192
847.429	3287
847.565	3256
847.701	3492
847.837	3081
847.972	3028
848.108	3176
848.244	3169
848.379	3047
848.515	2971
848.65	2963
848.786	3009
848.921	3058
849.057	3157
849.192	3192
849.328	3089
849.463	3116
849.598	3089
849.734	3055
849.869	3047
850.004	2971
850.14	2982
850.275	2925
850.41	2861
850.545	2880
850.68	2918
850.815	2986
850.95	3017
851.085	3195
851.22	3131
851.355	3032
851.49	3039
851.625	3039
851.76	3100
851.895	2933
852.03	2922
852.165	3058
852.299	3161
852.434	3226
852.569	3184
852.703	3218
852.838	3241
852.973	3367
853.107	3336
853.242	3199
853.376	3116
853.511	3001
853.645	3093
853.78	3279
853.914	3131
854.048	3112
854.183	3108
854.317	3154
854.451	3325
854.585	3116
854.72	3100
854.854	3230
854.988	3062
855.122	3093
855.256	3017
855.39	3176
855.524	3245
855.658	3211
855.792	3176
855.926	3230
856.06	3233
856.194	3279
856.327	3176
856.461	3100
856.595	3093
856.729	3100
856.862	3256
856.996	3199
857.13	3237
857.263	3230
857.397	3302
857.53	3184
857.664	3211
857.797	3253
857.931	3230
858.064	3180
858.197	3249
858.331	3142
858.464	3100
858.597	3058
858.731	3146
858.864	3161
858.997	3077
859.13	3195
859.263	3211
859.396	3207
859.529	3123
859.662	3070
859.795	3074
859.928	3142
860.061	3302
860.194	3283
860.327	3165
860.46	3077
860.592	3279
860.725	3260
860.858	3279
860.99	3116
861.123	3089
861.256	3039
861.388	3150
861.521	3869
861.653	3020
861.786	3032
861.918	3009
862.05	3108
862.183	3135
862.315	3173
862.447	3180
862.58	3097
862.712	2952
862.844	2952
862.976	3013
863.108	2986
863.24	3473
863.372	2922
863.504	2982
863.636	2960
863.768	3028
863.9	3001
864.032	2922
864.164	3001
864.296	3055
864.428	3093
864.559	3104
864.691	3089
864.823	3051
864.954	3032
865.086	3093
865.217	3020
865.349	3001
865.48	2990
865.612	3062
865.743	3169
865.875	2998
866.006	2952
866.137	2990
866.269	2925
866.4	2956
866.531	2952
866.662	2941
866.793	2944
866.924	2948
867.055	3013
867.186	2948
867.317	2880
867.448	2842
867.579	2876
867.71	2868
867.841	2826
867.972	2914
868.103	2922
868.233	2933
868.364	2925
868.495	2925
868.625	3108
868.756	3188
868.886	3009
869.017	3043
869.147	3195
869.278	3146
869.408	3074
869.539	3036
869.669	3100
869.799	3051
869.929	3165
870.06	3116
870.19	3344
870.32	3294
870.45	3291
870.58	3401
870.71	3450
870.84	3496
870.97	3336
871.1	3260
871.23	3519
871.36	3473
871.489	3374
871.619	3439
871.749	3424
871.879	3462
872.008	3500
872.138	3359
872.267	3249
872.397	3135
872.526	3127
872.656	3024
872.785	3100
872.915	3241
873.044	3355
873.173	3226
873.303	3310
873.432	3233
873.561	3264
873.69	3192
873.819	3169
873.948	3241
874.077	3119
874.206	3058
874.335	3116
874.464	3237
874.593	3382
874.722	3264
874.851	3424
874.979	3344
875.108	3332
875.237	3161
875.365	3199
875.494	3199
875.623	3249
875.751	3131
875.88	3135
876.008	3218
876.136	3253
876.265	3397
876.393	3530
876.521	3389
876.65	3416
876.778	3386
876.906	3264
877.034	3214
877.162	3256
877.29	3161
877.418	3275
877.546	3260
877.674	3245
877.802	3233
877.93	3222
878.058	3161
878.185	3142
878.313	3218
878.441	3222
878.568	3051
878.696	3180
878.824	3230
878.951	3287
879.079	3504
879.206	3614
879.333	3431
879.461	3363
879.588	3344
879.715	3504
879.842	3622
879.97	3420
880.097	3184
880.224	3169
880.351	3203
880.478	3195
880.605	3214
880.732	3233
880.859	3515
880.986	3355
881.112	3332
881.239	3226
881.366	3085
881.493	3036
881.619	3024
881.746	3081
881.872	3104
881.999	3123
882.125	3146
882.252	3245
882.378	3313
882.505	3458
882.631	3336
882.757	3176
882.883	3214
883.01	3233
883.136	3154
883.262	3093
883.388	3142
883.514	3340
883.64	3386
883.766	3351
883.892	3218
884.018	3253
884.143	3428
884.269	3545
884.395	3195
884.52	3176
884.646	3188
884.772	3116
884.897	3131
885.023	3214
885.148	3344
885.274	3416
885.399	3367
885.524	3275
885.65	3260
885.775	3336
885.9	3283
886.025	3424
886.15	3382
886.275	3298
886.4	3283
886.525	3340
886.65	3287
886.775	3283
886.9	3519
887.025	3671
887.149	3416
887.274	3291
887.399	3195
887.523	3268
887.648	3214
887.773	3214
887.897	3439
888.021	3401
888.146	3291
888.27	3477
888.395	3542
888.519	3439
888.643	3485
888.767	3481
888.891	3325
889.015	3249
889.139	3272
889.263	3253
889.387	3462
889.511	3492
889.635	3462
889.759	3298
889.883	3302
890.006	3420
890.13	3469
890.254	3279
890.377	3355
890.501	3199
890.624	3199
890.748	3313
890.871	3226
890.995	3150
891.118	3047
891.241	3188
891.364	3218
891.488	3325
891.611	3222
891.734	3214
891.857	3253
891.98	3279
892.103	3355
892.226	3249
892.349	3203
892.471	3123
892.594	3253
892.717	3351
892.839	3291
892.962	3302
893.085	3405
893.207	3332
893.33	3169
893.452	3256
893.575	3325
893.697	3256
893.819	3466
893.941	3538
894.064	3462
894.186	3298
894.308	3294
894.43	3435
894.552	3549
894.674	3481
894.796	3302
894.918	3317
895.04	3298
895.161	3462
895.283	3401
895.405	3310
895.526	3367
895.648	3428
895.769	3420
895.891	3466
896.012	3469
896.134	3473
896.255	3439
896.376	3412
896.498	3363
896.619	3462
896.74	3386
896.861	3439
896.982	3690
897.103	3861
897.224	3629
897.345	3530
897.466	3416
897.587	3515
897.708	3603
897.828	3572
897.949	3428
898.07	3344
898.19	3435
898.311	3625
898.431	3477
898.552	3485
898.672	3603
898.792	3576
898.913	3599
899.033	3431
899.153	3283
899.273	3237
899.393	3275
899.513	3310
899.633	3329
899.753	3336
899.873	3306
899.993	3370
900.113	3355
900.232	3378
900.352	3313
900.472	3321
900.591	3241
900.711	3291
900.83	3298
900.95	3428
901.069	3496
901.189	3321
901.308	3222
901.427	3169
901.546	3222
901.665	3279
901.784	3370
901.904	3214
902.023	3142
902.141	2994
902.26	2998
902.379	3142
902.498	3051
902.617	3074
902.735	3195
902.854	3245
902.973	3188
903.091	3009
903.21	3055
903.328	3150
903.446	3131
903.565	3176
903.683	3176
903.801	3165
903.919	3298
904.038	3272
904.156	3173
904.274	3306
904.392	3287
904.51	3313
904.627	3363
904.745	3428
904.863	3538
904.981	3264
905.098	3188
905.216	3180
905.334	3298
905.451	3321
905.569	3287
905.686	3454
905.803	3477
905.921	3310
906.038	3439
906.155	3329
906.272	3264
906.389	3336
906.506	3241
906.623	3264
906.74	3287
906.857	3192
906.974	3245
907.091	3450
907.208	3549
907.324	3488
907.441	3416
907.557	3253
907.674	3272
907.79	3211
907.907	3283
908.023	3397
908.139	3355
908.256	3340
908.372	3409
908.488	3363
908.604	3256
908.72	3245
908.836	3291
908.952	3287
909.068	3336
909.184	3477
909.3	3439
909.415	3500
909.531	3469
909.647	3336
909.762	3302
909.878	3249
909.993	3351
910.108	3351
910.224	3332
910.339	3393
910.454	3321
910.57	3329
910.685	3279
910.8	3595
910.915	3545
911.03	3450
911.145	3214
911.259	3272
911.374	3351
911.489	3253
911.604	3218
911.718	3116
911.833	3154
911.947	2990
912.062	3013
912.176	3173
912.291	3192
912.405	3199
912.519	3450
912.633	3481
912.748	3351
912.862	3321
912.976	3195
913.09	3074
913.204	3169
913.318	3226
913.431	3313
913.545	3317
913.659	3412
913.772	3325
913.886	3249
914	3245
914.113	3340
914.226	3469
914.34	3340
914.453	3199
914.566	3447
914.68	3298
914.793	3302
914.906	3150
915.019	3123
915.132	3074
915.245	3157
915.358	3230
915.47	3279
915.583	3291
915.696	3283
915.809	3397
915.921	3439
916.034	3260
916.146	3306
916.259	3214
916.371	3367
916.483	3378
916.595	3287
916.708	3386
916.82	3298
916.932	3313
917.044	3332
917.156	3351
917.268	3264
917.38	3306
917.491	3317
917.603	3378
917.715	3500
917.826	3488
917.938	3382
918.049	3275
918.161	3431
918.272	3515
918.384	3557
918.495	3492
918.606	3329
918.717	3268
918.828	3428
918.939	3428
919.05	3298
919.161	3397
919.272	3203
919.383	3275
919.494	3462
919.604	3641
919.715	3507
919.826	3450
919.936	3462
920.047	3576
920.157	3576
920.267	3778
920.378	3618
920.488	3568
920.598	3800
920.708	3926
920.818	3846
920.928	3804
921.038	4063
921.148	4040
921.258	3679
921.368	3637
921.477	3572
921.587	3515
921.697	3458
921.806	3652
921.916	3488
922.025	3355
922.134	3401
922.244	3302
922.353	3458
922.462	3279
922.571	3253
922.68	3093
922.789	3066
922.898	3131
923.007	3142
923.116	3176
923.224	3192
923.333	3226
923.442	3116
923.55	3089
923.659	3165
923.767	3241
923.876	3089
923.984	3214
924.092	3108
924.201	3176
924.309	3237
924.417	3260
924.525	3154
924.633	3279
924.741	4166
924.849	3043
924.956	3287
925.064	3138
925.172	3085
925.279	3104
925.387	3214
925.494	3207
925.602	3397
925.709	3313
925.816	3165
925.924	3287
926.031	3386
926.138	3310
926.245	3374
926.352	3237
926.459	3405
926.566	3450
926.673	3306
926.779	3256
926.886	3245
926.993	3150
927.099	3165
927.206	3104
927.312	3119
927.419	3237
927.525	3188
927.631	3245
927.737	3161
927.843	3112
927.95	3013
928.056	3138
928.162	3192
928.267	3241
928.373	3861
928.479	3298
928.585	3097
928.69	3218
928.796	3268
928.901	3192
929.007	3024
929.112	3207
929.218	3173
929.323	3199
929.428	3154
929.533	3370
929.638	3112
929.743	3203
929.848	3253
929.953	3169
930.058	3135
930.163	2986
930.267	3066
930.372	3211
930.477	3024
930.581	3283
930.685	3211
930.79	3047
930.894	3131
930.998	3062
931.103	3306
931.207	3005
931.311	2922
931.415	2914
931.519	2769
931.623	2845
