Data from test_V78500241_295.txt Node
Date: Fri Mar 25 16:17:14 CST 2022
User: usil
Spectrometer: V785-0024
Trigger mode: 0
Integration Time (sec): 4.000000E-1
Scans to average: 1
Nonlinearity correction enabled: false
Boxcar width: 0
Storing dark spectrum: false
XAxis mode: Wavelengths
Number of Pixels in Spectrum: 1024
>>>>>Begin Spectral Data<<<<<
801.071	2910
801.214	2948
801.356	2853
801.499	2910
801.641	2895
801.783	2914
801.926	3043
802.068	2967
802.211	2979
802.353	3020
802.496	2960
802.638	3001
802.78	3013
802.923	3100
803.065	2971
803.208	2895
803.35	2948
803.492	2960
803.635	2933
803.777	2788
803.919	2891
804.061	3173
804.204	2922
804.346	2925
804.488	2857
804.63	2982
804.773	2864
804.915	2922
805.057	3036
805.199	2906
805.341	2937
805.483	3039
805.626	3013
805.768	2937
805.91	3100
806.052	3074
806.194	3001
806.336	3237
806.478	3013
806.62	2967
806.762	2952
806.904	3051
807.046	3165
807.188	2982
807.33	2918
807.472	2960
807.614	2899
807.756	2944
807.898	2887
808.04	2845
808.182	2963
808.324	2941
808.465	2883
808.607	2887
808.749	2792
808.891	2830
809.033	2975
809.174	2975
809.316	2902
809.458	2891
809.6	2766
809.741	2743
809.883	2746
810.025	2864
810.166	2868
810.308	2823
810.45	2842
810.591	2758
810.733	2781
810.875	2823
811.016	2750
811.158	2762
811.299	2785
811.441	2933
811.582	2902
811.724	2811
811.865	2853
812.007	2918
812.148	2864
812.29	2849
812.431	2883
812.573	2910
812.714	2941
812.855	3005
812.997	3058
813.138	3112
813.279	3024
813.421	2967
813.562	2941
813.703	2834
813.845	2868
813.986	2769
814.127	2731
814.268	2807
814.41	2853
814.551	2762
814.692	2811
814.833	2815
814.974	2845
815.115	2963
815.256	2823
815.397	2796
815.539	2868
815.68	2762
815.821	2788
815.962	2933
816.103	2895
816.244	2861
816.385	2838
816.526	2975
816.666	2925
816.807	2750
816.948	2864
817.089	2929
817.23	2834
817.371	2781
817.512	2766
817.653	2864
817.793	2826
817.934	2838
818.075	2967
818.216	2979
818.356	3036
818.497	2853
818.638	2720
818.778	2796
818.919	2724
819.06	2724
819.2	2880
819.341	2819
819.481	2785
819.622	2906
819.762	3077
819.903	3001
820.043	2895
820.184	2899
820.324	2895
820.465	2986
820.605	3043
820.746	3005
820.886	2914
821.026	3066
821.167	3150
821.307	3279
821.447	3279
821.588	3199
821.728	3211
821.868	3188
822.008	3066
822.149	3203
822.289	3222
822.429	3066
822.569	3085
822.709	3169
822.849	3005
822.99	3066
823.13	3169
823.27	3211
823.41	3116
823.55	3119
823.69	3173
823.83	3195
823.97	3074
824.11	3077
824.25	2986
824.389	3108
824.529	3131
824.669	3062
824.809	3188
824.949	3283
825.089	3253
825.228	3150
825.368	3074
825.508	3001
825.648	3001
825.787	3055
825.927	3017
826.067	2971
826.206	3013
826.346	3047
826.485	3108
826.625	3123
826.765	3302
826.904	3226
827.044	3024
827.183	2956
827.323	2899
827.462	3043
827.601	2948
827.741	2937
827.88	2986
828.02	2872
828.159	2998
828.298	3055
828.437	3169
828.577	3104
828.716	3264
828.855	3123
828.994	2922
829.134	2960
829.273	2933
829.412	2906
829.551	2887
829.69	2937
829.829	3009
829.968	3161
830.107	3077
830.246	3055
830.385	2944
830.524	2933
830.663	2845
830.802	2785
830.941	2697
831.08	2655
831.219	2792
831.357	2792
831.496	2998
831.635	2766
831.774	2686
831.913	2686
832.051	2621
832.19	2651
832.329	2739
832.467	2590
832.606	2530
832.744	2617
832.883	2655
833.022	2659
833.16	2735
833.299	2708
833.437	2724
833.576	2739
833.714	2785
833.852	2777
833.991	2842
834.129	2880
834.267	2861
834.406	2849
834.544	2914
834.682	2914
834.821	2899
834.959	3100
835.097	2982
835.235	3100
835.373	2994
835.511	3058
835.65	3009
835.788	2998
835.926	2891
836.064	2853
836.202	2899
836.34	3108
836.478	3184
836.615	3066
836.753	3157
836.891	3249
837.029	3188
837.167	3173
837.305	3104
837.443	3070
837.58	3013
837.718	3199
837.856	3104
837.993	3081
838.131	3173
838.269	3100
838.406	3127
838.544	3123
838.681	2967
838.819	2941
838.956	2842
839.094	2895
839.231	2933
839.369	3058
839.506	3439
839.643	3283
839.781	3066
839.918	2998
840.055	3089
840.193	3070
840.33	3097
840.467	3150
840.604	3188
840.742	3420
840.879	3089
841.016	3055
841.153	3135
841.29	3378
841.427	3367
841.564	3298
841.701	3340
841.838	3249
841.975	3214
842.112	3233
842.249	3104
842.385	3112
842.522	3306
842.659	3157
842.796	3093
842.933	3138
843.069	3043
843.206	3051
843.343	3207
843.479	3161
843.616	3176
843.752	2922
843.889	2906
844.025	3127
844.162	2929
844.298	3116
844.435	2960
844.571	2948
844.708	3131
844.844	3218
844.98	3279
845.117	3237
845.253	3104
845.389	3013
845.525	3131
845.661	3112
845.798	3058
845.934	3146
846.07	3055
846.206	3192
846.342	3340
846.478	3253
846.614	3127
846.75	3127
846.886	3066
847.022	3294
847.158	3157
847.294	3260
847.429	3287
847.565	3233
847.701	3496
847.837	3066
847.972	3017
848.108	3180
848.244	3173
848.379	3009
848.515	2952
848.65	2979
848.786	2998
848.921	3066
849.057	3138
849.192	3184
849.328	3112
849.463	3112
849.598	3100
849.734	3062
849.869	3028
850.004	2963
850.14	2994
850.275	2994
850.41	2861
850.545	2914
850.68	2986
850.815	2971
850.95	2975
851.085	3222
851.22	3138
851.355	3077
851.49	3024
851.625	3028
851.76	3020
851.895	2975
852.03	2933
852.165	3070
852.299	3154
852.434	3214
852.569	3176
852.703	3233
852.838	3241
852.973	3431
853.107	3359
853.242	3199
853.376	3070
853.511	2986
853.645	3039
853.78	3256
853.914	3203
854.048	3127
854.183	3074
854.317	3188
854.451	3313
854.585	3165
854.72	3119
854.854	3214
854.988	3058
855.122	3127
855.256	2998
855.39	3173
855.524	3298
855.658	3249
855.792	3180
855.926	3256
856.06	3230
856.194	3310
856.327	3195
856.461	3119
856.595	3089
856.729	3142
856.862	3264
856.996	3192
857.13	3218
857.263	3260
857.397	3298
857.53	3150
857.664	3237
857.797	3260
857.931	3256
858.064	3199
858.197	3222
858.331	3161
858.464	3100
858.597	3013
858.731	3135
858.864	3150
858.997	3135
859.13	3157
859.263	3211
859.396	3260
859.529	3089
859.662	3100
859.795	3066
859.928	3154
860.061	3306
860.194	3336
860.327	3169
860.46	3123
860.592	3268
860.725	3283
860.858	3283
860.99	3176
861.123	3085
861.256	3070
861.388	3195
861.521	3922
861.653	3020
861.786	3005
861.918	3062
862.05	3093
862.183	3127
862.315	3180
862.447	3218
862.58	3150
862.712	2998
862.844	2929
862.976	3077
863.108	3005
863.24	3332
863.372	2922
863.504	3024
863.636	2998
863.768	3032
863.9	3009
864.032	2933
864.164	2960
864.296	3039
864.428	3116
864.559	3112
864.691	3097
864.823	3100
864.954	3077
865.086	3089
865.217	2998
865.349	2979
865.48	3005
865.612	3036
865.743	3173
865.875	3043
866.006	2963
866.137	3020
866.269	3020
866.4	2941
866.531	2948
866.662	2910
866.793	2948
866.924	2906
867.055	2967
867.186	2952
867.317	2937
867.448	2872
867.579	2872
867.71	2883
867.841	2857
867.972	2895
868.103	2971
868.233	2899
868.364	2872
868.495	2960
868.625	3104
868.756	3161
868.886	2982
869.017	3032
869.147	3211
869.278	3199
869.408	3055
869.539	3047
869.669	3142
869.799	3028
869.929	3161
870.06	3112
870.19	3340
870.32	3298
870.45	3313
870.58	3359
870.71	3519
870.84	3477
870.97	3332
871.1	3249
871.23	3488
871.36	3458
871.489	3386
871.619	3401
871.749	3431
871.879	3485
872.008	3496
872.138	3359
872.267	3275
872.397	3161
872.526	3123
872.656	3017
872.785	3123
872.915	3241
873.044	3321
873.173	3222
873.303	3268
873.432	3241
873.561	3260
873.69	3176
873.819	3176
873.948	3207
874.077	3116
874.206	3089
874.335	3104
874.464	3222
874.593	3348
874.722	3283
874.851	3443
874.979	3367
875.108	3344
875.237	3214
875.365	3142
875.494	3195
875.623	3310
875.751	3127
875.88	3112
876.008	3184
876.136	3253
876.265	3409
876.393	3523
876.521	3458
876.65	3405
876.778	3370
876.906	3260
877.034	3211
877.162	3211
877.29	3180
877.418	3294
877.546	3302
877.674	3283
877.802	3275
877.93	3203
878.058	3207
878.185	3150
878.313	3203
878.441	3176
878.568	3085
878.696	3173
878.824	3264
878.951	3291
879.079	3458
879.206	3656
879.333	3454
879.461	3325
879.588	3355
879.715	3496
879.842	3591
879.97	3393
880.097	3180
880.224	3157
880.351	3176
880.478	3260
880.605	3180
880.732	3203
880.859	3526
880.986	3317
881.112	3355
881.239	3226
881.366	3112
881.493	3020
881.619	3017
881.746	3077
881.872	3119
881.999	3123
882.125	3165
882.252	3272
882.378	3298
882.505	3469
882.631	3306
882.757	3180
882.883	3241
883.01	3226
883.136	3192
883.262	3112
883.388	3157
883.514	3351
883.64	3420
883.766	3306
883.892	3169
884.018	3313
884.143	3435
884.269	3572
884.395	3222
884.52	3188
884.646	3226
884.772	3154
884.897	3119
885.023	3214
885.148	3351
885.274	3488
885.399	3405
885.524	3253
885.65	3268
885.775	3344
885.9	3317
886.025	3443
886.15	3389
886.275	3317
886.4	3256
886.525	3321
886.65	3306
886.775	3317
886.9	3477
887.025	3667
887.149	3424
887.274	3253
887.399	3226
887.523	3203
887.648	3203
887.773	3237
887.897	3370
888.021	3409
888.146	3348
888.27	3447
888.395	3561
888.519	3481
888.643	3462
888.767	3458
888.891	3317
889.015	3279
889.139	3329
889.263	3253
889.387	3420
889.511	3530
889.635	3458
889.759	3279
889.883	3310
890.006	3355
890.13	3481
890.254	3294
890.377	3348
890.501	3214
890.624	3211
890.748	3279
890.871	3165
890.995	3157
891.118	3089
891.241	3184
891.364	3226
891.488	3325
891.611	3207
891.734	3237
891.857	3306
891.98	3260
892.103	3336
892.226	3298
892.349	3218
892.471	3123
892.594	3260
892.717	3283
892.839	3294
892.962	3279
893.085	3363
893.207	3329
893.33	3146
893.452	3230
893.575	3344
893.697	3260
893.819	3473
893.941	3511
894.064	3443
894.186	3249
894.308	3298
894.43	3473
894.552	3542
894.674	3447
894.796	3291
894.918	3332
895.04	3287
895.161	3412
895.283	3401
895.405	3340
895.526	3367
895.648	3412
895.769	3447
895.891	3462
896.012	3504
896.134	3473
896.255	3428
896.376	3393
896.498	3405
896.619	3462
896.74	3382
896.861	3447
896.982	3698
897.103	3865
897.224	3595
897.345	3538
897.466	3458
897.587	3523
897.708	3663
897.828	3599
897.949	3450
898.07	3321
898.19	3450
898.311	3622
898.431	3431
898.552	3500
898.672	3595
898.792	3557
898.913	3542
899.033	3431
899.153	3241
899.273	3245
899.393	3275
899.513	3321
899.633	3340
899.753	3359
899.873	3340
899.993	3393
900.113	3367
900.232	3409
900.352	3340
900.472	3306
900.591	3230
900.711	3332
900.83	3253
900.95	3462
901.069	3466
901.189	3363
901.308	3188
901.427	3127
901.546	3211
901.665	3302
901.784	3359
901.904	3188
902.023	3195
902.141	3017
902.26	2971
902.379	3119
902.498	3097
902.617	3043
902.735	3169
902.854	3279
902.973	3195
903.091	3047
903.21	3074
903.328	3142
903.446	3116
903.565	3108
903.683	3233
903.801	3127
903.919	3233
904.038	3310
904.156	3184
904.274	3272
904.392	3279
904.51	3302
904.627	3351
904.745	3435
904.863	3496
904.981	3253
905.098	3142
905.216	3279
905.334	3310
905.451	3336
905.569	3313
905.686	3420
905.803	3447
905.921	3302
906.038	3504
906.155	3355
906.272	3237
906.389	3310
906.506	3237
906.623	3253
906.74	3287
906.857	3222
906.974	3256
907.091	3477
907.208	3572
907.324	3458
907.441	3409
907.557	3249
907.674	3256
907.79	3211
907.907	3302
908.023	3401
908.139	3363
908.256	3313
908.372	3367
908.488	3370
908.604	3317
908.72	3211
908.836	3275
908.952	3294
909.068	3344
909.184	3454
909.3	3405
909.415	3504
909.531	3511
909.647	3275
909.762	3306
909.878	3253
909.993	3363
910.108	3329
910.224	3317
910.339	3420
910.454	3332
910.57	3294
910.685	3237
910.8	3576
910.915	3526
911.03	3420
911.145	3294
911.259	3245
911.374	3294
911.489	3226
911.604	3268
911.718	3161
911.833	3180
911.947	3036
912.062	2982
912.176	3154
912.291	3241
912.405	3245
912.519	3428
912.633	3500
912.748	3355
912.862	3275
912.976	3176
913.09	3100
913.204	3131
913.318	3211
913.431	3363
913.545	3370
913.659	3393
913.772	3344
913.886	3237
914	3230
914.113	3370
914.226	3424
914.34	3393
914.453	3203
914.566	3393
914.68	3264
914.793	3306
914.906	3157
915.019	3119
915.132	3032
915.245	3123
915.358	3211
915.47	3245
915.583	3256
915.696	3321
915.809	3386
915.921	3355
916.034	3226
916.146	3291
916.259	3264
916.371	3386
916.483	3370
916.595	3272
916.708	3348
916.82	3332
916.932	3325
917.044	3355
917.156	3336
917.268	3283
917.38	3294
917.491	3313
917.603	3374
917.715	3428
917.826	3466
917.938	3374
918.049	3249
918.161	3458
918.272	3591
918.384	3580
918.495	3473
918.606	3359
918.717	3302
918.828	3367
918.939	3424
919.05	3332
919.161	3386
919.272	3188
919.383	3313
919.494	3492
919.604	3709
919.715	3504
919.826	3420
919.936	3443
920.047	3584
920.157	3568
920.267	3762
920.378	3580
920.488	3557
920.598	3812
920.708	3956
920.818	3835
920.928	3816
921.038	4036
921.148	3987
921.258	3728
921.368	3625
921.477	3553
921.587	3553
921.697	3488
921.806	3625
921.916	3553
922.025	3336
922.134	3355
922.244	3313
922.353	3447
922.462	3291
922.571	3237
922.68	3119
922.789	3104
922.898	3150
923.007	3104
923.116	3249
923.224	3203
923.333	3203
923.442	3108
923.55	3112
923.659	3146
923.767	3222
923.876	3127
923.984	3291
924.092	3131
924.201	3157
924.309	3249
924.417	3264
924.525	3195
924.633	3237
924.741	4173
924.849	3062
924.956	3253
925.064	3085
925.172	3036
925.279	3104
925.387	3230
925.494	3169
925.602	3359
925.709	3329
925.816	3226
925.924	3268
926.031	3378
926.138	3313
926.245	3374
926.352	3214
926.459	3405
926.566	3443
926.673	3329
926.779	3260
926.886	3237
926.993	3150
927.099	3123
927.206	3093
927.312	3119
927.419	3218
927.525	3207
927.631	3283
927.737	3154
927.843	3127
927.95	3024
928.056	3150
928.162	3176
928.267	3283
928.373	3865
928.479	3279
928.585	3097
928.69	3203
928.796	3279
928.901	3184
929.007	3036
929.112	3188
929.218	3199
929.323	3150
929.428	3154
929.533	3325
929.638	3089
929.743	3192
929.848	3241
929.953	3192
930.058	3123
930.163	2963
930.267	3055
930.372	3230
930.477	3051
930.581	3302
930.685	3203
930.79	3036
930.894	3116
930.998	3097
931.103	3283
931.207	2952
931.311	2948
931.415	2937
931.519	2785
931.623	2834
