Data from test_V78500241_403.txt Node
Date: Fri Mar 25 16:17:59 CST 2022
User: usil
Spectrometer: V785-0024
Trigger mode: 0
Integration Time (sec): 4.000000E-1
Scans to average: 1
Nonlinearity correction enabled: false
Boxcar width: 0
Storing dark spectrum: false
XAxis mode: Wavelengths
Number of Pixels in Spectrum: 1024
>>>>>Begin Spectral Data<<<<<
801.071	2914
801.214	2944
801.356	2857
801.499	2933
801.641	2895
801.783	2902
801.926	3032
802.068	2967
802.211	2986
802.353	3013
802.496	2948
802.638	2998
802.78	3017
802.923	3081
803.065	3020
803.208	2899
803.35	2906
803.492	2929
803.635	2922
803.777	2769
803.919	2838
804.061	3173
804.204	2956
804.346	2902
804.488	2857
804.63	2994
804.773	2868
804.915	2922
805.057	3123
805.199	2922
805.341	2963
805.483	3058
805.626	3001
805.768	2933
805.91	3074
806.052	3131
806.194	3028
806.336	3245
806.478	3051
806.62	2952
806.762	2918
806.904	3036
807.046	3199
807.188	3005
807.33	2887
807.472	3001
807.614	2891
807.756	2948
807.898	2922
808.04	2891
808.182	3013
808.324	2956
808.465	2857
808.607	2899
808.749	2773
808.891	2838
809.033	2994
809.174	2944
809.316	2887
809.458	2887
809.6	2788
809.741	2781
809.883	2746
810.025	2876
810.166	2838
810.308	2849
810.45	2861
810.591	2811
810.733	2773
810.875	2861
811.016	2781
811.158	2766
811.299	2804
811.441	2941
811.582	2929
811.724	2811
811.865	2826
812.007	2910
812.148	2857
812.29	2838
812.431	2864
812.573	2963
812.714	2982
812.855	3047
812.997	3055
813.138	3112
813.279	3009
813.421	2979
813.562	2963
813.703	2861
813.845	2902
813.986	2739
814.127	2743
814.268	2842
814.41	2845
814.551	2811
814.692	2880
814.833	2811
814.974	2883
815.115	2956
815.256	2819
815.397	2815
815.539	2845
815.68	2800
815.821	2819
815.962	2944
816.103	2925
816.244	2853
816.385	2872
816.526	2956
816.666	2887
816.807	2758
816.948	2876
817.089	2963
817.23	2857
817.371	2758
817.512	2830
817.653	2853
817.793	2815
817.934	2876
818.075	2975
818.216	2998
818.356	3051
818.497	2895
818.638	2811
818.778	2815
818.919	2838
819.06	2758
819.2	2864
819.341	2834
819.481	2804
819.622	2944
819.762	3093
819.903	3036
820.043	2918
820.184	2914
820.324	2899
820.465	3013
820.605	3047
820.746	3039
820.886	2914
821.026	3112
821.167	3138
821.307	3230
821.447	3268
821.588	3249
821.728	3199
821.868	3154
822.008	3062
822.149	3199
822.289	3207
822.429	3062
822.569	3123
822.709	3157
822.849	3013
822.99	3070
823.13	3142
823.27	3214
823.41	3108
823.55	3192
823.69	3123
823.83	3184
823.97	3100
824.11	2979
824.25	3009
824.389	3097
824.529	3055
824.669	3017
824.809	3192
824.949	3222
825.089	3237
825.228	3157
825.368	2990
825.508	2952
825.648	2918
825.787	3028
825.927	3009
826.067	2941
826.206	2956
826.346	3020
826.485	3062
826.625	3081
826.765	3294
826.904	3192
827.044	2998
827.183	2937
827.323	2872
827.462	2967
827.601	2895
827.741	2933
827.88	2929
828.02	2845
828.159	2963
828.298	3058
828.437	3100
828.577	3024
828.716	3237
828.855	3085
828.994	2937
829.134	2876
829.273	2910
829.412	2868
829.551	2861
829.69	2906
829.829	2998
829.968	3127
830.107	3020
830.246	3017
830.385	2918
830.524	2883
830.663	2823
830.802	2743
830.941	2659
831.08	2598
831.219	2746
831.357	2750
831.496	2922
831.635	2716
831.774	2644
831.913	2636
832.051	2571
832.19	2575
832.329	2693
832.467	2583
832.606	2442
832.744	2541
832.883	2560
833.022	2590
833.16	2625
833.299	2674
833.437	2689
833.576	2655
833.714	2705
833.852	2716
833.991	2746
834.129	2826
834.267	2819
834.406	2785
834.544	2853
834.682	2887
834.821	2830
834.959	3066
835.097	2891
835.235	3085
835.373	2982
835.511	3013
835.65	2925
835.788	2967
835.926	2811
836.064	2815
836.202	2819
836.34	3085
836.478	3138
836.615	3024
836.753	3150
836.891	3195
837.029	3135
837.167	3085
837.305	3028
837.443	3017
837.58	2994
837.718	3150
837.856	3089
837.993	3024
838.131	3123
838.269	3085
838.406	3093
838.544	3081
838.681	2948
838.819	2914
838.956	2800
839.094	2807
839.231	2929
839.369	3009
839.506	3363
839.643	3214
839.781	2986
839.918	2952
840.055	3032
840.193	3039
840.33	3097
840.467	3097
840.604	3142
840.742	3382
840.879	3047
841.016	3032
841.153	3077
841.29	3317
841.427	3313
841.564	3226
841.701	3294
841.838	3233
841.975	3165
842.112	3176
842.249	3089
842.385	3081
842.522	3233
842.659	3085
842.796	3028
842.933	3138
843.069	3020
843.206	3028
843.343	3157
843.479	3097
843.616	3097
843.752	2872
843.889	2872
844.025	3097
844.162	2872
844.298	3089
844.435	2918
844.571	2895
844.708	3074
844.844	3154
844.98	3222
845.117	3173
845.253	3085
845.389	3005
845.525	3146
845.661	3074
845.798	3001
845.934	3097
846.07	3058
846.206	3195
846.342	3313
846.478	3233
846.614	3074
846.75	3036
846.886	3017
847.022	3249
847.158	3169
847.294	3211
847.429	3241
847.565	3241
847.701	3492
847.837	3036
847.972	2982
848.108	3173
848.244	3169
848.379	2986
848.515	2956
848.65	2937
848.786	2975
848.921	3013
849.057	3112
849.192	3135
849.328	3024
849.463	3142
849.598	3066
849.734	3024
849.869	2971
850.004	2925
850.14	2944
850.275	2899
850.41	2788
850.545	2861
850.68	2906
850.815	2948
850.95	2971
851.085	3214
851.22	3104
851.355	3028
851.49	2975
851.625	2990
851.76	3005
851.895	2910
852.03	2887
852.165	3074
852.299	3116
852.434	3161
852.569	3119
852.703	3192
852.838	3256
852.973	3351
853.107	3336
853.242	3146
853.376	3112
853.511	2971
853.645	3001
853.78	3256
853.914	3093
854.048	3112
854.183	3089
854.317	3161
854.451	3279
854.585	3093
854.72	3062
854.854	3226
854.988	2998
855.122	3047
855.256	2956
855.39	3119
855.524	3207
855.658	3203
855.792	3176
855.926	3203
856.06	3226
856.194	3272
856.327	3127
856.461	3058
856.595	3058
856.729	3074
856.862	3188
856.996	3161
857.13	3180
857.263	3214
857.397	3291
857.53	3135
857.664	3157
857.797	3241
857.931	3230
858.064	3169
858.197	3195
858.331	3100
858.464	3097
858.597	3024
858.731	3108
858.864	3116
858.997	3104
859.13	3169
859.263	3188
859.396	3199
859.529	3062
859.662	3055
859.795	3043
859.928	3116
860.061	3275
860.194	3294
860.327	3123
860.46	3077
860.592	3218
860.725	3222
860.858	3256
860.99	3112
861.123	3043
861.256	3070
861.388	3169
861.521	3823
861.653	3001
861.786	3039
861.918	2998
862.05	3077
862.183	3123
862.315	3161
862.447	3176
862.58	3081
862.712	2960
862.844	2876
862.976	3020
863.108	2994
863.24	3393
863.372	2842
863.504	3009
863.636	2933
863.768	3001
863.9	2975
864.032	2880
864.164	2960
864.296	2982
864.428	3070
864.559	3055
864.691	3066
864.823	3036
864.954	3028
865.086	3058
865.217	2979
865.349	2967
865.48	2975
865.612	3024
865.743	3138
865.875	2979
866.006	2937
866.137	2971
866.269	2895
866.4	2956
866.531	2910
866.662	2891
866.793	2895
866.924	2910
867.055	2944
867.186	2937
867.317	2899
867.448	2834
867.579	2849
867.71	2845
867.841	2792
867.972	2887
868.103	2872
868.233	2845
868.364	2895
868.495	2876
868.625	3089
868.756	3180
868.886	2967
869.017	3036
869.147	3138
869.278	3157
869.408	3047
869.539	3001
869.669	3097
869.799	3043
869.929	3097
870.06	3116
870.19	3359
870.32	3313
870.45	3332
870.58	3382
870.71	3462
870.84	3431
870.97	3313
871.1	3222
871.23	3416
871.36	3454
871.489	3348
871.619	3397
871.749	3405
871.879	3431
872.008	3507
872.138	3340
872.267	3283
872.397	3161
872.526	3104
872.656	3009
872.785	3097
872.915	3222
873.044	3302
873.173	3214
873.303	3218
873.432	3233
873.561	3222
873.69	3161
873.819	3123
873.948	3195
874.077	3138
874.206	3028
874.335	3123
874.464	3199
874.593	3321
874.722	3211
874.851	3401
874.979	3344
875.108	3329
875.237	3165
875.365	3161
875.494	3180
875.623	3214
875.751	3093
875.88	3112
876.008	3214
876.136	3192
876.265	3378
876.393	3477
876.521	3401
876.65	3401
876.778	3306
876.906	3298
877.034	3192
877.162	3256
877.29	3165
877.418	3237
877.546	3256
877.674	3226
877.802	3245
877.93	3207
878.058	3138
878.185	3081
878.313	3184
878.441	3195
878.568	3047
878.696	3173
878.824	3253
878.951	3260
879.079	3447
879.206	3576
879.333	3424
879.461	3313
879.588	3382
879.715	3481
879.842	3561
879.97	3393
880.097	3161
880.224	3131
880.351	3173
880.478	3241
880.605	3211
880.732	3165
880.859	3511
880.986	3279
881.112	3329
881.239	3214
881.366	3081
881.493	3017
881.619	2990
881.746	3074
881.872	3093
881.999	3116
882.125	3142
882.252	3253
882.378	3253
882.505	3416
882.631	3279
882.757	3176
882.883	3180
883.01	3211
883.136	3180
883.262	3146
883.388	3119
883.514	3302
883.64	3363
883.766	3329
883.892	3176
884.018	3214
884.143	3424
884.269	3492
884.395	3218
884.52	3176
884.646	3184
884.772	3123
884.897	3104
885.023	3237
885.148	3336
885.274	3378
885.399	3329
885.524	3256
885.65	3291
885.775	3313
885.9	3260
886.025	3439
886.15	3348
886.275	3317
886.4	3218
886.525	3310
886.65	3230
886.775	3268
886.9	3515
887.025	3580
887.149	3420
887.274	3207
887.399	3184
887.523	3192
887.648	3157
887.773	3222
887.897	3412
888.021	3401
888.146	3272
888.27	3401
888.395	3515
888.519	3431
888.643	3447
888.767	3416
888.891	3272
889.015	3218
889.139	3294
889.263	3241
889.387	3397
889.511	3511
889.635	3458
889.759	3283
889.883	3283
890.006	3370
890.13	3496
890.254	3325
890.377	3336
890.501	3214
890.624	3214
890.748	3287
890.871	3184
890.995	3119
891.118	3081
891.241	3222
891.364	3245
891.488	3336
891.611	3150
891.734	3253
891.857	3287
891.98	3237
892.103	3310
892.226	3283
892.349	3214
892.471	3116
892.594	3184
892.717	3256
892.839	3279
892.962	3256
893.085	3359
893.207	3283
893.33	3157
893.452	3233
893.575	3340
893.697	3211
893.819	3466
893.941	3523
894.064	3458
894.186	3253
894.308	3268
894.43	3469
894.552	3530
894.674	3462
894.796	3264
894.918	3306
895.04	3294
895.161	3386
895.283	3386
895.405	3279
895.526	3351
895.648	3439
895.769	3431
895.891	3416
896.012	3507
896.134	3469
896.255	3428
896.376	3370
896.498	3336
896.619	3389
896.74	3386
896.861	3389
896.982	3698
897.103	3842
897.224	3591
897.345	3447
897.466	3401
897.587	3496
897.708	3606
897.828	3534
897.949	3397
898.07	3321
898.19	3443
898.311	3587
898.431	3443
898.552	3538
898.672	3561
898.792	3568
898.913	3576
899.033	3412
899.153	3283
899.273	3203
899.393	3294
899.513	3348
899.633	3294
899.753	3317
899.873	3310
899.993	3382
900.113	3355
900.232	3416
900.352	3336
900.472	3279
900.591	3230
900.711	3272
900.83	3241
900.95	3412
901.069	3462
901.189	3355
901.308	3176
901.427	3161
901.546	3188
901.665	3294
901.784	3310
901.904	3180
902.023	3138
902.141	2994
902.26	3009
902.379	3127
902.498	3043
902.617	3062
902.735	3207
902.854	3245
902.973	3176
903.091	3039
903.21	3070
903.328	3146
903.446	3116
903.565	3089
903.683	3184
903.801	3097
903.919	3245
904.038	3260
904.156	3146
904.274	3329
904.392	3264
904.51	3298
904.627	3370
904.745	3447
904.863	3462
904.981	3256
905.098	3165
905.216	3233
905.334	3298
905.451	3321
905.569	3302
905.686	3412
905.803	3450
905.921	3268
906.038	3428
906.155	3355
906.272	3306
906.389	3294
906.506	3256
906.623	3256
906.74	3264
906.857	3192
906.974	3264
907.091	3447
907.208	3526
907.324	3450
907.441	3393
907.557	3226
907.674	3245
907.79	3192
907.907	3287
908.023	3382
908.139	3367
908.256	3355
908.372	3344
908.488	3351
908.604	3253
908.72	3275
908.836	3275
908.952	3272
909.068	3344
909.184	3481
909.3	3386
909.415	3511
909.531	3473
909.647	3253
909.762	3306
909.878	3233
909.993	3397
910.108	3363
910.224	3355
910.339	3397
910.454	3321
910.57	3302
910.685	3222
910.8	3622
910.915	3549
911.03	3454
911.145	3264
911.259	3264
911.374	3332
911.489	3264
911.604	3188
911.718	3123
911.833	3138
911.947	3036
912.062	2986
912.176	3169
912.291	3157
912.405	3226
912.519	3435
912.633	3473
912.748	3321
912.862	3294
912.976	3165
913.09	3058
913.204	3119
913.318	3260
913.431	3306
913.545	3317
913.659	3416
913.772	3321
913.886	3249
914	3188
914.113	3370
914.226	3397
914.34	3367
914.453	3214
914.566	3401
914.68	3298
914.793	3287
914.906	3112
915.019	3085
915.132	3093
915.245	3154
915.358	3169
915.47	3249
915.583	3260
915.696	3260
915.809	3397
915.921	3393
916.034	3176
916.146	3256
916.259	3207
916.371	3378
916.483	3340
916.595	3260
916.708	3298
916.82	3321
916.932	3340
917.044	3344
917.156	3344
917.268	3222
917.38	3294
917.491	3298
917.603	3355
917.715	3477
917.826	3450
917.938	3420
918.049	3249
918.161	3458
918.272	3561
918.384	3538
918.495	3488
918.606	3348
918.717	3249
918.828	3409
918.939	3348
919.05	3313
919.161	3393
919.272	3192
919.383	3287
919.494	3507
919.604	3660
919.715	3492
919.826	3355
919.936	3481
920.047	3587
920.157	3576
920.267	3747
920.378	3629
920.488	3561
920.598	3785
920.708	3949
920.818	3816
920.928	3804
921.038	4021
921.148	4025
921.258	3705
921.368	3614
921.477	3580
921.587	3542
921.697	3488
921.806	3648
921.916	3545
922.025	3363
922.134	3336
922.244	3344
922.353	3454
922.462	3260
922.571	3245
922.68	3119
922.789	3070
922.898	3173
923.007	3112
923.116	3226
923.224	3192
923.333	3199
923.442	3112
923.55	3036
923.659	3165
923.767	3188
923.876	3089
923.984	3260
924.092	3119
924.201	3176
924.309	3222
924.417	3260
924.525	3188
924.633	3253
924.741	4200
924.849	3005
924.956	3226
925.064	3093
925.172	3020
925.279	3077
925.387	3192
925.494	3203
925.602	3374
925.709	3310
925.816	3188
925.924	3272
926.031	3386
926.138	3329
926.245	3336
926.352	3256
926.459	3401
926.566	3488
926.673	3317
926.779	3233
926.886	3203
926.993	3123
927.099	3123
927.206	3058
927.312	3097
927.419	3211
927.525	3188
927.631	3294
927.737	3135
927.843	3127
927.95	3009
928.056	3146
928.162	3207
928.267	3214
928.373	3896
928.479	3317
928.585	3066
928.69	3218
928.796	3272
928.901	3203
929.007	3066
929.112	3188
929.218	3192
929.323	3116
929.428	3154
929.533	3313
929.638	3097
929.743	3180
929.848	3233
929.953	3230
930.058	3157
930.163	3039
930.267	3100
930.372	3188
930.477	3017
930.581	3264
930.685	3218
930.79	3058
930.894	3119
930.998	3119
931.103	3264
931.207	2922
931.311	2956
931.415	2914
931.519	2739
931.623	2781
