Data from test_V78500241_1997.txt Node
Date: Fri Mar 25 16:29:02 CST 2022
User: usil
Spectrometer: V785-0024
Trigger mode: 0
Integration Time (sec): 4.000000E-1
Scans to average: 1
Nonlinearity correction enabled: false
Boxcar width: 0
Storing dark spectrum: false
XAxis mode: Wavelengths
Number of Pixels in Spectrum: 1024
>>>>>Begin Spectral Data<<<<<
801.071	2948
801.214	2941
801.356	2861
801.499	2929
801.641	2861
801.783	2975
801.926	3051
802.068	3005
802.211	2960
802.353	3017
802.496	2986
802.638	3017
802.78	3032
802.923	3074
803.065	3020
803.208	2906
803.35	2887
803.492	2929
803.635	2914
803.777	2788
803.919	2853
804.061	3211
804.204	2956
804.346	2899
804.488	2883
804.63	2967
804.773	2872
804.915	2902
805.057	3070
805.199	2872
805.341	2979
805.483	3058
805.626	3009
805.768	2982
805.91	3097
806.052	3123
806.194	3066
806.336	3245
806.478	3032
806.62	2933
806.762	2952
806.904	3066
807.046	3199
807.188	2979
807.33	2902
807.472	2956
807.614	2929
807.756	2971
807.898	2922
808.04	2906
808.182	2979
808.324	2941
808.465	2906
808.607	2891
808.749	2804
808.891	2815
809.033	2971
809.174	2986
809.316	2880
809.458	2902
809.6	2758
809.741	2796
809.883	2781
810.025	2868
810.166	2849
810.308	2826
810.45	2830
810.591	2758
810.733	2769
810.875	2826
811.016	2785
811.158	2743
811.299	2815
811.441	2963
811.582	2922
811.724	2826
811.865	2857
812.007	2876
812.148	2861
812.29	2861
812.431	2887
812.573	2925
812.714	2952
812.855	3062
812.997	3074
813.138	3135
813.279	2990
813.421	3005
813.562	2971
813.703	2853
813.845	2887
813.986	2792
814.127	2735
814.268	2807
814.41	2842
814.551	2815
814.692	2845
814.833	2819
814.974	2883
815.115	2971
815.256	2834
815.397	2815
815.539	2857
815.68	2766
815.821	2788
815.962	2941
816.103	2910
816.244	2864
816.385	2864
816.526	2986
816.666	2849
816.807	2735
816.948	2880
817.089	2880
817.23	2826
817.371	2777
817.512	2781
817.653	2834
817.793	2830
817.934	2880
818.075	2941
818.216	2960
818.356	3001
818.497	2872
818.638	2781
818.778	2796
818.919	2785
819.06	2746
819.2	2853
819.341	2792
819.481	2815
819.622	2956
819.762	3108
819.903	3028
820.043	2922
820.184	2925
820.324	2880
820.465	3005
820.605	2998
820.746	3036
820.886	2952
821.026	3081
821.167	3150
821.307	3207
821.447	3253
821.588	3268
821.728	3233
821.868	3195
822.008	3074
822.149	3161
822.289	3264
822.429	3062
822.569	3047
822.709	3169
822.849	3020
822.99	3058
823.13	3131
823.27	3192
823.41	3074
823.55	3165
823.69	3176
823.83	3188
823.97	3131
824.11	3013
824.25	3005
824.389	3089
824.529	3097
824.669	3070
824.809	3184
824.949	3279
825.089	3253
825.228	3157
825.368	2982
825.508	2948
825.648	2967
825.787	2990
825.927	3005
826.067	2963
826.206	2922
826.346	3024
826.485	3081
826.625	3112
826.765	3264
826.904	3211
827.044	2963
827.183	2933
827.323	2834
827.462	3001
827.601	2933
827.741	2933
827.88	2937
828.02	2868
828.159	2952
828.298	3001
828.437	3142
828.577	3032
828.716	3253
828.855	3058
828.994	2918
829.134	2861
829.273	2891
829.412	2861
829.551	2864
829.69	2906
829.829	2994
829.968	3154
830.107	3028
830.246	3009
830.385	2910
830.524	2872
830.663	2842
830.802	2724
830.941	2655
831.08	2632
831.219	2766
831.357	2754
831.496	2925
831.635	2705
831.774	2617
831.913	2682
832.051	2560
832.19	2571
832.329	2697
832.467	2530
832.606	2431
832.744	2598
832.883	2549
833.022	2598
833.16	2651
833.299	2670
833.437	2697
833.576	2651
833.714	2739
833.852	2727
833.991	2777
834.129	2838
834.267	2815
834.406	2777
834.544	2834
834.682	2872
834.821	2857
834.959	3020
835.097	2899
835.235	3032
835.373	3017
835.511	3005
835.65	2933
835.788	2963
835.926	2819
836.064	2800
836.202	2853
836.34	3100
836.478	3112
836.615	3020
836.753	3131
836.891	3226
837.029	3161
837.167	3135
837.305	3074
837.443	3039
837.58	2948
837.718	3127
837.856	3062
837.993	3024
838.131	3131
838.269	3089
838.406	3081
838.544	3077
838.681	2948
838.819	2887
838.956	2807
839.094	2796
839.231	2891
839.369	2986
839.506	3355
839.643	3222
839.781	2971
839.918	2929
840.055	3051
840.193	3039
840.33	3074
840.467	3093
840.604	3154
840.742	3401
840.879	3020
841.016	3051
841.153	3142
841.29	3298
841.427	3294
841.564	3207
841.701	3287
841.838	3226
841.975	3135
842.112	3195
842.249	3089
842.385	3055
842.522	3245
842.659	3112
842.796	3066
842.933	3108
843.069	3020
843.206	3028
843.343	3173
843.479	3100
843.616	3089
843.752	2891
843.889	2853
844.025	3081
844.162	2876
844.298	3089
844.435	2941
844.571	2925
844.708	3097
844.844	3180
844.98	3237
845.117	3157
845.253	3058
845.389	2994
845.525	3085
845.661	3077
845.798	3013
845.934	3116
846.07	3055
846.206	3214
846.342	3329
846.478	3218
846.614	3127
846.75	3032
846.886	3005
847.022	3241
847.158	3173
847.294	3180
847.429	3260
847.565	3256
847.701	3500
847.837	3013
847.972	3001
848.108	3146
848.244	3093
848.379	2986
848.515	2929
848.65	2941
848.786	2986
848.921	3032
849.057	3123
849.192	3161
849.328	3100
849.463	3085
849.598	3028
849.734	3036
849.869	3005
850.004	2933
850.14	2967
850.275	2899
850.41	2845
850.545	2838
850.68	2960
850.815	2952
850.95	2948
851.085	3199
851.22	3070
851.355	3020
851.49	2960
851.625	2960
851.76	3013
851.895	2925
852.03	2876
852.165	3070
852.299	3112
852.434	3154
852.569	3150
852.703	3180
852.838	3253
852.973	3325
853.107	3302
853.242	3184
853.376	3104
853.511	2971
853.645	3039
853.78	3180
853.914	3089
854.048	3108
854.183	3058
854.317	3131
854.451	3313
854.585	3116
854.72	3055
854.854	3180
854.988	3051
855.122	3093
855.256	2963
855.39	3138
855.524	3253
855.658	3176
855.792	3142
855.926	3207
856.06	3203
856.194	3226
856.327	3150
856.461	3039
856.595	3097
856.729	3097
856.862	3230
856.996	3146
857.13	3165
857.263	3272
857.397	3279
857.53	3131
857.664	3207
857.797	3241
857.931	3237
858.064	3237
858.197	3207
858.331	3161
858.464	3123
858.597	3028
858.731	3085
858.864	3127
858.997	3066
859.13	3146
859.263	3127
859.396	3207
859.529	3089
859.662	3062
859.795	3005
859.928	3131
860.061	3272
860.194	3272
860.327	3077
860.46	3089
860.592	3226
860.725	3203
860.858	3279
860.99	3077
861.123	3009
861.256	3020
861.388	3146
861.521	3888
861.653	3028
861.786	2933
861.918	2990
862.05	3066
862.183	3097
862.315	3169
862.447	3230
862.58	3093
862.712	2929
862.844	2891
862.976	3001
863.108	3005
863.24	3431
863.372	2857
863.504	2975
863.636	2963
863.768	2986
863.9	2982
864.032	2876
864.164	2929
864.296	3024
864.428	3070
864.559	3062
864.691	3051
864.823	3066
864.954	3020
865.086	3039
865.217	2990
865.349	2922
865.48	2998
865.612	3005
865.743	3146
865.875	2952
866.006	2975
866.137	2960
866.269	2902
866.4	2948
866.531	2918
866.662	2899
866.793	2876
866.924	2887
867.055	2982
867.186	2872
867.317	2864
867.448	2845
867.579	2842
867.71	2838
867.841	2807
867.972	2876
868.103	2891
868.233	2883
868.364	2868
868.495	2902
868.625	3074
868.756	3157
868.886	2967
869.017	2998
869.147	3157
869.278	3176
869.408	3066
869.539	2990
869.669	3066
869.799	3028
869.929	3112
870.06	3089
870.19	3336
870.32	3279
870.45	3313
870.58	3351
870.71	3409
870.84	3431
870.97	3268
871.1	3226
871.23	3454
871.36	3439
871.489	3363
871.619	3428
871.749	3435
871.879	3397
872.008	3439
872.138	3329
872.267	3222
872.397	3131
872.526	3097
872.656	3001
872.785	3104
872.915	3207
873.044	3287
873.173	3222
873.303	3226
873.432	3184
873.561	3237
873.69	3165
873.819	3142
873.948	3207
874.077	3131
874.206	3009
874.335	3093
874.464	3195
874.593	3344
874.722	3207
874.851	3348
874.979	3283
875.108	3283
875.237	3161
875.365	3138
875.494	3154
875.623	3222
875.751	3077
875.88	3123
876.008	3184
876.136	3253
876.265	3374
876.393	3454
876.521	3439
876.65	3374
876.778	3302
876.906	3207
877.034	3245
877.162	3226
877.29	3165
877.418	3275
877.546	3272
877.674	3211
877.802	3237
877.93	3237
878.058	3161
878.185	3123
878.313	3203
878.441	3211
878.568	3051
878.696	3165
878.824	3298
878.951	3321
879.079	3443
879.206	3629
879.333	3466
879.461	3317
879.588	3329
879.715	3466
879.842	3549
879.97	3367
880.097	3176
880.224	3097
880.351	3150
880.478	3222
880.605	3169
880.732	3195
880.859	3500
880.986	3317
881.112	3336
881.239	3142
881.366	3074
881.493	3020
881.619	3024
881.746	3058
881.872	3104
881.999	3127
882.125	3157
882.252	3233
882.378	3287
882.505	3397
882.631	3272
882.757	3146
882.883	3199
883.01	3233
883.136	3135
883.262	3058
883.388	3127
883.514	3363
883.64	3397
883.766	3325
883.892	3203
884.018	3237
884.143	3382
884.269	3526
884.395	3211
884.52	3211
884.646	3226
884.772	3131
884.897	3112
885.023	3195
885.148	3363
885.274	3412
885.399	3378
885.524	3241
885.65	3245
885.775	3298
885.9	3298
886.025	3393
886.15	3393
886.275	3329
886.4	3268
886.525	3321
886.65	3237
886.775	3283
886.9	3469
887.025	3629
887.149	3409
887.274	3237
887.399	3195
887.523	3188
887.648	3184
887.773	3184
887.897	3386
888.021	3359
888.146	3268
888.27	3428
888.395	3542
888.519	3443
888.643	3389
888.767	3469
888.891	3298
889.015	3226
889.139	3287
889.263	3260
889.387	3412
889.511	3542
889.635	3420
889.759	3279
889.883	3291
890.006	3416
890.13	3466
890.254	3283
890.377	3359
890.501	3173
890.624	3180
890.748	3287
890.871	3165
890.995	3081
891.118	3017
891.241	3157
891.364	3214
891.488	3363
891.611	3192
891.734	3214
891.857	3294
891.98	3245
892.103	3348
892.226	3279
892.349	3207
892.471	3116
892.594	3268
892.717	3268
892.839	3268
892.962	3249
893.085	3355
893.207	3287
893.33	3150
893.452	3203
893.575	3310
893.697	3241
893.819	3454
893.941	3515
894.064	3466
894.186	3230
894.308	3260
894.43	3409
894.552	3542
894.674	3458
894.796	3253
894.918	3317
895.04	3294
895.161	3450
895.283	3351
895.405	3329
895.526	3389
895.648	3443
895.769	3397
895.891	3428
896.012	3447
896.134	3443
896.255	3367
896.376	3389
896.498	3332
896.619	3401
896.74	3363
896.861	3348
896.982	3679
897.103	3884
897.224	3561
897.345	3488
897.466	3439
897.587	3488
897.708	3606
897.828	3530
897.949	3439
898.07	3321
898.19	3386
898.311	3595
898.431	3443
898.552	3481
898.672	3549
898.792	3580
898.913	3523
899.033	3409
899.153	3294
899.273	3199
899.393	3272
899.513	3340
899.633	3268
899.753	3313
899.873	3332
899.993	3401
900.113	3355
900.232	3355
900.352	3310
900.472	3245
900.591	3214
900.711	3253
900.83	3245
900.95	3416
901.069	3500
901.189	3336
901.308	3192
901.427	3123
901.546	3195
901.665	3329
901.784	3363
901.904	3192
902.023	3192
902.141	3017
902.26	2971
902.379	3146
902.498	3070
902.617	3028
902.735	3207
902.854	3214
902.973	3188
903.091	3039
903.21	3043
903.328	3154
903.446	3089
903.565	3089
903.683	3199
903.801	3135
903.919	3260
904.038	3268
904.156	3199
904.274	3268
904.392	3264
904.51	3306
904.627	3306
904.745	3397
904.863	3473
904.981	3237
905.098	3184
905.216	3203
905.334	3272
905.451	3294
905.569	3325
905.686	3450
905.803	3447
905.921	3298
906.038	3428
906.155	3386
906.272	3241
906.389	3359
906.506	3207
906.623	3245
906.74	3245
906.857	3188
906.974	3260
907.091	3428
907.208	3580
907.324	3473
907.441	3363
907.557	3214
907.674	3226
907.79	3207
907.907	3283
908.023	3336
908.139	3351
908.256	3340
908.372	3344
908.488	3332
908.604	3272
908.72	3253
908.836	3256
908.952	3237
909.068	3325
909.184	3496
909.3	3374
909.415	3511
909.531	3488
909.647	3256
909.762	3294
909.878	3253
909.993	3348
910.108	3317
910.224	3332
910.339	3393
910.454	3287
910.57	3291
910.685	3237
910.8	3599
910.915	3561
911.03	3397
911.145	3264
911.259	3310
911.374	3332
911.489	3283
911.604	3233
911.718	3108
911.833	3165
911.947	3032
912.062	3005
912.176	3135
912.291	3214
912.405	3222
912.519	3409
912.633	3450
912.748	3317
912.862	3256
912.976	3173
913.09	3039
913.204	3116
913.318	3233
913.431	3332
913.545	3321
913.659	3431
913.772	3313
913.886	3199
914	3233
914.113	3367
914.226	3382
914.34	3393
914.453	3180
914.566	3420
914.68	3268
914.793	3302
914.906	3116
915.019	3066
915.132	3051
915.245	3157
915.358	3195
915.47	3214
915.583	3283
915.696	3317
915.809	3428
915.921	3416
916.034	3272
916.146	3264
916.259	3214
916.371	3401
916.483	3355
916.595	3272
916.708	3336
916.82	3298
916.932	3336
917.044	3344
917.156	3321
917.268	3260
917.38	3306
917.491	3317
917.603	3344
917.715	3443
917.826	3447
917.938	3409
918.049	3268
918.161	3389
918.272	3599
918.384	3542
918.495	3473
918.606	3329
918.717	3279
918.828	3378
918.939	3428
919.05	3313
919.161	3325
919.272	3161
919.383	3264
919.494	3485
919.604	3720
919.715	3488
919.826	3416
919.936	3443
920.047	3545
920.157	3500
920.267	3740
920.378	3603
920.488	3568
920.598	3747
920.708	3956
920.818	3827
920.928	3850
921.038	4036
921.148	3998
921.258	3694
921.368	3614
921.477	3614
921.587	3530
921.697	3447
921.806	3644
921.916	3496
922.025	3340
922.134	3344
922.244	3321
922.353	3454
922.462	3272
922.571	3249
922.68	3127
922.789	3070
922.898	3131
923.007	3097
923.116	3249
923.224	3142
923.333	3176
923.442	3089
923.55	3108
923.659	3157
923.767	3203
923.876	3100
923.984	3245
924.092	3104
924.201	3188
924.309	3199
924.417	3241
924.525	3169
924.633	3203
924.741	4154
924.849	3047
924.956	3237
925.064	3085
925.172	3005
925.279	3081
925.387	3173
925.494	3180
925.602	3359
925.709	3321
925.816	3150
925.924	3279
926.031	3378
926.138	3332
926.245	3340
926.352	3222
926.459	3420
926.566	3477
926.673	3260
926.779	3245
926.886	3279
926.993	3138
927.099	3119
927.206	3119
927.312	3089
927.419	3214
927.525	3211
927.631	3264
927.737	3138
927.843	3119
927.95	3009
928.056	3146
928.162	3176
928.267	3260
928.373	3842
928.479	3310
928.585	3070
928.69	3237
928.796	3256
928.901	3180
929.007	3051
929.112	3207
929.218	3165
929.323	3146
929.428	3138
929.533	3291
929.638	3131
929.743	3192
929.848	3241
929.953	3192
930.058	3112
930.163	3028
930.267	3051
930.372	3199
930.477	3055
930.581	3294
930.685	3188
930.79	3058
930.894	3104
930.998	3093
931.103	3283
931.207	2963
931.311	2986
931.415	2914
931.519	2785
931.623	2834
