Data from test_V78500241_986.txt Node
Date: Fri Mar 25 16:22:01 CST 2022
User: usil
Spectrometer: V785-0024
Trigger mode: 0
Integration Time (sec): 4.000000E-1
Scans to average: 1
Nonlinearity correction enabled: false
Boxcar width: 0
Storing dark spectrum: false
XAxis mode: Wavelengths
Number of Pixels in Spectrum: 1024
>>>>>Begin Spectral Data<<<<<
801.071	2960
801.214	2952
801.356	2872
801.499	2937
801.641	2876
801.783	2990
801.926	3066
802.068	2998
802.211	3024
802.353	3051
802.496	3001
802.638	3039
802.78	3036
802.923	3116
803.065	3013
803.208	2891
803.35	2910
803.492	2948
803.635	2922
803.777	2758
803.919	2876
804.061	3249
804.204	2967
804.346	2937
804.488	2857
804.63	2979
804.773	2876
804.915	2925
805.057	3074
805.199	2918
805.341	3020
805.483	3036
805.626	2994
805.768	2975
805.91	3085
806.052	3116
806.194	3032
806.336	3233
806.478	3055
806.62	2967
806.762	2998
806.904	3051
807.046	3146
807.188	3001
807.33	2941
807.472	3017
807.614	2918
807.756	3013
807.898	2933
808.04	2906
808.182	2967
808.324	3017
808.465	2868
808.607	2899
808.749	2792
808.891	2864
809.033	2944
809.174	3024
809.316	2895
809.458	2906
809.6	2807
809.741	2727
809.883	2766
810.025	2902
810.166	2838
810.308	2807
810.45	2838
810.591	2773
810.733	2785
810.875	2845
811.016	2819
811.158	2766
811.299	2823
811.441	2956
811.582	2944
811.724	2811
811.865	2819
812.007	2918
812.148	2876
812.29	2834
812.431	2887
812.573	2933
812.714	2956
812.855	3081
812.997	3062
813.138	3123
813.279	2948
813.421	2998
813.562	2956
813.703	2868
813.845	2891
813.986	2781
814.127	2739
814.268	2830
814.41	2853
814.551	2796
814.692	2883
814.833	2849
814.974	2902
815.115	2929
815.256	2845
815.397	2796
815.539	2857
815.68	2807
815.821	2800
815.962	3009
816.103	2941
816.244	2883
816.385	2876
816.526	2937
816.666	2925
816.807	2769
816.948	2876
817.089	2922
817.23	2834
817.371	2773
817.512	2804
817.653	2853
817.793	2861
817.934	2883
818.075	2960
818.216	3005
818.356	3001
818.497	2910
818.638	2804
818.778	2830
818.919	2773
819.06	2762
819.2	2891
819.341	2796
819.481	2849
819.622	2937
819.762	3085
819.903	3055
820.043	2899
820.184	2891
820.324	2872
820.465	3039
820.605	2967
820.746	3005
820.886	2902
821.026	3108
821.167	3150
821.307	3275
821.447	3321
821.588	3207
821.728	3199
821.868	3169
822.008	3097
822.149	3150
822.289	3214
822.429	3077
822.569	3104
822.709	3161
822.849	3028
822.99	3127
823.13	3135
823.27	3222
823.41	3131
823.55	3135
823.69	3180
823.83	3176
823.97	3077
824.11	2982
824.25	3009
824.389	3051
824.529	3097
824.669	3077
824.809	3184
824.949	3218
825.089	3253
825.228	3127
825.368	3001
825.508	2963
825.648	2994
825.787	3009
825.927	3036
826.067	2998
826.206	2963
826.346	3062
826.485	3070
826.625	3097
826.765	3294
826.904	3211
827.044	3055
827.183	2944
827.323	2864
827.462	2994
827.601	2887
827.741	2937
827.88	2960
828.02	2868
828.159	2952
828.298	3058
828.437	3104
828.577	3009
828.716	3222
828.855	3081
828.994	2937
829.134	2891
829.273	2891
829.412	2868
829.551	2887
829.69	2899
829.829	2963
829.968	3127
830.107	3009
830.246	3028
830.385	2925
830.524	2830
830.663	2834
830.802	2724
830.941	2644
831.08	2648
831.219	2754
831.357	2762
831.496	2967
831.635	2727
831.774	2667
831.913	2648
832.051	2560
832.19	2590
832.329	2693
832.467	2552
832.606	2503
832.744	2621
832.883	2568
833.022	2571
833.16	2606
833.299	2663
833.437	2659
833.576	2708
833.714	2720
833.852	2769
833.991	2773
834.129	2834
834.267	2842
834.406	2773
834.544	2883
834.682	2857
834.821	2883
834.959	3055
835.097	2887
835.235	3062
835.373	2975
835.511	3028
835.65	2963
835.788	2975
835.926	2857
836.064	2796
836.202	2830
836.34	3093
836.478	3146
836.615	3066
836.753	3127
836.891	3180
837.029	3211
837.167	3127
837.305	3093
837.443	3036
837.58	2975
837.718	3127
837.856	3058
837.993	2982
838.131	3116
838.269	3097
838.406	3051
838.544	3081
838.681	2941
838.819	2922
838.956	2792
839.094	2834
839.231	2910
839.369	2990
839.506	3370
839.643	3218
839.781	2998
839.918	2944
840.055	3066
840.193	3058
840.33	3043
840.467	3100
840.604	3169
840.742	3397
840.879	3028
841.016	3093
841.153	3093
841.29	3313
841.427	3302
841.564	3287
841.701	3310
841.838	3199
841.975	3184
842.112	3207
842.249	3104
842.385	3024
842.522	3264
842.659	3077
842.796	3032
842.933	3074
843.069	3047
843.206	3032
843.343	3199
843.479	3108
843.616	3097
843.752	2880
843.889	2838
844.025	3097
844.162	2902
844.298	3070
844.435	2922
844.571	2918
844.708	3089
844.844	3188
844.98	3226
845.117	3207
845.253	3066
845.389	2990
845.525	3131
845.661	3112
845.798	3024
845.934	3123
846.07	3036
846.206	3188
846.342	3317
846.478	3211
846.614	3104
846.75	3047
846.886	3009
847.022	3245
847.158	3150
847.294	3192
847.429	3230
847.565	3173
847.701	3450
847.837	3036
847.972	3013
848.108	3142
848.244	3176
848.379	3024
848.515	2941
848.65	2910
848.786	2937
848.921	3013
849.057	3097
849.192	3169
849.328	3062
849.463	3127
849.598	3039
849.734	3032
849.869	2979
850.004	2899
850.14	2948
850.275	2883
850.41	2826
850.545	2861
850.68	2922
850.815	2994
850.95	2967
851.085	3173
851.22	3081
851.355	3013
851.49	2971
851.625	2994
851.76	2998
851.895	2933
852.03	2925
852.165	3001
852.299	3127
852.434	3161
852.569	3142
852.703	3157
852.838	3218
852.973	3298
853.107	3344
853.242	3165
853.376	3085
853.511	3001
853.645	3028
853.78	3195
853.914	3089
854.048	3089
854.183	3097
854.317	3123
854.451	3306
854.585	3100
854.72	3070
854.854	3218
854.988	3066
855.122	3100
855.256	3001
855.39	3135
855.524	3272
855.658	3207
855.792	3146
855.926	3218
856.06	3233
856.194	3260
856.327	3146
856.461	3062
856.595	3062
856.729	3070
856.862	3237
856.996	3150
857.13	3226
857.263	3203
857.397	3260
857.53	3161
857.664	3176
857.797	3218
857.931	3230
858.064	3135
858.197	3245
858.331	3138
858.464	3051
858.597	2982
858.731	3138
858.864	3173
858.997	3127
859.13	3195
859.263	3154
859.396	3195
859.529	3055
859.662	3074
859.795	3058
859.928	3165
860.061	3268
860.194	3283
860.327	3157
860.46	3100
860.592	3192
860.725	3249
860.858	3222
860.99	3116
861.123	3036
861.256	3062
861.388	3119
861.521	3831
861.653	3017
861.786	2979
861.918	3005
862.05	3047
862.183	3135
862.315	3146
862.447	3180
862.58	3047
862.712	2944
862.844	2849
862.976	3028
863.108	3005
863.24	3386
863.372	2891
863.504	2941
863.636	2922
863.768	3024
863.9	2990
864.032	2895
864.164	2929
864.296	3001
864.428	3058
864.559	3108
864.691	3085
864.823	3055
864.954	3020
865.086	3051
865.217	2986
865.349	2986
865.48	2963
865.612	3009
865.743	3157
865.875	2979
866.006	2960
866.137	2944
866.269	2899
866.4	2918
866.531	2864
866.662	2868
866.793	2868
866.924	2880
867.055	2948
867.186	2925
867.317	2880
867.448	2826
867.579	2861
867.71	2876
867.841	2830
867.972	2891
868.103	2895
868.233	2842
868.364	2891
868.495	2902
868.625	3093
868.756	3142
868.886	2990
869.017	2990
869.147	3169
869.278	3131
869.408	3074
869.539	3066
869.669	3097
869.799	3058
869.929	3138
870.06	3081
870.19	3306
870.32	3260
870.45	3256
870.58	3405
870.71	3462
870.84	3443
870.97	3241
871.1	3203
871.23	3454
871.36	3477
871.489	3344
871.619	3359
871.749	3409
871.879	3431
872.008	3481
872.138	3317
872.267	3272
872.397	3131
872.526	3093
872.656	3017
872.785	3058
872.915	3272
873.044	3310
873.173	3203
873.303	3241
873.432	3230
873.561	3237
873.69	3131
873.819	3154
873.948	3188
874.077	3108
874.206	3005
874.335	3089
874.464	3211
874.593	3310
874.722	3264
874.851	3386
874.979	3367
875.108	3291
875.237	3218
875.365	3176
875.494	3169
875.623	3264
875.751	3047
875.88	3112
876.008	3157
876.136	3233
876.265	3355
876.393	3435
876.521	3386
876.65	3409
876.778	3279
876.906	3264
877.034	3176
877.162	3245
877.29	3214
877.418	3241
877.546	3211
877.674	3249
877.802	3233
877.93	3241
878.058	3104
878.185	3066
878.313	3184
878.441	3203
878.568	3043
878.696	3138
878.824	3253
878.951	3313
879.079	3447
879.206	3614
879.333	3393
879.461	3313
879.588	3367
879.715	3485
879.842	3614
879.97	3378
880.097	3150
880.224	3138
880.351	3169
880.478	3256
880.605	3237
880.732	3161
880.859	3447
880.986	3279
881.112	3317
881.239	3180
881.366	3127
881.493	3043
881.619	3024
881.746	3081
881.872	3070
881.999	3074
882.125	3146
882.252	3283
882.378	3279
882.505	3447
882.631	3264
882.757	3138
882.883	3214
883.01	3176
883.136	3154
883.262	3081
883.388	3100
883.514	3336
883.64	3359
883.766	3310
883.892	3192
884.018	3264
884.143	3397
884.269	3504
884.395	3214
884.52	3161
884.646	3161
884.772	3089
884.897	3097
885.023	3218
885.148	3306
885.274	3416
885.399	3351
885.524	3310
885.65	3268
885.775	3310
885.9	3275
886.025	3420
886.15	3336
886.275	3336
886.4	3226
886.525	3275
886.65	3306
886.775	3264
886.9	3500
887.025	3618
887.149	3386
887.274	3230
887.399	3211
887.523	3176
887.648	3154
887.773	3214
887.897	3405
888.021	3416
888.146	3298
888.27	3439
888.395	3549
888.519	3416
888.643	3462
888.767	3458
888.891	3260
889.015	3268
889.139	3272
889.263	3203
889.387	3431
889.511	3511
889.635	3458
889.759	3313
889.883	3287
890.006	3359
890.13	3485
890.254	3249
890.377	3393
890.501	3214
890.624	3192
890.748	3279
890.871	3211
890.995	3116
891.118	3074
891.241	3176
891.364	3203
891.488	3298
891.611	3184
891.734	3226
891.857	3294
891.98	3207
892.103	3329
892.226	3260
892.349	3199
892.471	3135
892.594	3226
892.717	3222
892.839	3260
892.962	3310
893.085	3321
893.207	3279
893.33	3157
893.452	3241
893.575	3317
893.697	3214
893.819	3485
893.941	3477
894.064	3454
894.186	3272
894.308	3275
894.43	3412
894.552	3523
894.674	3477
894.796	3287
894.918	3321
895.04	3256
895.161	3401
895.283	3370
895.405	3294
895.526	3378
895.648	3389
895.769	3393
895.891	3447
896.012	3477
896.134	3473
896.255	3378
896.376	3363
896.498	3321
896.619	3435
896.74	3363
896.861	3393
896.982	3675
897.103	3857
897.224	3564
897.345	3515
897.466	3420
897.587	3538
897.708	3641
897.828	3523
897.949	3424
898.07	3344
898.19	3367
898.311	3576
898.431	3469
898.552	3485
898.672	3561
898.792	3568
898.913	3488
899.033	3409
899.153	3317
899.273	3176
899.393	3279
899.513	3351
899.633	3310
899.753	3317
899.873	3298
899.993	3393
900.113	3302
900.232	3336
900.352	3359
900.472	3275
900.591	3230
900.711	3287
900.83	3230
900.95	3397
901.069	3481
901.189	3363
901.308	3150
901.427	3119
901.546	3188
901.665	3268
901.784	3359
901.904	3184
902.023	3142
902.141	2982
902.26	3013
902.379	3192
902.498	3036
902.617	3032
902.735	3184
902.854	3287
902.973	3184
903.091	3081
903.21	3055
903.328	3127
903.446	3104
903.565	3104
903.683	3195
903.801	3097
903.919	3230
904.038	3287
904.156	3161
904.274	3298
904.392	3222
904.51	3275
904.627	3332
904.745	3435
904.863	3545
904.981	3230
905.098	3123
905.216	3222
905.334	3264
905.451	3302
905.569	3306
905.686	3374
905.803	3386
905.921	3298
906.038	3409
906.155	3355
906.272	3253
906.389	3313
906.506	3222
906.623	3268
906.74	3272
906.857	3184
906.974	3233
907.091	3435
907.208	3538
907.324	3454
907.441	3386
907.557	3214
907.674	3256
907.79	3173
907.907	3245
908.023	3359
908.139	3374
908.256	3340
908.372	3405
908.488	3386
908.604	3226
908.72	3249
908.836	3260
908.952	3294
909.068	3374
909.184	3496
909.3	3409
909.415	3496
909.531	3485
909.647	3287
909.762	3287
909.878	3253
909.993	3321
910.108	3348
910.224	3321
910.339	3412
910.454	3306
910.57	3256
910.685	3260
910.8	3584
910.915	3538
911.03	3428
911.145	3272
911.259	3233
911.374	3294
911.489	3241
911.604	3195
911.718	3135
911.833	3165
911.947	3032
912.062	2967
912.176	3161
912.291	3180
912.405	3241
912.519	3428
912.633	3462
912.748	3317
912.862	3302
912.976	3165
913.09	3077
913.204	3146
913.318	3203
913.431	3332
913.545	3348
913.659	3424
913.772	3348
913.886	3226
914	3199
914.113	3359
914.226	3435
914.34	3367
914.453	3180
914.566	3450
914.68	3294
914.793	3332
914.906	3142
915.019	3070
915.132	3051
915.245	3180
915.358	3233
915.47	3233
915.583	3253
915.696	3302
915.809	3443
915.921	3424
916.034	3264
916.146	3298
916.259	3249
916.371	3382
916.483	3370
916.595	3249
916.708	3332
916.82	3329
916.932	3344
917.044	3363
917.156	3355
917.268	3230
917.38	3321
917.491	3302
917.603	3336
917.715	3443
917.826	3428
917.938	3348
918.049	3260
918.161	3393
918.272	3595
918.384	3576
918.495	3500
918.606	3329
918.717	3317
918.828	3393
918.939	3447
919.05	3306
919.161	3401
919.272	3192
919.383	3317
919.494	3485
919.604	3682
919.715	3496
919.826	3401
919.936	3435
920.047	3568
920.157	3519
920.267	3701
920.378	3606
920.488	3595
920.598	3793
920.708	3991
920.818	3800
920.928	3816
921.038	3994
921.148	3960
921.258	3682
921.368	3633
921.477	3568
921.587	3553
921.697	3511
921.806	3625
921.916	3530
922.025	3355
922.134	3355
922.244	3298
922.353	3439
922.462	3279
922.571	3199
922.68	3108
922.789	3036
922.898	3154
923.007	3066
923.116	3195
923.224	3192
923.333	3184
923.442	3104
923.55	3138
923.659	3154
923.767	3211
923.876	3142
923.984	3245
924.092	3116
924.201	3211
924.309	3203
924.417	3233
924.525	3230
924.633	3237
924.741	4207
924.849	3081
924.956	3230
925.064	3119
925.172	3024
925.279	3093
925.387	3195
925.494	3195
925.602	3363
925.709	3294
925.816	3176
925.924	3279
926.031	3405
926.138	3310
926.245	3367
926.352	3218
926.459	3424
926.566	3454
926.673	3306
926.779	3256
926.886	3226
926.993	3173
927.099	3116
927.206	3108
927.312	3119
927.419	3222
927.525	3184
927.631	3233
927.737	3180
927.843	3100
927.95	3055
928.056	3131
928.162	3192
928.267	3245
928.373	3869
928.479	3302
928.585	3055
928.69	3237
928.796	3237
928.901	3180
929.007	3036
929.112	3169
929.218	3195
929.323	3154
929.428	3112
929.533	3302
929.638	3116
929.743	3157
929.848	3253
929.953	3176
930.058	3135
930.163	3005
930.267	3058
930.372	3176
930.477	3036
930.581	3332
930.685	3169
930.79	3055
930.894	3150
930.998	3100
931.103	3260
931.207	2952
931.311	2963
931.415	2910
931.519	2727
931.623	2800
