Data from test_V78500241_64.txt Node
Date: Fri Mar 25 16:15:38 CST 2022
User: usil
Spectrometer: V785-0024
Trigger mode: 0
Integration Time (sec): 4.000000E-1
Scans to average: 1
Nonlinearity correction enabled: false
Boxcar width: 0
Storing dark spectrum: false
XAxis mode: Wavelengths
Number of Pixels in Spectrum: 1024
>>>>>Begin Spectral Data<<<<<
801.071	2948
801.214	3017
801.356	2956
801.499	2952
801.641	2960
801.783	2948
801.926	3089
802.068	2990
802.211	3017
802.353	3081
802.496	3009
802.638	3093
802.78	3093
802.923	3123
803.065	3081
803.208	2922
803.35	2944
803.492	2986
803.635	2902
803.777	2823
803.919	2914
804.061	3256
804.204	2986
804.346	2952
804.488	2899
804.63	3009
804.773	2952
804.915	2967
805.057	3180
805.199	2979
805.341	3036
805.483	3085
805.626	3039
805.768	2998
805.91	3100
806.052	3154
806.194	3093
806.336	3279
806.478	3108
806.62	3028
806.762	3043
806.904	3146
807.046	3169
807.188	3055
807.33	2952
807.472	3062
807.614	2960
807.756	3039
807.898	2990
808.04	2944
808.182	3032
808.324	3005
808.465	2956
808.607	2899
808.749	2842
808.891	2899
809.033	3005
809.174	2994
809.316	2963
809.458	2933
809.6	2792
809.741	2785
809.883	2792
810.025	2880
810.166	2880
810.308	2922
810.45	2895
810.591	2842
810.733	2845
810.875	2899
811.016	2845
811.158	2773
811.299	2838
811.441	2990
811.582	2906
811.724	2864
811.865	2853
812.007	2990
812.148	2933
812.29	2887
812.431	2937
812.573	2937
812.714	3036
812.855	3093
812.997	3123
813.138	3192
813.279	3058
813.421	3039
813.562	3013
813.703	2914
813.845	2967
813.986	2815
814.127	2804
814.268	2876
814.41	2857
814.551	2853
814.692	2941
814.833	2849
814.974	2925
815.115	2990
815.256	2899
815.397	2872
815.539	2906
815.68	2838
815.821	2826
815.962	2982
816.103	2971
816.244	2902
816.385	2925
816.526	3013
816.666	2944
816.807	2769
816.948	2929
817.089	2952
817.23	2899
817.371	2861
817.512	2861
817.653	2880
817.793	2883
817.934	2910
818.075	3055
818.216	3062
818.356	3089
818.497	2963
818.638	2842
818.778	2864
818.919	2849
819.06	2762
819.2	2895
819.341	2819
819.481	2857
819.622	2998
819.762	3169
819.903	3066
820.043	2956
820.184	2937
820.324	2979
820.465	3051
820.605	3077
820.746	3074
820.886	2994
821.026	3150
821.167	3199
821.307	3325
821.447	3306
821.588	3264
821.728	3272
821.868	3264
822.008	3127
822.149	3245
822.289	3294
822.429	3085
822.569	3146
822.709	3199
822.849	3074
822.99	3127
823.13	3199
823.27	3291
823.41	3138
823.55	3203
823.69	3214
823.83	3214
823.97	3176
824.11	3058
824.25	3043
824.389	3070
824.529	3188
824.669	3104
824.809	3233
824.949	3287
825.089	3245
825.228	3222
825.368	3036
825.508	3005
825.648	2986
825.787	3058
825.927	3093
826.067	3009
826.206	2994
826.346	3097
826.485	3146
826.625	3188
826.765	3329
826.904	3253
827.044	3047
827.183	2963
827.323	2914
827.462	3017
827.601	2986
827.741	2971
827.88	3009
828.02	2895
828.159	3020
828.298	3055
828.437	3150
828.577	3112
828.716	3329
828.855	3116
828.994	2960
829.134	2922
829.273	2960
829.412	2922
829.551	2906
829.69	2971
829.829	3036
829.968	3150
830.107	3032
830.246	3127
830.385	2960
830.524	2918
830.663	2857
830.802	2773
830.941	2678
831.08	2686
831.219	2781
831.357	2800
831.496	2982
831.635	2754
831.774	2686
831.913	2708
832.051	2541
832.19	2598
832.329	2724
832.467	2594
832.606	2526
832.744	2659
832.883	2613
833.022	2602
833.16	2663
833.299	2716
833.437	2735
833.576	2716
833.714	2781
833.852	2769
833.991	2815
834.129	2823
834.267	2861
834.406	2788
834.544	2944
834.682	2982
834.821	2887
834.959	3108
835.097	2941
835.235	3116
835.373	3028
835.511	3085
835.65	3051
835.788	2986
835.926	2845
836.064	2845
836.202	2895
836.34	3119
836.478	3214
836.615	3100
836.753	3180
836.891	3237
837.029	3230
837.167	3131
837.305	3119
837.443	3055
837.58	3009
837.718	3180
837.856	3127
837.993	3055
838.131	3142
838.269	3135
838.406	3123
838.544	3123
838.681	2979
838.819	2982
838.956	2861
839.094	2868
839.231	2982
839.369	3062
839.506	3454
839.643	3256
839.781	3074
839.918	3009
840.055	3093
840.193	3089
840.33	3108
840.467	3104
840.604	3188
840.742	3435
840.879	3104
841.016	3074
841.153	3138
841.29	3374
841.427	3332
841.564	3313
841.701	3348
841.838	3279
841.975	3207
842.112	3249
842.249	3112
842.385	3081
842.522	3253
842.659	3142
842.796	3112
842.933	3154
843.069	3020
843.206	3077
843.343	3207
843.479	3176
843.616	3154
843.752	2944
843.889	2902
844.025	3116
844.162	2883
844.298	3108
844.435	3017
844.571	2925
844.708	3116
844.844	3245
844.98	3253
845.117	3264
845.253	3127
845.389	3058
845.525	3127
845.661	3138
845.798	3051
845.934	3169
846.07	3085
846.206	3237
846.342	3370
846.478	3237
846.614	3127
846.75	3074
846.886	3055
847.022	3306
847.158	3192
847.294	3260
847.429	3249
847.565	3268
847.701	3530
847.837	3085
847.972	3024
848.108	3195
848.244	3188
848.379	3013
848.515	2998
848.65	2967
848.786	3009
848.921	3017
849.057	3142
849.192	3184
849.328	3127
849.463	3192
849.598	3119
849.734	3062
849.869	2975
850.004	2979
850.14	3024
850.275	2944
850.41	2861
850.545	2899
850.68	2922
850.815	2982
850.95	3013
851.085	3226
851.22	3127
851.355	3066
851.49	3017
851.625	3039
851.76	3051
851.895	2933
852.03	2929
852.165	3085
852.299	3119
852.434	3195
852.569	3173
852.703	3211
852.838	3253
852.973	3336
853.107	3329
853.242	3180
853.376	3089
853.511	3009
853.645	3074
853.78	3275
853.914	3173
854.048	3142
854.183	3123
854.317	3218
854.451	3283
854.585	3161
854.72	3142
854.854	3264
854.988	3108
855.122	3146
855.256	3013
855.39	3135
855.524	3245
855.658	3233
855.792	3222
855.926	3230
856.06	3264
856.194	3306
856.327	3176
856.461	3085
856.595	3138
856.729	3051
856.862	3253
856.996	3233
857.13	3230
857.263	3272
857.397	3321
857.53	3131
857.664	3249
857.797	3283
857.931	3287
858.064	3184
858.197	3237
858.331	3169
858.464	3176
858.597	3013
858.731	3116
858.864	3157
858.997	3127
859.13	3184
859.263	3230
859.396	3207
859.529	3104
859.662	3108
859.795	3047
859.928	3157
860.061	3283
860.194	3313
860.327	3180
860.46	3131
860.592	3275
860.725	3264
860.858	3272
860.99	3154
861.123	3085
861.256	3066
861.388	3192
861.521	3884
861.653	3070
861.786	2998
861.918	3032
862.05	3085
862.183	3146
862.315	3184
862.447	3226
862.58	3108
862.712	2986
862.844	2922
862.976	3066
863.108	3009
863.24	3370
863.372	2887
863.504	3005
863.636	3009
863.768	3047
863.9	3020
864.032	2937
864.164	2990
864.296	3020
864.428	3119
864.559	3165
864.691	3070
864.823	3127
864.954	3135
865.086	3062
865.217	3047
865.349	3001
865.48	3039
865.612	3070
865.743	3184
865.875	2975
866.006	2967
866.137	3039
866.269	2971
866.4	3009
866.531	2967
866.662	2963
866.793	2899
866.924	2914
867.055	2994
867.186	2979
867.317	2929
867.448	2895
867.579	2899
867.71	2876
867.841	2857
867.972	2922
868.103	2967
868.233	2929
868.364	2899
868.495	2925
868.625	3100
868.756	3203
868.886	3001
869.017	3036
869.147	3214
869.278	3195
869.408	3066
869.539	3070
869.669	3150
869.799	3093
869.929	3165
870.06	3142
870.19	3370
870.32	3321
870.45	3306
870.58	3405
870.71	3473
870.84	3500
870.97	3291
871.1	3253
871.23	3507
871.36	3485
871.489	3382
871.619	3435
871.749	3443
871.879	3450
872.008	3488
872.138	3454
872.267	3355
872.397	3192
872.526	3146
872.656	3066
872.785	3123
872.915	3306
873.044	3336
873.173	3233
873.303	3264
873.432	3260
873.561	3287
873.69	3199
873.819	3184
873.948	3222
874.077	3169
874.206	3055
874.335	3123
874.464	3230
874.593	3382
874.722	3272
874.851	3409
874.979	3397
875.108	3378
875.237	3222
875.365	3222
875.494	3180
875.623	3291
875.751	3093
875.88	3146
876.008	3230
876.136	3245
876.265	3386
876.393	3500
876.521	3469
876.65	3428
876.778	3367
876.906	3287
877.034	3222
877.162	3230
877.29	3180
877.418	3283
877.546	3344
877.674	3245
877.802	3279
877.93	3291
878.058	3188
878.185	3119
878.313	3256
878.441	3241
878.568	3062
878.696	3138
878.824	3256
878.951	3325
879.079	3466
879.206	3652
879.333	3507
879.461	3397
879.588	3382
879.715	3530
879.842	3652
879.97	3439
880.097	3188
880.224	3176
880.351	3214
880.478	3256
880.605	3195
880.732	3253
880.859	3572
880.986	3321
881.112	3363
881.239	3203
881.366	3104
881.493	3077
881.619	3055
881.746	3135
881.872	3131
881.999	3127
882.125	3218
882.252	3294
882.378	3287
882.505	3462
882.631	3283
882.757	3211
882.883	3264
883.01	3241
883.136	3161
883.262	3119
883.388	3131
883.514	3378
883.64	3393
883.766	3313
883.892	3199
884.018	3272
884.143	3454
884.269	3591
884.395	3226
884.52	3214
884.646	3184
884.772	3165
884.897	3123
885.023	3230
885.148	3363
885.274	3420
885.399	3389
885.524	3321
885.65	3260
885.775	3374
885.9	3283
886.025	3526
886.15	3416
886.275	3313
886.4	3279
886.525	3332
886.65	3321
886.775	3325
886.9	3549
887.025	3694
887.149	3386
887.274	3329
887.399	3230
887.523	3253
887.648	3180
887.773	3245
887.897	3409
888.021	3428
888.146	3344
888.27	3466
888.395	3572
888.519	3462
888.643	3515
888.767	3515
888.891	3313
889.015	3268
889.139	3313
889.263	3256
889.387	3431
889.511	3561
889.635	3492
889.759	3310
889.883	3329
890.006	3409
890.13	3568
890.254	3291
890.377	3405
890.501	3214
890.624	3207
890.748	3291
890.871	3237
890.995	3146
891.118	3093
891.241	3237
891.364	3256
891.488	3336
891.611	3146
891.734	3268
891.857	3325
891.98	3287
892.103	3370
892.226	3294
892.349	3287
892.471	3138
892.594	3287
892.717	3344
892.839	3313
892.962	3336
893.085	3405
893.207	3302
893.33	3154
893.452	3272
893.575	3405
893.697	3272
893.819	3500
893.941	3564
894.064	3485
894.186	3283
894.308	3310
894.43	3462
894.552	3587
894.674	3466
894.796	3287
894.918	3298
895.04	3302
895.161	3447
895.283	3412
895.405	3313
895.526	3374
895.648	3488
895.769	3397
895.891	3469
896.012	3534
896.134	3504
896.255	3450
896.376	3428
896.498	3382
896.619	3473
896.74	3409
896.861	3435
896.982	3736
897.103	3857
897.224	3660
897.345	3534
897.466	3447
897.587	3576
897.708	3671
897.828	3561
897.949	3458
898.07	3340
898.19	3462
898.311	3641
898.431	3469
898.552	3534
898.672	3625
898.792	3591
898.913	3557
899.033	3435
899.153	3313
899.273	3298
899.393	3329
899.513	3325
899.633	3401
899.753	3348
899.873	3367
899.993	3428
900.113	3355
900.232	3412
900.352	3348
900.472	3359
900.591	3253
900.711	3336
900.83	3256
900.95	3458
901.069	3545
901.189	3393
901.308	3230
901.427	3142
901.546	3226
901.665	3313
901.784	3382
901.904	3260
902.023	3173
902.141	3032
902.26	3028
902.379	3157
902.498	3119
902.617	3112
902.735	3249
902.854	3268
902.973	3241
903.091	3074
903.21	3074
903.328	3176
903.446	3176
903.565	3165
903.683	3207
903.801	3195
903.919	3287
904.038	3268
904.156	3195
904.274	3291
904.392	3302
904.51	3340
904.627	3351
904.745	3458
904.863	3561
904.981	3313
905.098	3222
905.216	3283
905.334	3336
905.451	3325
905.569	3336
905.686	3496
905.803	3488
905.921	3359
906.038	3466
906.155	3367
906.272	3321
906.389	3378
906.506	3241
906.623	3279
906.74	3317
906.857	3222
906.974	3329
907.091	3469
907.208	3614
907.324	3500
907.441	3443
907.557	3321
907.674	3275
907.79	3249
907.907	3329
908.023	3428
908.139	3389
908.256	3378
908.372	3420
908.488	3412
908.604	3260
908.72	3230
908.836	3367
908.952	3306
909.068	3363
909.184	3564
909.3	3469
909.415	3557
909.531	3511
909.647	3321
909.762	3325
909.878	3302
909.993	3412
910.108	3359
910.224	3386
910.339	3488
910.454	3367
910.57	3378
910.685	3268
910.8	3622
910.915	3561
911.03	3462
911.145	3294
911.259	3370
911.374	3348
911.489	3294
911.604	3237
911.718	3192
911.833	3169
911.947	3093
912.062	3013
912.176	3214
912.291	3211
912.405	3241
912.519	3504
912.633	3473
912.748	3370
912.862	3294
912.976	3195
913.09	3100
913.204	3211
913.318	3249
913.431	3351
913.545	3359
913.659	3424
913.772	3382
913.886	3253
914	3233
914.113	3355
914.226	3466
914.34	3378
914.453	3241
914.566	3469
914.68	3310
914.793	3355
914.906	3131
915.019	3173
915.132	3100
915.245	3207
915.358	3241
915.47	3291
915.583	3317
915.696	3359
915.809	3450
915.921	3458
916.034	3275
916.146	3291
916.259	3287
916.371	3424
916.483	3409
916.595	3329
916.708	3367
916.82	3409
916.932	3363
917.044	3363
917.156	3344
917.268	3279
917.38	3332
917.491	3306
917.603	3416
917.715	3469
917.826	3492
917.938	3469
918.049	3306
918.161	3450
918.272	3591
918.384	3591
918.495	3557
918.606	3363
918.717	3302
918.828	3420
918.939	3435
919.05	3363
919.161	3405
919.272	3195
919.383	3310
919.494	3523
919.604	3743
919.715	3530
919.826	3435
919.936	3511
920.047	3633
920.157	3595
920.267	3816
920.378	3652
920.488	3622
920.598	3812
920.708	4006
920.818	3861
920.928	3857
921.038	4071
921.148	4044
921.258	3728
921.368	3679
921.477	3584
921.587	3606
921.697	3515
921.806	3671
921.916	3584
922.025	3378
922.134	3458
922.244	3363
922.353	3462
922.462	3291
922.571	3256
922.68	3142
922.789	3123
922.898	3169
923.007	3112
923.116	3230
923.224	3218
923.333	3245
923.442	3157
923.55	3123
923.659	3222
923.767	3253
923.876	3169
923.984	3279
924.092	3138
924.201	3275
924.309	3241
924.417	3287
924.525	3203
924.633	3298
924.741	4230
924.849	3066
924.956	3321
925.064	3131
925.172	3081
925.279	3135
925.387	3237
925.494	3203
925.602	3393
925.709	3382
925.816	3211
925.924	3310
926.031	3367
926.138	3363
926.245	3412
926.352	3310
926.459	3469
926.566	3485
926.673	3348
926.779	3321
926.886	3283
926.993	3192
927.099	3138
927.206	3100
927.312	3150
927.419	3253
927.525	3283
927.631	3283
927.737	3207
927.843	3180
927.95	3062
928.056	3169
928.162	3199
928.267	3302
928.373	3793
928.479	3298
928.585	3100
928.69	3260
928.796	3351
928.901	3192
929.007	3077
929.112	3188
929.218	3192
929.323	3169
929.428	3150
929.533	3370
929.638	3146
929.743	3245
929.848	3291
929.953	3233
930.058	3192
930.163	3017
930.267	3081
930.372	3287
930.477	3085
930.581	3378
930.685	3230
930.79	3116
930.894	3135
930.998	3131
931.103	3351
931.207	2975
931.311	2982
931.415	3005
931.519	2834
931.623	2876
