Data from test_V78500241_843.txt Node
Date: Fri Mar 25 16:21:02 CST 2022
User: usil
Spectrometer: V785-0024
Trigger mode: 0
Integration Time (sec): 4.000000E-1
Scans to average: 1
Nonlinearity correction enabled: false
Boxcar width: 0
Storing dark spectrum: false
XAxis mode: Wavelengths
Number of Pixels in Spectrum: 1024
>>>>>Begin Spectral Data<<<<<
801.071	2925
801.214	3005
801.356	2914
801.499	2933
801.641	2925
801.783	2986
801.926	3081
802.068	3024
802.211	3039
802.353	3123
802.496	3005
802.638	3028
802.78	3070
802.923	3127
803.065	3024
803.208	2956
803.35	2960
803.492	2975
803.635	2998
803.777	2785
803.919	2933
804.061	3237
804.204	2971
804.346	2960
804.488	2872
804.63	3043
804.773	2952
804.915	2956
805.057	3119
805.199	2990
805.341	2998
805.483	3077
805.626	3070
805.768	3024
805.91	3146
806.052	3154
806.194	3081
806.336	3275
806.478	3062
806.62	2982
806.762	3024
806.904	3077
807.046	3233
807.188	3036
807.33	2952
807.472	3028
807.614	2918
807.756	2975
807.898	2963
808.04	2918
808.182	3017
808.324	2971
808.465	2922
808.607	2876
808.749	2834
808.891	2922
809.033	3013
809.174	3017
809.316	2948
809.458	2956
809.6	2796
809.741	2815
809.883	2815
810.025	2864
810.166	2868
810.308	2876
810.45	2899
810.591	2811
810.733	2830
810.875	2922
811.016	2796
811.158	2777
811.299	2834
811.441	2929
811.582	2895
811.724	2842
811.865	2887
812.007	2952
812.148	2929
812.29	2876
812.431	2929
812.573	2994
812.714	2963
812.855	3070
812.997	3081
813.138	3150
813.279	3017
813.421	3024
813.562	2998
813.703	2899
813.845	2906
813.986	2777
814.127	2785
814.268	2830
814.41	2876
814.551	2864
814.692	2922
814.833	2834
814.974	2910
815.115	2998
815.256	2861
815.397	2830
815.539	2929
815.68	2788
815.821	2807
815.962	2975
816.103	3009
816.244	2906
816.385	2891
816.526	3009
816.666	2960
816.807	2800
816.948	2910
817.089	2963
817.23	2918
817.371	2823
817.512	2838
817.653	2872
817.793	2861
817.934	2902
818.075	2986
818.216	3032
818.356	3085
818.497	2906
818.638	2819
818.778	2887
818.919	2838
819.06	2796
819.2	2902
819.341	2864
819.481	2826
819.622	2952
819.762	3119
819.903	3055
820.043	2925
820.184	2960
820.324	2941
820.465	2990
820.605	3070
820.746	3070
820.886	2948
821.026	3123
821.167	3176
821.307	3241
821.447	3317
821.588	3294
821.728	3237
821.868	3214
822.008	3089
822.149	3199
822.289	3256
822.429	3104
822.569	3127
822.709	3203
822.849	3036
822.99	3123
823.13	3188
823.27	3256
823.41	3146
823.55	3188
823.69	3146
823.83	3214
823.97	3116
824.11	3028
824.25	3001
824.389	3097
824.529	3093
824.669	3089
824.809	3222
824.949	3291
825.089	3192
825.228	3188
825.368	3062
825.508	2941
825.648	3055
825.787	3051
825.927	3062
826.067	2990
826.206	2986
826.346	3051
826.485	3070
826.625	3127
826.765	3287
826.904	3249
827.044	3020
827.183	2948
827.323	2849
827.462	2998
827.601	2925
827.741	2952
827.88	2952
828.02	2880
828.159	2975
828.298	3062
828.437	3165
828.577	3077
828.716	3256
828.855	3089
828.994	2937
829.134	2922
829.273	2948
829.412	2849
829.551	2880
829.69	2937
829.829	3017
829.968	3154
830.107	3024
830.246	3020
830.385	2948
830.524	2910
830.663	2872
830.802	2785
830.941	2648
831.08	2651
831.219	2800
831.357	2777
831.496	2948
831.635	2697
831.774	2629
831.913	2701
832.051	2587
832.19	2594
832.329	2689
832.467	2541
832.606	2484
832.744	2613
832.883	2590
833.022	2602
833.16	2686
833.299	2746
833.437	2720
833.576	2701
833.714	2724
833.852	2769
833.991	2807
834.129	2876
834.267	2891
834.406	2819
834.544	2929
834.682	2902
834.821	2895
834.959	3085
835.097	2937
835.235	3100
835.373	3013
835.511	3009
835.65	2967
835.788	2998
835.926	2845
836.064	2857
836.202	2853
836.34	3093
836.478	3165
836.615	3024
836.753	3146
836.891	3260
837.029	3188
837.167	3119
837.305	3051
837.443	2998
837.58	2998
837.718	3150
837.856	3062
837.993	3062
838.131	3161
838.269	3138
838.406	3131
838.544	3093
838.681	2998
838.819	2956
838.956	2842
839.094	2883
839.231	2929
839.369	3032
839.506	3416
839.643	3253
839.781	2990
839.918	2986
840.055	3074
840.193	3089
840.33	3062
840.467	3081
840.604	3184
840.742	3454
840.879	3036
841.016	3074
841.153	3116
841.29	3336
841.427	3317
841.564	3268
841.701	3325
841.838	3218
841.975	3157
842.112	3195
842.249	3097
842.385	3077
842.522	3283
842.659	3066
842.796	3074
842.933	3180
843.069	3089
843.206	3074
843.343	3203
843.479	3119
843.616	3150
843.752	2914
843.889	2876
844.025	3085
844.162	2910
844.298	3074
844.435	2941
844.571	2937
844.708	3116
844.844	3169
844.98	3283
845.117	3203
845.253	3070
845.389	3043
845.525	3085
845.661	3135
845.798	3043
845.934	3135
846.07	3097
846.206	3233
846.342	3344
846.478	3222
846.614	3093
846.75	3055
846.886	3024
847.022	3233
847.158	3135
847.294	3245
847.429	3241
847.565	3245
847.701	3507
847.837	3036
847.972	3039
848.108	3176
848.244	3150
848.379	3020
848.515	2960
848.65	2929
848.786	2963
848.921	3028
849.057	3123
849.192	3157
849.328	3104
849.463	3123
849.598	3066
849.734	3036
849.869	3032
850.004	2925
850.14	2979
850.275	2918
850.41	2861
850.545	2887
850.68	2937
850.815	2967
850.95	2982
851.085	3188
851.22	3131
851.355	3036
851.49	3001
851.625	3020
851.76	3017
851.895	2937
852.03	2918
852.165	3070
852.299	3176
852.434	3176
852.569	3154
852.703	3157
852.838	3260
852.973	3355
853.107	3336
853.242	3207
853.376	3051
853.511	3013
853.645	3062
853.78	3211
853.914	3127
854.048	3116
854.183	3089
854.317	3135
854.451	3291
854.585	3146
854.72	3066
854.854	3222
854.988	3055
855.122	3093
855.256	2986
855.39	3154
855.524	3249
855.658	3222
855.792	3142
855.926	3199
856.06	3230
856.194	3275
856.327	3188
856.461	3085
856.595	3089
856.729	3085
856.862	3195
856.996	3184
857.13	3195
857.263	3245
857.397	3275
857.53	3123
857.664	3146
857.797	3264
857.931	3287
858.064	3150
858.197	3233
858.331	3157
858.464	3135
858.597	2971
858.731	3142
858.864	3161
858.997	3100
859.13	3184
859.263	3180
859.396	3233
859.529	3123
859.662	3100
859.795	3051
859.928	3131
860.061	3310
860.194	3310
860.327	3138
860.46	3131
860.592	3245
860.725	3268
860.858	3302
860.99	3074
861.123	3032
861.256	3051
861.388	3131
861.521	3945
861.653	3024
861.786	2979
861.918	3020
862.05	3100
862.183	3116
862.315	3154
862.447	3199
862.58	3100
862.712	2967
862.844	2902
862.976	3047
863.108	3058
863.24	3306
863.372	2864
863.504	2948
863.636	2979
863.768	3013
863.9	2990
864.032	2937
864.164	2960
864.296	2998
864.428	3097
864.559	3116
864.691	3043
864.823	3077
864.954	3047
865.086	3024
865.217	2994
865.349	2948
865.48	3024
865.612	3013
865.743	3173
865.875	2990
866.006	2937
866.137	3017
866.269	2960
866.4	2967
866.531	2910
866.662	2899
866.793	2876
866.924	2914
867.055	2960
867.186	2937
867.317	2895
867.448	2845
867.579	2849
867.71	2868
867.841	2815
867.972	2910
868.103	2902
868.233	2891
868.364	2895
868.495	2902
868.625	3070
868.756	3157
868.886	2982
869.017	3032
869.147	3142
869.278	3176
869.408	3089
869.539	3051
869.669	3100
869.799	3077
869.929	3180
870.06	3123
870.19	3302
870.32	3317
870.45	3272
870.58	3355
870.71	3431
870.84	3443
870.97	3332
871.1	3264
871.23	3450
871.36	3458
871.489	3336
871.619	3412
871.749	3420
871.879	3447
872.008	3462
872.138	3389
872.267	3294
872.397	3176
872.526	3100
872.656	2994
872.785	3108
872.915	3268
873.044	3310
873.173	3184
873.303	3237
873.432	3245
873.561	3298
873.69	3154
873.819	3211
873.948	3222
874.077	3116
874.206	3051
874.335	3100
874.464	3222
874.593	3389
874.722	3279
874.851	3405
874.979	3359
875.108	3336
875.237	3180
875.365	3157
875.494	3180
875.623	3249
875.751	3104
875.88	3108
876.008	3226
876.136	3230
876.265	3363
876.393	3492
876.521	3386
876.65	3428
876.778	3321
876.906	3253
877.034	3188
877.162	3188
877.29	3161
877.418	3256
877.546	3253
877.674	3249
877.802	3203
877.93	3188
878.058	3138
878.185	3085
878.313	3192
878.441	3184
878.568	3066
878.696	3169
878.824	3237
878.951	3325
879.079	3469
879.206	3591
879.333	3428
879.461	3332
879.588	3298
879.715	3481
879.842	3614
879.97	3363
880.097	3176
880.224	3135
880.351	3211
880.478	3226
880.605	3192
880.732	3173
880.859	3492
880.986	3306
881.112	3287
881.239	3214
881.366	3093
881.493	3028
881.619	3024
881.746	3093
881.872	3131
881.999	3100
882.125	3100
882.252	3245
882.378	3298
882.505	3416
882.631	3283
882.757	3131
882.883	3203
883.01	3214
883.136	3146
883.262	3116
883.388	3108
883.514	3310
883.64	3382
883.766	3302
883.892	3192
884.018	3249
884.143	3431
884.269	3492
884.395	3199
884.52	3165
884.646	3176
884.772	3131
884.897	3100
885.023	3218
885.148	3332
885.274	3435
885.399	3374
885.524	3294
885.65	3230
885.775	3306
885.9	3264
886.025	3435
886.15	3370
886.275	3272
886.4	3211
886.525	3306
886.65	3287
886.775	3291
886.9	3473
887.025	3637
887.149	3393
887.274	3260
887.399	3161
887.523	3211
887.648	3211
887.773	3207
887.897	3355
888.021	3363
888.146	3298
888.27	3447
888.395	3519
888.519	3397
888.643	3435
888.767	3469
888.891	3298
889.015	3230
889.139	3313
889.263	3241
889.387	3420
889.511	3507
889.635	3447
889.759	3264
889.883	3298
890.006	3351
890.13	3492
890.254	3272
890.377	3332
890.501	3173
890.624	3142
890.748	3294
890.871	3184
890.995	3131
891.118	3089
891.241	3192
891.364	3184
891.488	3298
891.611	3211
891.734	3237
891.857	3272
891.98	3272
892.103	3336
892.226	3321
892.349	3218
892.471	3127
892.594	3256
892.717	3260
892.839	3283
892.962	3264
893.085	3393
893.207	3291
893.33	3157
893.452	3184
893.575	3340
893.697	3260
893.819	3466
893.941	3492
894.064	3454
894.186	3302
894.308	3230
894.43	3424
894.552	3530
894.674	3458
894.796	3256
894.918	3313
895.04	3287
895.161	3409
895.283	3405
895.405	3306
895.526	3348
895.648	3431
895.769	3420
895.891	3500
896.012	3481
896.134	3462
896.255	3424
896.376	3370
896.498	3378
896.619	3424
896.74	3351
896.861	3370
896.982	3694
897.103	3869
897.224	3576
897.345	3492
897.466	3412
897.587	3443
897.708	3648
897.828	3515
897.949	3477
898.07	3332
898.19	3412
898.311	3587
898.431	3409
898.552	3485
898.672	3587
898.792	3545
898.913	3519
899.033	3409
899.153	3325
899.273	3207
899.393	3291
899.513	3329
899.633	3344
899.753	3329
899.873	3298
899.993	3329
900.113	3329
900.232	3378
900.352	3351
900.472	3310
900.591	3218
900.711	3291
900.83	3207
900.95	3431
901.069	3485
901.189	3348
901.308	3207
901.427	3135
901.546	3173
901.665	3306
901.784	3344
901.904	3188
902.023	3154
902.141	3039
902.26	3001
902.379	3135
902.498	3077
902.617	3055
902.735	3180
902.854	3230
902.973	3138
903.091	3024
903.21	3093
903.328	3157
903.446	3097
903.565	3127
903.683	3226
903.801	3116
903.919	3230
904.038	3287
904.156	3165
904.274	3275
904.392	3222
904.51	3283
904.627	3332
904.745	3416
904.863	3469
904.981	3256
905.098	3142
905.216	3233
905.334	3260
905.451	3260
905.569	3336
905.686	3397
905.803	3439
905.921	3310
906.038	3424
906.155	3370
906.272	3283
906.389	3317
906.506	3192
906.623	3279
906.74	3222
906.857	3207
906.974	3226
907.091	3477
907.208	3580
907.324	3469
907.441	3386
907.557	3256
907.674	3195
907.79	3157
907.907	3256
908.023	3351
908.139	3382
908.256	3336
908.372	3367
908.488	3409
908.604	3260
908.72	3253
908.836	3264
908.952	3283
909.068	3367
909.184	3473
909.3	3405
909.415	3454
909.531	3481
909.647	3272
909.762	3272
909.878	3264
909.993	3340
910.108	3310
910.224	3325
910.339	3447
910.454	3329
910.57	3313
910.685	3237
910.8	3606
910.915	3545
911.03	3454
911.145	3256
911.259	3275
911.374	3279
911.489	3245
911.604	3199
911.718	3142
911.833	3184
911.947	3047
912.062	2979
912.176	3146
912.291	3192
912.405	3173
912.519	3431
912.633	3420
912.748	3332
912.862	3291
912.976	3169
913.09	3055
913.204	3123
913.318	3199
913.431	3332
913.545	3344
913.659	3363
913.772	3317
913.886	3233
914	3173
914.113	3370
914.226	3405
914.34	3355
914.453	3207
914.566	3428
914.68	3310
914.793	3321
914.906	3116
915.019	3093
915.132	3089
915.245	3192
915.358	3233
915.47	3230
915.583	3264
915.696	3306
915.809	3416
915.921	3435
916.034	3275
916.146	3211
916.259	3214
916.371	3435
916.483	3363
916.595	3279
916.708	3302
916.82	3325
916.932	3329
917.044	3386
917.156	3321
917.268	3310
917.38	3279
917.491	3306
917.603	3401
917.715	3458
917.826	3428
917.938	3401
918.049	3275
918.161	3405
918.272	3523
918.384	3553
918.495	3481
918.606	3313
918.717	3260
918.828	3367
918.939	3397
919.05	3287
919.161	3351
919.272	3157
919.383	3256
919.494	3538
919.604	3732
919.715	3488
919.826	3405
919.936	3447
920.047	3618
920.157	3561
920.267	3759
920.378	3610
920.488	3519
920.598	3793
920.708	3918
920.818	3816
920.928	3880
921.038	4013
921.148	3956
921.258	3663
921.368	3603
921.477	3580
921.587	3553
921.697	3466
921.806	3633
921.916	3530
922.025	3351
922.134	3359
922.244	3306
922.353	3386
922.462	3321
922.571	3173
922.68	3070
922.789	3112
922.898	3154
923.007	3066
923.116	3218
923.224	3165
923.333	3173
923.442	3108
923.55	3093
923.659	3154
923.767	3214
923.876	3089
923.984	3222
924.092	3108
924.201	3176
924.309	3211
924.417	3260
924.525	3199
924.633	3226
924.741	3998
924.849	3036
924.956	3241
925.064	3081
925.172	3062
925.279	3108
925.387	3188
925.494	3195
925.602	3340
925.709	3340
925.816	3169
925.924	3317
926.031	3431
926.138	3355
926.245	3355
926.352	3272
926.459	3401
926.566	3454
926.673	3268
926.779	3253
926.886	3245
926.993	3131
927.099	3165
927.206	3104
927.312	3142
927.419	3180
927.525	3230
927.631	3249
927.737	3131
927.843	3150
927.95	3013
928.056	3131
928.162	3195
928.267	3214
928.373	3759
928.479	3287
928.585	3058
928.69	3214
928.796	3253
928.901	3211
929.007	3024
929.112	3188
929.218	3169
929.323	3165
929.428	3161
929.533	3313
929.638	3127
929.743	3135
929.848	3275
929.953	3195
930.058	3138
930.163	3001
930.267	3058
930.372	3173
930.477	3017
930.581	3294
930.685	3176
930.79	3047
930.894	3146
930.998	3093
931.103	3287
931.207	2967
931.311	2902
931.415	2918
931.519	2769
931.623	2823
