Data from test_V78500241_1847.txt Node
Date: Fri Mar 25 16:27:59 CST 2022
User: usil
Spectrometer: V785-0024
Trigger mode: 0
Integration Time (sec): 4.000000E-1
Scans to average: 1
Nonlinearity correction enabled: false
Boxcar width: 0
Storing dark spectrum: false
XAxis mode: Wavelengths
Number of Pixels in Spectrum: 1024
>>>>>Begin Spectral Data<<<<<
801.071	2899
801.214	2914
801.356	2872
801.499	2868
801.641	2883
801.783	2918
801.926	3043
802.068	2990
802.211	2975
802.353	3013
802.496	2952
802.638	2994
802.78	3032
802.923	3100
803.065	2994
803.208	2895
803.35	2941
803.492	2925
803.635	2929
803.777	2727
803.919	2823
804.061	3214
804.204	2956
804.346	2937
804.488	2838
804.63	2982
804.773	2842
804.915	2925
805.057	3085
805.199	2883
805.341	2960
805.483	3032
805.626	2998
805.768	2933
805.91	3112
806.052	3123
806.194	3055
806.336	3199
806.478	2998
806.62	2990
806.762	2960
806.904	3051
807.046	3150
807.188	2994
807.33	2906
807.472	2971
807.614	2883
807.756	2982
807.898	2914
808.04	2910
808.182	2971
808.324	2956
808.465	2880
808.607	2895
808.749	2788
808.891	2849
809.033	2960
809.174	2963
809.316	2853
809.458	2902
809.6	2769
809.741	2746
809.883	2762
810.025	2826
810.166	2857
810.308	2849
810.45	2845
810.591	2758
810.733	2750
810.875	2864
811.016	2781
811.158	2754
811.299	2811
811.441	2933
811.582	2876
811.724	2857
811.865	2819
812.007	2933
812.148	2853
812.29	2834
812.431	2872
812.573	2925
812.714	2979
812.855	3097
812.997	2986
813.138	3093
813.279	3009
813.421	2982
813.562	2941
813.703	2876
813.845	2895
813.986	2781
814.127	2712
814.268	2796
814.41	2807
814.551	2819
814.692	2845
814.833	2807
814.974	2933
815.115	2937
815.256	2804
815.397	2819
815.539	2842
815.68	2762
815.821	2781
815.962	2952
816.103	2933
816.244	2887
816.385	2849
816.526	2960
816.666	2910
816.807	2766
816.948	2876
817.089	2948
817.23	2849
817.371	2781
817.512	2792
817.653	2826
817.793	2804
817.934	2887
818.075	2979
818.216	2998
818.356	3024
818.497	2857
818.638	2807
818.778	2857
818.919	2785
819.06	2754
819.2	2887
819.341	2788
819.481	2762
819.622	2918
819.762	3138
819.903	3039
820.043	2902
820.184	2887
820.324	2880
820.465	2986
820.605	3020
820.746	2982
820.886	2925
821.026	3108
821.167	3097
821.307	3226
821.447	3329
821.588	3218
821.728	3226
821.868	3173
822.008	3089
822.149	3157
822.289	3237
822.429	3089
822.569	3100
822.709	3169
822.849	3017
822.99	3058
823.13	3146
823.27	3192
823.41	3085
823.55	3131
823.69	3142
823.83	3154
823.97	3077
824.11	3024
824.25	2956
824.389	3074
824.529	3138
824.669	3043
824.809	3203
824.949	3249
825.089	3195
825.228	3173
825.368	3032
825.508	2960
825.648	2990
825.787	3009
825.927	2975
826.067	2960
826.206	2941
826.346	3039
826.485	3077
826.625	3104
826.765	3226
826.904	3173
827.044	3001
827.183	2918
827.323	2857
827.462	2963
827.601	2922
827.741	2899
827.88	2925
828.02	2849
828.159	2914
828.298	3013
828.437	3127
828.577	3020
828.716	3195
828.855	3055
828.994	2929
829.134	2895
829.273	2902
829.412	2902
829.551	2864
829.69	2876
829.829	2982
829.968	3135
830.107	3009
830.246	3039
830.385	2925
830.524	2880
830.663	2796
830.802	2724
830.941	2644
831.08	2648
831.219	2766
831.357	2785
831.496	2960
831.635	2727
831.774	2629
831.913	2621
832.051	2537
832.19	2560
832.329	2674
832.467	2541
832.606	2488
832.744	2560
832.883	2575
833.022	2606
833.16	2621
833.299	2686
833.437	2697
833.576	2655
833.714	2701
833.852	2720
833.991	2743
834.129	2861
834.267	2834
834.406	2807
834.544	2868
834.682	2842
834.821	2861
834.959	3032
835.097	2914
835.235	3047
835.373	2994
835.511	2998
835.65	2941
835.788	2952
835.926	2792
836.064	2781
836.202	2845
836.34	3097
836.478	3173
836.615	3066
836.753	3097
836.891	3195
837.029	3188
837.167	3123
837.305	3062
837.443	3009
837.58	2963
837.718	3135
837.856	3070
837.993	3024
838.131	3123
838.269	3062
838.406	3108
838.544	3093
838.681	2944
838.819	2902
838.956	2807
839.094	2811
839.231	2899
839.369	3039
839.506	3344
839.643	3169
839.781	3005
839.918	2944
840.055	3036
840.193	3043
840.33	3055
840.467	3131
840.604	3131
840.742	3409
840.879	3013
841.016	3013
841.153	3138
841.29	3317
841.427	3268
841.564	3260
841.701	3275
841.838	3192
841.975	3173
842.112	3245
842.249	3066
842.385	3058
842.522	3306
842.659	3062
842.796	3058
842.933	3062
843.069	3051
843.206	3047
843.343	3176
843.479	3097
843.616	3131
843.752	2891
843.889	2826
844.025	3047
844.162	2842
844.298	3062
844.435	2914
844.571	2895
844.708	3066
844.844	3142
844.98	3253
845.117	3154
845.253	3074
845.389	2986
845.525	3116
845.661	3081
845.798	2982
845.934	3123
846.07	3055
846.206	3279
846.342	3340
846.478	3188
846.614	3077
846.75	3066
846.886	2979
847.022	3237
847.158	3123
847.294	3203
847.429	3241
847.565	3192
847.701	3469
847.837	3043
847.972	2990
848.108	3154
848.244	3142
848.379	2990
848.515	2937
848.65	2902
848.786	2979
848.921	3001
849.057	3055
849.192	3127
849.328	3047
849.463	3104
849.598	3036
849.734	3028
849.869	2979
850.004	2872
850.14	2982
850.275	2876
850.41	2823
850.545	2891
850.68	2933
850.815	2906
850.95	2967
851.085	3192
851.22	3104
851.355	3036
851.49	2948
851.625	3013
851.76	3005
851.895	2910
852.03	2922
852.165	3043
852.299	3108
852.434	3173
852.569	3138
852.703	3154
852.838	3245
852.973	3306
853.107	3302
853.242	3154
853.376	3085
853.511	2948
853.645	3074
853.78	3211
853.914	3089
854.048	3062
854.183	3085
854.317	3150
854.451	3283
854.585	3157
854.72	3089
854.854	3207
854.988	3058
855.122	3112
855.256	2975
855.39	3123
855.524	3218
855.658	3188
855.792	3157
855.926	3192
856.06	3180
856.194	3260
856.327	3180
856.461	3093
856.595	3058
856.729	3093
856.862	3199
856.996	3142
857.13	3218
857.263	3222
857.397	3249
857.53	3108
857.664	3154
857.797	3222
857.931	3199
858.064	3146
858.197	3207
858.331	3100
858.464	3100
858.597	2990
858.731	3112
858.864	3081
858.997	3062
859.13	3123
859.263	3173
859.396	3195
859.529	3074
859.662	3043
859.795	3028
859.928	3150
860.061	3279
860.194	3260
860.327	3135
860.46	3100
860.592	3226
860.725	3256
860.858	3283
860.99	3093
861.123	3043
861.256	3051
861.388	3138
861.521	3823
861.653	3043
861.786	2956
861.918	3017
862.05	3055
862.183	3081
862.315	3154
862.447	3195
862.58	3062
862.712	2948
862.844	2845
862.976	3028
863.108	3013
863.24	3393
863.372	2857
863.504	2979
863.636	2929
863.768	3024
863.9	2960
864.032	2891
864.164	2941
864.296	3005
864.428	3032
864.559	3051
864.691	3085
864.823	3089
864.954	3020
865.086	3043
865.217	2948
865.349	2952
865.48	2956
865.612	2975
865.743	3154
865.875	2994
866.006	2967
866.137	2948
866.269	2933
866.4	2902
866.531	2922
866.662	2861
866.793	2876
866.924	2925
867.055	2937
867.186	2925
867.317	2895
867.448	2811
867.579	2838
867.71	2883
867.841	2811
867.972	2914
868.103	2899
868.233	2880
868.364	2883
868.495	2853
868.625	3081
868.756	3131
868.886	2960
869.017	3028
869.147	3157
869.278	3173
869.408	3028
869.539	3020
869.669	3070
869.799	2990
869.929	3146
870.06	3100
870.19	3321
870.32	3291
870.45	3275
870.58	3370
870.71	3447
870.84	3439
870.97	3313
871.1	3237
871.23	3485
871.36	3416
871.489	3355
871.619	3401
871.749	3389
871.879	3428
872.008	3473
872.138	3336
872.267	3253
872.397	3127
872.526	3077
872.656	3017
872.785	3116
872.915	3256
873.044	3310
873.173	3245
873.303	3218
873.432	3237
873.561	3192
873.69	3157
873.819	3138
873.948	3180
874.077	3051
874.206	3032
874.335	3070
874.464	3184
874.593	3332
874.722	3275
874.851	3348
874.979	3344
875.108	3306
875.237	3176
875.365	3131
875.494	3138
875.623	3233
875.751	3081
875.88	3131
876.008	3173
876.136	3226
876.265	3401
876.393	3477
876.521	3424
876.65	3401
876.778	3313
876.906	3207
877.034	3192
877.162	3218
877.29	3176
877.418	3218
877.546	3264
877.674	3256
877.802	3237
877.93	3211
878.058	3135
878.185	3112
878.313	3214
878.441	3195
878.568	3074
878.696	3127
878.824	3241
878.951	3294
879.079	3424
879.206	3629
879.333	3409
879.461	3336
879.588	3363
879.715	3507
879.842	3564
879.97	3359
880.097	3173
880.224	3131
880.351	3214
880.478	3207
880.605	3218
880.732	3169
880.859	3519
880.986	3321
881.112	3291
881.239	3176
881.366	3089
881.493	3047
881.619	3043
881.746	2998
881.872	3089
881.999	3081
882.125	3142
882.252	3188
882.378	3298
882.505	3450
882.631	3279
882.757	3131
882.883	3165
883.01	3249
883.136	3169
883.262	3074
883.388	3112
883.514	3332
883.64	3367
883.766	3279
883.892	3176
884.018	3256
884.143	3401
884.269	3504
884.395	3192
884.52	3135
884.646	3214
884.772	3100
884.897	3138
885.023	3249
885.148	3355
885.274	3435
885.399	3374
885.524	3256
885.65	3283
885.775	3317
885.9	3298
886.025	3424
886.15	3389
886.275	3291
886.4	3226
886.525	3268
886.65	3275
886.775	3287
886.9	3515
887.025	3690
887.149	3409
887.274	3253
887.399	3173
887.523	3173
887.648	3222
887.773	3173
887.897	3351
888.021	3409
888.146	3272
888.27	3401
888.395	3473
888.519	3454
888.643	3424
888.767	3450
888.891	3321
889.015	3249
889.139	3291
889.263	3253
889.387	3412
889.511	3549
889.635	3397
889.759	3272
889.883	3287
890.006	3393
890.13	3466
890.254	3264
890.377	3344
890.501	3176
890.624	3184
890.748	3313
890.871	3188
890.995	3100
891.118	3074
891.241	3154
891.364	3245
891.488	3321
891.611	3195
891.734	3218
891.857	3222
891.98	3169
892.103	3298
892.226	3279
892.349	3199
892.471	3097
892.594	3241
892.717	3264
892.839	3260
892.962	3279
893.085	3374
893.207	3317
893.33	3157
893.452	3184
893.575	3317
893.697	3268
893.819	3435
893.941	3473
894.064	3462
894.186	3283
894.308	3260
894.43	3435
894.552	3534
894.674	3481
894.796	3287
894.918	3313
895.04	3272
895.161	3435
895.283	3389
895.405	3313
895.526	3378
895.648	3393
895.769	3439
895.891	3431
896.012	3428
896.134	3431
896.255	3405
896.376	3382
896.498	3382
896.619	3382
896.74	3370
896.861	3397
896.982	3663
897.103	3899
897.224	3584
897.345	3481
897.466	3409
897.587	3504
897.708	3618
897.828	3511
897.949	3435
898.07	3340
898.19	3409
898.311	3591
898.431	3466
898.552	3496
898.672	3606
898.792	3587
898.913	3553
899.033	3424
899.153	3291
899.273	3192
899.393	3283
899.513	3294
899.633	3325
899.753	3344
899.873	3283
899.993	3351
900.113	3351
900.232	3397
900.352	3378
900.472	3272
900.591	3203
900.711	3302
900.83	3237
900.95	3416
901.069	3473
901.189	3325
901.308	3150
901.427	3089
901.546	3207
901.665	3294
901.784	3336
901.904	3233
902.023	3127
902.141	3013
902.26	2994
902.379	3123
902.498	3112
902.617	3093
902.735	3214
902.854	3222
902.973	3173
903.091	3058
903.21	3036
903.328	3093
903.446	3089
903.565	3131
903.683	3188
903.801	3154
903.919	3253
904.038	3237
904.156	3127
904.274	3283
904.392	3253
904.51	3256
904.627	3351
904.745	3424
904.863	3431
904.981	3233
905.098	3199
905.216	3214
905.334	3275
905.451	3275
905.569	3272
905.686	3431
905.803	3397
905.921	3279
906.038	3443
906.155	3378
906.272	3233
906.389	3348
906.506	3207
906.623	3279
906.74	3294
906.857	3214
906.974	3253
907.091	3431
907.208	3564
907.324	3443
907.441	3378
907.557	3218
907.674	3241
907.79	3199
907.907	3306
908.023	3344
908.139	3370
908.256	3302
908.372	3393
908.488	3336
908.604	3245
908.72	3218
908.836	3279
908.952	3245
909.068	3325
909.184	3469
909.3	3397
909.415	3485
909.531	3462
909.647	3287
909.762	3272
909.878	3237
909.993	3344
910.108	3313
910.224	3329
910.339	3378
910.454	3351
910.57	3283
910.685	3222
910.8	3587
910.915	3534
911.03	3397
911.145	3272
911.259	3291
911.374	3268
911.489	3260
911.604	3241
911.718	3100
911.833	3131
911.947	3070
912.062	2963
912.176	3150
912.291	3184
912.405	3207
912.519	3409
912.633	3424
912.748	3321
912.862	3264
912.976	3180
913.09	3043
913.204	3108
913.318	3192
913.431	3279
913.545	3302
913.659	3393
913.772	3291
913.886	3249
914	3207
914.113	3359
914.226	3389
914.34	3367
914.453	3226
914.566	3405
914.68	3256
914.793	3287
914.906	3131
915.019	3097
915.132	3051
915.245	3157
915.358	3180
915.47	3218
915.583	3226
915.696	3294
915.809	3386
915.921	3389
916.034	3294
916.146	3233
916.259	3180
916.371	3397
916.483	3370
916.595	3249
916.708	3348
916.82	3348
916.932	3325
917.044	3332
917.156	3329
917.268	3230
917.38	3302
917.491	3264
917.603	3355
917.715	3424
917.826	3454
917.938	3321
918.049	3226
918.161	3386
918.272	3564
918.384	3538
918.495	3469
918.606	3321
918.717	3268
918.828	3393
918.939	3386
919.05	3302
919.161	3336
919.272	3165
919.383	3249
919.494	3466
919.604	3656
919.715	3481
919.826	3412
919.936	3462
920.047	3584
920.157	3511
920.267	3717
920.378	3584
920.488	3526
920.598	3789
920.708	3972
920.818	3751
920.928	3827
921.038	4032
921.148	3998
921.258	3679
921.368	3618
921.477	3572
921.587	3519
921.697	3458
921.806	3641
921.916	3492
922.025	3367
922.134	3393
922.244	3310
922.353	3454
922.462	3279
922.571	3230
922.68	3089
922.789	3074
922.898	3138
923.007	3116
923.116	3180
923.224	3192
923.333	3211
923.442	3146
923.55	3089
923.659	3119
923.767	3306
923.876	3146
923.984	3256
924.092	3142
924.201	3226
924.309	3222
924.417	3260
924.525	3222
924.633	3294
924.741	4219
924.849	3077
924.956	3253
925.064	3135
925.172	3047
925.279	3135
925.387	3233
925.494	3233
925.602	3397
925.709	3374
925.816	3233
925.924	3329
926.031	3397
926.138	3409
926.245	3374
926.352	3256
926.459	3443
926.566	3504
926.673	3336
926.779	3325
926.886	3294
926.993	3192
927.099	3150
927.206	3123
927.312	3123
927.419	3279
927.525	3249
927.631	3329
927.737	3207
927.843	3150
927.95	3051
928.056	3195
928.162	3161
928.267	3272
928.373	3793
928.479	3348
928.585	3085
928.69	3195
928.796	3329
928.901	3218
929.007	3058
929.112	3268
929.218	3214
929.323	3195
929.428	3173
929.533	3355
929.638	3150
929.743	3203
929.848	3321
929.953	3233
930.058	3157
930.163	3032
930.267	3081
930.372	3264
930.477	3097
930.581	3344
930.685	3203
930.79	3058
930.894	3161
930.998	3116
931.103	3313
931.207	2998
931.311	2956
931.415	2948
931.519	2842
931.623	2819
