Data from test_V78500241_744.txt Node
Date: Fri Mar 25 16:20:21 CST 2022
User: usil
Spectrometer: V785-0024
Trigger mode: 0
Integration Time (sec): 4.000000E-1
Scans to average: 1
Nonlinearity correction enabled: false
Boxcar width: 0
Storing dark spectrum: false
XAxis mode: Wavelengths
Number of Pixels in Spectrum: 1024
>>>>>Begin Spectral Data<<<<<
801.071	2967
801.214	2975
801.356	2872
801.499	2922
801.641	2895
801.783	2960
801.926	3055
802.068	3001
802.211	3039
802.353	3051
802.496	2975
802.638	3043
802.78	3043
802.923	3112
803.065	3028
803.208	2880
803.35	2971
803.492	2929
803.635	2956
803.777	2750
803.919	2876
804.061	3180
804.204	2963
804.346	2933
804.488	2838
804.63	2982
804.773	2857
804.915	2956
805.057	3036
805.199	2933
805.341	2967
805.483	3039
805.626	3036
805.768	2986
805.91	3112
806.052	3108
806.194	3039
806.336	3233
806.478	3039
806.62	2975
806.762	3028
806.904	3074
807.046	3146
807.188	3009
807.33	2922
807.472	2975
807.614	2952
807.756	2986
807.898	2937
808.04	2925
808.182	2986
808.324	2971
808.465	2902
808.607	2902
808.749	2811
808.891	2880
809.033	2979
809.174	3043
809.316	2906
809.458	2902
809.6	2769
809.741	2811
809.883	2777
810.025	2830
810.166	2845
810.308	2830
810.45	2868
810.591	2807
810.733	2785
810.875	2845
811.016	2796
811.158	2773
811.299	2815
811.441	2929
811.582	2899
811.724	2857
811.865	2823
812.007	2910
812.148	2910
812.29	2807
812.431	2853
812.573	2906
812.714	2937
812.855	3013
812.997	3055
813.138	3116
813.279	3017
813.421	3009
813.562	2948
813.703	2868
813.845	2876
813.986	2792
814.127	2731
814.268	2788
814.41	2853
814.551	2781
814.692	2876
814.833	2830
814.974	2864
815.115	2960
815.256	2868
815.397	2807
815.539	2872
815.68	2781
815.821	2788
815.962	2937
816.103	2925
816.244	2868
816.385	2872
816.526	2979
816.666	2899
816.807	2724
816.948	2883
817.089	2891
817.23	2807
817.371	2796
817.512	2823
817.653	2849
817.793	2834
817.934	2823
818.075	2952
818.216	2982
818.356	3024
818.497	2864
818.638	2743
818.778	2834
818.919	2762
819.06	2781
819.2	2891
819.341	2842
819.481	2777
819.622	2948
819.762	3108
819.903	3074
820.043	2929
820.184	2876
820.324	2891
820.465	3055
820.605	3005
820.746	3017
820.886	2933
821.026	3097
821.167	3150
821.307	3321
821.447	3317
821.588	3264
821.728	3268
821.868	3233
822.008	3085
822.149	3203
822.289	3249
822.429	3077
822.569	3123
822.709	3161
822.849	3058
822.99	3104
823.13	3180
823.27	3199
823.41	3119
823.55	3173
823.69	3188
823.83	3184
823.97	3123
824.11	3020
824.25	3028
824.389	3119
824.529	3161
824.669	3123
824.809	3233
824.949	3321
825.089	3230
825.228	3195
825.368	3077
825.508	3005
825.648	2979
825.787	3047
825.927	3066
826.067	3024
826.206	3013
826.346	3070
826.485	3112
826.625	3169
826.765	3340
826.904	3260
827.044	3047
827.183	2986
827.323	2895
827.462	3032
827.601	2948
827.741	2975
827.88	2967
828.02	2895
828.159	3039
828.298	3070
828.437	3165
828.577	3051
828.716	3355
828.855	3135
828.994	2998
829.134	2910
829.273	2990
829.412	2899
829.551	2925
829.69	2925
829.829	3005
829.968	3176
830.107	3036
830.246	3100
830.385	2967
830.524	2891
830.663	2864
830.802	2788
830.941	2701
831.08	2686
831.219	2800
831.357	2785
831.496	2994
831.635	2739
831.774	2712
831.913	2716
832.051	2587
832.19	2617
832.329	2735
832.467	2617
832.606	2537
832.744	2636
832.883	2651
833.022	2636
833.16	2708
833.299	2720
833.437	2731
833.576	2731
833.714	2781
833.852	2758
833.991	2800
834.129	2864
834.267	2883
834.406	2853
834.544	2918
834.682	2902
834.821	2914
834.959	3093
835.097	2910
835.235	3077
835.373	3013
835.511	3020
835.65	3001
835.788	3001
835.926	2891
836.064	2842
836.202	2887
836.34	3146
836.478	3195
836.615	3089
836.753	3108
836.891	3211
837.029	3211
837.167	3123
837.305	3077
837.443	3066
837.58	2994
837.718	3131
837.856	3074
837.993	3085
838.131	3142
838.269	3100
838.406	3150
838.544	3142
838.681	2960
838.819	2925
838.956	2838
839.094	2887
839.231	2960
839.369	3070
839.506	3374
839.643	3268
839.781	3081
839.918	3005
840.055	3062
840.193	3093
840.33	3093
840.467	3116
840.604	3176
840.742	3401
840.879	3066
841.016	3089
841.153	3131
841.29	3363
841.427	3313
841.564	3287
841.701	3306
841.838	3241
841.975	3195
842.112	3268
842.249	3123
842.385	3066
842.522	3287
842.659	3104
842.796	3058
842.933	3135
843.069	3112
843.206	3077
843.343	3214
843.479	3138
843.616	3195
843.752	2944
843.889	2872
844.025	3089
844.162	2895
844.298	3100
844.435	2994
844.571	2922
844.708	3093
844.844	3245
844.98	3241
845.117	3199
845.253	3093
845.389	3062
845.525	3100
845.661	3100
845.798	3043
845.934	3176
846.07	3081
846.206	3249
846.342	3359
846.478	3241
846.614	3161
846.75	3074
846.886	3070
847.022	3260
847.158	3150
847.294	3241
847.429	3272
847.565	3272
847.701	3526
847.837	3058
847.972	3005
848.108	3203
848.244	3173
848.379	3005
848.515	2948
848.65	2956
848.786	2979
848.921	3039
849.057	3116
849.192	3165
849.328	3104
849.463	3169
849.598	3089
849.734	3058
849.869	3017
850.004	2967
850.14	3009
850.275	2952
850.41	2861
850.545	2891
850.68	2918
850.815	2975
850.95	2956
851.085	3230
851.22	3062
851.355	3066
851.49	3066
851.625	3062
851.76	3077
851.895	2948
852.03	2906
852.165	3055
852.299	3150
852.434	3199
852.569	3161
852.703	3192
852.838	3283
852.973	3332
853.107	3348
853.242	3157
853.376	3157
853.511	3005
853.645	3055
853.78	3268
853.914	3150
854.048	3157
854.183	3131
854.317	3146
854.451	3306
854.585	3150
854.72	3112
854.854	3214
854.988	3039
855.122	3119
855.256	3032
855.39	3138
855.524	3256
855.658	3237
855.792	3131
855.926	3222
856.06	3256
856.194	3291
856.327	3192
856.461	3081
856.595	3093
856.729	3081
856.862	3237
856.996	3188
857.13	3233
857.263	3226
857.397	3298
857.53	3157
857.664	3283
857.797	3241
857.931	3249
858.064	3203
858.197	3226
858.331	3154
858.464	3146
858.597	3032
858.731	3161
858.864	3150
858.997	3104
859.13	3157
859.263	3165
859.396	3226
859.529	3085
859.662	3112
859.795	3062
859.928	3173
860.061	3264
860.194	3363
860.327	3180
860.46	3150
860.592	3287
860.725	3272
860.858	3256
860.99	3123
861.123	3062
861.256	3081
861.388	3173
861.521	3922
861.653	3047
861.786	2998
861.918	3009
862.05	3104
862.183	3097
862.315	3173
862.447	3241
862.58	3112
862.712	2971
862.844	2906
862.976	3013
863.108	3005
863.24	3450
863.372	2906
863.504	2975
863.636	2963
863.768	3070
863.9	2971
864.032	2941
864.164	2956
864.296	3024
864.428	3116
864.559	3150
864.691	3100
864.823	3093
864.954	3093
865.086	3070
865.217	2986
865.349	2971
865.48	2994
865.612	3013
865.743	3207
865.875	2982
866.006	3024
866.137	3024
866.269	2994
866.4	2944
866.531	2948
866.662	2925
866.793	2899
866.924	2914
867.055	2979
867.186	2963
867.317	2937
867.448	2899
867.579	2895
867.71	2857
867.841	2853
867.972	2922
868.103	2922
868.233	2899
868.364	2902
868.495	2944
868.625	3093
868.756	3157
868.886	3009
869.017	3047
869.147	3176
869.278	3161
869.408	3058
869.539	3055
869.669	3100
869.799	3036
869.929	3157
870.06	3093
870.19	3344
870.32	3310
870.45	3302
870.58	3374
870.71	3469
870.84	3454
870.97	3298
871.1	3256
871.23	3504
871.36	3435
871.489	3355
871.619	3416
871.749	3424
871.879	3481
872.008	3526
872.138	3359
872.267	3321
872.397	3146
872.526	3127
872.656	3024
872.785	3104
872.915	3230
873.044	3329
873.173	3214
873.303	3249
873.432	3264
873.561	3268
873.69	3184
873.819	3211
873.948	3233
874.077	3112
874.206	3074
874.335	3100
874.464	3207
874.593	3351
874.722	3264
874.851	3389
874.979	3363
875.108	3302
875.237	3211
875.365	3176
875.494	3192
875.623	3233
875.751	3112
875.88	3146
876.008	3226
876.136	3237
876.265	3393
876.393	3496
876.521	3469
876.65	3412
876.778	3397
876.906	3222
877.034	3222
877.162	3218
877.29	3218
877.418	3306
877.546	3241
877.674	3214
877.802	3222
877.93	3253
878.058	3192
878.185	3108
878.313	3226
878.441	3237
878.568	3097
878.696	3127
878.824	3253
878.951	3329
879.079	3443
879.206	3625
879.333	3435
879.461	3359
879.588	3359
879.715	3477
879.842	3644
879.97	3409
880.097	3192
880.224	3116
880.351	3188
880.478	3245
880.605	3207
880.732	3192
880.859	3515
880.986	3294
881.112	3340
881.239	3233
881.366	3097
881.493	3036
881.619	3036
881.746	3055
881.872	3131
881.999	3077
882.125	3131
882.252	3237
882.378	3287
882.505	3450
882.631	3294
882.757	3146
882.883	3207
883.01	3245
883.136	3176
883.262	3104
883.388	3127
883.514	3321
883.64	3367
883.766	3329
883.892	3226
884.018	3256
884.143	3412
884.269	3542
884.395	3211
884.52	3176
884.646	3199
884.772	3112
884.897	3108
885.023	3218
885.148	3344
885.274	3450
885.399	3389
885.524	3302
885.65	3256
885.775	3332
885.9	3287
886.025	3443
886.15	3367
886.275	3310
886.4	3207
886.525	3336
886.65	3287
886.775	3291
886.9	3530
887.025	3644
887.149	3428
887.274	3279
887.399	3195
887.523	3226
887.648	3199
887.773	3199
887.897	3389
888.021	3424
888.146	3279
888.27	3469
888.395	3492
888.519	3454
888.643	3469
888.767	3462
888.891	3332
889.015	3245
889.139	3291
889.263	3237
889.387	3401
889.511	3561
889.635	3439
889.759	3283
889.883	3306
890.006	3420
890.13	3511
890.254	3283
890.377	3348
890.501	3237
890.624	3180
890.748	3268
890.871	3165
890.995	3116
891.118	3070
891.241	3188
891.364	3249
891.488	3291
891.611	3192
891.734	3176
891.857	3272
891.98	3268
892.103	3363
892.226	3294
892.349	3203
892.471	3135
892.594	3256
892.717	3275
892.839	3260
892.962	3306
893.085	3374
893.207	3310
893.33	3161
893.452	3253
893.575	3355
893.697	3291
893.819	3469
893.941	3519
894.064	3481
894.186	3268
894.308	3294
894.43	3412
894.552	3523
894.674	3477
894.796	3291
894.918	3329
895.04	3283
895.161	3424
895.283	3428
895.405	3302
895.526	3344
895.648	3424
895.769	3405
895.891	3439
896.012	3500
896.134	3481
896.255	3431
896.376	3367
896.498	3397
896.619	3439
896.74	3359
896.861	3428
896.982	3686
897.103	3808
897.224	3606
897.345	3515
897.466	3416
897.587	3485
897.708	3629
897.828	3549
897.949	3481
898.07	3367
898.19	3416
898.311	3584
898.431	3428
898.552	3492
898.672	3625
898.792	3568
898.913	3526
899.033	3416
899.153	3336
899.273	3256
899.393	3275
899.513	3336
899.633	3348
899.753	3386
899.873	3310
899.993	3405
900.113	3332
900.232	3389
900.352	3336
900.472	3272
900.591	3241
900.711	3291
900.83	3253
900.95	3447
901.069	3500
901.189	3367
901.308	3176
901.427	3150
901.546	3169
901.665	3317
901.784	3325
901.904	3169
902.023	3135
902.141	3032
902.26	2998
902.379	3131
902.498	3066
902.617	3066
902.735	3211
902.854	3218
902.973	3214
903.091	3028
903.21	3089
903.328	3131
903.446	3150
903.565	3089
903.683	3169
903.801	3116
903.919	3260
904.038	3283
904.156	3184
904.274	3260
904.392	3256
904.51	3272
904.627	3294
904.745	3435
904.863	3530
904.981	3279
905.098	3184
905.216	3253
905.334	3294
905.451	3275
905.569	3325
905.686	3431
905.803	3428
905.921	3249
906.038	3458
906.155	3340
906.272	3313
906.389	3336
906.506	3218
906.623	3230
906.74	3272
906.857	3211
906.974	3268
907.091	3420
907.208	3572
907.324	3481
907.441	3359
907.557	3253
907.674	3249
907.79	3245
907.907	3275
908.023	3370
908.139	3397
908.256	3344
908.372	3401
908.488	3363
908.604	3260
908.72	3249
908.836	3317
908.952	3275
909.068	3370
909.184	3492
909.3	3424
909.415	3515
909.531	3435
909.647	3283
909.762	3298
909.878	3253
909.993	3351
910.108	3374
910.224	3382
910.339	3428
910.454	3332
910.57	3287
910.685	3260
910.8	3561
910.915	3530
911.03	3397
911.145	3279
911.259	3256
911.374	3332
911.489	3272
911.604	3226
911.718	3093
911.833	3127
911.947	3093
912.062	3024
912.176	3161
912.291	3211
912.405	3214
912.519	3428
912.633	3466
912.748	3325
912.862	3283
912.976	3188
913.09	3039
913.204	3116
913.318	3253
913.431	3329
913.545	3340
913.659	3454
913.772	3313
913.886	3218
914	3222
914.113	3336
914.226	3462
914.34	3397
914.453	3230
914.566	3382
914.68	3332
914.793	3310
914.906	3142
915.019	3123
915.132	3062
915.245	3184
915.358	3199
915.47	3207
915.583	3302
915.696	3279
915.809	3393
915.921	3393
916.034	3272
916.146	3245
916.259	3233
916.371	3389
916.483	3386
916.595	3256
916.708	3344
916.82	3348
916.932	3351
917.044	3393
917.156	3348
917.268	3241
917.38	3321
917.491	3294
917.603	3370
917.715	3466
917.826	3519
917.938	3382
918.049	3249
918.161	3431
918.272	3599
918.384	3549
918.495	3462
918.606	3359
918.717	3264
918.828	3405
918.939	3386
919.05	3294
919.161	3393
919.272	3154
919.383	3272
919.494	3454
919.604	3633
919.715	3511
919.826	3405
919.936	3428
920.047	3606
920.157	3576
920.267	3770
920.378	3614
920.488	3580
920.598	3808
920.708	3930
920.818	3816
920.928	3838
921.038	4017
921.148	4006
921.258	3686
921.368	3686
921.477	3591
921.587	3545
921.697	3469
921.806	3614
921.916	3511
922.025	3351
922.134	3359
922.244	3310
922.353	3405
922.462	3313
922.571	3237
922.68	3123
922.789	3077
922.898	3131
923.007	3119
923.116	3214
923.224	3165
923.333	3169
923.442	3093
923.55	3089
923.659	3112
923.767	3226
923.876	3112
923.984	3245
924.092	3097
924.201	3180
924.309	3226
924.417	3245
924.525	3195
924.633	3214
924.741	4120
924.849	3066
924.956	3249
925.064	3093
925.172	3013
925.279	3081
925.387	3199
925.494	3161
925.602	3378
925.709	3363
925.816	3176
925.924	3275
926.031	3393
926.138	3340
926.245	3329
926.352	3237
926.459	3424
926.566	3481
926.673	3313
926.779	3241
926.886	3256
926.993	3154
927.099	3104
927.206	3097
927.312	3112
927.419	3279
927.525	3184
927.631	3260
927.737	3157
927.843	3108
927.95	3013
928.056	3119
928.162	3192
928.267	3233
928.373	3854
928.479	3306
928.585	3070
928.69	3195
928.796	3291
928.901	3127
929.007	3058
929.112	3207
929.218	3188
929.323	3131
929.428	3169
929.533	3306
929.638	3135
929.743	3169
929.848	3272
929.953	3226
930.058	3112
930.163	2986
930.267	3058
930.372	3180
930.477	3043
930.581	3332
930.685	3180
930.79	3055
930.894	3112
930.998	3112
931.103	3317
931.207	2979
931.311	2948
931.415	2922
931.519	2773
931.623	2811
