Data from test_V78500241_570.txt Node
Date: Fri Mar 25 16:19:09 CST 2022
User: usil
Spectrometer: V785-0024
Trigger mode: 0
Integration Time (sec): 4.000000E-1
Scans to average: 1
Nonlinearity correction enabled: false
Boxcar width: 0
Storing dark spectrum: false
XAxis mode: Wavelengths
Number of Pixels in Spectrum: 1024
>>>>>Begin Spectral Data<<<<<
801.071	2975
801.214	2986
801.356	2922
801.499	2925
801.641	2944
801.783	2986
801.926	3108
802.068	3001
802.211	3024
802.353	3066
802.496	3001
802.638	3055
802.78	3100
802.923	3116
803.065	3020
803.208	2941
803.35	2956
803.492	2944
803.635	2963
803.777	2773
803.919	2845
804.061	3249
804.204	2944
804.346	2925
804.488	2918
804.63	3024
804.773	2906
804.915	2941
805.057	3081
805.199	2971
805.341	2967
805.483	3055
805.626	3039
805.768	2975
805.91	3123
806.052	3154
806.194	3036
806.336	3264
806.478	3036
806.62	2994
806.762	3001
806.904	3085
807.046	3203
807.188	3005
807.33	2963
807.472	3028
807.614	2929
807.756	2986
807.898	2925
808.04	2910
808.182	3009
808.324	2967
808.465	2914
808.607	2891
808.749	2815
808.891	2883
809.033	2975
809.174	3005
809.316	2906
809.458	2929
809.6	2796
809.741	2766
809.883	2792
810.025	2864
810.166	2861
810.308	2861
810.45	2895
810.591	2796
810.733	2773
810.875	2861
811.016	2830
811.158	2792
811.299	2815
811.441	2960
811.582	2922
811.724	2861
811.865	2826
812.007	2971
812.148	2899
812.29	2872
812.431	2933
812.573	2937
812.714	3017
812.855	3039
812.997	3104
813.138	3146
813.279	2990
813.421	3020
813.562	2933
813.703	2887
813.845	2914
813.986	2788
814.127	2766
814.268	2845
814.41	2838
814.551	2857
814.692	2857
814.833	2800
814.974	2902
815.115	3001
815.256	2861
815.397	2800
815.539	2914
815.68	2796
815.821	2834
815.962	2952
816.103	2929
816.244	2883
816.385	2849
816.526	2994
816.666	2891
816.807	2769
816.948	2929
817.089	2929
817.23	2864
817.371	2769
817.512	2804
817.653	2872
817.793	2857
817.934	2925
818.075	2960
818.216	3036
818.356	3066
818.497	2914
818.638	2773
818.778	2849
818.919	2826
819.06	2807
819.2	2906
819.341	2849
819.481	2819
819.622	2956
819.762	3135
819.903	3077
820.043	2979
820.184	2906
820.324	2933
820.465	3043
820.605	3066
820.746	3058
820.886	2906
821.026	3100
821.167	3154
821.307	3272
821.447	3310
821.588	3226
821.728	3199
821.868	3176
822.008	3070
822.149	3230
822.289	3260
822.429	3116
822.569	3104
822.709	3192
822.849	3036
822.99	3039
823.13	3173
823.27	3256
823.41	3138
823.55	3173
823.69	3161
823.83	3230
823.97	3138
824.11	3032
824.25	2975
824.389	3100
824.529	3169
824.669	3104
824.809	3192
824.949	3264
825.089	3222
825.228	3173
825.368	3055
825.508	2952
825.648	2963
825.787	3032
825.927	3066
826.067	2979
826.206	2990
826.346	3108
826.485	3093
826.625	3112
826.765	3268
826.904	3264
827.044	3032
827.183	2933
827.323	2902
827.462	3032
827.601	2933
827.741	2941
827.88	2982
828.02	2853
828.159	2982
828.298	3074
828.437	3165
828.577	3055
828.716	3230
828.855	3108
828.994	2952
829.134	2902
829.273	2941
829.412	2902
829.551	2899
829.69	2906
829.829	3009
829.968	3161
830.107	3001
830.246	3043
830.385	2952
830.524	2895
830.663	2826
830.802	2727
830.941	2655
831.08	2655
831.219	2766
831.357	2781
831.496	2963
831.635	2731
831.774	2678
831.913	2659
832.051	2575
832.19	2613
832.329	2689
832.467	2556
832.606	2514
832.744	2598
832.883	2583
833.022	2659
833.16	2648
833.299	2701
833.437	2716
833.576	2708
833.714	2739
833.852	2754
833.991	2804
834.129	2838
834.267	2853
834.406	2796
834.544	2887
834.682	2906
834.821	2899
834.959	3081
835.097	2918
835.235	3081
835.373	2975
835.511	3055
835.65	2952
835.788	3020
835.926	2872
836.064	2815
836.202	2861
836.34	3131
836.478	3188
836.615	3051
836.753	3150
836.891	3214
837.029	3157
837.167	3138
837.305	3104
837.443	3039
837.58	2929
837.718	3154
837.856	3062
837.993	3013
838.131	3127
838.269	3108
838.406	3131
838.544	3097
838.681	2967
838.819	2952
838.956	2819
839.094	2861
839.231	2937
839.369	3017
839.506	3370
839.643	3203
839.781	3039
839.918	2998
840.055	3051
840.193	3055
840.33	3081
840.467	3131
840.604	3157
840.742	3405
840.879	3074
841.016	3058
841.153	3131
841.29	3374
841.427	3302
841.564	3264
841.701	3317
841.838	3279
841.975	3188
842.112	3214
842.249	3100
842.385	3039
842.522	3241
842.659	3074
842.796	3074
842.933	3112
843.069	3036
843.206	3039
843.343	3195
843.479	3093
843.616	3150
843.752	2872
843.889	2914
844.025	3085
844.162	2918
844.298	3093
844.435	2963
844.571	2948
844.708	3070
844.844	3230
844.98	3249
845.117	3176
845.253	3066
845.389	3036
845.525	3150
845.661	3138
845.798	2994
845.934	3135
846.07	3062
846.206	3233
846.342	3329
846.478	3237
846.614	3108
846.75	3066
846.886	3032
847.022	3268
847.158	3180
847.294	3214
847.429	3279
847.565	3233
847.701	3439
847.837	3047
847.972	2998
848.108	3169
848.244	3131
848.379	2990
848.515	2948
848.65	2967
848.786	2956
848.921	3051
849.057	3123
849.192	3123
849.328	3104
849.463	3123
849.598	3074
849.734	3043
849.869	2986
850.004	2952
850.14	2967
850.275	2944
850.41	2845
850.545	2883
850.68	2944
850.815	2990
850.95	2998
851.085	3211
851.22	3127
851.355	3013
851.49	3043
851.625	3028
851.76	3036
851.895	2937
852.03	2910
852.165	3032
852.299	3100
852.434	3176
852.569	3146
852.703	3211
852.838	3214
852.973	3386
853.107	3340
853.242	3104
853.376	3070
853.511	2979
853.645	3093
853.78	3226
853.914	3150
854.048	3131
854.183	3085
854.317	3138
854.451	3321
854.585	3142
854.72	3047
854.854	3218
854.988	3036
855.122	3116
855.256	3001
855.39	3112
855.524	3275
855.658	3169
855.792	3165
855.926	3230
856.06	3214
856.194	3253
856.327	3165
856.461	3108
856.595	3123
856.729	3085
856.862	3214
856.996	3135
857.13	3188
857.263	3211
857.397	3260
857.53	3123
857.664	3184
857.797	3260
857.931	3275
858.064	3146
858.197	3241
858.331	3093
858.464	3097
858.597	3020
858.731	3089
858.864	3161
858.997	3119
859.13	3173
859.263	3203
859.396	3199
859.529	3100
859.662	3077
859.795	3051
859.928	3123
860.061	3268
860.194	3279
860.327	3161
860.46	3097
860.592	3237
860.725	3222
860.858	3233
860.99	3127
861.123	3047
861.256	3032
861.388	3135
861.521	3686
861.653	2986
861.786	2982
861.918	3013
862.05	3066
862.183	3032
862.315	3138
862.447	3195
862.58	3093
862.712	2960
862.844	2902
862.976	3028
863.108	3036
863.24	3462
863.372	2906
863.504	2948
863.636	2941
863.768	3024
863.9	3017
864.032	2933
864.164	2963
864.296	3032
864.428	3089
864.559	3093
864.691	3070
864.823	3058
864.954	3024
865.086	3077
865.217	3013
865.349	2948
865.48	2971
865.612	3032
865.743	3127
865.875	2979
866.006	2960
866.137	2963
866.269	2994
866.4	2933
866.531	2933
866.662	2902
866.793	2883
866.924	2883
867.055	3005
867.186	2922
867.317	2883
867.448	2868
867.579	2876
867.71	2830
867.841	2834
867.972	2914
868.103	2944
868.233	2891
868.364	2895
868.495	2868
868.625	3051
868.756	3165
868.886	2971
869.017	3017
869.147	3192
869.278	3188
869.408	3032
869.539	3028
869.669	3108
869.799	3051
869.929	3123
870.06	3077
870.19	3310
870.32	3272
870.45	3317
870.58	3351
870.71	3447
870.84	3447
870.97	3294
871.1	3230
871.23	3473
871.36	3469
871.489	3351
871.619	3420
871.749	3397
871.879	3431
872.008	3473
872.138	3374
872.267	3310
872.397	3161
872.526	3093
872.656	2994
872.785	3100
872.915	3249
873.044	3363
873.173	3226
873.303	3245
873.432	3249
873.561	3184
873.69	3188
873.819	3157
873.948	3199
874.077	3085
874.206	3047
874.335	3081
874.464	3222
874.593	3363
874.722	3233
874.851	3363
874.979	3351
875.108	3275
875.237	3218
875.365	3161
875.494	3135
875.623	3249
875.751	3093
875.88	3127
876.008	3203
876.136	3188
876.265	3386
876.393	3542
876.521	3389
876.65	3397
876.778	3306
876.906	3256
877.034	3222
877.162	3249
877.29	3180
877.418	3287
877.546	3211
877.674	3230
877.802	3230
877.93	3233
878.058	3154
878.185	3089
878.313	3237
878.441	3203
878.568	3085
878.696	3138
878.824	3253
878.951	3321
879.079	3439
879.206	3644
879.333	3443
879.461	3317
879.588	3359
879.715	3473
879.842	3587
879.97	3348
880.097	3192
880.224	3150
880.351	3184
880.478	3207
880.605	3214
880.732	3165
880.859	3542
880.986	3272
881.112	3275
881.239	3230
881.366	3097
881.493	3055
881.619	2990
881.746	3066
881.872	3093
881.999	3070
882.125	3085
882.252	3218
882.378	3245
882.505	3424
882.631	3272
882.757	3176
882.883	3226
883.01	3218
883.136	3188
883.262	3077
883.388	3112
883.514	3359
883.64	3386
883.766	3321
883.892	3180
884.018	3283
884.143	3393
884.269	3576
884.395	3192
884.52	3119
884.646	3176
884.772	3142
884.897	3089
885.023	3192
885.148	3317
885.274	3378
885.399	3359
885.524	3260
885.65	3222
885.775	3321
885.9	3287
886.025	3450
886.15	3355
886.275	3291
886.4	3260
886.525	3389
886.65	3249
886.775	3268
886.9	3557
887.025	3610
887.149	3386
887.274	3272
887.399	3192
887.523	3161
887.648	3211
887.773	3169
887.897	3378
888.021	3378
888.146	3336
888.27	3401
888.395	3519
888.519	3420
888.643	3481
888.767	3447
888.891	3340
889.015	3233
889.139	3310
889.263	3249
889.387	3412
889.511	3469
889.635	3454
889.759	3253
889.883	3302
890.006	3393
890.13	3500
890.254	3253
890.377	3321
890.501	3211
890.624	3211
890.748	3317
890.871	3154
890.995	3070
891.118	3043
891.241	3184
891.364	3207
891.488	3336
891.611	3146
891.734	3207
891.857	3302
891.98	3203
892.103	3363
892.226	3264
892.349	3218
892.471	3165
892.594	3230
892.717	3272
892.839	3253
892.962	3291
893.085	3348
893.207	3260
893.33	3157
893.452	3207
893.575	3275
893.697	3245
893.819	3431
893.941	3500
894.064	3428
894.186	3313
894.308	3275
894.43	3454
894.552	3523
894.674	3435
894.796	3249
894.918	3310
895.04	3218
895.161	3416
895.283	3370
895.405	3298
895.526	3374
895.648	3439
895.769	3447
895.891	3454
896.012	3469
896.134	3466
896.255	3416
896.376	3393
896.498	3389
896.619	3435
896.74	3370
896.861	3397
896.982	3652
897.103	3808
897.224	3595
897.345	3534
897.466	3435
897.587	3515
897.708	3595
897.828	3542
897.949	3416
898.07	3302
898.19	3393
898.311	3622
898.431	3443
898.552	3485
898.672	3580
898.792	3580
898.913	3534
899.033	3409
899.153	3298
899.273	3192
899.393	3249
899.513	3287
899.633	3279
899.753	3351
899.873	3298
899.993	3378
900.113	3298
900.232	3382
900.352	3359
900.472	3291
900.591	3233
900.711	3279
900.83	3253
900.95	3416
901.069	3500
901.189	3348
901.308	3165
901.427	3135
901.546	3180
901.665	3279
901.784	3367
901.904	3180
902.023	3119
902.141	3020
902.26	3017
902.379	3112
902.498	3043
902.617	3043
902.735	3237
902.854	3233
902.973	3150
903.091	3043
903.21	3085
903.328	3104
903.446	3146
903.565	3081
903.683	3214
903.801	3131
903.919	3268
904.038	3264
904.156	3218
904.274	3256
904.392	3218
904.51	3268
904.627	3291
904.745	3435
904.863	3492
904.981	3253
905.098	3188
905.216	3203
905.334	3249
905.451	3302
905.569	3344
905.686	3401
905.803	3435
905.921	3283
906.038	3412
906.155	3374
906.272	3279
906.389	3306
906.506	3237
906.623	3230
906.74	3298
906.857	3173
906.974	3230
907.091	3492
907.208	3538
907.324	3466
907.441	3378
907.557	3253
907.674	3211
907.79	3218
907.907	3211
908.023	3378
908.139	3416
908.256	3302
908.372	3397
908.488	3382
908.604	3272
908.72	3245
908.836	3298
908.952	3268
909.068	3317
909.184	3447
909.3	3405
909.415	3477
909.531	3454
909.647	3272
909.762	3241
909.878	3249
909.993	3374
910.108	3359
910.224	3340
910.339	3405
910.454	3340
910.57	3253
910.685	3180
910.8	3561
910.915	3523
911.03	3420
911.145	3253
911.259	3253
911.374	3268
911.489	3211
911.604	3218
911.718	3112
911.833	3184
911.947	3066
912.062	2982
912.176	3169
912.291	3180
912.405	3233
912.519	3420
912.633	3473
912.748	3294
912.862	3272
912.976	3165
913.09	3055
913.204	3142
913.318	3233
913.431	3317
913.545	3294
913.659	3420
913.772	3336
913.886	3241
914	3180
914.113	3367
914.226	3367
914.34	3359
914.453	3207
914.566	3428
914.68	3256
914.793	3310
914.906	3154
915.019	3066
915.132	3070
915.245	3161
915.358	3180
915.47	3230
915.583	3207
915.696	3310
915.809	3367
915.921	3374
916.034	3249
916.146	3233
916.259	3184
916.371	3393
916.483	3397
916.595	3275
916.708	3355
916.82	3310
916.932	3344
917.044	3348
917.156	3325
917.268	3260
917.38	3306
917.491	3287
917.603	3344
917.715	3466
917.826	3443
917.938	3348
918.049	3275
918.161	3393
918.272	3591
918.384	3591
918.495	3443
918.606	3325
918.717	3237
918.828	3355
918.939	3401
919.05	3256
919.161	3389
919.272	3180
919.383	3283
919.494	3496
919.604	3625
919.715	3466
919.826	3397
919.936	3435
920.047	3599
920.157	3545
920.267	3755
920.378	3549
920.488	3572
920.598	3766
920.708	3945
920.818	3797
920.928	3838
921.038	4051
921.148	4010
921.258	3663
921.368	3660
921.477	3542
921.587	3526
921.697	3431
921.806	3618
921.916	3511
922.025	3351
922.134	3336
922.244	3298
922.353	3401
922.462	3230
922.571	3222
922.68	3070
922.789	3081
922.898	3123
923.007	3135
923.116	3180
923.224	3157
923.333	3161
923.442	3085
923.55	3081
923.659	3131
923.767	3195
923.876	3108
923.984	3241
924.092	3104
924.201	3226
924.309	3203
924.417	3256
924.525	3188
924.633	3249
924.741	4055
924.849	3017
924.956	3272
925.064	3127
925.172	3051
925.279	3116
925.387	3214
925.494	3192
925.602	3325
925.709	3344
925.816	3150
925.924	3272
926.031	3405
926.138	3310
926.245	3355
926.352	3218
926.459	3393
926.566	3447
926.673	3370
926.779	3237
926.886	3249
926.993	3123
927.099	3154
927.206	3119
927.312	3070
927.419	3237
927.525	3176
927.631	3275
927.737	3138
927.843	3097
927.95	3043
928.056	3119
928.162	3135
928.267	3241
928.373	3766
928.479	3275
928.585	3028
928.69	3218
928.796	3264
928.901	3173
929.007	3036
929.112	3211
929.218	3169
929.323	3093
929.428	3165
929.533	3325
929.638	3047
929.743	3192
929.848	3264
929.953	3199
930.058	3123
930.163	3001
930.267	3013
930.372	3214
930.477	3032
930.581	3268
930.685	3176
930.79	3051
930.894	3100
930.998	3062
931.103	3275
931.207	2948
931.311	2906
931.415	2891
931.519	2773
931.623	2785
