Data from test_V78500241_1809.txt Node
Date: Fri Mar 25 16:27:44 CST 2022
User: usil
Spectrometer: V785-0024
Trigger mode: 0
Integration Time (sec): 4.000000E-1
Scans to average: 1
Nonlinearity correction enabled: false
Boxcar width: 0
Storing dark spectrum: false
XAxis mode: Wavelengths
Number of Pixels in Spectrum: 1024
>>>>>Begin Spectral Data<<<<<
801.071	2910
801.214	2963
801.356	2853
801.499	2914
801.641	2899
801.783	2937
801.926	3039
802.068	2937
802.211	2952
802.353	3036
802.496	2971
802.638	2982
802.78	2994
802.923	3062
803.065	2998
803.208	2861
803.35	2925
803.492	2902
803.635	2944
803.777	2777
803.919	2876
804.061	3207
804.204	2948
804.346	2868
804.488	2823
804.63	2963
804.773	2876
804.915	2895
805.057	3074
805.199	2918
805.341	2967
805.483	3001
805.626	2994
805.768	2956
805.91	3077
806.052	3131
806.194	2998
806.336	3218
806.478	3009
806.62	2929
806.762	2952
806.904	3055
807.046	3138
807.188	2956
807.33	2914
807.472	2941
807.614	2899
807.756	2956
807.898	2899
808.04	2872
808.182	2967
808.324	2944
808.465	2891
808.607	2868
808.749	2777
808.891	2834
809.033	2948
809.174	2971
809.316	2876
809.458	2872
809.6	2800
809.741	2762
809.883	2773
810.025	2876
810.166	2868
810.308	2857
810.45	2830
810.591	2792
810.733	2766
810.875	2826
811.016	2762
811.158	2754
811.299	2804
811.441	2944
811.582	2853
811.724	2834
811.865	2830
812.007	2883
812.148	2868
812.29	2872
812.431	2891
812.573	2933
812.714	2952
812.855	3051
812.997	3058
813.138	3100
813.279	3032
813.421	2982
813.562	2982
813.703	2861
813.845	2891
813.986	2731
814.127	2731
814.268	2823
814.41	2804
814.551	2807
814.692	2864
814.833	2804
814.974	2895
815.115	2967
815.256	2815
815.397	2773
815.539	2853
815.68	2746
815.821	2807
815.962	2933
816.103	2937
816.244	2864
816.385	2891
816.526	2937
816.666	2887
816.807	2746
816.948	2857
817.089	2918
817.23	2845
817.371	2785
817.512	2773
817.653	2842
817.793	2815
817.934	2861
818.075	2929
818.216	3005
818.356	3005
818.497	2880
818.638	2800
818.778	2811
818.919	2781
819.06	2769
819.2	2906
819.341	2800
819.481	2819
819.622	2895
819.762	3077
819.903	3017
820.043	2906
820.184	2880
820.324	2899
820.465	3005
820.605	3001
820.746	2990
820.886	2941
821.026	3097
821.167	3169
821.307	3287
821.447	3283
821.588	3218
821.728	3192
821.868	3184
822.008	3077
822.149	3165
822.289	3237
822.429	3062
822.569	3093
822.709	3138
822.849	3005
822.99	3062
823.13	3180
823.27	3192
823.41	3116
823.55	3154
823.69	3161
823.83	3192
823.97	3108
824.11	2979
824.25	3020
824.389	3077
824.529	3146
824.669	3028
824.809	3203
824.949	3237
825.089	3203
825.228	3165
825.368	2982
825.508	2963
825.648	2990
825.787	3001
825.927	3017
826.067	2990
826.206	2922
826.346	3074
826.485	3066
826.625	3112
826.765	3253
826.904	3199
827.044	2982
827.183	2918
827.323	2902
827.462	2960
827.601	2922
827.741	2914
827.88	2944
828.02	2857
828.159	2948
828.298	3020
828.437	3089
828.577	3024
828.716	3218
828.855	3062
828.994	2895
829.134	2883
829.273	2906
829.412	2857
829.551	2842
829.69	2899
829.829	2979
829.968	3108
830.107	3001
830.246	2998
830.385	2914
830.524	2872
830.663	2777
830.802	2720
830.941	2659
831.08	2610
831.219	2758
831.357	2708
831.496	2960
831.635	2712
831.774	2648
831.913	2667
832.051	2552
832.19	2602
832.329	2686
832.467	2533
832.606	2473
832.744	2606
832.883	2590
833.022	2594
833.16	2621
833.299	2682
833.437	2743
833.576	2689
833.714	2701
833.852	2724
833.991	2750
834.129	2804
834.267	2815
834.406	2758
834.544	2876
834.682	2861
834.821	2830
834.959	3058
835.097	2887
835.235	3047
835.373	3005
835.511	3013
835.65	2937
835.788	2941
835.926	2819
836.064	2792
836.202	2853
836.34	3104
836.478	3146
836.615	3051
836.753	3081
836.891	3192
837.029	3146
837.167	3058
837.305	3047
837.443	3039
837.58	2982
837.718	3108
837.856	3051
837.993	3005
838.131	3093
838.269	3085
838.406	3097
838.544	3093
838.681	2918
838.819	2887
838.956	2804
839.094	2800
839.231	2910
839.369	3001
839.506	3332
839.643	3241
839.781	3024
839.918	2952
840.055	3001
840.193	3051
840.33	3047
840.467	3097
840.604	3150
840.742	3397
840.879	3051
841.016	3043
841.153	3081
841.29	3348
841.427	3317
841.564	3275
841.701	3298
841.838	3173
841.975	3165
842.112	3237
842.249	3051
842.385	3043
842.522	3230
842.659	3089
842.796	3043
842.933	3077
843.069	3039
843.206	3001
843.343	3176
843.479	3062
843.616	3100
843.752	2883
843.889	2872
844.025	3093
844.162	2861
844.298	3058
844.435	2937
844.571	2914
844.708	3032
844.844	3207
844.98	3260
845.117	3154
845.253	3032
845.389	2986
845.525	3100
845.661	3104
845.798	3005
845.934	3127
846.07	3017
846.206	3249
846.342	3302
846.478	3237
846.614	3058
846.75	3020
846.886	3013
847.022	3222
847.158	3150
847.294	3180
847.429	3275
847.565	3230
847.701	3496
847.837	3051
847.972	3009
848.108	3146
848.244	3146
848.379	3001
848.515	2922
848.65	2948
848.786	2971
848.921	2971
849.057	3123
849.192	3176
849.328	3070
849.463	3093
849.598	3043
849.734	3020
849.869	2971
850.004	2944
850.14	2948
850.275	2918
850.41	2838
850.545	2868
850.68	2941
850.815	2963
850.95	2975
851.085	3184
851.22	3077
851.355	3009
851.49	2922
851.625	3005
851.76	2975
851.895	2971
852.03	2910
852.165	3020
852.299	3135
852.434	3195
852.569	3116
852.703	3157
852.838	3214
852.973	3329
853.107	3332
853.242	3165
853.376	3062
853.511	2956
853.645	3032
853.78	3207
853.914	3135
854.048	3047
854.183	3123
854.317	3142
854.451	3291
854.585	3150
854.72	3123
854.854	3173
854.988	3062
855.122	3070
855.256	2944
855.39	3112
855.524	3226
855.658	3173
855.792	3108
855.926	3184
856.06	3226
856.194	3253
856.327	3131
856.461	3070
856.595	3077
856.729	3066
856.862	3214
856.996	3161
857.13	3214
857.263	3195
857.397	3294
857.53	3135
857.664	3222
857.797	3226
857.931	3268
858.064	3195
858.197	3180
858.331	3116
858.464	3062
858.597	2982
858.731	3112
858.864	3074
858.997	3077
859.13	3165
859.263	3184
859.396	3241
859.529	3116
859.662	3070
859.795	3017
859.928	3135
860.061	3241
860.194	3291
860.327	3123
860.46	3081
860.592	3241
860.725	3237
860.858	3237
860.99	3108
861.123	3051
861.256	3036
861.388	3142
861.521	3835
861.653	3005
861.786	2952
861.918	2986
862.05	2986
862.183	3093
862.315	3131
862.447	3176
862.58	3074
862.712	2925
862.844	2876
862.976	2998
863.108	3005
863.24	3401
863.372	2887
863.504	2925
863.636	2910
863.768	2994
863.9	2963
864.032	2895
864.164	2944
864.296	2979
864.428	3100
864.559	3089
864.691	3058
864.823	3062
864.954	3036
865.086	3017
865.217	2994
865.349	2979
865.48	2971
865.612	3032
865.743	3142
865.875	2994
866.006	2918
866.137	2967
866.269	2929
866.4	2918
866.531	2902
866.662	2895
866.793	2895
866.924	2845
867.055	2948
867.186	2914
867.317	2872
867.448	2823
867.579	2792
867.71	2842
867.841	2823
867.972	2868
868.103	2902
868.233	2872
868.364	2826
868.495	2872
868.625	3085
868.756	3188
868.886	2941
869.017	2990
869.147	3127
869.278	3138
869.408	3013
869.539	3009
869.669	3119
869.799	3043
869.929	3131
870.06	3070
870.19	3329
870.32	3302
870.45	3294
870.58	3317
870.71	3454
870.84	3458
870.97	3306
871.1	3241
871.23	3519
871.36	3469
871.489	3340
871.619	3409
871.749	3412
871.879	3435
872.008	3481
872.138	3336
872.267	3222
872.397	3119
872.526	3108
872.656	2975
872.785	3066
872.915	3279
873.044	3302
873.173	3233
873.303	3199
873.432	3230
873.561	3203
873.69	3157
873.819	3169
873.948	3199
874.077	3127
874.206	3024
874.335	3081
874.464	3249
874.593	3351
874.722	3237
874.851	3348
874.979	3382
875.108	3275
875.237	3188
875.365	3116
875.494	3131
875.623	3264
875.751	3097
875.88	3108
876.008	3169
876.136	3226
876.265	3359
876.393	3469
876.521	3397
876.65	3397
876.778	3321
876.906	3222
877.034	3169
877.162	3241
877.29	3146
877.418	3192
877.546	3214
877.674	3233
877.802	3180
877.93	3222
878.058	3131
878.185	3097
878.313	3131
878.441	3150
878.568	3070
878.696	3135
878.824	3233
878.951	3283
879.079	3420
879.206	3584
879.333	3443
879.461	3306
879.588	3351
879.715	3488
879.842	3599
879.97	3386
880.097	3150
880.224	3123
880.351	3180
880.478	3192
880.605	3157
880.732	3180
880.859	3473
880.986	3313
881.112	3336
881.239	3161
881.366	3047
881.493	3032
881.619	2994
881.746	3070
881.872	3097
881.999	3104
882.125	3127
882.252	3241
882.378	3306
882.505	3420
882.631	3268
882.757	3127
882.883	3207
883.01	3233
883.136	3100
883.262	3081
883.388	3081
883.514	3310
883.64	3329
883.766	3329
883.892	3199
884.018	3203
884.143	3416
884.269	3545
884.395	3214
884.52	3146
884.646	3214
884.772	3135
884.897	3093
885.023	3176
885.148	3298
885.274	3416
885.399	3370
885.524	3272
885.65	3249
885.775	3317
885.9	3279
886.025	3420
886.15	3367
886.275	3287
886.4	3203
886.525	3268
886.65	3241
886.775	3264
886.9	3526
887.025	3633
887.149	3374
887.274	3188
887.399	3154
887.523	3154
887.648	3135
887.773	3146
887.897	3382
888.021	3363
888.146	3302
888.27	3424
888.395	3530
888.519	3386
888.643	3405
888.767	3473
888.891	3279
889.015	3264
889.139	3272
889.263	3237
889.387	3374
889.511	3507
889.635	3443
889.759	3287
889.883	3275
890.006	3386
890.13	3488
890.254	3264
890.377	3325
890.501	3222
890.624	3165
890.748	3283
890.871	3203
890.995	3131
891.118	3043
891.241	3218
891.364	3237
891.488	3313
891.611	3188
891.734	3207
891.857	3275
891.98	3268
892.103	3340
892.226	3291
892.349	3260
892.471	3135
892.594	3268
892.717	3298
892.839	3268
892.962	3302
893.085	3355
893.207	3294
893.33	3195
893.452	3211
893.575	3374
893.697	3275
893.819	3511
893.941	3519
894.064	3519
894.186	3306
894.308	3294
894.43	3477
894.552	3584
894.674	3481
894.796	3291
894.918	3378
895.04	3302
895.161	3485
895.283	3428
895.405	3351
895.526	3424
895.648	3439
895.769	3450
895.891	3473
896.012	3542
896.134	3481
896.255	3439
896.376	3420
896.498	3409
896.619	3488
896.74	3393
896.861	3443
896.982	3698
897.103	3934
897.224	3614
897.345	3545
897.466	3469
897.587	3523
897.708	3675
897.828	3599
897.949	3488
898.07	3374
898.19	3416
898.311	3599
898.431	3511
898.552	3523
898.672	3614
898.792	3610
898.913	3584
899.033	3462
899.153	3363
899.273	3230
899.393	3306
899.513	3378
899.633	3359
899.753	3378
899.873	3367
899.993	3412
900.113	3351
900.232	3428
900.352	3351
900.472	3348
900.591	3249
900.711	3332
900.83	3287
900.95	3420
901.069	3504
901.189	3393
901.308	3230
901.427	3127
901.546	3226
901.665	3336
901.784	3355
901.904	3256
902.023	3161
902.141	3009
902.26	3020
902.379	3180
902.498	3142
902.617	3112
902.735	3226
902.854	3287
902.973	3253
903.091	3062
903.21	3097
903.328	3195
903.446	3131
903.565	3093
903.683	3226
903.801	3169
903.919	3291
904.038	3317
904.156	3199
904.274	3313
904.392	3291
904.51	3302
904.627	3325
904.745	3473
904.863	3488
904.981	3275
905.098	3218
905.216	3260
905.334	3344
905.451	3382
905.569	3325
905.686	3462
905.803	3492
905.921	3313
906.038	3462
906.155	3389
906.272	3256
906.389	3370
906.506	3279
906.623	3264
906.74	3325
906.857	3230
906.974	3287
907.091	3496
907.208	3625
907.324	3507
907.441	3443
907.557	3264
907.674	3264
907.79	3218
907.907	3279
908.023	3428
908.139	3409
908.256	3367
908.372	3393
908.488	3359
908.604	3272
908.72	3245
908.836	3340
908.952	3298
909.068	3386
909.184	3526
909.3	3412
909.415	3511
909.531	3488
909.647	3241
909.762	3321
909.878	3264
909.993	3367
910.108	3363
910.224	3378
910.339	3454
910.454	3386
910.57	3302
910.685	3272
910.8	3595
910.915	3545
911.03	3469
911.145	3302
911.259	3332
911.374	3279
911.489	3268
911.604	3226
911.718	3123
911.833	3157
911.947	3055
912.062	3028
912.176	3203
912.291	3253
912.405	3268
912.519	3462
912.633	3530
912.748	3382
912.862	3264
912.976	3199
913.09	3127
913.204	3165
913.318	3233
913.431	3374
913.545	3405
913.659	3443
913.772	3367
913.886	3249
914	3256
914.113	3359
914.226	3439
914.34	3386
914.453	3249
914.566	3435
914.68	3283
914.793	3363
914.906	3211
915.019	3119
915.132	3127
915.245	3203
915.358	3256
915.47	3226
915.583	3294
915.696	3294
915.809	3450
915.921	3450
916.034	3256
916.146	3264
916.259	3245
916.371	3443
916.483	3389
916.595	3340
916.708	3359
916.82	3374
916.932	3389
917.044	3374
917.156	3412
917.268	3287
917.38	3336
917.491	3329
917.603	3378
917.715	3492
917.826	3511
917.938	3416
918.049	3310
918.161	3450
918.272	3629
918.384	3606
918.495	3492
918.606	3397
918.717	3283
918.828	3424
918.939	3450
919.05	3313
919.161	3405
919.272	3169
919.383	3313
919.494	3481
919.604	3743
919.715	3519
919.826	3447
919.936	3466
920.047	3637
920.157	3576
920.267	3793
920.378	3633
920.488	3599
920.598	3823
920.708	3991
920.818	3816
920.928	3846
921.038	4025
921.148	4032
921.258	3747
921.368	3641
921.477	3553
921.587	3568
921.697	3458
921.806	3641
921.916	3504
922.025	3355
922.134	3443
922.244	3351
922.353	3454
922.462	3268
922.571	3249
922.68	3100
922.789	3093
922.898	3195
923.007	3131
923.116	3253
923.224	3199
923.333	3199
923.442	3157
923.55	3077
923.659	3199
923.767	3214
923.876	3150
923.984	3306
924.092	3135
924.201	3222
924.309	3253
924.417	3275
924.525	3192
924.633	3237
924.741	4059
924.849	3100
924.956	3253
925.064	3131
925.172	3062
925.279	3138
925.387	3211
925.494	3195
925.602	3447
925.709	3332
925.816	3192
925.924	3310
926.031	3378
926.138	3378
926.245	3359
926.352	3272
926.459	3458
926.566	3507
926.673	3363
926.779	3294
926.886	3298
926.993	3165
927.099	3138
927.206	3154
927.312	3150
927.419	3279
927.525	3241
927.631	3294
927.737	3188
927.843	3169
927.95	3047
928.056	3142
928.162	3180
928.267	3241
928.373	3804
928.479	3367
928.585	3074
928.69	3207
928.796	3317
928.901	3188
929.007	3074
929.112	3237
929.218	3199
929.323	3131
929.428	3165
929.533	3306
929.638	3119
929.743	3199
929.848	3256
929.953	3260
930.058	3173
930.163	3024
930.267	3062
930.372	3222
930.477	3047
930.581	3336
930.685	3203
930.79	3097
930.894	3157
930.998	3108
931.103	3298
931.207	2944
931.311	2982
931.415	2975
931.519	2773
931.623	2823
