Data from test_V78500241_1963.txt Node
Date: Fri Mar 25 16:28:48 CST 2022
User: usil
Spectrometer: V785-0024
Trigger mode: 0
Integration Time (sec): 4.000000E-1
Scans to average: 1
Nonlinearity correction enabled: false
Boxcar width: 0
Storing dark spectrum: false
XAxis mode: Wavelengths
Number of Pixels in Spectrum: 1024
>>>>>Begin Spectral Data<<<<<
801.071	2925
801.214	2914
801.356	2876
801.499	2845
801.641	2823
801.783	2891
801.926	3020
802.068	2922
802.211	3066
802.353	3013
802.496	2975
802.638	3013
802.78	2998
802.923	3085
803.065	3020
803.208	2895
803.35	2922
803.492	2910
803.635	2914
803.777	2743
803.919	2834
804.061	3180
804.204	2895
804.346	2857
804.488	2830
804.63	2990
804.773	2853
804.915	2925
805.057	3047
805.199	2914
805.341	2971
805.483	3043
805.626	2971
805.768	2952
805.91	3058
806.052	3104
806.194	3017
806.336	3222
806.478	2998
806.62	2956
806.762	2944
806.904	3051
807.046	3173
807.188	2998
807.33	2899
807.472	2982
807.614	2899
807.756	2979
807.898	2925
808.04	2922
808.182	2960
808.324	2929
808.465	2887
808.607	2895
808.749	2800
808.891	2834
809.033	2975
809.174	2960
809.316	2857
809.458	2899
809.6	2777
809.741	2750
809.883	2743
810.025	2823
810.166	2834
810.308	2842
810.45	2849
810.591	2766
810.733	2773
810.875	2823
811.016	2781
811.158	2724
811.299	2807
811.441	2956
811.582	2880
811.724	2826
811.865	2815
812.007	2902
812.148	2872
812.29	2849
812.431	2899
812.573	2967
812.714	2941
812.855	3017
812.997	3039
813.138	3123
813.279	3028
813.421	2979
813.562	2982
813.703	2880
813.845	2883
813.986	2762
814.127	2739
814.268	2853
814.41	2819
814.551	2807
814.692	2853
814.833	2800
814.974	2914
815.115	2944
815.256	2788
815.397	2849
815.539	2849
815.68	2766
815.821	2796
815.962	2963
816.103	2929
816.244	2887
816.385	2845
816.526	2990
816.666	2910
816.807	2739
816.948	2910
817.089	2872
817.23	2838
817.371	2807
817.512	2811
817.653	2815
817.793	2777
817.934	2895
818.075	2925
818.216	2967
818.356	3009
818.497	2887
818.638	2766
818.778	2830
818.919	2769
819.06	2739
819.2	2853
819.341	2845
819.481	2788
819.622	2887
819.762	3097
819.903	3062
820.043	2899
820.184	2880
820.324	2880
820.465	3013
820.605	3017
820.746	3032
820.886	2960
821.026	3123
821.167	3123
821.307	3222
821.447	3245
821.588	3283
821.728	3218
821.868	3184
822.008	3074
822.149	3188
822.289	3207
822.429	3085
822.569	3066
822.709	3180
822.849	3009
822.99	3062
823.13	3165
823.27	3245
823.41	3074
823.55	3131
823.69	3169
823.83	3169
823.97	3074
824.11	2960
824.25	3028
824.389	3055
824.529	3108
824.669	3055
824.809	3176
824.949	3249
825.089	3230
825.228	3127
825.368	2990
825.508	2948
825.648	2963
825.787	3005
825.927	3024
826.067	2941
826.206	2975
826.346	3062
826.485	3077
826.625	3116
826.765	3256
826.904	3226
827.044	2982
827.183	2922
827.323	2842
827.462	2960
827.601	2899
827.741	2906
827.88	2922
828.02	2872
828.159	2937
828.298	3032
828.437	3081
828.577	3039
828.716	3237
828.855	3070
828.994	2887
829.134	2857
829.273	2910
829.412	2876
829.551	2887
829.69	2891
829.829	2929
829.968	3123
830.107	3036
830.246	3020
830.385	2941
830.524	2830
830.663	2807
830.802	2712
830.941	2617
831.08	2636
831.219	2754
831.357	2750
831.496	2899
831.635	2701
831.774	2640
831.913	2636
832.051	2537
832.19	2552
832.329	2674
832.467	2507
832.606	2476
832.744	2541
832.883	2590
833.022	2579
833.16	2648
833.299	2701
833.437	2686
833.576	2663
833.714	2720
833.852	2716
833.991	2746
834.129	2815
834.267	2807
834.406	2788
834.544	2853
834.682	2864
834.821	2842
834.959	3070
835.097	2891
835.235	3055
835.373	3001
835.511	2967
835.65	2941
835.788	2925
835.926	2864
836.064	2788
836.202	2830
836.34	3097
836.478	3142
836.615	3062
836.753	3131
836.891	3184
837.029	3173
837.167	3104
837.305	3077
837.443	3020
837.58	2929
837.718	3131
837.856	3058
837.993	3005
838.131	3100
838.269	3093
838.406	3070
838.544	3085
838.681	2956
838.819	2880
838.956	2815
839.094	2811
839.231	2899
839.369	3039
839.506	3397
839.643	3195
839.781	3024
839.918	2960
840.055	3009
840.193	3043
840.33	3055
840.467	3058
840.604	3157
840.742	3393
840.879	3013
841.016	3047
841.153	3119
841.29	3336
841.427	3275
841.564	3275
841.701	3287
841.838	3230
841.975	3146
842.112	3253
842.249	3055
842.385	3047
842.522	3283
842.659	3066
842.796	3047
842.933	3077
843.069	3051
843.206	3009
843.343	3211
843.479	3089
843.616	3123
843.752	2872
843.889	2864
844.025	3093
844.162	2891
844.298	3058
844.435	2982
844.571	2937
844.708	3077
844.844	3176
844.98	3214
845.117	3184
845.253	3043
845.389	3009
845.525	3112
845.661	3108
845.798	3005
845.934	3123
846.07	3043
846.206	3184
846.342	3294
846.478	3241
846.614	3085
846.75	3028
846.886	2998
847.022	3180
847.158	3104
847.294	3199
847.429	3214
847.565	3192
847.701	3466
847.837	3005
847.972	2975
848.108	3135
848.244	3138
848.379	2952
848.515	2918
848.65	2933
848.786	2979
848.921	2979
849.057	3062
849.192	3135
849.328	3089
849.463	3062
849.598	3066
849.734	3043
849.869	2956
850.004	2914
850.14	2963
850.275	2880
850.41	2823
850.545	2857
850.68	2937
850.815	2986
850.95	2963
851.085	3211
851.22	3123
851.355	3051
851.49	2982
851.625	2975
851.76	2994
851.895	2922
852.03	2933
852.165	3024
852.299	3093
852.434	3161
852.569	3131
852.703	3138
852.838	3241
852.973	3367
853.107	3340
853.242	3150
853.376	3058
853.511	2960
853.645	3055
853.78	3176
853.914	3119
854.048	3116
854.183	3058
854.317	3116
854.451	3272
854.585	3119
854.72	3062
854.854	3207
854.988	3055
855.122	3104
855.256	2971
855.39	3093
855.524	3241
855.658	3184
855.792	3173
855.926	3146
856.06	3260
856.194	3233
856.327	3169
856.461	3043
856.595	3093
856.729	3070
856.862	3214
856.996	3176
857.13	3146
857.263	3199
857.397	3268
857.53	3146
857.664	3176
857.797	3245
857.931	3256
858.064	3131
858.197	3180
858.331	3108
858.464	3039
858.597	2998
858.731	3131
858.864	3138
858.997	3051
859.13	3161
859.263	3180
859.396	3211
859.529	3070
859.662	3051
859.795	3028
859.928	3100
860.061	3260
860.194	3230
860.327	3135
860.46	3077
860.592	3222
860.725	3207
860.858	3275
860.99	3112
861.123	3055
861.256	3047
861.388	3165
861.521	3865
861.653	3017
861.786	2933
861.918	3013
862.05	3066
862.183	3123
862.315	3146
862.447	3211
862.58	3062
862.712	2944
862.844	2868
862.976	3039
863.108	3032
863.24	3420
863.372	2880
863.504	2937
863.636	2960
863.768	3036
863.9	2975
864.032	2906
864.164	2922
864.296	3009
864.428	3119
864.559	3097
864.691	3017
864.823	3074
864.954	3051
865.086	3036
865.217	2963
865.349	2906
865.48	2967
865.612	3013
865.743	3123
865.875	2986
866.006	2941
866.137	2990
866.269	2933
866.4	2914
866.531	2895
866.662	2853
866.793	2910
866.924	2864
867.055	2937
867.186	2895
867.317	2853
867.448	2823
867.579	2838
867.71	2815
867.841	2838
867.972	2887
868.103	2864
868.233	2880
868.364	2868
868.495	2899
868.625	3074
868.756	3127
868.886	2979
869.017	2967
869.147	3154
869.278	3192
869.408	3055
869.539	2994
869.669	3058
869.799	3028
869.929	3104
870.06	3085
870.19	3325
870.32	3298
870.45	3237
870.58	3370
870.71	3416
870.84	3443
870.97	3302
871.1	3245
871.23	3477
871.36	3443
871.489	3340
871.619	3386
871.749	3405
871.879	3428
872.008	3439
872.138	3348
872.267	3275
872.397	3157
872.526	3077
872.656	3039
872.785	3089
872.915	3211
873.044	3283
873.173	3203
873.303	3222
873.432	3188
873.561	3256
873.69	3142
873.819	3150
873.948	3230
874.077	3089
874.206	3043
874.335	3066
874.464	3188
874.593	3306
874.722	3226
874.851	3370
874.979	3351
875.108	3313
875.237	3180
875.365	3135
875.494	3165
875.623	3230
875.751	3074
875.88	3112
876.008	3226
876.136	3211
876.265	3302
876.393	3496
876.521	3416
876.65	3386
876.778	3351
876.906	3226
877.034	3192
877.162	3237
877.29	3180
877.418	3253
877.546	3241
877.674	3214
877.802	3249
877.93	3192
878.058	3135
878.185	3100
878.313	3214
878.441	3203
878.568	3047
878.696	3157
878.824	3253
878.951	3325
879.079	3435
879.206	3595
879.333	3405
879.461	3313
879.588	3332
879.715	3466
879.842	3561
879.97	3363
880.097	3176
880.224	3112
880.351	3150
880.478	3211
880.605	3195
880.732	3180
880.859	3447
880.986	3279
881.112	3302
881.239	3180
881.366	3077
881.493	3032
881.619	3032
881.746	3058
881.872	3047
881.999	3085
882.125	3150
882.252	3211
882.378	3268
882.505	3409
882.631	3268
882.757	3150
882.883	3203
883.01	3211
883.136	3173
883.262	3142
883.388	3112
883.514	3325
883.64	3355
883.766	3302
883.892	3188
884.018	3226
884.143	3401
884.269	3515
884.395	3192
884.52	3176
884.646	3173
884.772	3104
884.897	3089
885.023	3142
885.148	3329
885.274	3431
885.399	3378
885.524	3245
885.65	3226
885.775	3313
885.9	3260
886.025	3431
886.15	3374
886.275	3260
886.4	3184
886.525	3287
886.65	3207
886.775	3272
886.9	3466
887.025	3637
887.149	3386
887.274	3245
887.399	3165
887.523	3184
887.648	3173
887.773	3176
887.897	3367
888.021	3374
888.146	3283
888.27	3435
888.395	3545
888.519	3409
888.643	3420
888.767	3447
888.891	3272
889.015	3264
889.139	3291
889.263	3279
889.387	3424
889.511	3485
889.635	3393
889.759	3275
889.883	3275
890.006	3351
890.13	3447
890.254	3268
890.377	3298
890.501	3192
890.624	3180
890.748	3249
890.871	3131
890.995	3116
891.118	3089
891.241	3161
891.364	3211
891.488	3310
891.611	3165
891.734	3184
891.857	3275
891.98	3256
892.103	3325
892.226	3279
892.349	3199
892.471	3085
892.594	3214
892.717	3253
892.839	3256
892.962	3294
893.085	3348
893.207	3310
893.33	3138
893.452	3233
893.575	3298
893.697	3272
893.819	3447
893.941	3469
894.064	3454
894.186	3279
894.308	3241
894.43	3431
894.552	3511
894.674	3447
894.796	3272
894.918	3298
895.04	3253
895.161	3473
895.283	3431
895.405	3306
895.526	3370
895.648	3443
895.769	3466
895.891	3477
896.012	3469
896.134	3454
896.255	3412
896.376	3409
896.498	3401
896.619	3439
896.74	3397
896.861	3420
896.982	3671
897.103	3857
897.224	3633
897.345	3526
897.466	3435
897.587	3515
897.708	3682
897.828	3557
897.949	3431
898.07	3336
898.19	3485
898.311	3656
898.431	3466
898.552	3561
898.672	3644
898.792	3656
898.913	3564
899.033	3462
899.153	3321
899.273	3237
899.393	3329
899.513	3344
899.633	3351
899.753	3405
899.873	3355
899.993	3420
900.113	3386
900.232	3428
900.352	3310
900.472	3310
900.591	3237
900.711	3329
900.83	3264
900.95	3447
901.069	3526
901.189	3363
901.308	3230
901.427	3173
901.546	3230
901.665	3306
901.784	3386
901.904	3256
902.023	3184
902.141	3058
902.26	3036
902.379	3157
902.498	3108
902.617	3085
902.735	3226
902.854	3291
902.973	3226
903.091	3097
903.21	3085
903.328	3192
903.446	3135
903.565	3116
903.683	3253
903.801	3146
903.919	3294
904.038	3287
904.156	3237
904.274	3340
904.392	3268
904.51	3306
904.627	3359
904.745	3504
904.863	3511
904.981	3256
905.098	3230
905.216	3287
905.334	3332
905.451	3332
905.569	3336
905.686	3481
905.803	3466
905.921	3298
906.038	3443
906.155	3405
906.272	3306
906.389	3405
906.506	3241
906.623	3306
906.74	3298
906.857	3218
906.974	3325
907.091	3492
907.208	3629
907.324	3538
907.441	3428
907.557	3272
907.674	3287
907.79	3241
907.907	3351
908.023	3359
908.139	3443
908.256	3401
908.372	3431
908.488	3405
908.604	3291
908.72	3230
908.836	3310
908.952	3291
909.068	3367
909.184	3515
909.3	3386
909.415	3557
909.531	3496
909.647	3317
909.762	3321
909.878	3306
909.993	3405
910.108	3374
910.224	3370
910.339	3428
910.454	3359
910.57	3291
910.685	3260
910.8	3622
910.915	3572
911.03	3466
911.145	3298
911.259	3264
911.374	3332
911.489	3260
911.604	3264
911.718	3135
911.833	3157
911.947	3047
912.062	3017
912.176	3184
912.291	3218
912.405	3241
912.519	3485
912.633	3454
912.748	3348
912.862	3313
912.976	3230
913.09	3081
913.204	3176
913.318	3218
913.431	3378
913.545	3325
913.659	3450
913.772	3393
913.886	3264
914	3245
914.113	3389
914.226	3409
914.34	3420
914.453	3268
914.566	3488
914.68	3374
914.793	3351
914.906	3192
915.019	3169
915.132	3116
915.245	3199
915.358	3214
915.47	3264
915.583	3310
915.696	3332
915.809	3454
915.921	3477
916.034	3283
916.146	3321
916.259	3222
916.371	3420
916.483	3397
916.595	3283
916.708	3348
916.82	3393
916.932	3367
917.044	3378
917.156	3370
917.268	3241
917.38	3321
917.491	3344
917.603	3367
917.715	3511
917.826	3504
917.938	3409
918.049	3310
918.161	3458
918.272	3591
918.384	3599
918.495	3515
918.606	3359
918.717	3294
918.828	3431
918.939	3428
919.05	3310
919.161	3393
919.272	3226
919.383	3332
919.494	3530
919.604	3732
919.715	3481
919.826	3443
919.936	3481
920.047	3618
920.157	3515
920.267	3812
920.378	3618
920.488	3572
920.598	3819
920.708	4017
920.818	3831
920.928	3857
921.038	4048
921.148	4002
921.258	3705
921.368	3660
921.477	3633
921.587	3561
921.697	3458
921.806	3701
921.916	3538
922.025	3386
922.134	3405
922.244	3351
922.353	3420
922.462	3317
922.571	3256
922.68	3100
922.789	3093
922.898	3184
923.007	3104
923.116	3249
923.224	3188
923.333	3218
923.442	3127
923.55	3154
923.659	3184
923.767	3268
923.876	3119
923.984	3310
924.092	3135
924.201	3245
924.309	3287
924.417	3283
924.525	3211
924.633	3237
924.741	4219
924.849	3058
924.956	3268
925.064	3135
925.172	3070
925.279	3104
925.387	3218
925.494	3195
925.602	3374
925.709	3378
925.816	3230
925.924	3275
926.031	3389
926.138	3355
926.245	3416
926.352	3294
926.459	3389
926.566	3519
926.673	3325
926.779	3287
926.886	3294
926.993	3146
927.099	3150
927.206	3119
927.312	3123
927.419	3253
927.525	3222
927.631	3310
927.737	3161
927.843	3180
927.95	3032
928.056	3169
928.162	3222
928.267	3275
928.373	3876
928.479	3332
928.585	3097
928.69	3237
928.796	3287
928.901	3192
929.007	3119
929.112	3226
929.218	3199
929.323	3161
929.428	3161
929.533	3329
929.638	3169
929.743	3199
929.848	3275
929.953	3230
930.058	3184
930.163	3017
930.267	3077
930.372	3237
930.477	3032
930.581	3367
930.685	3150
930.79	3085
930.894	3154
930.998	3131
931.103	3317
931.207	3005
931.311	2963
931.415	2948
931.519	2792
931.623	2845
