Data from test_V78500241_914.txt Node
Date: Fri Mar 25 16:21:32 CST 2022
User: usil
Spectrometer: V785-0024
Trigger mode: 0
Integration Time (sec): 4.000000E-1
Scans to average: 1
Nonlinearity correction enabled: false
Boxcar width: 0
Storing dark spectrum: false
XAxis mode: Wavelengths
Number of Pixels in Spectrum: 1024
>>>>>Begin Spectral Data<<<<<
801.071	2963
801.214	2998
801.356	2910
801.499	2933
801.641	2937
801.783	2948
801.926	3100
802.068	3024
802.211	3013
802.353	3089
802.496	2990
802.638	3032
802.78	3047
802.923	3135
803.065	3009
803.208	2906
803.35	2948
803.492	2941
803.635	2971
803.777	2830
803.919	2895
804.061	3249
804.204	2963
804.346	2967
804.488	2895
804.63	3013
804.773	2895
804.915	2960
805.057	3131
805.199	2967
805.341	3028
805.483	3074
805.626	3001
805.768	3001
805.91	3104
806.052	3100
806.194	3047
806.336	3279
806.478	3058
806.62	2979
806.762	3032
806.904	3058
807.046	3203
807.188	3032
807.33	2933
807.472	3024
807.614	2956
807.756	2994
807.898	2941
808.04	2910
808.182	3017
808.324	2982
808.465	2918
808.607	2922
808.749	2815
808.891	2883
809.033	3017
809.174	2967
809.316	2925
809.458	2910
809.6	2819
809.741	2826
809.883	2804
810.025	2861
810.166	2891
810.308	2853
810.45	2902
810.591	2819
810.733	2796
810.875	2883
811.016	2804
811.158	2792
811.299	2845
811.441	2944
811.582	2906
811.724	2857
811.865	2834
812.007	2956
812.148	2918
812.29	2864
812.431	2925
812.573	2937
812.714	2963
812.855	3058
812.997	3074
813.138	3138
813.279	2990
813.421	3013
813.562	2971
813.703	2914
813.845	2914
813.986	2785
814.127	2750
814.268	2823
814.41	2861
814.551	2830
814.692	2902
814.833	2830
814.974	2925
815.115	3013
815.256	2880
815.397	2864
815.539	2899
815.68	2792
815.821	2796
815.962	3001
816.103	2963
816.244	2883
816.385	2880
816.526	3013
816.666	2910
816.807	2785
816.948	2929
817.089	2925
817.23	2895
817.371	2819
817.512	2800
817.653	2872
817.793	2819
817.934	2887
818.075	3001
818.216	2994
818.356	3039
818.497	2899
818.638	2804
818.778	2880
818.919	2853
819.06	2766
819.2	2902
819.341	2800
819.481	2811
819.622	2956
819.762	3093
819.903	3070
820.043	2895
820.184	2933
820.324	2910
820.465	3017
820.605	3001
820.746	3039
820.886	2960
821.026	3100
821.167	3180
821.307	3302
821.447	3306
821.588	3287
821.728	3230
821.868	3230
822.008	3077
822.149	3180
822.289	3279
822.429	3093
822.569	3119
822.709	3207
822.849	3039
822.99	3077
823.13	3184
823.27	3226
823.41	3108
823.55	3142
823.69	3192
823.83	3192
823.97	3127
824.11	3055
824.25	3001
824.389	3116
824.529	3135
824.669	3093
824.809	3173
824.949	3256
825.089	3218
825.228	3195
825.368	3055
825.508	2963
825.648	3013
825.787	3036
825.927	2994
826.067	2994
826.206	2971
826.346	3039
826.485	3100
826.625	3119
826.765	3272
826.904	3233
827.044	3005
827.183	2956
827.323	2895
827.462	3017
827.601	2933
827.741	2952
827.88	2960
828.02	2880
828.159	2998
828.298	3066
828.437	3112
828.577	3036
828.716	3260
828.855	3100
828.994	2952
829.134	2925
829.273	2925
829.412	2887
829.551	2868
829.69	2899
829.829	2979
829.968	3119
830.107	3051
830.246	3085
830.385	2948
830.524	2876
830.663	2830
830.802	2758
830.941	2651
831.08	2636
831.219	2769
831.357	2758
831.496	2956
831.635	2727
831.774	2651
831.913	2667
832.051	2522
832.19	2568
832.329	2705
832.467	2541
832.606	2514
832.744	2594
832.883	2598
833.022	2610
833.16	2693
833.299	2682
833.437	2724
833.576	2727
833.714	2746
833.852	2739
833.991	2788
834.129	2857
834.267	2880
834.406	2819
834.544	2880
834.682	2899
834.821	2838
834.959	3100
835.097	2906
835.235	3066
835.373	3009
835.511	3020
835.65	2941
835.788	2986
835.926	2887
836.064	2815
836.202	2849
836.34	3108
836.478	3161
836.615	3077
836.753	3157
836.891	3199
837.029	3165
837.167	3131
837.305	3089
837.443	3036
837.58	3001
837.718	3138
837.856	3055
837.993	3024
838.131	3123
838.269	3135
838.406	3142
838.544	3093
838.681	2990
838.819	2948
838.956	2826
839.094	2815
839.231	2922
839.369	3024
839.506	3382
839.643	3207
839.781	3043
839.918	2979
840.055	3051
840.193	3070
840.33	3089
840.467	3108
840.604	3146
840.742	3374
840.879	3089
841.016	3051
841.153	3108
841.29	3374
841.427	3321
841.564	3291
841.701	3306
841.838	3245
841.975	3176
842.112	3233
842.249	3066
842.385	3047
842.522	3279
842.659	3097
842.796	3066
842.933	3093
843.069	3062
843.206	3039
843.343	3211
843.479	3123
843.616	3150
843.752	2887
843.889	2887
844.025	3112
844.162	2883
844.298	3097
844.435	2967
844.571	2933
844.708	3097
844.844	3211
844.98	3249
845.117	3188
845.253	3055
845.389	3020
845.525	3077
845.661	3104
845.798	3032
845.934	3131
846.07	3089
846.206	3214
846.342	3344
846.478	3203
846.614	3100
846.75	3070
846.886	3017
847.022	3230
847.158	3138
847.294	3214
847.429	3237
847.565	3199
847.701	3450
847.837	3020
847.972	2948
848.108	3131
848.244	3150
848.379	2986
848.515	2963
848.65	2960
848.786	2986
848.921	3009
849.057	3123
849.192	3112
849.328	3081
849.463	3142
849.598	3097
849.734	3043
849.869	2990
850.004	2914
850.14	2975
850.275	2922
850.41	2857
850.545	2902
850.68	2944
850.815	2967
850.95	2971
851.085	3241
851.22	3104
851.355	3058
851.49	3009
851.625	2994
851.76	3036
851.895	2918
852.03	2899
852.165	3039
852.299	3142
852.434	3173
852.569	3138
852.703	3157
852.838	3256
852.973	3306
853.107	3275
853.242	3154
853.376	3116
853.511	3001
853.645	3032
853.78	3245
853.914	3154
854.048	3097
854.183	3100
854.317	3138
854.451	3306
854.585	3104
854.72	3093
854.854	3214
854.988	3062
855.122	3104
855.256	3001
855.39	3138
855.524	3245
855.658	3192
855.792	3173
855.926	3226
856.06	3214
856.194	3268
856.327	3100
856.461	3081
856.595	3108
856.729	3123
856.862	3203
856.996	3150
857.13	3188
857.263	3230
857.397	3287
857.53	3127
857.664	3188
857.797	3207
857.931	3272
858.064	3154
858.197	3260
858.331	3169
858.464	3077
858.597	3005
858.731	3138
858.864	3142
858.997	3100
859.13	3165
859.263	3218
859.396	3207
859.529	3097
859.662	3077
859.795	3085
859.928	3165
860.061	3302
860.194	3279
860.327	3123
860.46	3112
860.592	3245
860.725	3249
860.858	3275
860.99	3097
861.123	3058
861.256	3047
861.388	3173
861.521	3869
861.653	3009
861.786	3009
861.918	2975
862.05	3036
862.183	3097
862.315	3142
862.447	3176
862.58	3097
862.712	2963
862.844	2845
862.976	3032
863.108	3024
863.24	3321
863.372	2872
863.504	3013
863.636	2937
863.768	3024
863.9	2990
864.032	2914
864.164	2933
864.296	2994
864.428	3108
864.559	3131
864.691	3081
864.823	3039
864.954	3043
865.086	3081
865.217	2979
865.349	2937
865.48	2944
865.612	2998
865.743	3131
865.875	2986
866.006	2956
866.137	3001
866.269	2918
866.4	2925
866.531	2880
866.662	2902
866.793	2891
866.924	2906
867.055	2986
867.186	2948
867.317	2929
867.448	2853
867.579	2872
867.71	2834
867.841	2834
867.972	2891
868.103	2910
868.233	2845
868.364	2868
868.495	2933
868.625	3062
868.756	3180
868.886	2990
869.017	3017
869.147	3180
869.278	3146
869.408	3036
869.539	3005
869.669	3108
869.799	3005
869.929	3131
870.06	3116
870.19	3291
870.32	3287
870.45	3340
870.58	3382
870.71	3439
870.84	3431
870.97	3321
871.1	3264
871.23	3485
871.36	3469
871.489	3363
871.619	3370
871.749	3393
871.879	3416
872.008	3500
872.138	3389
872.267	3283
872.397	3150
872.526	3066
872.656	2998
872.785	3108
872.915	3195
873.044	3294
873.173	3188
873.303	3195
873.432	3237
873.561	3291
873.69	3165
873.819	3142
873.948	3184
874.077	3085
874.206	3032
874.335	3085
874.464	3207
874.593	3382
874.722	3226
874.851	3393
874.979	3310
875.108	3298
875.237	3233
875.365	3157
875.494	3150
875.623	3245
875.751	3074
875.88	3119
876.008	3173
876.136	3230
876.265	3363
876.393	3568
876.521	3416
876.65	3374
876.778	3355
876.906	3256
877.034	3165
877.162	3283
877.29	3203
877.418	3230
877.546	3253
877.674	3253
877.802	3241
877.93	3237
878.058	3131
878.185	3135
878.313	3218
878.441	3222
878.568	3097
878.696	3127
878.824	3256
878.951	3272
879.079	3428
879.206	3599
879.333	3412
879.461	3302
879.588	3325
879.715	3443
879.842	3580
879.97	3348
880.097	3173
880.224	3146
880.351	3180
880.478	3226
880.605	3214
880.732	3218
880.859	3469
880.986	3306
881.112	3329
881.239	3211
881.366	3089
881.493	3036
881.619	3043
881.746	3051
881.872	3089
881.999	3100
882.125	3108
882.252	3256
882.378	3355
882.505	3412
882.631	3306
882.757	3157
882.883	3218
883.01	3253
883.136	3161
883.262	3104
883.388	3131
883.514	3325
883.64	3386
883.766	3287
883.892	3154
884.018	3241
884.143	3428
884.269	3530
884.395	3180
884.52	3150
884.646	3199
884.772	3123
884.897	3108
885.023	3207
885.148	3317
885.274	3428
885.399	3386
885.524	3272
885.65	3245
885.775	3321
885.9	3260
886.025	3409
886.15	3370
886.275	3275
886.4	3195
886.525	3329
886.65	3260
886.775	3294
886.9	3515
887.025	3633
887.149	3393
887.274	3237
887.399	3154
887.523	3245
887.648	3173
887.773	3180
887.897	3332
888.021	3382
888.146	3272
888.27	3431
888.395	3568
888.519	3435
888.643	3473
888.767	3450
888.891	3317
889.015	3260
889.139	3283
889.263	3260
889.387	3351
889.511	3504
889.635	3435
889.759	3298
889.883	3287
890.006	3409
890.13	3488
890.254	3291
890.377	3325
890.501	3199
890.624	3199
890.748	3279
890.871	3199
890.995	3097
891.118	3070
891.241	3214
891.364	3218
891.488	3340
891.611	3176
891.734	3226
891.857	3264
891.98	3272
892.103	3317
892.226	3294
892.349	3230
892.471	3131
892.594	3268
892.717	3310
892.839	3264
892.962	3313
893.085	3348
893.207	3272
893.33	3154
893.452	3222
893.575	3370
893.697	3233
893.819	3469
893.941	3458
894.064	3428
894.186	3298
894.308	3260
894.43	3473
894.552	3530
894.674	3477
894.796	3245
894.918	3298
895.04	3302
895.161	3416
895.283	3378
895.405	3291
895.526	3382
895.648	3416
895.769	3439
895.891	3469
896.012	3473
896.134	3504
896.255	3420
896.376	3386
896.498	3382
896.619	3443
896.74	3370
896.861	3389
896.982	3690
897.103	3865
897.224	3584
897.345	3477
897.466	3435
897.587	3504
897.708	3618
897.828	3523
897.949	3454
898.07	3351
898.19	3386
898.311	3603
898.431	3447
898.552	3469
898.672	3625
898.792	3606
898.913	3500
899.033	3401
899.153	3253
899.273	3214
899.393	3294
899.513	3287
899.633	3302
899.753	3313
899.873	3291
899.993	3374
900.113	3336
900.232	3374
900.352	3336
900.472	3313
900.591	3222
900.711	3264
900.83	3245
900.95	3420
901.069	3447
901.189	3359
901.308	3176
901.427	3127
901.546	3180
901.665	3298
901.784	3332
901.904	3207
902.023	3127
902.141	3013
902.26	2986
902.379	3146
902.498	3066
902.617	3024
902.735	3188
902.854	3218
902.973	3203
903.091	3074
903.21	3058
903.328	3123
903.446	3093
903.565	3085
903.683	3173
903.801	3104
903.919	3214
904.038	3245
904.156	3161
904.274	3275
904.392	3226
904.51	3291
904.627	3344
904.745	3477
904.863	3462
904.981	3222
905.098	3173
905.216	3199
905.334	3291
905.451	3283
905.569	3302
905.686	3416
905.803	3443
905.921	3310
906.038	3363
906.155	3374
906.272	3279
906.389	3325
906.506	3226
906.623	3268
906.74	3275
906.857	3173
906.974	3253
907.091	3458
907.208	3584
907.324	3454
907.441	3374
907.557	3249
907.674	3256
907.79	3233
907.907	3245
908.023	3332
908.139	3378
908.256	3317
908.372	3378
908.488	3386
908.604	3253
908.72	3256
908.836	3291
908.952	3291
909.068	3363
909.184	3443
909.3	3389
909.415	3488
909.531	3466
909.647	3237
909.762	3310
909.878	3253
909.993	3344
910.108	3306
910.224	3298
910.339	3401
910.454	3313
910.57	3287
910.685	3230
910.8	3580
910.915	3538
911.03	3431
911.145	3302
911.259	3287
911.374	3340
911.489	3260
911.604	3199
911.718	3138
911.833	3104
911.947	3024
912.062	2941
912.176	3176
912.291	3211
912.405	3211
912.519	3447
912.633	3469
912.748	3321
912.862	3272
912.976	3154
913.09	3039
913.204	3062
913.318	3222
913.431	3313
913.545	3306
913.659	3397
913.772	3363
913.886	3260
914	3165
914.113	3332
914.226	3374
914.34	3382
914.453	3218
914.566	3431
914.68	3275
914.793	3340
914.906	3135
915.019	3135
915.132	3093
915.245	3207
915.358	3211
915.47	3226
915.583	3306
915.696	3260
915.809	3420
915.921	3389
916.034	3291
916.146	3245
916.259	3214
916.371	3359
916.483	3359
916.595	3287
916.708	3344
916.82	3355
916.932	3310
917.044	3306
917.156	3378
917.268	3211
917.38	3291
917.491	3283
917.603	3397
917.715	3450
917.826	3431
917.938	3351
918.049	3256
918.161	3416
918.272	3568
918.384	3572
918.495	3466
918.606	3351
918.717	3272
918.828	3355
918.939	3420
919.05	3302
919.161	3378
919.272	3180
919.383	3264
919.494	3515
919.604	3694
919.715	3511
919.826	3420
919.936	3454
920.047	3572
920.157	3553
920.267	3743
920.378	3606
920.488	3542
920.598	3793
920.708	3960
920.818	3819
920.928	3865
921.038	4021
921.148	3956
921.258	3713
921.368	3606
921.477	3591
921.587	3538
921.697	3447
921.806	3614
921.916	3504
922.025	3378
922.134	3344
922.244	3355
922.353	3416
922.462	3287
922.571	3218
922.68	3119
922.789	3055
922.898	3097
923.007	3089
923.116	3165
923.224	3176
923.333	3207
923.442	3119
923.55	3104
923.659	3131
923.767	3184
923.876	3123
923.984	3241
924.092	3116
924.201	3199
924.309	3184
924.417	3253
924.525	3154
924.633	3256
924.741	4105
924.849	3062
924.956	3226
925.064	3108
925.172	3047
925.279	3104
925.387	3192
925.494	3154
925.602	3382
925.709	3317
925.816	3146
925.924	3268
926.031	3367
926.138	3321
926.245	3351
926.352	3226
926.459	3409
926.566	3447
926.673	3340
926.779	3264
926.886	3245
926.993	3169
927.099	3085
927.206	3108
927.312	3097
927.419	3199
927.525	3214
927.631	3275
927.737	3169
927.843	3100
927.95	3020
928.056	3119
928.162	3173
928.267	3268
928.373	3785
928.479	3275
928.585	3066
928.69	3188
928.796	3237
928.901	3180
929.007	3070
929.112	3180
929.218	3146
929.323	3123
929.428	3131
929.533	3302
929.638	3108
929.743	3180
929.848	3226
929.953	3233
930.058	3135
930.163	3001
930.267	3039
930.372	3207
930.477	3013
930.581	3306
930.685	3161
930.79	3062
930.894	3116
930.998	3039
931.103	3233
931.207	2963
931.311	2883
931.415	2925
931.519	2773
931.623	2811
