Data from test_V78500241_1723.txt Node
Date: Fri Mar 25 16:27:08 CST 2022
User: usil
Spectrometer: V785-0024
Trigger mode: 0
Integration Time (sec): 4.000000E-1
Scans to average: 1
Nonlinearity correction enabled: false
Boxcar width: 0
Storing dark spectrum: false
XAxis mode: Wavelengths
Number of Pixels in Spectrum: 1024
>>>>>Begin Spectral Data<<<<<
801.071	2914
801.214	2941
801.356	2834
801.499	2883
801.641	2845
801.783	2933
801.926	3013
802.068	2979
802.211	2975
802.353	3017
802.496	2941
802.638	3001
802.78	3024
802.923	3036
803.065	3005
803.208	2842
803.35	2883
803.492	2918
803.635	2899
803.777	2769
803.919	2861
804.061	3199
804.204	2948
804.346	2922
804.488	2834
804.63	3005
804.773	2868
804.915	2891
805.057	3058
805.199	2891
805.341	2998
805.483	3013
805.626	3017
805.768	2937
805.91	3081
806.052	3062
806.194	3001
806.336	3222
806.478	2979
806.62	2925
806.762	2963
806.904	3013
807.046	3150
807.188	2963
807.33	2899
807.472	2952
807.614	2944
807.756	2979
807.898	2902
808.04	2925
808.182	2956
808.324	2910
808.465	2876
808.607	2842
808.749	2815
808.891	2826
809.033	2967
809.174	2933
809.316	2861
809.458	2895
809.6	2724
809.741	2735
809.883	2792
810.025	2857
810.166	2834
810.308	2853
810.45	2819
810.591	2758
810.733	2754
810.875	2804
811.016	2773
811.158	2724
811.299	2796
811.441	2933
811.582	2883
811.724	2785
811.865	2834
812.007	2876
812.148	2868
812.29	2849
812.431	2887
812.573	2910
812.714	2967
812.855	3039
812.997	3017
813.138	3123
813.279	2982
813.421	2971
813.562	2971
813.703	2861
813.845	2899
813.986	2766
814.127	2731
814.268	2788
814.41	2830
814.551	2838
814.692	2906
814.833	2849
814.974	2895
815.115	2944
815.256	2807
815.397	2773
815.539	2853
815.68	2754
815.821	2777
815.962	2910
816.103	2906
816.244	2895
816.385	2853
816.526	2906
816.666	2914
816.807	2693
816.948	2910
817.089	2895
817.23	2861
817.371	2746
817.512	2819
817.653	2853
817.793	2792
817.934	2857
818.075	2963
818.216	2960
818.356	2990
818.497	2861
818.638	2819
818.778	2792
818.919	2773
819.06	2743
819.2	2895
819.341	2758
819.481	2785
819.622	2925
819.762	3043
819.903	3051
820.043	2929
820.184	2876
820.324	2876
820.465	2986
820.605	3032
820.746	3005
820.886	2891
821.026	3085
821.167	3127
821.307	3226
821.447	3268
821.588	3184
821.728	3199
821.868	3176
822.008	3039
822.149	3138
822.289	3237
822.429	3070
822.569	3055
822.709	3176
822.849	3013
822.99	3058
823.13	3138
823.27	3180
823.41	3165
823.55	3135
823.69	3112
823.83	3176
823.97	3119
824.11	3013
824.25	3013
824.389	3058
824.529	3112
824.669	3051
824.809	3207
824.949	3298
825.089	3211
825.228	3135
825.368	2990
825.508	2967
825.648	2971
825.787	2986
825.927	3066
826.067	2971
826.206	2956
826.346	3074
826.485	3089
826.625	3123
826.765	3283
826.904	3260
827.044	3020
827.183	3001
827.323	2849
827.462	2975
827.601	2967
827.741	2937
827.88	2990
828.02	2906
828.159	3028
828.298	3085
828.437	3116
828.577	3074
828.716	3268
828.855	3108
828.994	2960
829.134	2895
829.273	2960
829.412	2891
829.551	2906
829.69	2922
829.829	3009
829.968	3135
830.107	3024
830.246	3055
830.385	2967
830.524	2929
830.663	2868
830.802	2758
830.941	2693
831.08	2678
831.219	2804
831.357	2826
831.496	2979
831.635	2735
831.774	2678
831.913	2701
832.051	2579
832.19	2629
832.329	2766
832.467	2590
832.606	2560
832.744	2613
832.883	2621
833.022	2617
833.16	2655
833.299	2727
833.437	2724
833.576	2716
833.714	2754
833.852	2750
833.991	2800
834.129	2914
834.267	2876
834.406	2823
834.544	2918
834.682	2918
834.821	2891
834.959	3131
835.097	2960
835.235	3085
835.373	3013
835.511	3047
835.65	3009
835.788	2963
835.926	2872
836.064	2845
836.202	2899
836.34	3127
836.478	3169
836.615	3020
836.753	3154
836.891	3260
837.029	3180
837.167	3123
837.305	3085
837.443	3093
837.58	2998
837.718	3184
837.856	3104
837.993	3055
838.131	3142
838.269	3142
838.406	3123
838.544	3108
838.681	2929
838.819	2933
838.956	2830
839.094	2842
839.231	2952
839.369	3028
839.506	3428
839.643	3245
839.781	3020
839.918	2971
840.055	3055
840.193	3074
840.33	3097
840.467	3131
840.604	3180
840.742	3431
840.879	3097
841.016	3070
841.153	3165
841.29	3332
841.427	3287
841.564	3283
841.701	3359
841.838	3245
841.975	3226
842.112	3272
842.249	3093
842.385	3051
842.522	3275
842.659	3119
842.796	3089
842.933	3135
843.069	3089
843.206	3058
843.343	3214
843.479	3138
843.616	3180
843.752	2952
843.889	2876
844.025	3093
844.162	2922
844.298	3104
844.435	3001
844.571	2925
844.708	3100
844.844	3199
844.98	3283
845.117	3237
845.253	3017
845.389	3013
845.525	3112
845.661	3119
845.798	3036
845.934	3119
846.07	3043
846.206	3218
846.342	3359
846.478	3245
846.614	3112
846.75	3077
846.886	3081
847.022	3302
847.158	3169
847.294	3233
847.429	3260
847.565	3233
847.701	3519
847.837	3085
847.972	3009
848.108	3203
848.244	3161
848.379	3024
848.515	3005
848.65	2960
848.786	3013
848.921	3013
849.057	3119
849.192	3188
849.328	3116
849.463	3123
849.598	3089
849.734	3066
849.869	3024
850.004	2952
850.14	3009
850.275	2944
850.41	2853
850.545	2918
850.68	2944
850.815	2967
850.95	3001
851.085	3233
851.22	3066
851.355	3070
851.49	3036
851.625	3024
851.76	3051
851.895	2967
852.03	2937
852.165	3077
852.299	3127
852.434	3230
852.569	3154
852.703	3176
852.838	3294
852.973	3370
853.107	3367
853.242	3173
853.376	3085
853.511	3036
853.645	3093
853.78	3264
853.914	3150
854.048	3119
854.183	3097
854.317	3173
854.451	3332
854.585	3188
854.72	3127
854.854	3226
854.988	3055
855.122	3104
855.256	3013
855.39	3173
855.524	3256
855.658	3203
855.792	3135
855.926	3203
856.06	3256
856.194	3283
856.327	3218
856.461	3062
856.595	3097
856.729	3085
856.862	3222
856.996	3218
857.13	3207
857.263	3287
857.397	3291
857.53	3150
857.664	3226
857.797	3245
857.931	3264
858.064	3211
858.197	3222
858.331	3203
858.464	3112
858.597	3020
858.731	3165
858.864	3161
858.997	3127
859.13	3157
859.263	3199
859.396	3188
859.529	3138
859.662	3135
859.795	3066
859.928	3176
860.061	3260
860.194	3279
860.327	3173
860.46	3119
860.592	3287
860.725	3256
860.858	3256
860.99	3108
861.123	3047
861.256	3070
861.388	3150
861.521	3998
861.653	3036
861.786	2998
861.918	3039
862.05	3093
862.183	3112
862.315	3173
862.447	3241
862.58	3123
862.712	2986
862.844	2902
862.976	3039
863.108	3032
863.24	3340
863.372	2902
863.504	2967
863.636	3001
863.768	3036
863.9	3001
864.032	2883
864.164	2994
864.296	3028
864.428	3097
864.559	3138
864.691	3074
864.823	3089
864.954	3047
865.086	3062
865.217	3009
865.349	2975
865.48	3001
865.612	3039
865.743	3207
865.875	3032
866.006	2960
866.137	2979
866.269	2952
866.4	2963
866.531	2960
866.662	2906
866.793	2929
866.924	2899
867.055	3013
867.186	2918
867.317	2891
867.448	2826
867.579	2857
867.71	2868
867.841	2845
867.972	2925
868.103	2922
868.233	2914
868.364	2906
868.495	2910
868.625	3039
868.756	3188
868.886	3032
869.017	3024
869.147	3203
869.278	3165
869.408	3070
869.539	3066
869.669	3081
869.799	3070
869.929	3157
870.06	3112
870.19	3340
870.32	3306
870.45	3329
870.58	3389
870.71	3488
870.84	3450
870.97	3329
871.1	3279
871.23	3488
871.36	3435
871.489	3351
871.619	3454
871.749	3424
871.879	3500
872.008	3492
872.138	3405
872.267	3313
872.397	3192
872.526	3104
872.656	2998
872.785	3058
872.915	3283
873.044	3351
873.173	3233
873.303	3260
873.432	3245
873.561	3294
873.69	3131
873.819	3195
873.948	3272
874.077	3077
874.206	3074
874.335	3100
874.464	3176
874.593	3382
874.722	3249
874.851	3389
874.979	3355
875.108	3351
875.237	3222
875.365	3188
875.494	3192
875.623	3272
875.751	3085
875.88	3135
876.008	3195
876.136	3253
876.265	3355
876.393	3526
876.521	3412
876.65	3416
876.778	3336
876.906	3279
877.034	3211
877.162	3233
877.29	3192
877.418	3291
877.546	3272
877.674	3313
877.802	3233
877.93	3226
878.058	3142
878.185	3138
878.313	3256
878.441	3214
878.568	3074
878.696	3157
878.824	3272
878.951	3294
879.079	3454
879.206	3599
879.333	3412
879.461	3386
879.588	3412
879.715	3549
879.842	3610
879.97	3355
880.097	3138
880.224	3169
880.351	3222
880.478	3241
880.605	3218
880.732	3214
880.859	3511
880.986	3306
881.112	3336
881.239	3199
881.366	3108
881.493	3097
881.619	2982
881.746	3112
881.872	3077
881.999	3154
882.125	3123
882.252	3260
882.378	3317
882.505	3469
882.631	3302
882.757	3165
882.883	3264
883.01	3211
883.136	3184
883.262	3131
883.388	3123
883.514	3332
883.64	3393
883.766	3272
883.892	3184
884.018	3233
884.143	3401
884.269	3561
884.395	3188
884.52	3173
884.646	3169
884.772	3165
884.897	3112
885.023	3268
885.148	3344
885.274	3443
885.399	3397
885.524	3298
885.65	3253
885.775	3325
885.9	3336
886.025	3420
886.15	3397
886.275	3291
886.4	3233
886.525	3313
886.65	3233
886.775	3298
886.9	3469
887.025	3618
887.149	3382
887.274	3279
887.399	3192
887.523	3207
887.648	3199
887.773	3222
887.897	3382
888.021	3454
888.146	3340
888.27	3435
888.395	3553
888.519	3462
888.643	3447
888.767	3523
888.891	3332
889.015	3245
889.139	3264
889.263	3268
889.387	3397
889.511	3511
889.635	3435
889.759	3298
889.883	3348
890.006	3367
890.13	3500
890.254	3291
890.377	3344
890.501	3241
890.624	3188
890.748	3336
890.871	3218
890.995	3116
891.118	3074
891.241	3222
891.364	3241
891.488	3310
891.611	3173
891.734	3211
891.857	3329
891.98	3214
892.103	3401
892.226	3283
892.349	3203
892.471	3108
892.594	3237
892.717	3264
892.839	3230
892.962	3287
893.085	3325
893.207	3298
893.33	3165
893.452	3195
893.575	3393
893.697	3245
893.819	3454
893.941	3511
894.064	3458
894.186	3272
894.308	3325
894.43	3420
894.552	3553
894.674	3458
894.796	3253
894.918	3298
895.04	3302
895.161	3431
895.283	3416
895.405	3313
895.526	3363
895.648	3424
895.769	3443
895.891	3428
896.012	3458
896.134	3466
896.255	3424
896.376	3412
896.498	3412
896.619	3401
896.74	3340
896.861	3409
896.982	3660
897.103	3797
897.224	3584
897.345	3507
897.466	3439
897.587	3500
897.708	3641
897.828	3576
897.949	3439
898.07	3363
898.19	3374
898.311	3587
898.431	3454
898.552	3526
898.672	3568
898.792	3549
898.913	3561
899.033	3469
899.153	3298
899.273	3207
899.393	3245
899.513	3325
899.633	3310
899.753	3294
899.873	3313
899.993	3397
900.113	3351
900.232	3424
900.352	3336
900.472	3291
900.591	3222
900.711	3321
900.83	3245
900.95	3420
901.069	3485
901.189	3382
901.308	3180
901.427	3161
901.546	3211
901.665	3298
901.784	3367
901.904	3203
902.023	3150
902.141	3039
902.26	3024
902.379	3131
902.498	3119
902.617	3013
902.735	3211
902.854	3245
902.973	3218
903.091	3062
903.21	3074
903.328	3157
903.446	3112
903.565	3116
903.683	3203
903.801	3154
903.919	3287
904.038	3302
904.156	3173
904.274	3313
904.392	3253
904.51	3287
904.627	3389
904.745	3481
904.863	3561
904.981	3272
905.098	3211
905.216	3260
905.334	3306
905.451	3351
905.569	3367
905.686	3447
905.803	3481
905.921	3340
906.038	3477
906.155	3389
906.272	3294
906.389	3359
906.506	3279
906.623	3329
906.74	3310
906.857	3249
906.974	3291
907.091	3492
907.208	3622
907.324	3496
907.441	3420
907.557	3260
907.674	3283
907.79	3230
907.907	3325
908.023	3401
908.139	3450
908.256	3401
908.372	3420
908.488	3420
908.604	3279
908.72	3253
908.836	3310
908.952	3310
909.068	3389
909.184	3526
909.3	3439
909.415	3523
909.531	3557
909.647	3332
909.762	3336
909.878	3332
909.993	3405
910.108	3344
910.224	3393
910.339	3500
910.454	3382
910.57	3340
910.685	3310
910.8	3633
910.915	3538
911.03	3485
911.145	3310
911.259	3291
911.374	3393
911.489	3291
911.604	3283
911.718	3184
911.833	3165
911.947	3070
912.062	3039
912.176	3211
912.291	3237
912.405	3268
912.519	3492
912.633	3515
912.748	3367
912.862	3294
912.976	3188
913.09	3131
913.204	3169
913.318	3253
913.431	3348
913.545	3351
913.659	3420
913.772	3351
913.886	3233
914	3256
914.113	3359
914.226	3447
914.34	3370
914.453	3222
914.566	3458
914.68	3336
914.793	3302
914.906	3173
915.019	3154
915.132	3085
915.245	3203
915.358	3222
915.47	3253
915.583	3310
915.696	3340
915.809	3473
915.921	3424
916.034	3325
916.146	3298
916.259	3256
916.371	3454
916.483	3389
916.595	3306
916.708	3401
916.82	3351
916.932	3386
917.044	3374
917.156	3370
917.268	3279
917.38	3359
917.491	3363
917.603	3348
917.715	3443
917.826	3492
917.938	3469
918.049	3302
918.161	3473
918.272	3618
918.384	3644
918.495	3549
918.606	3382
918.717	3264
918.828	3435
918.939	3439
919.05	3313
919.161	3416
919.272	3233
919.383	3298
919.494	3542
919.604	3713
919.715	3576
919.826	3424
919.936	3450
920.047	3644
920.157	3599
920.267	3785
920.378	3610
920.488	3625
920.598	3831
920.708	4010
920.818	3842
920.928	3865
921.038	4067
921.148	4055
921.258	3747
921.368	3660
921.477	3610
921.587	3576
921.697	3488
921.806	3641
921.916	3519
922.025	3348
922.134	3435
922.244	3340
922.353	3431
922.462	3272
922.571	3233
922.68	3138
922.789	3100
922.898	3150
923.007	3112
923.116	3218
923.224	3203
923.333	3199
923.442	3097
923.55	3116
923.659	3195
923.767	3226
923.876	3169
923.984	3268
924.092	3116
924.201	3256
924.309	3272
924.417	3329
924.525	3283
924.633	3272
924.741	4036
924.849	3097
924.956	3306
925.064	3104
925.172	3097
925.279	3127
925.387	3203
925.494	3207
925.602	3397
925.709	3367
925.816	3226
925.924	3298
926.031	3401
926.138	3340
926.245	3382
926.352	3264
926.459	3458
926.566	3507
926.673	3298
926.779	3230
926.886	3264
926.993	3203
927.099	3100
927.206	3131
927.312	3169
927.419	3287
927.525	3241
927.631	3306
927.737	3207
927.843	3150
927.95	3013
928.056	3173
928.162	3218
928.267	3306
928.373	3915
928.479	3351
928.585	3089
928.69	3249
928.796	3332
928.901	3211
929.007	3081
929.112	3268
929.218	3195
929.323	3199
929.428	3184
929.533	3355
929.638	3138
929.743	3226
929.848	3275
929.953	3279
930.058	3188
930.163	3005
930.267	3051
930.372	3230
930.477	3070
930.581	3336
930.685	3211
930.79	3097
930.894	3169
930.998	3119
931.103	3313
931.207	2979
931.311	2975
931.415	2986
931.519	2811
931.623	2830
