Data from test_V78500241_1900.txt Node
Date: Fri Mar 25 16:28:21 CST 2022
User: usil
Spectrometer: V785-0024
Trigger mode: 0
Integration Time (sec): 4.000000E-1
Scans to average: 1
Nonlinearity correction enabled: false
Boxcar width: 0
Storing dark spectrum: false
XAxis mode: Wavelengths
Number of Pixels in Spectrum: 1024
>>>>>Begin Spectral Data<<<<<
801.071	2902
801.214	2944
801.356	2887
801.499	2902
801.641	2883
801.783	2902
801.926	3043
802.068	2967
802.211	2990
802.353	3062
802.496	2971
802.638	2990
802.78	3032
802.923	3081
803.065	3020
803.208	2891
803.35	2937
803.492	2937
803.635	2925
803.777	2792
803.919	2834
804.061	3195
804.204	2956
804.346	2929
804.488	2845
804.63	2971
804.773	2883
804.915	2952
805.057	3093
805.199	2906
805.341	2990
805.483	3070
805.626	3020
805.768	2948
805.91	3104
806.052	3150
806.194	3013
806.336	3283
806.478	3047
806.62	3020
806.762	2979
806.904	3116
807.046	3173
807.188	3043
807.33	2948
807.472	3032
807.614	2952
807.756	3055
807.898	2933
808.04	2944
808.182	2982
808.324	3005
808.465	2933
808.607	2906
808.749	2853
808.891	2868
809.033	2986
809.174	2998
809.316	2918
809.458	2941
809.6	2849
809.741	2796
809.883	2819
810.025	2891
810.166	2883
810.308	2887
810.45	2906
810.591	2815
810.733	2849
810.875	2849
811.016	2819
811.158	2804
811.299	2834
811.441	2963
811.582	2967
811.724	2838
811.865	2853
812.007	2922
812.148	2914
812.29	2887
812.431	2929
812.573	2960
812.714	3013
812.855	3119
812.997	3081
813.138	3173
813.279	3039
813.421	2982
813.562	3001
813.703	2963
813.845	2929
813.986	2792
814.127	2750
814.268	2872
814.41	2834
814.551	2842
814.692	2895
814.833	2815
814.974	2922
815.115	2986
815.256	2857
815.397	2834
815.539	2872
815.68	2826
815.821	2868
815.962	2975
816.103	2952
816.244	2929
816.385	2891
816.526	2979
816.666	2960
816.807	2785
816.948	2887
817.089	2929
817.23	2880
817.371	2815
817.512	2857
817.653	2891
817.793	2876
817.934	2941
818.075	2986
818.216	3009
818.356	3066
818.497	2910
818.638	2857
818.778	2857
818.919	2845
819.06	2800
819.2	2880
819.341	2834
819.481	2845
819.622	2952
819.762	3131
819.903	3055
820.043	2956
820.184	2933
820.324	2899
820.465	3024
820.605	2998
820.746	3043
820.886	2982
821.026	3100
821.167	3211
821.307	3310
821.447	3336
821.588	3256
821.728	3245
821.868	3226
822.008	3093
822.149	3199
822.289	3264
822.429	3127
822.569	3116
822.709	3226
822.849	3089
822.99	3112
823.13	3195
823.27	3245
823.41	3116
823.55	3211
823.69	3188
823.83	3241
823.97	3112
824.11	3039
824.25	3077
824.389	3108
824.529	3157
824.669	3066
824.809	3203
824.949	3279
825.089	3253
825.228	3157
825.368	3024
825.508	2998
825.648	2986
825.787	3013
825.927	3058
826.067	3005
826.206	2998
826.346	3097
826.485	3100
826.625	3131
826.765	3313
826.904	3237
827.044	3013
827.183	2944
827.323	2891
827.462	3013
827.601	2941
827.741	2975
827.88	3005
828.02	2899
828.159	2994
828.298	3138
828.437	3146
828.577	3089
828.716	3264
828.855	3146
828.994	2929
829.134	2887
829.273	2902
829.412	2929
829.551	2902
829.69	2929
829.829	3028
829.968	3142
830.107	3058
830.246	3032
830.385	2979
830.524	2906
830.663	2796
830.802	2766
830.941	2693
831.08	2667
831.219	2788
831.357	2762
831.496	2994
831.635	2758
831.774	2670
831.913	2655
832.051	2579
832.19	2610
832.329	2686
832.467	2549
832.606	2514
832.744	2590
832.883	2587
833.022	2621
833.16	2663
833.299	2708
833.437	2720
833.576	2678
833.714	2750
833.852	2727
833.991	2758
834.129	2834
834.267	2834
834.406	2823
834.544	2883
834.682	2902
834.821	2876
834.959	3062
835.097	2922
835.235	3081
835.373	2986
835.511	3028
835.65	2963
835.788	2982
835.926	2842
836.064	2842
836.202	2883
836.34	3112
836.478	3165
836.615	3074
836.753	3154
836.891	3233
837.029	3199
837.167	3154
837.305	3097
837.443	3062
837.58	2971
837.718	3169
837.856	3058
837.993	3039
838.131	3127
838.269	3135
838.406	3146
838.544	3097
838.681	2990
838.819	2925
838.956	2811
839.094	2857
839.231	2929
839.369	3074
839.506	3393
839.643	3256
839.781	3024
839.918	2994
840.055	3058
840.193	3028
840.33	3104
840.467	3097
840.604	3165
840.742	3431
840.879	3070
841.016	3047
841.153	3180
841.29	3367
841.427	3348
841.564	3321
841.701	3348
841.838	3211
841.975	3188
842.112	3203
842.249	3097
842.385	3047
842.522	3313
842.659	3127
842.796	3051
842.933	3123
843.069	3093
843.206	3062
843.343	3184
843.479	3131
843.616	3157
843.752	2876
843.889	2887
844.025	3085
844.162	2910
844.298	3074
844.435	2948
844.571	2960
844.708	3085
844.844	3192
844.98	3256
845.117	3192
845.253	3066
845.389	3009
845.525	3104
845.661	3100
845.798	3047
845.934	3157
846.07	3093
846.206	3226
846.342	3317
846.478	3253
846.614	3142
846.75	3070
846.886	3028
847.022	3279
847.158	3146
847.294	3222
847.429	3272
847.565	3272
847.701	3469
847.837	3081
847.972	3024
848.108	3146
848.244	3203
848.379	3017
848.515	2971
848.65	2952
848.786	2975
848.921	3032
849.057	3093
849.192	3154
849.328	3097
849.463	3104
849.598	3039
849.734	3074
849.869	3009
850.004	2971
850.14	2994
850.275	2941
850.41	2872
850.545	2910
850.68	2956
850.815	2975
850.95	2960
851.085	3218
851.22	3154
851.355	3036
851.49	3047
851.625	3024
851.76	3036
851.895	2963
852.03	2941
852.165	3062
852.299	3131
852.434	3203
852.569	3176
852.703	3230
852.838	3253
852.973	3367
853.107	3359
853.242	3211
853.376	3085
853.511	2960
853.645	3074
853.78	3222
853.914	3131
854.048	3154
854.183	3104
854.317	3169
854.451	3294
854.585	3131
854.72	3066
854.854	3207
854.988	3085
855.122	3097
855.256	2979
855.39	3135
855.524	3268
855.658	3146
855.792	3192
855.926	3203
856.06	3222
856.194	3272
856.327	3203
856.461	3112
856.595	3116
856.729	3097
856.862	3226
856.996	3157
857.13	3192
857.263	3256
857.397	3310
857.53	3150
857.664	3195
857.797	3249
857.931	3279
858.064	3176
858.197	3233
858.331	3161
858.464	3100
858.597	3001
858.731	3116
858.864	3157
858.997	3089
859.13	3161
859.263	3169
859.396	3211
859.529	3039
859.662	3127
859.795	3017
859.928	3176
860.061	3321
860.194	3298
860.327	3169
860.46	3146
860.592	3268
860.725	3260
860.858	3211
860.99	3093
861.123	3085
861.256	3066
861.388	3135
861.521	3846
861.653	3028
861.786	3020
861.918	3036
862.05	3093
862.183	3131
862.315	3097
862.447	3211
862.58	3100
862.712	2963
862.844	2899
862.976	3043
863.108	3009
863.24	3313
863.372	2861
863.504	3005
863.636	2971
863.768	3024
863.9	3005
864.032	2952
864.164	2975
864.296	3013
864.428	3100
864.559	3077
864.691	3089
864.823	3017
864.954	3074
865.086	3036
865.217	3013
865.349	2929
865.48	2994
865.612	3062
865.743	3192
865.875	2990
866.006	2948
866.137	2986
866.269	2944
866.4	2922
866.531	2937
866.662	2910
866.793	2891
866.924	2937
867.055	2948
867.186	2941
867.317	2895
867.448	2823
867.579	2861
867.71	2826
867.841	2826
867.972	2906
868.103	2899
868.233	2902
868.364	2864
868.495	2902
868.625	3089
868.756	3146
868.886	2971
869.017	2998
869.147	3192
869.278	3184
869.408	3024
869.539	3013
869.669	3104
869.799	3055
869.929	3135
870.06	3116
870.19	3355
870.32	3306
870.45	3291
870.58	3370
870.71	3447
870.84	3458
870.97	3302
871.1	3268
871.23	3500
871.36	3450
871.489	3359
871.619	3393
871.749	3431
871.879	3458
872.008	3485
872.138	3344
872.267	3264
872.397	3138
872.526	3100
872.656	2998
872.785	3100
872.915	3268
873.044	3336
873.173	3226
873.303	3268
873.432	3260
873.561	3226
873.69	3211
873.819	3131
873.948	3211
874.077	3097
874.206	3020
874.335	3093
874.464	3233
874.593	3355
874.722	3260
874.851	3386
874.979	3332
875.108	3306
875.237	3173
875.365	3192
875.494	3195
875.623	3283
875.751	3085
875.88	3142
876.008	3207
876.136	3226
876.265	3382
876.393	3526
876.521	3443
876.65	3393
876.778	3359
876.906	3241
877.034	3207
877.162	3207
877.29	3211
877.418	3287
877.546	3245
877.674	3237
877.802	3226
877.93	3226
878.058	3157
878.185	3104
878.313	3233
878.441	3249
878.568	3062
878.696	3176
878.824	3287
878.951	3329
879.079	3431
879.206	3637
879.333	3454
879.461	3321
879.588	3348
879.715	3526
879.842	3587
879.97	3382
880.097	3169
880.224	3131
880.351	3173
880.478	3237
880.605	3218
880.732	3169
880.859	3500
880.986	3298
881.112	3310
881.239	3245
881.366	3127
881.493	3032
881.619	3039
881.746	3070
881.872	3104
881.999	3070
882.125	3131
882.252	3237
882.378	3291
882.505	3462
882.631	3264
882.757	3123
882.883	3169
883.01	3222
883.136	3180
883.262	3112
883.388	3119
883.514	3336
883.64	3351
883.766	3329
883.892	3188
884.018	3237
884.143	3454
884.269	3553
884.395	3245
884.52	3154
884.646	3142
884.772	3093
884.897	3108
885.023	3173
885.148	3344
885.274	3447
885.399	3386
885.524	3336
885.65	3203
885.775	3325
885.9	3302
886.025	3439
886.15	3359
886.275	3306
886.4	3226
886.525	3310
886.65	3237
886.775	3279
886.9	3526
887.025	3622
887.149	3386
887.274	3283
887.399	3173
887.523	3176
887.648	3169
887.773	3203
887.897	3348
888.021	3424
888.146	3287
888.27	3409
888.395	3564
888.519	3462
888.643	3428
888.767	3447
888.891	3298
889.015	3245
889.139	3268
889.263	3245
889.387	3363
889.511	3523
889.635	3458
889.759	3294
889.883	3306
890.006	3374
890.13	3488
890.254	3291
890.377	3351
890.501	3226
890.624	3169
890.748	3302
890.871	3184
890.995	3131
891.118	3081
891.241	3169
891.364	3233
891.488	3321
891.611	3176
891.734	3218
891.857	3291
891.98	3230
892.103	3359
892.226	3294
892.349	3214
892.471	3108
892.594	3233
892.717	3283
892.839	3253
892.962	3268
893.085	3355
893.207	3317
893.33	3131
893.452	3207
893.575	3378
893.697	3268
893.819	3462
893.941	3500
894.064	3466
894.186	3294
894.308	3256
894.43	3466
894.552	3515
894.674	3447
894.796	3245
894.918	3329
895.04	3313
895.161	3450
895.283	3363
895.405	3321
895.526	3409
895.648	3420
895.769	3450
895.891	3424
896.012	3500
896.134	3466
896.255	3435
896.376	3355
896.498	3351
896.619	3462
896.74	3351
896.861	3393
896.982	3671
897.103	3835
897.224	3606
897.345	3515
897.466	3420
897.587	3504
897.708	3603
897.828	3553
897.949	3424
898.07	3302
898.19	3435
898.311	3656
898.431	3450
898.552	3477
898.672	3606
898.792	3576
898.913	3519
899.033	3435
899.153	3306
899.273	3203
899.393	3272
899.513	3306
899.633	3321
899.753	3363
899.873	3306
899.993	3359
900.113	3336
900.232	3367
900.352	3367
900.472	3264
900.591	3192
900.711	3268
900.83	3222
900.95	3378
901.069	3515
901.189	3351
901.308	3135
901.427	3138
901.546	3203
901.665	3298
901.784	3344
901.904	3230
902.023	3150
902.141	3028
902.26	2963
902.379	3108
902.498	3058
902.617	3051
902.735	3195
902.854	3207
902.973	3203
903.091	3032
903.21	3058
903.328	3173
903.446	3123
903.565	3100
903.683	3218
903.801	3131
903.919	3237
904.038	3321
904.156	3207
904.274	3279
904.392	3294
904.51	3275
904.627	3306
904.745	3454
904.863	3485
904.981	3256
905.098	3169
905.216	3192
905.334	3279
905.451	3310
905.569	3294
905.686	3409
905.803	3447
905.921	3272
906.038	3431
906.155	3351
906.272	3253
906.389	3310
906.506	3237
906.623	3260
906.74	3272
906.857	3184
906.974	3222
907.091	3435
907.208	3561
907.324	3507
907.441	3363
907.557	3226
907.674	3256
907.79	3222
907.907	3283
908.023	3386
908.139	3355
908.256	3359
908.372	3340
908.488	3374
908.604	3302
908.72	3214
908.836	3264
908.952	3325
909.068	3313
909.184	3481
909.3	3397
909.415	3477
909.531	3466
909.647	3283
909.762	3283
909.878	3260
909.993	3348
910.108	3329
910.224	3367
910.339	3401
910.454	3302
910.57	3321
910.685	3260
910.8	3591
910.915	3542
911.03	3447
911.145	3268
911.259	3283
911.374	3325
911.489	3241
911.604	3253
911.718	3169
911.833	3142
911.947	3047
912.062	2952
912.176	3108
912.291	3161
912.405	3203
912.519	3412
912.633	3443
912.748	3344
912.862	3283
912.976	3176
913.09	3051
913.204	3165
913.318	3241
913.431	3344
913.545	3340
913.659	3397
913.772	3329
913.886	3226
914	3165
914.113	3405
914.226	3416
914.34	3355
914.453	3207
914.566	3401
914.68	3340
914.793	3302
914.906	3157
915.019	3089
915.132	3070
915.245	3188
915.358	3222
915.47	3195
915.583	3268
915.696	3287
915.809	3420
915.921	3454
916.034	3256
916.146	3253
916.259	3211
916.371	3382
916.483	3386
916.595	3268
916.708	3355
916.82	3325
916.932	3310
917.044	3378
917.156	3393
917.268	3241
917.38	3321
917.491	3256
917.603	3397
917.715	3447
917.826	3458
917.938	3386
918.049	3268
918.161	3416
918.272	3549
918.384	3591
918.495	3500
918.606	3329
918.717	3272
918.828	3340
918.939	3412
919.05	3298
919.161	3382
919.272	3173
919.383	3302
919.494	3507
919.604	3648
919.715	3447
919.826	3405
919.936	3439
920.047	3576
920.157	3545
920.267	3732
920.378	3629
920.488	3580
920.598	3751
920.708	3930
920.818	3789
920.928	3869
921.038	3983
921.148	3994
921.258	3747
921.368	3576
921.477	3591
921.587	3469
921.697	3439
921.806	3644
921.916	3530
922.025	3363
922.134	3306
922.244	3287
922.353	3435
922.462	3283
922.571	3287
922.68	3097
922.789	3051
922.898	3150
923.007	3100
923.116	3207
923.224	3161
923.333	3150
923.442	3097
923.55	3097
923.659	3089
923.767	3207
923.876	3077
923.984	3214
924.092	3119
924.201	3226
924.309	3203
924.417	3218
924.525	3169
924.633	3245
924.741	4002
924.849	3058
924.956	3275
925.064	3097
925.172	3009
925.279	3089
925.387	3195
925.494	3207
925.602	3325
925.709	3332
925.816	3192
925.924	3294
926.031	3363
926.138	3317
926.245	3367
926.352	3272
926.459	3389
926.566	3488
926.673	3310
926.779	3256
926.886	3249
926.993	3165
927.099	3108
927.206	3142
927.312	3138
927.419	3241
927.525	3161
927.631	3256
927.737	3123
927.843	3119
927.95	3017
928.056	3142
928.162	3207
928.267	3241
928.373	3869
928.479	3306
928.585	3089
928.69	3214
928.796	3241
928.901	3142
929.007	3032
929.112	3203
929.218	3169
929.323	3135
929.428	3165
929.533	3332
929.638	3119
929.743	3180
929.848	3279
929.953	3237
930.058	3142
930.163	2990
930.267	3039
930.372	3176
930.477	2998
930.581	3340
930.685	3184
930.79	3020
930.894	3108
930.998	3097
931.103	3321
931.207	2929
931.311	2948
931.415	2887
931.519	2746
931.623	2815
