Data from test_V78500241_1134.txt Node
Date: Fri Mar 25 16:23:03 CST 2022
User: usil
Spectrometer: V785-0024
Trigger mode: 0
Integration Time (sec): 4.000000E-1
Scans to average: 1
Nonlinearity correction enabled: false
Boxcar width: 0
Storing dark spectrum: false
XAxis mode: Wavelengths
Number of Pixels in Spectrum: 1024
>>>>>Begin Spectral Data<<<<<
801.071	2891
801.214	2929
801.356	2891
801.499	2887
801.641	2883
801.783	2925
801.926	3017
802.068	2944
802.211	2990
802.353	3051
802.496	2986
802.638	3024
802.78	3058
802.923	3093
803.065	2986
803.208	2883
803.35	2910
803.492	2944
803.635	2925
803.777	2758
803.919	2830
804.061	3199
804.204	2960
804.346	2906
804.488	2834
804.63	2990
804.773	2876
804.915	2883
805.057	3062
805.199	2952
805.341	2990
805.483	3047
805.626	3062
805.768	2944
805.91	3123
806.052	3100
806.194	3032
806.336	3211
806.478	3017
806.62	2979
806.762	2963
806.904	3028
807.046	3176
807.188	2967
807.33	2937
807.472	3013
807.614	2899
807.756	2979
807.898	2914
808.04	2899
808.182	2986
808.324	2960
808.465	2883
808.607	2857
808.749	2766
808.891	2845
809.033	2944
809.174	2986
809.316	2899
809.458	2914
809.6	2777
809.741	2773
809.883	2766
810.025	2842
810.166	2876
810.308	2811
810.45	2861
810.591	2762
810.733	2777
810.875	2838
811.016	2750
811.158	2773
811.299	2819
811.441	2902
811.582	2910
811.724	2838
811.865	2823
812.007	2895
812.148	2910
812.29	2857
812.431	2880
812.573	2925
812.714	2933
812.855	3051
812.997	3039
813.138	3108
813.279	3005
813.421	2960
813.562	2948
813.703	2883
813.845	2872
813.986	2758
814.127	2712
814.268	2800
814.41	2834
814.551	2792
814.692	2880
814.833	2796
814.974	2922
815.115	2914
815.256	2823
815.397	2788
815.539	2861
815.68	2769
815.821	2739
815.962	2933
816.103	2899
816.244	2853
816.385	2876
816.526	2982
816.666	2887
816.807	2739
816.948	2845
817.089	2861
817.23	2834
817.371	2769
817.512	2800
817.653	2845
817.793	2823
817.934	2899
818.075	2929
818.216	2982
818.356	3020
818.497	2891
818.638	2800
818.778	2807
818.919	2815
819.06	2750
819.2	2914
819.341	2804
819.481	2766
819.622	2906
819.762	3077
819.903	3032
820.043	2944
820.184	2880
820.324	2876
820.465	3047
820.605	3013
820.746	3024
820.886	2948
821.026	3127
821.167	3222
821.307	3264
821.447	3310
821.588	3245
821.728	3184
821.868	3173
822.008	3085
822.149	3165
822.289	3222
822.429	3104
822.569	3081
822.709	3135
822.849	3024
822.99	3043
823.13	3169
823.27	3222
823.41	3104
823.55	3157
823.69	3161
823.83	3211
823.97	3077
824.11	3028
824.25	2994
824.389	3051
824.529	3104
824.669	3066
824.809	3188
824.949	3260
825.089	3203
825.228	3142
825.368	3005
825.508	2960
825.648	2971
825.787	2986
825.927	3001
826.067	2933
826.206	2956
826.346	3032
826.485	3085
826.625	3097
826.765	3237
826.904	3211
827.044	2956
827.183	2925
827.323	2868
827.462	2971
827.601	2902
827.741	2971
827.88	2952
828.02	2838
828.159	2948
828.298	3009
828.437	3077
828.577	3028
828.716	3237
828.855	3051
828.994	2883
829.134	2883
829.273	2868
829.412	2845
829.551	2830
829.69	2883
829.829	2990
829.968	3146
830.107	3036
830.246	2994
830.385	2883
830.524	2872
830.663	2804
830.802	2712
830.941	2655
831.08	2663
831.219	2743
831.357	2777
831.496	2929
831.635	2716
831.774	2606
831.913	2659
832.051	2533
832.19	2590
832.329	2686
832.467	2530
832.606	2469
832.744	2549
832.883	2606
833.022	2590
833.16	2636
833.299	2693
833.437	2701
833.576	2705
833.714	2708
833.852	2769
833.991	2754
834.129	2845
834.267	2830
834.406	2781
834.544	2872
834.682	2899
834.821	2872
834.959	3039
835.097	2891
835.235	3009
835.373	3005
835.511	3032
835.65	2937
835.788	2922
835.926	2834
836.064	2807
836.202	2838
836.34	3039
836.478	3131
836.615	3020
836.753	3157
836.891	3211
837.029	3135
837.167	3085
837.305	3051
837.443	3024
837.58	2933
837.718	3135
837.856	3039
837.993	3028
838.131	3108
838.269	3146
838.406	3093
838.544	3108
838.681	2929
838.819	2876
838.956	2819
839.094	2838
839.231	2876
839.369	3001
839.506	3351
839.643	3207
839.781	3020
839.918	2956
840.055	3039
840.193	3032
840.33	3028
840.467	3085
840.604	3119
840.742	3401
840.879	3039
841.016	3032
841.153	3116
841.29	3317
841.427	3310
841.564	3233
841.701	3287
841.838	3203
841.975	3146
842.112	3173
842.249	3055
842.385	2998
842.522	3253
842.659	3100
842.796	3051
842.933	3051
843.069	3005
843.206	3036
843.343	3188
843.479	3081
843.616	3116
843.752	2880
843.889	2910
844.025	3085
844.162	2864
844.298	3066
844.435	2925
844.571	2925
844.708	3097
844.844	3176
844.98	3214
845.117	3199
845.253	3058
845.389	3032
845.525	3093
845.661	3093
845.798	2986
845.934	3089
846.07	3058
846.206	3222
846.342	3306
846.478	3249
846.614	3085
846.75	3009
846.886	3024
847.022	3226
847.158	3127
847.294	3195
847.429	3233
847.565	3184
847.701	3496
847.837	3017
847.972	2975
848.108	3176
848.244	3131
848.379	2971
848.515	2982
848.65	2899
848.786	2986
848.921	3017
849.057	3039
849.192	3138
849.328	3055
849.463	3051
849.598	3051
849.734	2986
849.869	2922
850.004	2929
850.14	2922
850.275	2872
850.41	2811
850.545	2895
850.68	2933
850.815	2967
850.95	2971
851.085	3226
851.22	3100
851.355	3017
851.49	2979
851.625	2998
851.76	3024
851.895	2902
852.03	2902
852.165	3032
852.299	3077
852.434	3146
852.569	3135
852.703	3176
852.838	3245
852.973	3302
853.107	3325
853.242	3142
853.376	3062
853.511	2960
853.645	3047
853.78	3241
853.914	3108
854.048	3097
854.183	3070
854.317	3173
854.451	3344
854.585	3127
854.72	3032
854.854	3214
854.988	3047
855.122	3100
855.256	2967
855.39	3081
855.524	3241
855.658	3165
855.792	3138
855.926	3211
856.06	3207
856.194	3203
856.327	3184
856.461	3089
856.595	3104
856.729	3074
856.862	3230
856.996	3150
857.13	3195
857.263	3218
857.397	3272
857.53	3085
857.664	3188
857.797	3233
857.931	3256
858.064	3195
858.197	3199
858.331	3097
858.464	3085
858.597	2975
858.731	3123
858.864	3097
858.997	3089
859.13	3176
859.263	3173
859.396	3165
859.529	3070
859.662	3081
859.795	2994
859.928	3108
860.061	3275
860.194	3272
860.327	3135
860.46	3100
860.592	3218
860.725	3211
860.858	3230
860.99	3089
861.123	3051
861.256	3039
861.388	3157
861.521	3728
861.653	3001
861.786	2956
861.918	2979
862.05	3039
862.183	3112
862.315	3150
862.447	3192
862.58	3058
862.712	2941
862.844	2880
862.976	3005
863.108	2952
863.24	3317
863.372	2864
863.504	2956
863.636	2963
863.768	3001
863.9	3001
864.032	2918
864.164	2937
864.296	3017
864.428	3066
864.559	3112
864.691	3028
864.823	3036
864.954	3039
865.086	3055
865.217	2952
865.349	2937
865.48	2971
865.612	2990
865.743	3142
865.875	2960
866.006	2937
866.137	2979
866.269	2937
866.4	2967
866.531	2883
866.662	2887
866.793	2868
866.924	2922
867.055	2982
867.186	2918
867.317	2887
867.448	2811
867.579	2872
867.71	2819
867.841	2815
867.972	2895
868.103	2899
868.233	2868
868.364	2864
868.495	2868
868.625	3104
868.756	3154
868.886	2956
869.017	2979
869.147	3180
869.278	3131
869.408	3017
869.539	3039
869.669	3085
869.799	3028
869.929	3150
870.06	3077
870.19	3310
870.32	3260
870.45	3268
870.58	3382
870.71	3477
870.84	3401
870.97	3260
871.1	3253
871.23	3492
871.36	3439
871.489	3378
871.619	3397
871.749	3412
871.879	3443
872.008	3450
872.138	3382
872.267	3298
872.397	3138
872.526	3097
872.656	2990
872.785	3100
872.915	3218
873.044	3317
873.173	3211
873.303	3230
873.432	3226
873.561	3214
873.69	3161
873.819	3142
873.948	3199
874.077	3123
874.206	3058
874.335	3055
874.464	3233
874.593	3351
874.722	3192
874.851	3344
874.979	3332
875.108	3321
875.237	3218
875.365	3142
875.494	3154
875.623	3233
875.751	3055
875.88	3116
876.008	3218
876.136	3184
876.265	3370
876.393	3473
876.521	3428
876.65	3420
876.778	3332
876.906	3237
877.034	3222
877.162	3195
877.29	3180
877.418	3268
877.546	3222
877.674	3214
877.802	3230
877.93	3211
878.058	3146
878.185	3093
878.313	3203
878.441	3211
878.568	3066
878.696	3142
878.824	3237
878.951	3287
879.079	3401
879.206	3648
879.333	3439
879.461	3275
879.588	3348
879.715	3462
879.842	3614
879.97	3416
880.097	3195
880.224	3089
880.351	3203
880.478	3211
880.605	3173
880.732	3188
880.859	3466
880.986	3325
881.112	3332
881.239	3180
881.366	3074
881.493	3028
881.619	3024
881.746	3062
881.872	3119
881.999	3089
882.125	3157
882.252	3214
882.378	3260
882.505	3450
882.631	3283
882.757	3127
882.883	3203
883.01	3214
883.136	3184
883.262	3081
883.388	3108
883.514	3336
883.64	3348
883.766	3317
883.892	3131
884.018	3253
884.143	3447
884.269	3526
884.395	3222
884.52	3192
884.646	3180
884.772	3085
884.897	3085
885.023	3211
885.148	3321
885.274	3416
885.399	3382
885.524	3287
885.65	3249
885.775	3302
885.9	3256
886.025	3397
886.15	3332
886.275	3264
886.4	3233
886.525	3279
886.65	3241
886.775	3306
886.9	3481
887.025	3606
887.149	3397
887.274	3268
887.399	3161
887.523	3165
887.648	3180
887.773	3180
887.897	3332
888.021	3393
888.146	3325
888.27	3424
888.395	3542
888.519	3397
888.643	3439
888.767	3462
888.891	3321
889.015	3264
889.139	3275
889.263	3233
889.387	3386
889.511	3496
889.635	3473
889.759	3260
889.883	3272
890.006	3329
890.13	3454
890.254	3268
890.377	3348
890.501	3176
890.624	3150
890.748	3279
890.871	3218
890.995	3119
891.118	3039
891.241	3180
891.364	3214
891.488	3260
891.611	3138
891.734	3222
891.857	3245
891.98	3268
892.103	3340
892.226	3291
892.349	3226
892.471	3119
892.594	3214
892.717	3306
892.839	3249
892.962	3260
893.085	3355
893.207	3291
893.33	3184
893.452	3195
893.575	3336
893.697	3241
893.819	3435
893.941	3488
894.064	3397
894.186	3294
894.308	3302
894.43	3473
894.552	3496
894.674	3439
894.796	3249
894.918	3332
895.04	3264
895.161	3405
895.283	3397
895.405	3294
895.526	3370
895.648	3401
895.769	3374
895.891	3412
896.012	3462
896.134	3431
896.255	3435
896.376	3355
896.498	3332
896.619	3393
896.74	3359
896.861	3367
896.982	3682
897.103	3846
897.224	3564
897.345	3519
897.466	3420
897.587	3526
897.708	3606
897.828	3519
897.949	3416
898.07	3367
898.19	3412
898.311	3542
898.431	3477
898.552	3492
898.672	3572
898.792	3549
898.913	3526
899.033	3405
899.153	3264
899.273	3214
899.393	3253
899.513	3291
899.633	3340
899.753	3340
899.873	3291
899.993	3355
900.113	3321
900.232	3367
900.352	3340
900.472	3260
900.591	3169
900.711	3302
900.83	3298
900.95	3378
901.069	3496
901.189	3363
901.308	3131
901.427	3169
901.546	3184
901.665	3268
901.784	3367
901.904	3237
902.023	3119
902.141	3013
902.26	2975
902.379	3131
902.498	3017
902.617	3058
902.735	3203
902.854	3230
902.973	3214
903.091	3062
903.21	3051
903.328	3104
903.446	3119
903.565	3100
903.683	3173
903.801	3108
903.919	3245
904.038	3264
904.156	3142
904.274	3264
904.392	3241
904.51	3226
904.627	3325
904.745	3439
904.863	3481
904.981	3230
905.098	3154
905.216	3256
905.334	3302
905.451	3268
905.569	3294
905.686	3386
905.803	3428
905.921	3272
906.038	3450
906.155	3340
906.272	3241
906.389	3348
906.506	3218
906.623	3260
906.74	3218
906.857	3169
906.974	3249
907.091	3424
907.208	3542
907.324	3416
907.441	3389
907.557	3237
907.674	3207
907.79	3214
907.907	3287
908.023	3348
908.139	3351
908.256	3329
908.372	3355
908.488	3329
908.604	3260
908.72	3230
908.836	3283
908.952	3226
909.068	3298
909.184	3462
909.3	3401
909.415	3488
909.531	3450
909.647	3275
909.762	3279
909.878	3199
909.993	3310
910.108	3336
910.224	3325
910.339	3374
910.454	3355
910.57	3272
910.685	3214
910.8	3599
910.915	3477
911.03	3450
911.145	3241
911.259	3260
911.374	3291
911.489	3218
911.604	3203
911.718	3097
911.833	3146
911.947	2986
912.062	2944
912.176	3138
912.291	3207
912.405	3203
912.519	3458
912.633	3405
912.748	3344
912.862	3256
912.976	3161
913.09	3043
913.204	3116
913.318	3192
913.431	3317
913.545	3340
913.659	3416
913.772	3291
913.886	3222
914	3180
914.113	3332
914.226	3389
914.34	3378
914.453	3199
914.566	3435
914.68	3253
914.793	3355
914.906	3135
915.019	3112
915.132	3062
915.245	3203
915.358	3203
915.47	3233
915.583	3306
915.696	3310
915.809	3401
915.921	3367
916.034	3245
916.146	3237
916.259	3237
916.371	3420
916.483	3351
916.595	3291
916.708	3344
916.82	3351
916.932	3389
917.044	3393
917.156	3367
917.268	3272
917.38	3317
917.491	3332
917.603	3351
917.715	3462
917.826	3504
917.938	3389
918.049	3294
918.161	3477
918.272	3625
918.384	3584
918.495	3526
918.606	3405
918.717	3268
918.828	3409
918.939	3454
919.05	3313
919.161	3401
919.272	3222
919.383	3329
919.494	3534
919.604	3705
919.715	3507
919.826	3466
919.936	3507
920.047	3618
920.157	3587
920.267	3804
920.378	3576
920.488	3606
920.598	3819
920.708	4017
920.818	3838
920.928	3896
921.038	4071
921.148	4063
921.258	3781
921.368	3682
921.477	3622
921.587	3587
921.697	3504
921.806	3682
921.916	3519
922.025	3389
922.134	3435
922.244	3374
922.353	3496
922.462	3291
922.571	3283
922.68	3154
922.789	3112
922.898	3199
923.007	3131
923.116	3268
923.224	3192
923.333	3237
923.442	3089
923.55	3135
923.659	3195
923.767	3279
923.876	3146
923.984	3253
924.092	3180
924.201	3230
924.309	3226
924.417	3279
924.525	3245
924.633	3249
924.741	3994
924.849	3108
924.956	3287
925.064	3116
925.172	3074
925.279	3154
925.387	3233
925.494	3207
925.602	3389
925.709	3378
925.816	3287
925.924	3317
926.031	3439
926.138	3351
926.245	3405
926.352	3287
926.459	3447
926.566	3473
926.673	3355
926.779	3283
926.886	3272
926.993	3169
927.099	3176
927.206	3161
927.312	3127
927.419	3256
927.525	3272
927.631	3294
927.737	3154
927.843	3123
927.95	3047
928.056	3180
928.162	3218
928.267	3325
928.373	3911
928.479	3336
928.585	3100
928.69	3253
928.796	3306
928.901	3192
929.007	3085
929.112	3249
929.218	3176
929.323	3157
929.428	3184
929.533	3325
929.638	3150
929.743	3188
929.848	3291
929.953	3222
930.058	3142
930.163	3001
930.267	3085
930.372	3230
930.477	3066
930.581	3355
930.685	3222
930.79	3112
930.894	3135
930.998	3116
931.103	3344
931.207	2971
931.311	2979
931.415	2979
931.519	2826
931.623	2842
