Data from test_V78500241_550.txt Node
Date: Fri Mar 25 16:19:00 CST 2022
User: usil
Spectrometer: V785-0024
Trigger mode: 0
Integration Time (sec): 4.000000E-1
Scans to average: 1
Nonlinearity correction enabled: false
Boxcar width: 0
Storing dark spectrum: false
XAxis mode: Wavelengths
Number of Pixels in Spectrum: 1024
>>>>>Begin Spectral Data<<<<<
801.071	2937
801.214	2914
801.356	2849
801.499	2899
801.641	2880
801.783	2975
801.926	3047
802.068	2956
802.211	2982
802.353	3055
802.496	2944
802.638	2994
802.78	2998
802.923	3077
803.065	3028
803.208	2914
803.35	2914
803.492	2944
803.635	2937
803.777	2746
803.919	2842
804.061	3180
804.204	2906
804.346	2906
804.488	2849
804.63	2982
804.773	2887
804.915	2914
805.057	3062
805.199	2929
805.341	2971
805.483	3047
805.626	2971
805.768	2922
805.91	3062
806.052	3112
806.194	2990
806.336	3237
806.478	3005
806.62	2941
806.762	2975
806.904	3017
807.046	3127
807.188	2944
807.33	2902
807.472	2994
807.614	2891
807.756	3001
807.898	2902
808.04	2902
808.182	2937
808.324	2967
808.465	2845
808.607	2853
808.749	2811
808.891	2830
809.033	2967
809.174	2963
809.316	2880
809.458	2880
809.6	2766
809.741	2735
809.883	2769
810.025	2826
810.166	2823
810.308	2868
810.45	2823
810.591	2788
810.733	2743
810.875	2857
811.016	2735
811.158	2773
811.299	2804
811.441	2933
811.582	2899
811.724	2823
811.865	2830
812.007	2933
812.148	2845
812.29	2838
812.431	2876
812.573	2960
812.714	2982
812.855	3062
812.997	3009
813.138	3119
813.279	2952
813.421	2982
813.562	2906
813.703	2868
813.845	2887
813.986	2766
814.127	2701
814.268	2807
814.41	2864
814.551	2796
814.692	2899
814.833	2811
814.974	2876
815.115	2960
815.256	2826
815.397	2807
815.539	2853
815.68	2766
815.821	2777
815.962	2944
816.103	2910
816.244	2857
816.385	2834
816.526	2956
816.666	2925
816.807	2720
816.948	2899
817.089	2883
817.23	2842
817.371	2766
817.512	2785
817.653	2826
817.793	2834
817.934	2864
818.075	2971
818.216	3001
818.356	2990
818.497	2910
818.638	2773
818.778	2823
818.919	2781
819.06	2773
819.2	2891
819.341	2826
819.481	2815
819.622	2922
819.762	3127
819.903	3055
820.043	2899
820.184	2876
820.324	2895
820.465	3020
820.605	3013
820.746	2982
820.886	2929
821.026	3093
821.167	3154
821.307	3245
821.447	3245
821.588	3207
821.728	3222
821.868	3184
822.008	3074
822.149	3154
822.289	3230
822.429	3123
822.569	3077
822.709	3169
822.849	3017
822.99	3066
823.13	3142
823.27	3211
823.41	3077
823.55	3112
823.69	3142
823.83	3218
823.97	3062
824.11	2979
824.25	2971
824.389	3058
824.529	3116
824.669	3062
824.809	3154
824.949	3230
825.089	3237
825.228	3138
825.368	2952
825.508	2944
825.648	2998
825.787	2998
825.927	3005
826.067	2963
826.206	2971
826.346	3032
826.485	3055
826.625	3131
826.765	3230
826.904	3222
827.044	2998
827.183	2906
827.323	2880
827.462	2982
827.601	2891
827.741	2952
827.88	2906
828.02	2823
828.159	2986
828.298	3028
828.437	3127
828.577	3013
828.716	3230
828.855	3062
828.994	2925
829.134	2876
829.273	2933
829.412	2834
829.551	2853
829.69	2899
829.829	2963
829.968	3108
830.107	2986
830.246	3001
830.385	2883
830.524	2883
830.663	2781
830.802	2735
830.941	2667
831.08	2632
831.219	2762
831.357	2766
831.496	2967
831.635	2697
831.774	2640
831.913	2655
832.051	2549
832.19	2579
832.329	2693
832.467	2537
832.606	2465
832.744	2560
832.883	2560
833.022	2560
833.16	2651
833.299	2697
833.437	2708
833.576	2689
833.714	2731
833.852	2697
833.991	2766
834.129	2826
834.267	2815
834.406	2781
834.544	2857
834.682	2887
834.821	2845
834.959	3066
835.097	2887
835.235	3043
835.373	2982
835.511	3020
835.65	2979
835.788	2948
835.926	2815
836.064	2781
836.202	2826
836.34	3077
836.478	3131
836.615	3043
836.753	3085
836.891	3165
837.029	3138
837.167	3127
837.305	3032
837.443	3062
837.58	2956
837.718	3150
837.856	3070
837.993	3055
838.131	3116
838.269	3131
838.406	3036
838.544	3058
838.681	2933
838.819	2895
838.956	2785
839.094	2853
839.231	2891
839.369	3001
839.506	3344
839.643	3199
839.781	3001
839.918	2986
840.055	3058
840.193	3036
840.33	3070
840.467	3070
840.604	3165
840.742	3382
840.879	3043
841.016	3028
841.153	3112
841.29	3313
841.427	3298
841.564	3272
841.701	3283
841.838	3230
841.975	3154
842.112	3230
842.249	3100
842.385	3051
842.522	3203
842.659	3074
842.796	3051
842.933	3066
843.069	3066
843.206	3024
843.343	3180
843.479	3097
843.616	3138
843.752	2883
843.889	2861
844.025	3081
844.162	2880
844.298	3039
844.435	2960
844.571	2922
844.708	3066
844.844	3173
844.98	3249
845.117	3199
845.253	3017
845.389	3013
845.525	3097
845.661	3089
845.798	3001
845.934	3116
846.07	3032
846.206	3214
846.342	3302
846.478	3203
846.614	3093
846.75	3066
846.886	3013
847.022	3226
847.158	3154
847.294	3165
847.429	3253
847.565	3180
847.701	3466
847.837	3047
847.972	3013
848.108	3157
848.244	3093
848.379	2952
848.515	2944
848.65	2910
848.786	2941
848.921	3001
849.057	3074
849.192	3081
849.328	3051
849.463	3116
849.598	3017
849.734	3013
849.869	2960
850.004	2906
850.14	2922
850.275	2941
850.41	2838
850.545	2887
850.68	2910
850.815	2963
850.95	2929
851.085	3173
851.22	3093
851.355	3028
851.49	2979
851.625	2975
851.76	2998
851.895	2929
852.03	2880
852.165	3028
852.299	3066
852.434	3127
852.569	3119
852.703	3127
852.838	3249
852.973	3294
853.107	3348
853.242	3142
853.376	3089
853.511	2986
853.645	3028
853.78	3222
853.914	3108
854.048	3119
854.183	3058
854.317	3127
854.451	3249
854.585	3116
854.72	3062
854.854	3192
854.988	3058
855.122	3066
855.256	2918
855.39	3116
855.524	3222
855.658	3188
855.792	3127
855.926	3192
856.06	3211
856.194	3256
856.327	3146
856.461	3081
856.595	3070
856.729	3074
856.862	3211
856.996	3169
857.13	3157
857.263	3188
857.397	3272
857.53	3112
857.664	3192
857.797	3192
857.931	3241
858.064	3142
858.197	3180
858.331	3119
858.464	3058
858.597	2967
858.731	3093
858.864	3135
858.997	3066
859.13	3146
859.263	3157
859.396	3188
859.529	3085
859.662	3051
859.795	3036
859.928	3154
860.061	3279
860.194	3306
860.327	3131
860.46	3093
860.592	3226
860.725	3226
860.858	3233
860.99	3108
861.123	3036
861.256	3051
861.388	3138
861.521	3743
861.653	3024
861.786	2994
861.918	2963
862.05	3036
862.183	3116
862.315	3188
862.447	3253
862.58	3081
862.712	3005
862.844	2887
862.976	3020
863.108	3024
863.24	3488
863.372	2944
863.504	2979
863.636	2979
863.768	3066
863.9	3028
864.032	2948
864.164	2967
864.296	3024
864.428	3142
864.559	3142
864.691	3108
864.823	3104
864.954	3066
865.086	3108
865.217	2998
865.349	3013
865.48	3005
865.612	3024
865.743	3218
865.875	2982
866.006	2979
866.137	3017
866.269	2994
866.4	2963
866.531	2960
866.662	2895
866.793	2975
866.924	2925
867.055	3032
867.186	2963
867.317	2899
867.448	2842
867.579	2910
867.71	2883
867.841	2880
867.972	2910
868.103	2944
868.233	2933
868.364	2899
868.495	2948
868.625	3112
868.756	3245
868.886	2986
869.017	3093
869.147	3214
869.278	3222
869.408	3062
869.539	3081
869.669	3161
869.799	3097
869.929	3169
870.06	3157
870.19	3359
870.32	3291
870.45	3359
870.58	3401
870.71	3454
870.84	3428
870.97	3313
871.1	3256
871.23	3526
871.36	3523
871.489	3378
871.619	3412
871.749	3443
871.879	3431
872.008	3492
872.138	3401
872.267	3291
872.397	3157
872.526	3154
872.656	3085
872.785	3123
872.915	3241
873.044	3325
873.173	3268
873.303	3294
873.432	3294
873.561	3256
873.69	3237
873.819	3165
873.948	3249
874.077	3127
874.206	3051
874.335	3108
874.464	3237
874.593	3344
874.722	3291
874.851	3401
874.979	3420
875.108	3367
875.237	3249
875.365	3184
875.494	3211
875.623	3283
875.751	3123
875.88	3176
876.008	3207
876.136	3287
876.265	3367
876.393	3568
876.521	3481
876.65	3389
876.778	3359
876.906	3264
877.034	3237
877.162	3233
877.29	3180
877.418	3279
877.546	3264
877.674	3306
877.802	3268
877.93	3237
878.058	3199
878.185	3127
878.313	3264
878.441	3233
878.568	3123
878.696	3192
878.824	3245
878.951	3325
879.079	3477
879.206	3633
879.333	3428
879.461	3317
879.588	3363
879.715	3500
879.842	3663
879.97	3409
880.097	3207
880.224	3157
880.351	3211
880.478	3230
880.605	3230
880.732	3188
880.859	3519
880.986	3351
881.112	3336
881.239	3207
881.366	3081
881.493	3051
881.619	3036
881.746	3097
881.872	3150
881.999	3157
882.125	3195
882.252	3268
882.378	3317
882.505	3458
882.631	3340
882.757	3157
882.883	3237
883.01	3253
883.136	3180
883.262	3104
883.388	3138
883.514	3329
883.64	3443
883.766	3348
883.892	3218
884.018	3241
884.143	3454
884.269	3530
884.395	3237
884.52	3226
884.646	3203
884.772	3161
884.897	3112
885.023	3226
885.148	3374
885.274	3469
885.399	3374
885.524	3291
885.65	3317
885.775	3351
885.9	3325
886.025	3466
886.15	3420
886.275	3325
886.4	3268
886.525	3348
886.65	3332
886.775	3264
886.9	3534
887.025	3701
887.149	3447
887.274	3272
887.399	3207
887.523	3249
887.648	3214
887.773	3233
887.897	3409
888.021	3405
888.146	3336
888.27	3481
888.395	3519
888.519	3439
888.643	3477
888.767	3526
888.891	3355
889.015	3310
889.139	3291
889.263	3256
889.387	3424
889.511	3557
889.635	3473
889.759	3340
889.883	3325
890.006	3405
890.13	3542
890.254	3287
890.377	3363
890.501	3211
890.624	3211
890.748	3344
890.871	3195
890.995	3119
891.118	3116
891.241	3230
891.364	3241
891.488	3348
891.611	3180
891.734	3245
891.857	3310
891.98	3279
892.103	3351
892.226	3348
892.349	3233
892.471	3161
892.594	3279
892.717	3291
892.839	3264
892.962	3302
893.085	3393
893.207	3302
893.33	3169
893.452	3230
893.575	3393
893.697	3264
893.819	3488
893.941	3504
894.064	3504
894.186	3264
894.308	3321
894.43	3443
894.552	3576
894.674	3473
894.796	3260
894.918	3294
895.04	3310
895.161	3416
895.283	3435
895.405	3336
895.526	3397
895.648	3435
895.769	3439
895.891	3485
896.012	3507
896.134	3473
896.255	3389
896.376	3382
896.498	3374
896.619	3420
896.74	3389
896.861	3435
896.982	3694
897.103	3907
897.224	3576
897.345	3538
897.466	3393
897.587	3519
897.708	3644
897.828	3561
897.949	3458
898.07	3382
898.19	3443
898.311	3641
898.431	3466
898.552	3534
898.672	3587
898.792	3587
898.913	3572
899.033	3420
899.153	3329
899.273	3260
899.393	3302
899.513	3332
899.633	3310
899.753	3310
899.873	3306
899.993	3431
900.113	3405
900.232	3428
900.352	3348
900.472	3317
900.591	3192
900.711	3355
900.83	3268
900.95	3420
901.069	3485
901.189	3355
901.308	3165
901.427	3135
901.546	3211
901.665	3317
901.784	3351
901.904	3268
902.023	3188
902.141	3051
902.26	3020
902.379	3150
902.498	3112
902.617	3074
902.735	3253
902.854	3241
902.973	3207
903.091	3028
903.21	3062
903.328	3188
903.446	3127
903.565	3146
903.683	3214
903.801	3142
903.919	3283
904.038	3344
904.156	3188
904.274	3298
904.392	3313
904.51	3275
904.627	3359
904.745	3443
904.863	3500
904.981	3249
905.098	3203
905.216	3268
905.334	3344
905.451	3317
905.569	3310
905.686	3447
905.803	3443
905.921	3325
906.038	3416
906.155	3386
906.272	3264
906.389	3363
906.506	3275
906.623	3287
906.74	3275
906.857	3222
906.974	3302
907.091	3462
907.208	3557
907.324	3511
907.441	3393
907.557	3249
907.674	3237
907.79	3203
907.907	3298
908.023	3389
908.139	3370
908.256	3348
908.372	3386
908.488	3367
908.604	3325
908.72	3253
908.836	3272
908.952	3321
909.068	3351
909.184	3549
909.3	3389
909.415	3504
909.531	3492
909.647	3306
909.762	3317
909.878	3268
909.993	3370
910.108	3359
910.224	3386
910.339	3450
910.454	3336
910.57	3298
910.685	3237
910.8	3561
910.915	3584
911.03	3454
911.145	3245
911.259	3291
911.374	3325
911.489	3283
911.604	3256
911.718	3138
911.833	3131
911.947	3077
912.062	3009
912.176	3222
912.291	3199
912.405	3233
912.519	3420
912.633	3496
912.748	3344
912.862	3302
912.976	3188
913.09	3077
913.204	3135
913.318	3249
913.431	3378
913.545	3344
913.659	3431
913.772	3374
913.886	3260
914	3218
914.113	3397
914.226	3447
914.34	3416
914.453	3237
914.566	3409
914.68	3272
914.793	3348
914.906	3157
915.019	3089
915.132	3055
915.245	3138
915.358	3218
915.47	3275
915.583	3268
915.696	3287
915.809	3412
915.921	3454
916.034	3283
916.146	3264
916.259	3264
916.371	3389
916.483	3359
916.595	3287
916.708	3382
916.82	3374
916.932	3382
917.044	3344
917.156	3367
917.268	3279
917.38	3302
917.491	3332
917.603	3389
917.715	3447
917.826	3454
917.938	3416
918.049	3302
918.161	3428
918.272	3618
918.384	3610
918.495	3477
918.606	3329
918.717	3272
918.828	3409
918.939	3462
919.05	3306
919.161	3389
919.272	3195
919.383	3302
919.494	3523
919.604	3667
919.715	3519
919.826	3431
919.936	3500
920.047	3595
920.157	3549
920.267	3770
920.378	3610
920.488	3618
920.598	3770
920.708	3991
920.818	3823
920.928	3869
921.038	4036
921.148	4025
921.258	3698
921.368	3644
921.477	3637
921.587	3534
921.697	3462
921.806	3603
921.916	3553
922.025	3355
922.134	3397
922.244	3321
922.353	3431
922.462	3260
922.571	3237
922.68	3138
922.789	3055
922.898	3146
923.007	3108
923.116	3195
923.224	3150
923.333	3165
923.442	3085
923.55	3093
923.659	3142
923.767	3249
923.876	3169
923.984	3249
924.092	3081
924.201	3249
924.309	3237
924.417	3268
924.525	3165
924.633	3237
924.741	3994
924.849	3039
924.956	3313
925.064	3066
925.172	3024
925.279	3077
925.387	3222
925.494	3253
925.602	3363
925.709	3336
925.816	3199
925.924	3294
926.031	3409
926.138	3329
926.245	3393
926.352	3264
926.459	3416
926.566	3488
926.673	3374
926.779	3260
926.886	3298
926.993	3150
927.099	3104
927.206	3116
927.312	3127
927.419	3253
927.525	3256
927.631	3294
927.737	3154
927.843	3150
927.95	3028
928.056	3165
928.162	3146
928.267	3253
928.373	3781
928.479	3294
928.585	3074
928.69	3260
928.796	3264
928.901	3180
929.007	3070
929.112	3207
929.218	3222
929.323	3127
929.428	3214
929.533	3386
929.638	3123
929.743	3211
929.848	3287
929.953	3260
930.058	3138
930.163	3055
930.267	3058
930.372	3268
930.477	3108
930.581	3359
930.685	3195
930.79	3097
930.894	3157
930.998	3116
931.103	3310
931.207	2994
931.311	2982
931.415	2937
931.519	2804
931.623	2838
