Data from test_V78500241_3.txt Node
Date: Fri Mar 25 16:15:13 CST 2022
User: usil
Spectrometer: V785-0024
Trigger mode: 0
Integration Time (sec): 4.000000E-1
Scans to average: 1
Nonlinearity correction enabled: false
Boxcar width: 0
Storing dark spectrum: false
XAxis mode: Wavelengths
Number of Pixels in Spectrum: 1024
>>>>>Begin Spectral Data<<<<<
801.071	3013
801.214	3013
801.356	2975
801.499	2952
801.641	2941
801.783	2986
801.926	3123
802.068	3001
802.211	3055
802.353	3108
802.496	3036
802.638	3074
802.78	3135
802.923	3119
803.065	3066
803.208	2986
803.35	3028
803.492	3005
803.635	2990
803.777	2834
803.919	2914
804.061	3230
804.204	3013
804.346	2956
804.488	2902
804.63	3062
804.773	2937
804.915	2982
805.057	3157
805.199	3020
805.341	3081
805.483	3089
805.626	3077
805.768	3032
805.91	3119
806.052	3184
806.194	3097
806.336	3313
806.478	3074
806.62	3005
806.762	3047
806.904	3192
807.046	3218
807.188	3051
807.33	3017
807.472	3043
807.614	3001
807.756	3043
807.898	2982
808.04	3013
808.182	3020
808.324	3055
808.465	2971
808.607	2986
808.749	2872
808.891	2910
809.033	3051
809.174	3077
809.316	2998
809.458	2990
809.6	2811
809.741	2830
809.883	2830
810.025	2868
810.166	2910
810.308	2876
810.45	2922
810.591	2830
810.733	2853
810.875	2902
811.016	2872
811.158	2845
811.299	2853
811.441	2986
811.582	2986
811.724	2906
811.865	2883
812.007	2986
812.148	2944
812.29	2937
812.431	2910
812.573	3017
812.714	3032
812.855	3104
812.997	3093
813.138	3161
813.279	3070
813.421	3028
813.562	3013
813.703	2944
813.845	2925
813.986	2819
814.127	2807
814.268	2895
814.41	2872
814.551	2887
814.692	2941
814.833	2823
814.974	2975
815.115	2986
815.256	2902
815.397	2861
815.539	2902
815.68	2834
815.821	2876
815.962	2994
816.103	3013
816.244	2944
816.385	2944
816.526	3036
816.666	2998
816.807	2815
816.948	2925
817.089	2990
817.23	2895
817.371	2819
817.512	2872
817.653	2910
817.793	2880
817.934	2960
818.075	3047
818.216	2998
818.356	3100
818.497	2902
818.638	2864
818.778	2880
818.919	2861
819.06	2823
819.2	2994
819.341	2899
819.481	2849
819.622	3001
819.762	3127
819.903	3097
820.043	2971
820.184	2922
820.324	2948
820.465	3085
820.605	3074
820.746	3070
820.886	3001
821.026	3154
821.167	3199
821.307	3317
821.447	3336
821.588	3332
821.728	3279
821.868	3264
822.008	3157
822.149	3275
822.289	3298
822.429	3192
822.569	3127
822.709	3241
822.849	3093
822.99	3142
823.13	3230
823.27	3249
823.41	3188
823.55	3214
823.69	3203
823.83	3241
823.97	3146
824.11	3066
824.25	3028
824.389	3119
824.529	3157
824.669	3089
824.809	3237
824.949	3336
825.089	3302
825.228	3241
825.368	3062
825.508	3028
825.648	3028
825.787	3058
825.927	3074
826.067	3009
826.206	3009
826.346	3077
826.485	3135
826.625	3146
826.765	3302
826.904	3313
827.044	3020
827.183	2986
827.323	2899
827.462	3062
827.601	3005
827.741	2960
827.88	3005
828.02	2899
828.159	3058
828.298	3089
828.437	3184
828.577	3108
828.716	3298
828.855	3131
828.994	2960
829.134	2929
829.273	3001
829.412	2902
829.551	2937
829.69	2948
829.829	3047
829.968	3203
830.107	3077
830.246	3047
830.385	3017
830.524	2929
830.663	2864
830.802	2792
830.941	2682
831.08	2682
831.219	2823
831.357	2796
831.496	2963
831.635	2807
831.774	2716
831.913	2682
832.051	2583
832.19	2629
832.329	2727
832.467	2579
832.606	2518
832.744	2655
832.883	2655
833.022	2617
833.16	2693
833.299	2758
833.437	2724
833.576	2705
833.714	2750
833.852	2777
833.991	2823
834.129	2849
834.267	2845
834.406	2842
834.544	2918
834.682	2902
834.821	2922
834.959	3169
835.097	2971
835.235	3100
835.373	3032
835.511	3055
835.65	2982
835.788	2986
835.926	2914
836.064	2861
836.202	2902
836.34	3150
836.478	3214
836.615	3085
836.753	3199
836.891	3264
837.029	3207
837.167	3195
837.305	3089
837.443	3116
837.58	3039
837.718	3203
837.856	3097
837.993	3104
838.131	3222
838.269	3127
838.406	3146
838.544	3150
838.681	2998
838.819	2975
838.956	2853
839.094	2845
839.231	2967
839.369	3062
839.506	3412
839.643	3268
839.781	3062
839.918	3047
840.055	3104
840.193	3116
840.33	3112
840.467	3146
840.604	3192
840.742	3428
840.879	3089
841.016	3081
841.153	3127
841.29	3340
841.427	3355
841.564	3298
841.701	3363
841.838	3306
841.975	3260
842.112	3283
842.249	3116
842.385	3108
842.522	3291
842.659	3157
842.796	3131
842.933	3165
843.069	3104
843.206	3119
843.343	3207
843.479	3165
843.616	3184
843.752	2956
843.889	2929
844.025	3123
844.162	2899
844.298	3127
844.435	3020
844.571	2979
844.708	3116
844.844	3264
844.98	3291
845.117	3256
845.253	3127
845.389	3055
845.525	3176
845.661	3211
845.798	3085
845.934	3214
846.07	3135
846.206	3241
846.342	3405
846.478	3294
846.614	3188
846.75	3112
846.886	3085
847.022	3317
847.158	3184
847.294	3321
847.429	3329
847.565	3283
847.701	3591
847.837	3104
847.972	3043
848.108	3233
848.244	3207
848.379	3108
848.515	3028
848.65	2982
848.786	3024
848.921	3108
849.057	3184
849.192	3226
849.328	3119
849.463	3218
849.598	3131
849.734	3173
849.869	3070
850.004	3001
850.14	3074
850.275	3017
850.41	2933
850.545	3024
850.68	3001
850.815	3055
850.95	3077
851.085	3260
851.22	3180
851.355	3154
851.49	3055
851.625	3097
851.76	3123
851.895	3032
852.03	2982
852.165	3108
852.299	3169
852.434	3291
852.569	3253
852.703	3241
852.838	3336
852.973	3428
853.107	3424
853.242	3233
853.376	3195
853.511	3089
853.645	3176
853.78	3340
853.914	3233
854.048	3211
854.183	3176
854.317	3230
854.451	3359
854.585	3214
854.72	3173
854.854	3279
854.988	3154
855.122	3184
855.256	3074
855.39	3165
855.524	3367
855.658	3268
855.792	3222
855.926	3321
856.06	3298
856.194	3397
856.327	3321
856.461	3184
856.595	3195
856.729	3199
856.862	3313
856.996	3275
857.13	3302
857.263	3302
857.397	3344
857.53	3214
857.664	3283
857.797	3336
857.931	3382
858.064	3222
858.197	3340
858.331	3241
858.464	3199
858.597	3127
858.731	3188
858.864	3214
858.997	3165
859.13	3245
859.263	3253
859.396	3291
859.529	3218
859.662	3180
859.795	3150
859.928	3230
860.061	3367
860.194	3386
860.327	3260
860.46	3214
860.592	3336
860.725	3344
860.858	3348
860.99	3161
861.123	3131
861.256	3165
861.388	3230
861.521	3835
861.653	3093
861.786	3085
861.918	3104
862.05	3192
862.183	3203
862.315	3230
862.447	3279
862.58	3180
862.712	3047
862.844	2994
862.976	3104
863.108	3123
863.24	3526
863.372	3009
863.504	3066
863.636	3024
863.768	3154
863.9	3119
864.032	2994
864.164	3028
864.296	3066
864.428	3192
864.559	3192
864.691	3161
864.823	3161
864.954	3135
865.086	3150
865.217	3070
865.349	3001
865.48	3039
865.612	3131
865.743	3264
865.875	3055
866.006	3043
866.137	3013
866.269	3009
866.4	3001
866.531	3024
866.662	2971
866.793	2990
866.924	3001
867.055	3043
867.186	3032
867.317	2986
867.448	2937
867.579	2944
867.71	2967
867.841	2914
867.972	2994
868.103	2948
868.233	2956
868.364	2963
868.495	2998
868.625	3157
868.756	3272
868.886	3047
869.017	3161
869.147	3272
869.278	3287
869.408	3123
869.539	3138
869.669	3195
869.799	3146
869.929	3268
870.06	3203
870.19	3389
870.32	3363
870.45	3393
870.58	3511
870.71	3564
870.84	3587
870.97	3401
871.1	3332
871.23	3599
871.36	3538
871.489	3431
871.619	3511
871.749	3523
871.879	3538
872.008	3587
872.138	3443
872.267	3367
872.397	3233
872.526	3184
872.656	3089
872.785	3135
872.915	3332
873.044	3397
873.173	3317
873.303	3329
873.432	3332
873.561	3317
873.69	3214
873.819	3237
873.948	3302
874.077	3214
874.206	3138
874.335	3173
874.464	3283
874.593	3424
874.722	3329
874.851	3515
874.979	3435
875.108	3386
875.237	3283
875.365	3279
875.494	3268
875.623	3348
875.751	3184
875.88	3203
876.008	3256
876.136	3272
876.265	3458
876.393	3610
876.521	3564
876.65	3462
876.778	3378
876.906	3344
877.034	3287
877.162	3298
877.29	3253
877.418	3344
877.546	3332
877.674	3367
877.802	3317
877.93	3325
878.058	3256
878.185	3195
878.313	3294
878.441	3298
878.568	3176
878.696	3230
878.824	3359
878.951	3412
879.079	3564
879.206	3713
879.333	3587
879.461	3409
879.588	3424
879.715	3572
879.842	3701
879.97	3504
880.097	3237
880.224	3199
880.351	3283
880.478	3298
880.605	3310
880.732	3226
880.859	3564
880.986	3428
881.112	3397
881.239	3306
881.366	3188
881.493	3157
881.619	3112
881.746	3150
881.872	3188
881.999	3214
882.125	3249
882.252	3344
882.378	3359
882.505	3542
882.631	3401
882.757	3291
882.883	3279
883.01	3317
883.136	3230
883.262	3207
883.388	3176
883.514	3409
883.64	3488
883.766	3420
883.892	3264
884.018	3332
884.143	3526
884.269	3618
884.395	3298
884.52	3241
884.646	3256
884.772	3207
884.897	3203
885.023	3283
885.148	3397
885.274	3530
885.399	3439
885.524	3367
885.65	3382
885.775	3469
885.9	3386
886.025	3530
886.15	3416
886.275	3378
886.4	3348
886.525	3431
886.65	3336
886.775	3359
886.9	3576
887.025	3759
887.149	3458
887.274	3355
887.399	3272
887.523	3256
887.648	3268
887.773	3230
887.897	3466
888.021	3458
888.146	3386
888.27	3534
888.395	3663
888.519	3504
888.643	3561
888.767	3584
888.891	3428
889.015	3313
889.139	3374
889.263	3321
889.387	3504
889.511	3599
889.635	3584
889.759	3386
889.883	3405
890.006	3469
890.13	3580
890.254	3374
890.377	3443
890.501	3272
890.624	3291
890.748	3401
890.871	3272
890.995	3169
891.118	3199
891.241	3283
891.364	3325
891.488	3420
891.611	3264
891.734	3332
891.857	3340
891.98	3344
892.103	3458
892.226	3363
892.349	3298
892.471	3192
892.594	3321
892.717	3382
892.839	3344
892.962	3386
893.085	3416
893.207	3378
893.33	3245
893.452	3283
893.575	3401
893.697	3340
893.819	3534
893.941	3595
894.064	3477
894.186	3359
894.308	3336
894.43	3561
894.552	3622
894.674	3561
894.796	3393
894.918	3431
895.04	3370
895.161	3515
895.283	3515
895.405	3397
895.526	3435
895.648	3485
895.769	3542
895.891	3549
896.012	3557
896.134	3530
896.255	3504
896.376	3466
896.498	3447
896.619	3538
896.74	3462
896.861	3504
896.982	3778
897.103	3930
897.224	3679
897.345	3603
897.466	3534
897.587	3603
897.708	3686
897.828	3660
897.949	3534
898.07	3416
898.19	3462
898.311	3686
898.431	3504
898.552	3618
898.672	3637
898.792	3686
898.913	3603
899.033	3447
899.153	3370
899.273	3310
899.393	3355
899.513	3397
899.633	3378
899.753	3454
899.873	3363
899.993	3473
900.113	3405
900.232	3473
900.352	3409
900.472	3393
900.591	3287
900.711	3370
900.83	3325
900.95	3462
901.069	3599
901.189	3439
901.308	3275
901.427	3211
901.546	3294
901.665	3348
901.784	3389
901.904	3302
902.023	3211
902.141	3112
902.26	3058
902.379	3203
902.498	3112
902.617	3161
902.735	3291
902.854	3313
902.973	3283
903.091	3123
903.21	3074
903.328	3184
903.446	3188
903.565	3173
903.683	3283
903.801	3195
903.919	3313
904.038	3344
904.156	3260
904.274	3329
904.392	3332
904.51	3367
904.627	3424
904.745	3523
904.863	3553
904.981	3370
905.098	3256
905.216	3313
905.334	3378
905.451	3405
905.569	3412
905.686	3545
905.803	3485
905.921	3386
906.038	3450
906.155	3420
906.272	3340
906.389	3435
906.506	3310
906.623	3313
906.74	3378
906.857	3233
906.974	3298
907.091	3519
907.208	3641
907.324	3553
907.441	3500
907.557	3306
907.674	3329
907.79	3268
907.907	3393
908.023	3496
908.139	3424
908.256	3424
908.372	3462
908.488	3473
908.604	3367
908.72	3294
908.836	3351
908.952	3351
909.068	3439
909.184	3557
909.3	3431
909.415	3587
909.531	3568
909.647	3344
909.762	3378
909.878	3363
909.993	3454
910.108	3401
910.224	3431
910.339	3439
910.454	3424
910.57	3340
910.685	3332
910.8	3633
910.915	3656
911.03	3485
911.145	3336
911.259	3348
911.374	3424
911.489	3329
911.604	3298
911.718	3230
911.833	3241
911.947	3081
912.062	3062
912.176	3253
912.291	3272
912.405	3253
912.519	3488
912.633	3542
912.748	3416
912.862	3359
912.976	3256
913.09	3119
913.204	3180
913.318	3321
913.431	3416
913.545	3435
913.659	3488
913.772	3447
913.886	3279
914	3275
914.113	3466
914.226	3469
914.34	3435
914.453	3264
914.566	3504
914.68	3386
914.793	3370
914.906	3233
915.019	3222
915.132	3154
915.245	3214
915.358	3264
915.47	3287
915.583	3313
915.696	3351
915.809	3450
915.921	3477
916.034	3336
916.146	3340
916.259	3287
916.371	3447
916.483	3428
916.595	3321
916.708	3397
916.82	3447
916.932	3416
917.044	3416
917.156	3420
917.268	3302
917.38	3340
917.491	3359
917.603	3439
917.715	3538
917.826	3538
917.938	3477
918.049	3348
918.161	3515
918.272	3610
918.384	3652
918.495	3584
918.606	3386
918.717	3332
918.828	3454
918.939	3447
919.05	3409
919.161	3447
919.272	3233
919.383	3355
919.494	3549
919.604	3747
919.715	3534
919.826	3458
919.936	3549
920.047	3656
920.157	3610
920.267	3842
920.378	3675
920.488	3660
920.598	3857
920.708	4021
920.818	3926
920.928	3918
921.038	4120
921.148	4093
921.258	3778
921.368	3743
921.477	3663
921.587	3637
921.697	3496
921.806	3724
921.916	3595
922.025	3431
922.134	3435
922.244	3393
922.353	3466
922.462	3363
922.571	3249
922.68	3188
922.789	3150
922.898	3173
923.007	3157
923.116	3264
923.224	3207
923.333	3272
923.442	3161
923.55	3165
923.659	3195
923.767	3264
923.876	3169
923.984	3313
924.092	3142
924.201	3291
924.309	3272
924.417	3348
924.525	3287
924.633	3294
924.741	4272
924.849	3135
924.956	3363
925.064	3157
925.172	3104
925.279	3165
925.387	3264
925.494	3275
925.602	3405
925.709	3378
925.816	3260
925.924	3424
926.031	3439
926.138	3409
926.245	3431
926.352	3325
926.459	3477
926.566	3500
926.673	3359
926.779	3321
926.886	3294
926.993	3199
927.099	3214
927.206	3207
927.312	3192
927.419	3287
927.525	3298
927.631	3317
927.737	3230
927.843	3214
927.95	3089
928.056	3180
928.162	3264
928.267	3310
928.373	3838
928.479	3420
928.585	3112
928.69	3275
928.796	3363
928.901	3195
929.007	3112
929.112	3310
929.218	3249
929.323	3195
929.428	3211
929.533	3389
929.638	3199
929.743	3272
929.848	3306
929.953	3275
930.058	3165
930.163	3047
930.267	3142
930.372	3268
930.477	3119
930.581	3393
930.685	3279
930.79	3150
930.894	3180
930.998	3211
931.103	3336
931.207	3017
931.311	2971
931.415	3001
931.519	2834
931.623	2891
