Data from test_V78500241_739.txt Node
Date: Fri Mar 25 16:20:19 CST 2022
User: usil
Spectrometer: V785-0024
Trigger mode: 0
Integration Time (sec): 4.000000E-1
Scans to average: 1
Nonlinearity correction enabled: false
Boxcar width: 0
Storing dark spectrum: false
XAxis mode: Wavelengths
Number of Pixels in Spectrum: 1024
>>>>>Begin Spectral Data<<<<<
801.071	2891
801.214	2922
801.356	2849
801.499	2872
801.641	2880
801.783	2944
801.926	3055
802.068	2975
802.211	3013
802.353	3028
802.496	2971
802.638	3028
802.78	3036
802.923	3085
803.065	2994
803.208	2887
803.35	2975
803.492	2956
803.635	2922
803.777	2746
803.919	2845
804.061	3173
804.204	2998
804.346	2922
804.488	2834
804.63	2967
804.773	2883
804.915	2868
805.057	3055
805.199	2918
805.341	2956
805.483	3055
805.626	2986
805.768	2952
805.91	3074
806.052	3108
806.194	3043
806.336	3237
806.478	3032
806.62	2929
806.762	2979
806.904	3039
807.046	3165
807.188	2982
807.33	2876
807.472	2971
807.614	2891
807.756	2963
807.898	2925
808.04	2899
808.182	2979
808.324	2925
808.465	2922
808.607	2853
808.749	2800
808.891	2823
809.033	2967
809.174	2971
809.316	2883
809.458	2880
809.6	2773
809.741	2766
809.883	2777
810.025	2842
810.166	2868
810.308	2842
810.45	2872
810.591	2769
810.733	2766
810.875	2804
811.016	2769
811.158	2773
811.299	2781
811.441	2933
811.582	2891
811.724	2811
811.865	2773
812.007	2861
812.148	2876
812.29	2826
812.431	2910
812.573	2906
812.714	2952
812.855	3017
812.997	3062
813.138	3135
813.279	2990
813.421	2956
813.562	2963
813.703	2872
813.845	2880
813.986	2800
814.127	2727
814.268	2845
814.41	2823
814.551	2781
814.692	2845
814.833	2788
814.974	2876
815.115	2941
815.256	2807
815.397	2830
815.539	2849
815.68	2773
815.821	2800
815.962	2952
816.103	2922
816.244	2883
816.385	2895
816.526	2963
816.666	2902
816.807	2766
816.948	2910
817.089	2883
817.23	2823
817.371	2796
817.512	2807
817.653	2842
817.793	2819
817.934	2876
818.075	2952
818.216	2948
818.356	2998
818.497	2861
818.638	2769
818.778	2785
818.919	2788
819.06	2750
819.2	2922
819.341	2807
819.481	2823
819.622	2933
819.762	3123
819.903	3055
820.043	2906
820.184	2902
820.324	2868
820.465	3013
820.605	2979
820.746	3024
820.886	2914
821.026	3093
821.167	3138
821.307	3249
821.447	3264
821.588	3199
821.728	3169
821.868	3188
822.008	3097
822.149	3184
822.289	3222
822.429	3100
822.569	3077
822.709	3180
822.849	2982
822.99	3058
823.13	3146
823.27	3173
823.41	3112
823.55	3131
823.69	3154
823.83	3180
823.97	3097
824.11	3005
824.25	3017
824.389	3062
824.529	3081
824.669	3055
824.809	3176
824.949	3218
825.089	3222
825.228	3184
825.368	2994
825.508	2956
825.648	2952
825.787	3017
825.927	3013
826.067	2956
826.206	2918
826.346	2971
826.485	3039
826.625	3112
826.765	3230
826.904	3211
827.044	3005
827.183	2929
827.323	2845
827.462	2963
827.601	2948
827.741	2922
827.88	2952
828.02	2842
828.159	2956
828.298	3020
828.437	3093
828.577	3020
828.716	3218
828.855	3055
828.994	2902
829.134	2876
829.273	2933
829.412	2800
829.551	2868
829.69	2902
829.829	2956
829.968	3100
830.107	3039
830.246	3047
830.385	2925
830.524	2895
830.663	2804
830.802	2773
830.941	2648
831.08	2625
831.219	2739
831.357	2689
831.496	2963
831.635	2720
831.774	2621
831.913	2613
832.051	2552
832.19	2552
832.329	2674
832.467	2484
832.606	2484
832.744	2556
832.883	2613
833.022	2571
833.16	2663
833.299	2686
833.437	2682
833.576	2705
833.714	2682
833.852	2712
833.991	2762
834.129	2830
834.267	2830
834.406	2758
834.544	2849
834.682	2872
834.821	2849
834.959	3047
835.097	2887
835.235	3070
835.373	2986
835.511	3032
835.65	2944
835.788	2937
835.926	2804
836.064	2838
836.202	2838
836.34	3097
836.478	3146
836.615	3024
836.753	3135
836.891	3207
837.029	3146
837.167	3077
837.305	3051
837.443	3028
837.58	2944
837.718	3116
837.856	3032
837.993	2990
838.131	3112
838.269	3104
838.406	3081
838.544	3055
838.681	2929
838.819	2883
838.956	2811
839.094	2845
839.231	2880
839.369	3036
839.506	3397
839.643	3245
839.781	2990
839.918	2956
840.055	3066
840.193	3017
840.33	3009
840.467	3058
840.604	3138
840.742	3389
840.879	3036
841.016	3043
841.153	3093
841.29	3332
841.427	3306
841.564	3275
841.701	3306
841.838	3203
841.975	3192
842.112	3184
842.249	3066
842.385	3051
842.522	3264
842.659	3036
842.796	3062
842.933	3093
843.069	3051
843.206	3036
843.343	3138
843.479	3108
843.616	3119
843.752	2918
843.889	2849
844.025	3066
844.162	2872
844.298	3051
844.435	2944
844.571	2899
844.708	3051
844.844	3157
844.98	3233
845.117	3207
845.253	3047
845.389	3028
845.525	3058
845.661	3104
845.798	2982
845.934	3112
846.07	3043
846.206	3188
846.342	3287
846.478	3199
846.614	3058
846.75	3028
846.886	2998
847.022	3211
847.158	3119
847.294	3192
847.429	3237
847.565	3188
847.701	3447
847.837	3039
847.972	2990
848.108	3154
848.244	3112
848.379	2986
848.515	2937
848.65	2922
848.786	2941
848.921	2990
849.057	3123
849.192	3131
849.328	3043
849.463	3089
849.598	3051
849.734	3066
849.869	2967
850.004	2910
850.14	2956
850.275	2925
850.41	2819
850.545	2876
850.68	2872
850.815	2929
850.95	2952
851.085	3192
851.22	3093
851.355	3032
851.49	2944
851.625	2952
851.76	2994
851.895	2925
852.03	2925
852.165	2982
852.299	3081
852.434	3165
852.569	3127
852.703	3127
852.838	3207
852.973	3351
853.107	3355
853.242	3142
853.376	3097
853.511	2956
853.645	3013
853.78	3203
853.914	3093
854.048	3112
854.183	3062
854.317	3131
854.451	3272
854.585	3119
854.72	3108
854.854	3207
854.988	3047
855.122	3070
855.256	2990
855.39	3108
855.524	3207
855.658	3161
855.792	3131
855.926	3207
856.06	3245
856.194	3245
856.327	3138
856.461	3093
856.595	3077
856.729	3074
856.862	3211
856.996	3135
857.13	3173
857.263	3218
857.397	3268
857.53	3104
857.664	3188
857.797	3241
857.931	3222
858.064	3165
858.197	3207
858.331	3070
858.464	3097
858.597	3001
858.731	3157
858.864	3108
858.997	3081
859.13	3150
859.263	3150
859.396	3207
859.529	3093
859.662	3097
859.795	3066
859.928	3127
860.061	3237
860.194	3272
860.327	3116
860.46	3093
860.592	3275
860.725	3241
860.858	3222
860.99	3119
861.123	3036
861.256	3089
861.388	3108
861.521	3846
861.653	2979
861.786	2944
861.918	2982
862.05	3093
862.183	3055
862.315	3123
862.447	3161
862.58	3070
862.712	2963
862.844	2868
862.976	3047
863.108	3017
863.24	3416
863.372	2876
863.504	2948
863.636	2948
863.768	3009
863.9	2925
864.032	2899
864.164	2979
864.296	2990
864.428	3062
864.559	3093
864.691	3081
864.823	3051
864.954	3039
865.086	3028
865.217	2975
865.349	2937
865.48	2925
865.612	3032
865.743	3142
865.875	2963
866.006	2944
866.137	2979
866.269	2929
866.4	2891
866.531	2906
866.662	2872
866.793	2883
866.924	2883
867.055	2960
867.186	2948
867.317	2895
867.448	2830
867.579	2826
867.71	2842
867.841	2845
867.972	2918
868.103	2864
868.233	2883
868.364	2876
868.495	2861
868.625	3089
868.756	3131
868.886	2944
869.017	2990
869.147	3150
869.278	3131
869.408	3036
869.539	2967
869.669	3081
869.799	3051
869.929	3131
870.06	3116
870.19	3279
870.32	3310
870.45	3237
870.58	3374
870.71	3412
870.84	3435
870.97	3272
871.1	3226
871.23	3500
871.36	3428
871.489	3367
871.619	3450
871.749	3374
871.879	3393
872.008	3496
872.138	3367
872.267	3245
872.397	3146
872.526	3062
872.656	2998
872.785	3051
872.915	3249
873.044	3294
873.173	3188
873.303	3260
873.432	3211
873.561	3214
873.69	3157
873.819	3165
873.948	3192
874.077	3058
874.206	3028
874.335	3070
874.464	3211
874.593	3355
874.722	3253
874.851	3416
874.979	3317
875.108	3310
875.237	3218
875.365	3161
875.494	3173
875.623	3237
875.751	3062
875.88	3077
876.008	3154
876.136	3207
876.265	3344
876.393	3496
876.521	3431
876.65	3412
876.778	3321
876.906	3256
877.034	3173
877.162	3207
877.29	3184
877.418	3199
877.546	3233
877.674	3188
877.802	3230
877.93	3233
878.058	3135
878.185	3085
878.313	3184
878.441	3192
878.568	3093
878.696	3169
878.824	3237
878.951	3275
879.079	3420
879.206	3599
879.333	3450
879.461	3294
879.588	3348
879.715	3431
879.842	3595
879.97	3355
880.097	3184
880.224	3127
880.351	3157
880.478	3188
880.605	3184
880.732	3203
880.859	3496
880.986	3317
881.112	3348
881.239	3188
881.366	3062
881.493	3066
881.619	3020
881.746	3047
881.872	3100
881.999	3108
882.125	3154
882.252	3222
882.378	3294
882.505	3428
882.631	3245
882.757	3142
882.883	3226
883.01	3222
883.136	3173
883.262	3055
883.388	3104
883.514	3306
883.64	3348
883.766	3332
883.892	3161
884.018	3241
884.143	3389
884.269	3500
884.395	3199
884.52	3165
884.646	3169
884.772	3104
884.897	3089
885.023	3195
885.148	3344
885.274	3393
885.399	3378
885.524	3264
885.65	3241
885.775	3310
885.9	3279
886.025	3424
886.15	3367
886.275	3260
886.4	3218
886.525	3260
886.65	3233
886.775	3272
886.9	3507
887.025	3606
887.149	3351
887.274	3230
887.399	3184
887.523	3161
887.648	3146
887.773	3195
887.897	3378
888.021	3405
888.146	3264
888.27	3420
888.395	3564
888.519	3397
888.643	3458
888.767	3428
888.891	3298
889.015	3233
889.139	3264
889.263	3256
889.387	3370
889.511	3500
889.635	3450
889.759	3272
889.883	3264
890.006	3416
890.13	3500
890.254	3241
890.377	3298
890.501	3199
890.624	3161
890.748	3275
890.871	3146
890.995	3043
891.118	3051
891.241	3184
891.364	3154
891.488	3287
891.611	3214
891.734	3176
891.857	3264
891.98	3237
892.103	3329
892.226	3260
892.349	3192
892.471	3116
892.594	3226
892.717	3302
892.839	3253
892.962	3275
893.085	3374
893.207	3313
893.33	3157
893.452	3230
893.575	3329
893.697	3233
893.819	3435
893.941	3481
894.064	3458
894.186	3264
894.308	3283
894.43	3443
894.552	3542
894.674	3462
894.796	3287
894.918	3332
895.04	3275
895.161	3420
895.283	3378
895.405	3291
895.526	3424
895.648	3416
895.769	3428
895.891	3431
896.012	3466
896.134	3458
896.255	3416
896.376	3393
896.498	3405
896.619	3443
896.74	3359
896.861	3462
896.982	3698
897.103	3857
897.224	3599
897.345	3530
897.466	3450
897.587	3526
897.708	3652
897.828	3572
897.949	3492
898.07	3386
898.19	3454
898.311	3625
898.431	3485
898.552	3549
898.672	3622
898.792	3603
898.913	3561
899.033	3439
899.153	3344
899.273	3230
899.393	3374
899.513	3363
899.633	3363
899.753	3397
899.873	3370
899.993	3409
900.113	3389
900.232	3458
900.352	3363
900.472	3359
900.591	3260
900.711	3351
900.83	3283
900.95	3473
901.069	3549
901.189	3386
901.308	3180
901.427	3199
901.546	3253
901.665	3302
901.784	3363
901.904	3272
902.023	3195
902.141	3081
902.26	3081
902.379	3165
902.498	3081
902.617	3116
902.735	3275
902.854	3253
902.973	3214
903.091	3081
903.21	3097
903.328	3142
903.446	3150
903.565	3131
903.683	3230
903.801	3195
903.919	3256
904.038	3340
904.156	3207
904.274	3344
904.392	3294
904.51	3321
904.627	3359
904.745	3485
904.863	3507
904.981	3283
905.098	3230
905.216	3241
905.334	3351
905.451	3321
905.569	3336
905.686	3485
905.803	3466
905.921	3348
906.038	3439
906.155	3370
906.272	3294
906.389	3359
906.506	3214
906.623	3310
906.74	3329
906.857	3188
906.974	3291
907.091	3496
907.208	3580
907.324	3496
907.441	3386
907.557	3268
907.674	3249
907.79	3222
907.907	3310
908.023	3389
908.139	3416
908.256	3393
908.372	3412
908.488	3378
908.604	3260
908.72	3260
908.836	3313
908.952	3336
909.068	3329
909.184	3492
909.3	3416
909.415	3515
909.531	3481
909.647	3310
909.762	3317
909.878	3275
909.993	3382
910.108	3336
910.224	3340
910.339	3435
910.454	3382
910.57	3298
910.685	3298
910.8	3614
910.915	3595
911.03	3439
911.145	3272
911.259	3294
911.374	3336
911.489	3241
911.604	3268
911.718	3154
911.833	3169
911.947	3097
912.062	3009
912.176	3214
912.291	3226
912.405	3245
912.519	3450
912.633	3458
912.748	3363
912.862	3298
912.976	3188
913.09	3093
913.204	3150
913.318	3256
913.431	3344
913.545	3378
913.659	3431
913.772	3374
913.886	3256
914	3222
914.113	3397
914.226	3409
914.34	3389
914.453	3241
914.566	3492
914.68	3329
914.793	3344
914.906	3214
915.019	3169
915.132	3081
915.245	3203
915.358	3268
915.47	3260
915.583	3306
915.696	3329
915.809	3431
915.921	3428
916.034	3291
916.146	3275
916.259	3256
916.371	3416
916.483	3393
916.595	3298
916.708	3393
916.82	3382
916.932	3382
917.044	3336
917.156	3382
917.268	3291
917.38	3325
917.491	3340
917.603	3401
917.715	3477
917.826	3477
917.938	3466
918.049	3287
918.161	3496
918.272	3568
918.384	3595
918.495	3534
918.606	3374
918.717	3302
918.828	3420
918.939	3435
919.05	3317
919.161	3428
919.272	3245
919.383	3279
919.494	3534
919.604	3705
919.715	3534
919.826	3424
919.936	3488
920.047	3603
920.157	3614
920.267	3793
920.378	3667
920.488	3584
920.598	3800
920.708	3964
920.818	3835
920.928	3869
921.038	4036
921.148	4013
921.258	3736
921.368	3663
921.477	3591
921.587	3561
921.697	3496
921.806	3682
921.916	3530
922.025	3374
922.134	3405
922.244	3355
922.353	3466
922.462	3332
922.571	3245
922.68	3127
922.789	3100
922.898	3154
923.007	3131
923.116	3241
923.224	3218
923.333	3211
923.442	3161
923.55	3112
923.659	3165
923.767	3222
923.876	3154
923.984	3253
924.092	3150
924.201	3260
924.309	3260
924.417	3264
924.525	3203
924.633	3256
924.741	4238
924.849	3089
924.956	3306
925.064	3108
925.172	3028
925.279	3104
925.387	3237
925.494	3249
925.602	3382
925.709	3374
925.816	3203
925.924	3298
926.031	3405
926.138	3355
926.245	3389
926.352	3272
926.459	3424
926.566	3504
926.673	3359
926.779	3272
926.886	3287
926.993	3169
927.099	3150
927.206	3142
927.312	3108
927.419	3268
927.525	3214
927.631	3287
927.737	3138
927.843	3100
927.95	3051
928.056	3169
928.162	3169
928.267	3256
928.373	3911
928.479	3325
928.585	3123
928.69	3245
928.796	3283
928.901	3192
929.007	3032
929.112	3203
929.218	3169
929.323	3176
929.428	3195
929.533	3302
929.638	3150
929.743	3165
929.848	3272
929.953	3260
930.058	3161
930.163	2986
930.267	3047
930.372	3241
930.477	3074
930.581	3325
930.685	3218
930.79	3062
930.894	3123
930.998	3100
931.103	3291
931.207	2979
931.311	2948
931.415	2963
931.519	2800
931.623	2826
