Data from test_V78500241_1951.txt Node
Date: Fri Mar 25 16:28:43 CST 2022
User: usil
Spectrometer: V785-0024
Trigger mode: 0
Integration Time (sec): 4.000000E-1
Scans to average: 1
Nonlinearity correction enabled: false
Boxcar width: 0
Storing dark spectrum: false
XAxis mode: Wavelengths
Number of Pixels in Spectrum: 1024
>>>>>Begin Spectral Data<<<<<
801.071	2883
801.214	2975
801.356	2853
801.499	2891
801.641	2876
801.783	2948
801.926	3028
802.068	2967
802.211	2979
802.353	2998
802.496	2990
802.638	3005
802.78	3055
802.923	3077
803.065	2990
803.208	2891
803.35	2918
803.492	2944
803.635	2918
803.777	2754
803.919	2914
804.061	3173
804.204	2937
804.346	2914
804.488	2830
804.63	3013
804.773	2868
804.915	2883
805.057	3066
805.199	2914
805.341	2982
805.483	3020
805.626	3032
805.768	2944
805.91	3119
806.052	3135
806.194	2998
806.336	3237
806.478	3013
806.62	2975
806.762	2963
806.904	3047
807.046	3192
807.188	2952
807.33	2910
807.472	2990
807.614	2933
807.756	2990
807.898	2914
808.04	2910
808.182	2971
808.324	2918
808.465	2887
808.607	2910
808.749	2773
808.891	2853
809.033	2952
809.174	2982
809.316	2895
809.458	2883
809.6	2750
809.741	2777
809.883	2758
810.025	2819
810.166	2826
810.308	2864
810.45	2853
810.591	2762
810.733	2750
810.875	2804
811.016	2766
811.158	2739
811.299	2815
811.441	2963
811.582	2895
811.724	2781
811.865	2842
812.007	2895
812.148	2883
812.29	2838
812.431	2853
812.573	2956
812.714	2986
812.855	3028
812.997	3024
813.138	3108
813.279	2956
813.421	2956
813.562	2929
813.703	2883
813.845	2918
813.986	2766
814.127	2743
814.268	2815
814.41	2857
814.551	2800
814.692	2895
814.833	2815
814.974	2895
815.115	2929
815.256	2823
815.397	2788
815.539	2845
815.68	2777
815.821	2785
815.962	2948
816.103	2937
816.244	2834
816.385	2864
816.526	2956
816.666	2902
816.807	2785
816.948	2872
817.089	2899
817.23	2807
817.371	2773
817.512	2796
817.653	2826
817.793	2853
817.934	2853
818.075	2967
818.216	2960
818.356	2990
818.497	2861
818.638	2815
818.778	2823
818.919	2762
819.06	2777
819.2	2914
819.341	2788
819.481	2788
819.622	2925
819.762	3055
819.903	3066
820.043	2937
820.184	2910
820.324	2887
820.465	3028
820.605	3051
820.746	3024
820.886	2937
821.026	3100
821.167	3150
821.307	3249
821.447	3294
821.588	3264
821.728	3188
821.868	3203
822.008	3085
822.149	3138
822.289	3199
822.429	3138
822.569	3093
822.709	3180
822.849	3036
822.99	3047
823.13	3157
823.27	3161
823.41	3123
823.55	3112
823.69	3173
823.83	3184
823.97	3081
824.11	3020
824.25	2967
824.389	3058
824.529	3104
824.669	3081
824.809	3169
824.949	3237
825.089	3207
825.228	3135
825.368	2963
825.508	2914
825.648	2933
825.787	2994
825.927	2990
826.067	2952
826.206	2937
826.346	3058
826.485	3062
826.625	3089
826.765	3279
826.904	3173
827.044	3017
827.183	2910
827.323	2838
827.462	2956
827.601	2853
827.741	2895
827.88	2952
828.02	2880
828.159	2967
828.298	3047
828.437	3112
828.577	3017
828.716	3253
828.855	3108
828.994	2876
829.134	2857
829.273	2906
829.412	2891
829.551	2872
829.69	2876
829.829	2982
829.968	3150
830.107	3028
830.246	3005
830.385	2944
830.524	2906
830.663	2807
830.802	2712
830.941	2602
831.08	2602
831.219	2735
831.357	2773
831.496	2960
831.635	2708
831.774	2644
831.913	2640
832.051	2533
832.19	2549
832.329	2678
832.467	2560
832.606	2473
832.744	2590
832.883	2552
833.022	2564
833.16	2659
833.299	2682
833.437	2682
833.576	2705
833.714	2750
833.852	2716
833.991	2727
834.129	2819
834.267	2838
834.406	2762
834.544	2876
834.682	2872
834.821	2838
834.959	3013
835.097	2895
835.235	3047
835.373	3024
835.511	3020
835.65	2937
835.788	2960
835.926	2838
836.064	2849
836.202	2815
836.34	3077
836.478	3131
836.615	3039
836.753	3127
836.891	3161
837.029	3207
837.167	3104
837.305	3074
837.443	3024
837.58	2998
837.718	3123
837.856	3047
837.993	3024
838.131	3131
838.269	3123
838.406	3112
838.544	3058
838.681	2929
838.819	2899
838.956	2800
839.094	2804
839.231	2902
839.369	3001
839.506	3405
839.643	3230
839.781	3043
839.918	2960
840.055	3047
840.193	3036
840.33	3047
840.467	3104
840.604	3146
840.742	3431
840.879	3024
841.016	3020
841.153	3108
841.29	3321
841.427	3310
841.564	3253
841.701	3272
841.838	3184
841.975	3188
842.112	3230
842.249	3085
842.385	3043
842.522	3260
842.659	3074
842.796	3062
842.933	3062
843.069	3043
843.206	3028
843.343	3207
843.479	3100
843.616	3131
843.752	2880
843.889	2880
844.025	3058
844.162	2895
844.298	3047
844.435	2929
844.571	2887
844.708	3055
844.844	3207
844.98	3233
845.117	3157
845.253	3074
845.389	2998
845.525	3112
845.661	3077
845.798	3009
845.934	3104
846.07	3051
846.206	3214
846.342	3275
846.478	3233
846.614	3077
846.75	3081
846.886	3055
847.022	3260
847.158	3142
847.294	3157
847.429	3222
847.565	3211
847.701	3473
847.837	3020
847.972	3001
848.108	3154
848.244	3165
848.379	2986
848.515	2910
848.65	2922
848.786	2960
848.921	2994
849.057	3100
849.192	3142
849.328	3070
849.463	3051
849.598	3047
849.734	3062
849.869	2975
850.004	2895
850.14	2960
850.275	2929
850.41	2861
850.545	2899
850.68	2895
850.815	2929
850.95	2967
851.085	3180
851.22	3146
851.355	3005
851.49	2971
851.625	2986
851.76	3028
851.895	2948
852.03	2891
852.165	3032
852.299	3116
852.434	3150
852.569	3131
852.703	3146
852.838	3237
852.973	3317
853.107	3306
853.242	3173
853.376	3089
853.511	2948
853.645	3036
853.78	3237
853.914	3131
854.048	3089
854.183	3047
854.317	3131
854.451	3310
854.585	3070
854.72	3077
854.854	3176
854.988	3093
855.122	3093
855.256	2971
855.39	3097
855.524	3241
855.658	3165
855.792	3150
855.926	3207
856.06	3226
856.194	3233
856.327	3173
856.461	3089
856.595	3081
856.729	3093
856.862	3214
856.996	3154
857.13	3195
857.263	3211
857.397	3279
857.53	3127
857.664	3176
857.797	3253
857.931	3241
858.064	3184
858.197	3218
858.331	3104
858.464	3066
858.597	2963
858.731	3127
858.864	3104
858.997	3100
859.13	3161
859.263	3146
859.396	3203
859.529	3070
859.662	3112
859.795	3036
859.928	3131
860.061	3279
860.194	3275
860.327	3104
860.46	3066
860.592	3264
860.725	3226
860.858	3230
860.99	3070
861.123	3039
861.256	3058
861.388	3131
861.521	3835
861.653	3009
861.786	3005
861.918	2998
862.05	3066
862.183	3116
862.315	3161
862.447	3176
862.58	3081
862.712	2960
862.844	2857
862.976	3017
863.108	3013
863.24	3302
863.372	2861
863.504	2975
863.636	2956
863.768	2998
863.9	2956
864.032	2929
864.164	2952
864.296	3013
864.428	3104
864.559	3097
864.691	3089
864.823	2998
864.954	3047
865.086	3032
865.217	3001
865.349	2941
865.48	2990
865.612	3032
865.743	3176
865.875	2960
866.006	2952
866.137	2986
866.269	2929
866.4	2922
866.531	2906
866.662	2872
866.793	2883
866.924	2895
867.055	2937
867.186	2899
867.317	2880
867.448	2838
867.579	2830
867.71	2842
867.841	2830
867.972	2899
868.103	2857
868.233	2895
868.364	2815
868.495	2925
868.625	3077
868.756	3176
868.886	2925
869.017	3047
869.147	3119
869.278	3157
869.408	3028
869.539	3032
869.669	3077
869.799	3043
869.929	3127
870.06	3112
870.19	3313
870.32	3313
870.45	3275
870.58	3370
870.71	3420
870.84	3405
870.97	3291
871.1	3214
871.23	3477
871.36	3469
871.489	3359
871.619	3378
871.749	3431
871.879	3420
872.008	3507
872.138	3325
872.267	3294
872.397	3135
872.526	3104
872.656	2986
872.785	3066
872.915	3222
873.044	3336
873.173	3195
873.303	3260
873.432	3233
873.561	3268
873.69	3154
873.819	3135
873.948	3199
874.077	3089
874.206	3001
874.335	3058
874.464	3211
874.593	3336
874.722	3249
874.851	3389
874.979	3306
875.108	3310
875.237	3192
875.365	3195
875.494	3146
875.623	3203
875.751	3043
875.88	3089
876.008	3184
876.136	3222
876.265	3374
876.393	3504
876.521	3428
876.65	3348
876.778	3287
876.906	3253
877.034	3180
877.162	3218
877.29	3180
877.418	3260
877.546	3214
877.674	3241
877.802	3256
877.93	3207
878.058	3135
878.185	3131
878.313	3184
878.441	3211
878.568	3055
878.696	3157
878.824	3253
878.951	3272
879.079	3469
879.206	3587
879.333	3450
879.461	3355
879.588	3359
879.715	3473
879.842	3553
879.97	3363
880.097	3154
880.224	3131
880.351	3192
880.478	3237
880.605	3176
880.732	3188
880.859	3523
880.986	3313
881.112	3313
881.239	3199
881.366	3104
881.493	3047
881.619	3017
881.746	3089
881.872	3085
881.999	3085
882.125	3154
882.252	3241
882.378	3279
882.505	3393
882.631	3256
882.757	3173
882.883	3218
883.01	3214
883.136	3157
883.262	3116
883.388	3108
883.514	3302
883.64	3359
883.766	3272
883.892	3188
884.018	3226
884.143	3389
884.269	3530
884.395	3233
884.52	3138
884.646	3207
884.772	3138
884.897	3135
885.023	3237
885.148	3329
885.274	3420
885.399	3321
885.524	3264
885.65	3218
885.775	3336
885.9	3283
886.025	3405
886.15	3363
886.275	3245
886.4	3253
886.525	3363
886.65	3256
886.775	3253
886.9	3477
887.025	3667
887.149	3401
887.274	3253
887.399	3203
887.523	3207
887.648	3207
887.773	3226
887.897	3416
888.021	3393
888.146	3325
888.27	3409
888.395	3526
888.519	3401
888.643	3450
888.767	3473
888.891	3298
889.015	3241
889.139	3306
889.263	3264
889.387	3412
889.511	3477
889.635	3450
889.759	3317
889.883	3306
890.006	3363
890.13	3450
890.254	3264
890.377	3351
890.501	3233
890.624	3131
890.748	3287
890.871	3195
890.995	3074
891.118	3058
891.241	3226
891.364	3268
891.488	3325
891.611	3131
891.734	3207
891.857	3298
891.98	3237
892.103	3332
892.226	3260
892.349	3203
892.471	3085
892.594	3245
892.717	3310
892.839	3275
892.962	3294
893.085	3374
893.207	3332
893.33	3135
893.452	3195
893.575	3336
893.697	3222
893.819	3492
893.941	3488
894.064	3462
894.186	3245
894.308	3264
894.43	3420
894.552	3538
894.674	3473
894.796	3272
894.918	3279
895.04	3306
895.161	3405
895.283	3393
895.405	3348
895.526	3340
895.648	3409
895.769	3424
895.891	3431
896.012	3481
896.134	3431
896.255	3412
896.376	3332
896.498	3355
896.619	3409
896.74	3359
896.861	3409
896.982	3682
897.103	3793
897.224	3561
897.345	3496
897.466	3401
897.587	3469
897.708	3603
897.828	3538
897.949	3393
898.07	3321
898.19	3397
898.311	3587
898.431	3435
898.552	3492
898.672	3595
898.792	3549
898.913	3500
899.033	3389
899.153	3249
899.273	3253
899.393	3253
899.513	3329
899.633	3264
899.753	3325
899.873	3306
899.993	3363
900.113	3367
900.232	3405
900.352	3336
900.472	3302
900.591	3207
900.711	3298
900.83	3260
900.95	3359
901.069	3485
901.189	3386
901.308	3165
901.427	3119
901.546	3188
901.665	3287
901.784	3340
901.904	3211
902.023	3119
902.141	3036
902.26	3024
902.379	3127
902.498	3077
902.617	3051
902.735	3203
902.854	3199
902.973	3180
903.091	3017
903.21	3036
903.328	3131
903.446	3074
903.565	3074
903.683	3226
903.801	3097
903.919	3241
904.038	3294
904.156	3195
904.274	3291
904.392	3245
904.51	3294
904.627	3313
904.745	3462
904.863	3481
904.981	3260
905.098	3169
905.216	3249
905.334	3321
905.451	3272
905.569	3291
905.686	3412
905.803	3431
905.921	3283
906.038	3386
906.155	3351
906.272	3268
906.389	3329
906.506	3214
906.623	3253
906.74	3275
906.857	3176
906.974	3211
907.091	3469
907.208	3572
907.324	3473
907.441	3389
907.557	3222
907.674	3253
907.79	3165
907.907	3310
908.023	3409
908.139	3378
908.256	3332
908.372	3355
908.488	3329
908.604	3253
908.72	3180
908.836	3306
908.952	3260
909.068	3344
909.184	3496
909.3	3374
909.415	3500
909.531	3435
909.647	3283
909.762	3260
909.878	3279
909.993	3348
910.108	3336
910.224	3321
910.339	3412
910.454	3344
910.57	3306
910.685	3237
910.8	3622
910.915	3557
911.03	3447
911.145	3237
911.259	3256
911.374	3325
911.489	3230
911.604	3249
911.718	3131
911.833	3127
911.947	2998
912.062	2979
912.176	3154
912.291	3173
912.405	3214
912.519	3450
912.633	3454
912.748	3310
912.862	3298
912.976	3184
913.09	3032
913.204	3146
913.318	3214
913.431	3359
913.545	3340
913.659	3374
913.772	3367
913.886	3230
914	3142
914.113	3329
914.226	3389
914.34	3374
914.453	3211
914.566	3401
914.68	3313
914.793	3287
914.906	3169
915.019	3119
915.132	3070
915.245	3169
915.358	3188
915.47	3226
915.583	3291
915.696	3321
915.809	3401
915.921	3420
916.034	3222
916.146	3279
916.259	3245
916.371	3370
916.483	3382
916.595	3264
916.708	3291
916.82	3321
916.932	3351
917.044	3336
917.156	3344
917.268	3283
917.38	3283
917.491	3294
917.603	3363
917.715	3439
917.826	3454
917.938	3386
918.049	3264
918.161	3416
918.272	3542
918.384	3553
918.495	3481
918.606	3378
918.717	3260
918.828	3378
918.939	3412
919.05	3253
919.161	3382
919.272	3180
919.383	3291
919.494	3447
919.604	3694
919.715	3492
919.826	3420
919.936	3447
920.047	3580
920.157	3553
920.267	3774
920.378	3610
920.488	3576
920.598	3781
920.708	3941
920.818	3835
920.928	3846
921.038	4025
921.148	3983
921.258	3667
921.368	3641
921.477	3599
921.587	3538
921.697	3477
921.806	3637
921.916	3526
922.025	3325
922.134	3355
922.244	3302
922.353	3431
922.462	3264
922.571	3230
922.68	3104
922.789	3112
922.898	3135
923.007	3066
923.116	3214
923.224	3165
923.333	3218
923.442	3108
923.55	3119
923.659	3104
923.767	3207
923.876	3112
923.984	3264
924.092	3112
924.201	3195
924.309	3199
924.417	3230
924.525	3195
924.633	3249
924.741	4169
924.849	3043
924.956	3260
925.064	3108
925.172	3051
925.279	3089
925.387	3188
925.494	3222
925.602	3332
925.709	3340
925.816	3188
925.924	3260
926.031	3359
926.138	3340
926.245	3329
926.352	3272
926.459	3431
926.566	3477
926.673	3279
926.779	3245
926.886	3188
926.993	3161
927.099	3112
927.206	3123
927.312	3108
927.419	3237
927.525	3218
927.631	3249
927.737	3146
927.843	3119
927.95	3051
928.056	3142
928.162	3161
928.267	3253
928.373	3865
928.479	3298
928.585	3074
928.69	3226
928.796	3253
928.901	3180
929.007	3036
929.112	3188
929.218	3165
929.323	3123
929.428	3112
929.533	3336
929.638	3100
929.743	3142
929.848	3253
929.953	3199
930.058	3150
930.163	2986
930.267	3036
930.372	3195
930.477	3024
930.581	3268
930.685	3188
930.79	3047
930.894	3142
930.998	3077
931.103	3294
931.207	2925
931.311	2895
931.415	2944
931.519	2777
931.623	2826
