Data from test_V78500241_375.txt Node
Date: Fri Mar 25 16:17:48 CST 2022
User: usil
Spectrometer: V785-0024
Trigger mode: 0
Integration Time (sec): 4.000000E-1
Scans to average: 1
Nonlinearity correction enabled: false
Boxcar width: 0
Storing dark spectrum: false
XAxis mode: Wavelengths
Number of Pixels in Spectrum: 1024
>>>>>Begin Spectral Data<<<<<
801.071	2925
801.214	2952
801.356	2910
801.499	2895
801.641	2902
801.783	2944
801.926	3039
802.068	3017
802.211	3036
802.353	3077
802.496	2944
802.638	3043
802.78	3058
802.923	3093
803.065	3024
803.208	2933
803.35	2906
803.492	2937
803.635	2944
803.777	2807
803.919	2864
804.061	3176
804.204	2937
804.346	2895
804.488	2857
804.63	2971
804.773	2868
804.915	2922
805.057	3097
805.199	2941
805.341	2990
805.483	3039
805.626	3028
805.768	2982
805.91	3085
806.052	3081
806.194	3047
806.336	3256
806.478	3028
806.62	2982
806.762	3001
806.904	3028
807.046	3154
807.188	2986
807.33	2937
807.472	2982
807.614	2895
807.756	2986
807.898	2922
808.04	2906
808.182	2990
808.324	2918
808.465	2880
808.607	2887
808.749	2773
808.891	2861
809.033	2971
809.174	2975
809.316	2906
809.458	2887
809.6	2785
809.741	2777
809.883	2785
810.025	2864
810.166	2853
810.308	2845
810.45	2853
810.591	2773
810.733	2773
810.875	2834
811.016	2746
811.158	2735
811.299	2804
811.441	2941
811.582	2922
811.724	2807
811.865	2819
812.007	2880
812.148	2861
812.29	2807
812.431	2876
812.573	2925
812.714	2948
812.855	3051
812.997	3089
813.138	3123
813.279	2994
813.421	2952
813.562	2925
813.703	2857
813.845	2891
813.986	2788
814.127	2739
814.268	2807
814.41	2834
814.551	2823
814.692	2868
814.833	2819
814.974	2876
815.115	2975
815.256	2807
815.397	2804
815.539	2861
815.68	2773
815.821	2762
815.962	2918
816.103	2914
816.244	2849
816.385	2864
816.526	2971
816.666	2906
816.807	2720
816.948	2872
817.089	2906
817.23	2842
817.371	2777
817.512	2758
817.653	2823
817.793	2800
817.934	2864
818.075	2948
818.216	3024
818.356	3024
818.497	2895
818.638	2781
818.778	2811
818.919	2788
819.06	2750
819.2	2880
819.341	2792
819.481	2830
819.622	2914
819.762	3138
819.903	3032
820.043	2937
820.184	2963
820.324	2883
820.465	3051
820.605	3077
820.746	3055
820.886	2925
821.026	3097
821.167	3207
821.307	3256
821.447	3298
821.588	3249
821.728	3188
821.868	3195
822.008	3097
822.149	3222
822.289	3256
822.429	3097
822.569	3127
822.709	3222
822.849	3055
822.99	3077
823.13	3184
823.27	3256
823.41	3131
823.55	3192
823.69	3169
823.83	3233
823.97	3093
824.11	3009
824.25	3020
824.389	3062
824.529	3192
824.669	3085
824.809	3211
824.949	3302
825.089	3272
825.228	3207
825.368	3074
825.508	3009
825.648	3001
825.787	3081
825.927	3051
826.067	2998
826.206	3009
826.346	3093
826.485	3116
826.625	3146
826.765	3272
826.904	3237
827.044	3020
827.183	2948
827.323	2880
827.462	3051
827.601	2929
827.741	2937
827.88	3005
828.02	2895
828.159	3005
828.298	3074
828.437	3138
828.577	3047
828.716	3253
828.855	3146
828.994	2956
829.134	2933
829.273	2982
829.412	2883
829.551	2918
829.69	2906
829.829	2986
829.968	3142
830.107	3036
830.246	3047
830.385	2941
830.524	2910
830.663	2857
830.802	2769
830.941	2689
831.08	2678
831.219	2804
831.357	2785
831.496	2975
831.635	2796
831.774	2686
831.913	2697
832.051	2575
832.19	2636
832.329	2705
832.467	2556
832.606	2537
832.744	2632
832.883	2640
833.022	2655
833.16	2651
833.299	2731
833.437	2735
833.576	2731
833.714	2792
833.852	2777
833.991	2811
834.129	2857
834.267	2868
834.406	2830
834.544	2902
834.682	2891
834.821	2922
834.959	3108
835.097	2944
835.235	3097
835.373	3043
835.511	3043
835.65	3005
835.788	2998
835.926	2857
836.064	2845
836.202	2899
836.34	3135
836.478	3173
836.615	3051
836.753	3180
836.891	3237
837.029	3222
837.167	3131
837.305	3112
837.443	3066
837.58	2998
837.718	3142
837.856	3081
837.993	3070
838.131	3119
838.269	3131
838.406	3127
838.544	3116
838.681	2979
838.819	2941
838.956	2842
839.094	2857
839.231	2963
839.369	3032
839.506	3393
839.643	3214
839.781	3055
839.918	3009
840.055	3108
840.193	3081
840.33	3085
840.467	3184
840.604	3173
840.742	3397
840.879	3074
841.016	3081
841.153	3138
841.29	3344
841.427	3321
841.564	3298
841.701	3367
841.838	3253
841.975	3188
842.112	3233
842.249	3089
842.385	3070
842.522	3260
842.659	3127
842.796	3066
842.933	3116
843.069	3039
843.206	3112
843.343	3207
843.479	3150
843.616	3192
843.752	2933
843.889	2937
844.025	3123
844.162	2895
844.298	3123
844.435	2956
844.571	2952
844.708	3074
844.844	3188
844.98	3241
845.117	3214
845.253	3108
845.389	3043
845.525	3119
845.661	3119
845.798	3036
845.934	3146
846.07	3066
846.206	3245
846.342	3313
846.478	3283
846.614	3097
846.75	3104
846.886	3039
847.022	3306
847.158	3150
847.294	3214
847.429	3275
847.565	3260
847.701	3500
847.837	3036
847.972	3036
848.108	3157
848.244	3165
848.379	3001
848.515	2941
848.65	2956
848.786	3017
848.921	3055
849.057	3146
849.192	3184
849.328	3123
849.463	3123
849.598	3077
849.734	3047
849.869	3039
850.004	2971
850.14	3017
850.275	2944
850.41	2853
850.545	2910
850.68	2963
850.815	2986
850.95	2986
851.085	3218
851.22	3138
851.355	3043
851.49	3001
851.625	2998
851.76	3039
851.895	2933
852.03	2910
852.165	3036
852.299	3135
852.434	3253
852.569	3142
852.703	3207
852.838	3291
852.973	3359
853.107	3325
853.242	3180
853.376	3104
853.511	2979
853.645	3074
853.78	3245
853.914	3161
854.048	3154
854.183	3104
854.317	3184
854.451	3336
854.585	3146
854.72	3100
854.854	3230
854.988	3089
855.122	3077
855.256	2986
855.39	3169
855.524	3268
855.658	3195
855.792	3188
855.926	3230
856.06	3253
856.194	3291
856.327	3184
856.461	3097
856.595	3097
856.729	3108
856.862	3245
856.996	3218
857.13	3214
857.263	3260
857.397	3275
857.53	3097
857.664	3207
857.797	3264
857.931	3283
858.064	3180
858.197	3199
858.331	3157
858.464	3104
858.597	3039
858.731	3165
858.864	3165
858.997	3135
859.13	3154
859.263	3222
859.396	3176
859.529	3119
859.662	3123
859.795	3131
859.928	3131
860.061	3291
860.194	3294
860.327	3169
860.46	3119
860.592	3211
860.725	3287
860.858	3237
860.99	3135
861.123	3074
861.256	3047
861.388	3157
861.521	3857
861.653	3043
861.786	3013
861.918	3017
862.05	3024
862.183	3077
862.315	3176
862.447	3222
862.58	3093
862.712	2998
862.844	2887
862.976	3043
863.108	3047
863.24	3424
863.372	2914
863.504	2986
863.636	2948
863.768	3074
863.9	2979
864.032	2937
864.164	2990
864.296	3051
864.428	3097
864.559	3112
864.691	3070
864.823	3104
864.954	3047
865.086	3077
865.217	3036
865.349	2937
865.48	3020
865.612	3036
865.743	3176
865.875	3024
866.006	2933
866.137	2975
866.269	2971
866.4	2910
866.531	2914
866.662	2883
866.793	2925
866.924	2914
867.055	3009
867.186	2937
867.317	2906
867.448	2845
867.579	2868
867.71	2876
867.841	2830
867.972	2918
868.103	2914
868.233	2902
868.364	2880
868.495	2963
868.625	3123
868.756	3192
868.886	2994
869.017	3066
869.147	3195
869.278	3184
869.408	3047
869.539	3036
869.669	3119
869.799	3047
869.929	3138
870.06	3176
870.19	3359
870.32	3310
870.45	3329
870.58	3409
870.71	3424
870.84	3481
870.97	3332
871.1	3294
871.23	3481
871.36	3454
871.489	3344
871.619	3386
871.749	3424
871.879	3447
872.008	3507
872.138	3374
872.267	3306
872.397	3142
872.526	3093
872.656	3013
872.785	3104
872.915	3272
873.044	3306
873.173	3230
873.303	3230
873.432	3256
873.561	3241
873.69	3192
873.819	3146
873.948	3184
874.077	3100
874.206	3055
874.335	3089
874.464	3241
874.593	3374
874.722	3230
874.851	3389
874.979	3370
875.108	3351
875.237	3218
875.365	3157
875.494	3165
875.623	3233
875.751	3085
875.88	3157
876.008	3226
876.136	3241
876.265	3401
876.393	3530
876.521	3443
876.65	3409
876.778	3393
876.906	3253
877.034	3199
877.162	3214
877.29	3211
877.418	3256
877.546	3264
877.674	3264
877.802	3195
877.93	3207
878.058	3188
878.185	3112
878.313	3241
878.441	3199
878.568	3066
878.696	3180
878.824	3283
878.951	3325
879.079	3447
879.206	3644
879.333	3424
879.461	3329
879.588	3393
879.715	3481
879.842	3610
879.97	3348
880.097	3192
880.224	3161
880.351	3253
880.478	3317
880.605	3230
880.732	3211
880.859	3530
880.986	3294
881.112	3367
881.239	3207
881.366	3100
881.493	3062
881.619	3039
881.746	3097
881.872	3108
881.999	3116
882.125	3131
882.252	3245
882.378	3298
882.505	3473
882.631	3291
882.757	3176
882.883	3233
883.01	3264
883.136	3176
883.262	3108
883.388	3108
883.514	3287
883.64	3401
883.766	3298
883.892	3154
884.018	3275
884.143	3443
884.269	3561
884.395	3222
884.52	3192
884.646	3207
884.772	3150
884.897	3119
885.023	3241
885.148	3370
885.274	3481
885.399	3435
885.524	3264
885.65	3291
885.775	3321
885.9	3306
886.025	3454
886.15	3378
886.275	3332
886.4	3268
886.525	3294
886.65	3302
886.775	3264
886.9	3450
887.025	3618
887.149	3466
887.274	3249
887.399	3138
887.523	3218
887.648	3192
887.773	3161
887.897	3386
888.021	3424
888.146	3313
888.27	3477
888.395	3519
888.519	3447
888.643	3458
888.767	3462
888.891	3313
889.015	3253
889.139	3291
889.263	3222
889.387	3397
889.511	3500
889.635	3454
889.759	3332
889.883	3287
890.006	3389
890.13	3496
890.254	3283
890.377	3378
890.501	3222
890.624	3214
890.748	3313
890.871	3173
890.995	3131
891.118	3024
891.241	3192
891.364	3249
891.488	3317
891.611	3203
891.734	3222
891.857	3313
891.98	3260
892.103	3332
892.226	3306
892.349	3256
892.471	3127
892.594	3260
892.717	3249
892.839	3260
892.962	3298
893.085	3378
893.207	3298
893.33	3142
893.452	3214
893.575	3359
893.697	3237
893.819	3473
893.941	3473
894.064	3469
894.186	3268
894.308	3253
894.43	3481
894.552	3553
894.674	3462
894.796	3279
894.918	3321
895.04	3302
895.161	3409
895.283	3378
895.405	3344
895.526	3374
895.648	3450
895.769	3435
895.891	3507
896.012	3485
896.134	3458
896.255	3420
896.376	3401
896.498	3401
896.619	3416
896.74	3359
896.861	3359
896.982	3713
897.103	3876
897.224	3610
897.345	3507
897.466	3488
897.587	3511
897.708	3606
897.828	3549
897.949	3454
898.07	3344
898.19	3420
898.311	3595
898.431	3462
898.552	3538
898.672	3599
898.792	3511
898.913	3534
899.033	3450
899.153	3310
899.273	3241
899.393	3310
899.513	3321
899.633	3302
899.753	3325
899.873	3249
899.993	3363
900.113	3348
900.232	3428
900.352	3313
900.472	3321
900.591	3237
900.711	3264
900.83	3222
900.95	3439
901.069	3477
901.189	3367
901.308	3199
901.427	3161
901.546	3188
901.665	3287
901.784	3340
901.904	3199
902.023	3173
902.141	3036
902.26	3005
902.379	3150
902.498	3119
902.617	3066
902.735	3230
902.854	3253
902.973	3173
903.091	3047
903.21	3074
903.328	3116
903.446	3116
903.565	3119
903.683	3188
903.801	3131
903.919	3241
904.038	3294
904.156	3169
904.274	3264
904.392	3272
904.51	3287
904.627	3336
904.745	3416
904.863	3485
904.981	3226
905.098	3176
905.216	3195
905.334	3310
905.451	3302
905.569	3310
905.686	3431
905.803	3469
905.921	3256
906.038	3450
906.155	3389
906.272	3325
906.389	3340
906.506	3195
906.623	3253
906.74	3302
906.857	3184
906.974	3218
907.091	3409
907.208	3610
907.324	3485
907.441	3393
907.557	3260
907.674	3283
907.79	3195
907.907	3249
908.023	3355
908.139	3378
908.256	3336
908.372	3340
908.488	3325
908.604	3272
908.72	3237
908.836	3294
908.952	3253
909.068	3378
909.184	3488
909.3	3416
909.415	3469
909.531	3458
909.647	3294
909.762	3283
909.878	3287
909.993	3348
910.108	3359
910.224	3321
910.339	3412
910.454	3336
910.57	3287
910.685	3264
910.8	3538
910.915	3557
911.03	3431
911.145	3275
911.259	3275
911.374	3310
911.489	3226
911.604	3264
911.718	3123
911.833	3169
911.947	3024
912.062	3005
912.176	3176
912.291	3249
912.405	3222
912.519	3485
912.633	3458
912.748	3336
912.862	3249
912.976	3142
913.09	3062
913.204	3138
913.318	3253
913.431	3351
913.545	3325
913.659	3389
913.772	3325
913.886	3233
914	3226
914.113	3355
914.226	3450
914.34	3370
914.453	3268
914.566	3431
914.68	3302
914.793	3332
914.906	3112
915.019	3135
915.132	3112
915.245	3173
915.358	3211
915.47	3237
915.583	3283
915.696	3279
915.809	3412
915.921	3439
916.034	3256
916.146	3302
916.259	3226
916.371	3382
916.483	3393
916.595	3226
916.708	3344
916.82	3336
916.932	3329
917.044	3317
917.156	3313
917.268	3211
917.38	3336
917.491	3310
917.603	3363
917.715	3450
917.826	3462
917.938	3397
918.049	3264
918.161	3447
918.272	3549
918.384	3591
918.495	3500
918.606	3325
918.717	3294
918.828	3389
918.939	3424
919.05	3321
919.161	3348
919.272	3195
919.383	3260
919.494	3473
919.604	3682
919.715	3469
919.826	3428
919.936	3469
920.047	3568
920.157	3523
920.267	3785
920.378	3599
920.488	3580
920.598	3778
920.708	3956
920.818	3812
920.928	3827
921.038	4021
921.148	3987
921.258	3724
921.368	3641
921.477	3549
921.587	3542
921.697	3458
921.806	3580
921.916	3504
922.025	3340
922.134	3393
922.244	3325
922.353	3466
922.462	3237
922.571	3283
922.68	3119
922.789	3074
922.898	3169
923.007	3119
923.116	3195
923.224	3192
923.333	3161
923.442	3131
923.55	3062
923.659	3138
923.767	3188
923.876	3123
923.984	3279
924.092	3131
924.201	3195
924.309	3195
924.417	3241
924.525	3192
924.633	3230
924.741	4185
924.849	3017
924.956	3294
925.064	3085
925.172	3051
925.279	3112
925.387	3184
925.494	3203
925.602	3355
925.709	3313
925.816	3195
925.924	3283
926.031	3374
926.138	3351
926.245	3336
926.352	3222
926.459	3393
926.566	3466
926.673	3351
926.779	3241
926.886	3245
926.993	3165
927.099	3131
927.206	3097
927.312	3093
927.419	3268
927.525	3218
927.631	3283
927.737	3142
927.843	3165
927.95	3039
928.056	3165
928.162	3157
928.267	3260
928.373	3899
928.479	3298
928.585	3127
928.69	3199
928.796	3283
928.901	3165
929.007	3055
929.112	3245
929.218	3150
929.323	3127
929.428	3161
929.533	3310
929.638	3135
929.743	3150
929.848	3256
929.953	3188
930.058	3135
930.163	2990
930.267	3081
930.372	3188
930.477	3013
930.581	3325
930.685	3180
930.79	3066
930.894	3123
930.998	3112
931.103	3306
931.207	2971
931.311	2933
931.415	2891
931.519	2796
931.623	2819
