Data from test_V78500241_1262.txt Node
Date: Fri Mar 25 16:23:56 CST 2022
User: usil
Spectrometer: V785-0024
Trigger mode: 0
Integration Time (sec): 4.000000E-1
Scans to average: 1
Nonlinearity correction enabled: false
Boxcar width: 0
Storing dark spectrum: false
XAxis mode: Wavelengths
Number of Pixels in Spectrum: 1024
>>>>>Begin Spectral Data<<<<<
801.071	2952
801.214	2895
801.356	2838
801.499	2891
801.641	2887
801.783	2929
801.926	3017
802.068	3005
802.211	2975
802.353	3009
802.496	2963
802.638	2982
802.78	3039
802.923	3093
803.065	2979
803.208	2887
803.35	2895
803.492	2971
803.635	2918
803.777	2762
803.919	2857
804.061	3230
804.204	2876
804.346	2880
804.488	2800
804.63	2990
804.773	2864
804.915	2899
805.057	3089
805.199	2906
805.341	2979
805.483	2990
805.626	3024
805.768	2944
805.91	3062
806.052	3116
806.194	3058
806.336	3237
806.478	3009
806.62	2937
806.762	2979
806.904	3028
807.046	3138
807.188	2979
807.33	2891
807.472	3005
807.614	2906
807.756	3005
807.898	2899
808.04	2918
808.182	2986
808.324	2895
808.465	2872
808.607	2838
808.749	2804
808.891	2857
809.033	2960
809.174	2982
809.316	2880
809.458	2868
809.6	2773
809.741	2777
809.883	2735
810.025	2811
810.166	2845
810.308	2845
810.45	2895
810.591	2823
810.733	2746
810.875	2807
811.016	2750
811.158	2762
811.299	2743
811.441	2925
811.582	2895
811.724	2823
811.865	2815
812.007	2895
812.148	2872
812.29	2815
812.431	2880
812.573	2941
812.714	2952
812.855	3032
812.997	3024
813.138	3085
813.279	3043
813.421	2967
813.562	2967
813.703	2830
813.845	2876
813.986	2754
814.127	2766
814.268	2788
814.41	2857
814.551	2811
814.692	2857
814.833	2826
814.974	2880
815.115	2948
815.256	2819
815.397	2834
815.539	2849
815.68	2762
815.821	2773
815.962	2960
816.103	2925
816.244	2849
816.385	2861
816.526	2960
816.666	2899
816.807	2758
816.948	2876
817.089	2883
817.23	2845
817.371	2773
817.512	2777
817.653	2849
817.793	2857
817.934	2880
818.075	2963
818.216	2963
818.356	3043
818.497	2895
818.638	2766
818.778	2823
818.919	2788
819.06	2743
819.2	2895
819.341	2796
819.481	2804
819.622	2925
819.762	3081
819.903	3028
820.043	2902
820.184	2895
820.324	2883
820.465	2967
820.605	3005
820.746	3028
820.886	2952
821.026	3093
821.167	3165
821.307	3294
821.447	3260
821.588	3249
821.728	3218
821.868	3173
822.008	3058
822.149	3150
822.289	3249
822.429	3089
822.569	3066
822.709	3195
822.849	3017
822.99	3093
823.13	3161
823.27	3165
823.41	3135
823.55	3142
823.69	3184
823.83	3214
823.97	3116
824.11	3017
824.25	2944
824.389	3074
824.529	3138
824.669	3051
824.809	3184
824.949	3218
825.089	3184
825.228	3150
825.368	2994
825.508	2956
825.648	2937
825.787	2982
825.927	3005
826.067	3009
826.206	2967
826.346	2998
826.485	3039
826.625	3093
826.765	3237
826.904	3226
827.044	2986
827.183	2922
827.323	2857
827.462	2971
827.601	2910
827.741	2906
827.88	2914
828.02	2842
828.159	2975
828.298	3020
828.437	3100
828.577	3024
828.716	3241
828.855	3055
828.994	2902
829.134	2849
829.273	2910
829.412	2880
829.551	2842
829.69	2864
829.829	2975
829.968	3100
830.107	3009
830.246	3024
830.385	2906
830.524	2868
830.663	2830
830.802	2746
830.941	2640
831.08	2640
831.219	2796
831.357	2716
831.496	2933
831.635	2716
831.774	2640
831.913	2655
832.051	2541
832.19	2575
832.329	2674
832.467	2499
832.606	2495
832.744	2549
832.883	2590
833.022	2587
833.16	2648
833.299	2655
833.437	2663
833.576	2693
833.714	2705
833.852	2716
833.991	2785
834.129	2823
834.267	2826
834.406	2781
834.544	2880
834.682	2883
834.821	2853
834.959	3066
835.097	2887
835.235	3039
835.373	2994
835.511	2960
835.65	2963
835.788	2906
835.926	2826
836.064	2823
836.202	2830
836.34	3070
836.478	3154
836.615	2998
836.753	3154
836.891	3203
837.029	3131
837.167	3108
837.305	3051
837.443	3043
837.58	2929
837.718	3142
837.856	3051
837.993	2998
838.131	3100
838.269	3123
838.406	3138
838.544	3108
838.681	2941
838.819	2887
838.956	2807
839.094	2830
839.231	2914
839.369	2998
839.506	3340
839.643	3214
839.781	2998
839.918	2948
840.055	3020
840.193	3100
840.33	3055
840.467	3085
840.604	3131
840.742	3389
840.879	3062
841.016	3032
841.153	3085
841.29	3317
841.427	3272
841.564	3245
841.701	3306
841.838	3173
841.975	3195
842.112	3226
842.249	3058
842.385	3017
842.522	3241
842.659	3108
842.796	3028
842.933	3093
843.069	3039
843.206	3024
843.343	3169
843.479	3093
843.616	3089
843.752	2876
843.889	2845
844.025	3039
844.162	2876
844.298	3066
844.435	2914
844.571	2899
844.708	3070
844.844	3207
844.98	3241
845.117	3173
845.253	3024
845.389	2994
845.525	3089
845.661	3089
845.798	2982
845.934	3081
846.07	3062
846.206	3173
846.342	3306
846.478	3233
846.614	3077
846.75	3055
846.886	3032
847.022	3245
847.158	3119
847.294	3203
847.429	3218
847.565	3192
847.701	3469
847.837	3013
847.972	2948
848.108	3127
848.244	3131
848.379	2952
848.515	2910
848.65	2925
848.786	2971
848.921	3020
849.057	3131
849.192	3176
849.328	3081
849.463	3074
849.598	3043
849.734	3051
849.869	2952
850.004	2887
850.14	2941
850.275	2880
850.41	2819
850.545	2880
850.68	2899
850.815	2952
850.95	2952
851.085	3188
851.22	3085
851.355	3028
851.49	2975
851.625	2998
851.76	2994
851.895	2952
852.03	2891
852.165	3032
852.299	3116
852.434	3176
852.569	3142
852.703	3150
852.838	3222
852.973	3329
853.107	3332
853.242	3161
853.376	3077
853.511	2979
853.645	3020
853.78	3237
853.914	3119
854.048	3093
854.183	3070
854.317	3142
854.451	3306
854.585	3100
854.72	3058
854.854	3218
854.988	3017
855.122	3066
855.256	2990
855.39	3123
855.524	3203
855.658	3169
855.792	3112
855.926	3169
856.06	3207
856.194	3253
856.327	3142
856.461	3058
856.595	3058
856.729	3100
856.862	3199
856.996	3154
857.13	3184
857.263	3230
857.397	3268
857.53	3093
857.664	3169
857.797	3195
857.931	3241
858.064	3150
858.197	3222
858.331	3131
858.464	3108
858.597	2941
858.731	3074
858.864	3119
858.997	3100
859.13	3165
859.263	3169
859.396	3150
859.529	3058
859.662	3043
859.795	3013
859.928	3150
860.061	3245
860.194	3279
860.327	3161
860.46	3085
860.592	3256
860.725	3249
860.858	3226
860.99	3081
861.123	3077
861.256	3081
861.388	3142
861.521	3736
861.653	3001
861.786	2994
861.918	2990
862.05	3047
862.183	3074
862.315	3131
862.447	3180
862.58	3070
862.712	2960
862.844	2891
862.976	2998
863.108	3005
863.24	3302
863.372	2902
863.504	2956
863.636	2975
863.768	3024
863.9	2944
864.032	2845
864.164	2933
864.296	3020
864.428	3055
864.559	3097
864.691	3081
864.823	3093
864.954	3028
865.086	3009
865.217	2960
865.349	2948
865.48	2990
865.612	2986
865.743	3150
865.875	2948
866.006	2948
866.137	2982
866.269	2982
866.4	2933
866.531	2914
866.662	2861
866.793	2880
866.924	2910
867.055	2956
867.186	2902
867.317	2853
867.448	2804
867.579	2853
867.71	2838
867.841	2769
867.972	2902
868.103	2883
868.233	2895
868.364	2864
868.495	2861
868.625	3051
868.756	3150
868.886	2967
869.017	2986
869.147	3150
869.278	3199
869.408	3039
869.539	3024
869.669	3093
869.799	3020
869.929	3097
870.06	3097
870.19	3302
870.32	3253
870.45	3294
870.58	3321
870.71	3416
870.84	3409
870.97	3268
871.1	3241
871.23	3477
871.36	3443
871.489	3329
871.619	3359
871.749	3389
871.879	3424
872.008	3504
872.138	3374
872.267	3268
872.397	3146
872.526	3089
872.656	3009
872.785	3081
872.915	3199
873.044	3302
873.173	3169
873.303	3253
873.432	3211
873.561	3226
873.69	3165
873.819	3112
873.948	3180
874.077	3100
874.206	3039
874.335	3062
874.464	3192
874.593	3306
874.722	3268
874.851	3386
874.979	3332
875.108	3272
875.237	3154
875.365	3116
875.494	3157
875.623	3203
875.751	3062
875.88	3074
876.008	3131
876.136	3214
876.265	3386
876.393	3473
876.521	3382
876.65	3359
876.778	3355
876.906	3253
877.034	3154
877.162	3192
877.29	3135
877.418	3233
877.546	3192
877.674	3233
877.802	3230
877.93	3211
878.058	3157
878.185	3077
878.313	3192
878.441	3203
878.568	3039
878.696	3154
878.824	3241
878.951	3294
879.079	3447
879.206	3542
879.333	3405
879.461	3325
879.588	3359
879.715	3466
879.842	3553
879.97	3359
880.097	3135
880.224	3131
880.351	3135
880.478	3207
880.605	3218
880.732	3169
880.859	3477
880.986	3264
881.112	3329
881.239	3169
881.366	3036
881.493	3039
881.619	3009
881.746	3051
881.872	3077
881.999	3066
882.125	3142
882.252	3241
882.378	3253
882.505	3420
882.631	3249
882.757	3112
882.883	3218
883.01	3146
883.136	3131
883.262	3070
883.388	3089
883.514	3325
883.64	3359
883.766	3321
883.892	3169
884.018	3233
884.143	3416
884.269	3507
884.395	3199
884.52	3157
884.646	3199
884.772	3127
884.897	3104
885.023	3211
885.148	3313
885.274	3348
885.399	3351
885.524	3268
885.65	3249
885.775	3329
885.9	3260
886.025	3405
886.15	3374
886.275	3279
886.4	3195
886.525	3260
886.65	3241
886.775	3256
886.9	3431
887.025	3553
887.149	3393
887.274	3230
887.399	3138
887.523	3173
887.648	3176
887.773	3138
887.897	3336
888.021	3389
888.146	3275
888.27	3389
888.395	3477
888.519	3416
888.643	3462
888.767	3439
888.891	3321
889.015	3211
889.139	3268
889.263	3310
889.387	3405
889.511	3492
889.635	3428
889.759	3272
889.883	3283
890.006	3435
890.13	3500
890.254	3279
890.377	3344
890.501	3203
890.624	3211
890.748	3291
890.871	3214
890.995	3108
891.118	3077
891.241	3249
891.364	3249
891.488	3329
891.611	3192
891.734	3279
891.857	3317
891.98	3249
892.103	3355
892.226	3321
892.349	3249
892.471	3169
892.594	3253
892.717	3306
892.839	3306
892.962	3313
893.085	3412
893.207	3317
893.33	3195
893.452	3256
893.575	3363
893.697	3302
893.819	3462
893.941	3511
894.064	3507
894.186	3310
894.308	3287
894.43	3462
894.552	3603
894.674	3511
894.796	3317
894.918	3363
895.04	3332
895.161	3447
895.283	3424
895.405	3367
895.526	3420
895.648	3519
895.769	3466
895.891	3431
896.012	3538
896.134	3515
896.255	3458
896.376	3409
896.498	3424
896.619	3447
896.74	3393
896.861	3447
896.982	3709
897.103	3922
897.224	3633
897.345	3526
897.466	3450
897.587	3526
897.708	3648
897.828	3580
897.949	3447
898.07	3344
898.19	3477
898.311	3660
898.431	3504
898.552	3515
898.672	3671
898.792	3595
898.913	3564
899.033	3473
899.153	3321
899.273	3253
899.393	3306
899.513	3329
899.633	3355
899.753	3363
899.873	3329
899.993	3492
900.113	3393
900.232	3447
900.352	3401
900.472	3317
900.591	3218
900.711	3367
900.83	3279
900.95	3485
901.069	3526
901.189	3424
901.308	3222
901.427	3150
901.546	3226
901.665	3329
901.784	3397
901.904	3214
902.023	3184
902.141	3028
902.26	3039
902.379	3161
902.498	3116
902.617	3100
902.735	3226
902.854	3275
902.973	3233
903.091	3066
903.21	3051
903.328	3173
903.446	3138
903.565	3127
903.683	3222
903.801	3173
903.919	3272
904.038	3275
904.156	3173
904.274	3336
904.392	3287
904.51	3332
904.627	3351
904.745	3473
904.863	3523
904.981	3310
905.098	3180
905.216	3268
905.334	3351
905.451	3283
905.569	3302
905.686	3511
905.803	3462
905.921	3378
906.038	3454
906.155	3382
906.272	3283
906.389	3340
906.506	3233
906.623	3264
906.74	3294
906.857	3188
906.974	3283
907.091	3450
907.208	3599
907.324	3496
907.441	3439
907.557	3226
907.674	3245
907.79	3268
907.907	3287
908.023	3420
908.139	3431
908.256	3393
908.372	3416
908.488	3386
908.604	3272
908.72	3275
908.836	3329
908.952	3291
909.068	3351
909.184	3504
909.3	3424
909.415	3481
909.531	3534
909.647	3348
909.762	3313
909.878	3294
909.993	3416
910.108	3370
910.224	3370
910.339	3481
910.454	3355
910.57	3348
910.685	3260
910.8	3595
910.915	3591
911.03	3466
911.145	3294
911.259	3348
911.374	3359
911.489	3298
911.604	3245
911.718	3169
911.833	3165
911.947	3066
912.062	3043
912.176	3173
912.291	3230
912.405	3214
912.519	3496
912.633	3496
912.748	3336
912.862	3298
912.976	3184
913.09	3123
913.204	3146
913.318	3283
913.431	3374
913.545	3363
913.659	3424
913.772	3329
913.886	3268
914	3226
914.113	3393
914.226	3435
914.34	3386
914.453	3256
914.566	3443
914.68	3321
914.793	3378
914.906	3222
915.019	3157
915.132	3123
915.245	3207
915.358	3233
915.47	3298
915.583	3298
915.696	3317
915.809	3443
915.921	3416
916.034	3275
916.146	3272
916.259	3245
916.371	3405
916.483	3359
916.595	3306
916.708	3321
916.82	3374
916.932	3351
917.044	3344
917.156	3397
917.268	3279
917.38	3313
917.491	3313
917.603	3386
917.715	3462
917.826	3447
917.938	3435
918.049	3302
918.161	3466
918.272	3580
918.384	3561
918.495	3511
918.606	3367
918.717	3310
918.828	3389
918.939	3466
919.05	3313
919.161	3424
919.272	3203
919.383	3355
919.494	3485
919.604	3667
919.715	3500
919.826	3428
919.936	3473
920.047	3629
920.157	3606
920.267	3766
920.378	3618
920.488	3644
920.598	3831
920.708	3975
920.818	3907
920.928	3869
921.038	4074
921.148	3987
921.258	3762
921.368	3671
921.477	3595
921.587	3580
921.697	3500
921.806	3652
921.916	3584
922.025	3382
922.134	3401
922.244	3317
922.353	3439
922.462	3329
922.571	3245
922.68	3146
922.789	3093
922.898	3154
923.007	3131
923.116	3249
923.224	3161
923.333	3207
923.442	3108
923.55	3108
923.659	3180
923.767	3233
923.876	3165
923.984	3222
924.092	3123
924.201	3222
924.309	3222
924.417	3272
924.525	3203
924.633	3256
924.741	4059
924.849	3062
924.956	3317
925.064	3112
925.172	3085
925.279	3142
925.387	3214
925.494	3211
925.602	3389
925.709	3340
925.816	3237
925.924	3313
926.031	3412
926.138	3348
926.245	3397
926.352	3241
926.459	3420
926.566	3469
926.673	3332
926.779	3291
926.886	3287
926.993	3169
927.099	3173
927.206	3138
927.312	3154
927.419	3245
927.525	3230
927.631	3260
927.737	3180
927.843	3119
927.95	3017
928.056	3192
928.162	3211
928.267	3272
928.373	3896
928.479	3306
928.585	3062
928.69	3195
928.796	3283
928.901	3161
929.007	3077
929.112	3211
929.218	3241
929.323	3142
929.428	3173
929.533	3348
929.638	3146
929.743	3173
929.848	3279
929.953	3253
930.058	3142
930.163	3051
930.267	3043
930.372	3249
930.477	3058
930.581	3291
930.685	3214
930.79	3058
930.894	3135
930.998	3116
931.103	3283
931.207	3032
931.311	2971
931.415	2891
931.519	2849
931.623	2830
