Data from test_V78500241_1394.txt Node
Date: Fri Mar 25 16:24:51 CST 2022
User: usil
Spectrometer: V785-0024
Trigger mode: 0
Integration Time (sec): 4.000000E-1
Scans to average: 1
Nonlinearity correction enabled: false
Boxcar width: 0
Storing dark spectrum: false
XAxis mode: Wavelengths
Number of Pixels in Spectrum: 1024
>>>>>Begin Spectral Data<<<<<
801.071	2910
801.214	2952
801.356	2857
801.499	2849
801.641	2849
801.783	2902
801.926	3017
802.068	2971
802.211	2944
802.353	3017
802.496	2952
802.638	2982
802.78	3032
802.923	3070
803.065	2979
803.208	2861
803.35	2922
803.492	2914
803.635	2948
803.777	2731
803.919	2853
804.061	3161
804.204	2933
804.346	2853
804.488	2838
804.63	2986
804.773	2864
804.915	2883
805.057	3077
805.199	2902
805.341	2975
805.483	2998
805.626	2998
805.768	2956
805.91	3085
806.052	3093
806.194	3032
806.336	3230
806.478	3017
806.62	2952
806.762	2971
806.904	3077
807.046	3165
807.188	2933
807.33	2895
807.472	2948
807.614	2864
807.756	2963
807.898	2922
808.04	2895
808.182	2971
808.324	2952
808.465	2883
808.607	2899
808.749	2792
808.891	2849
809.033	2948
809.174	2960
809.316	2883
809.458	2861
809.6	2758
809.741	2773
809.883	2762
810.025	2883
810.166	2849
810.308	2838
810.45	2834
810.591	2735
810.733	2762
810.875	2819
811.016	2769
811.158	2743
811.299	2819
811.441	2902
811.582	2910
811.724	2800
811.865	2834
812.007	2922
812.148	2868
812.29	2849
812.431	2853
812.573	2933
812.714	2982
812.855	3013
812.997	3039
813.138	3127
813.279	2967
813.421	2971
813.562	2922
813.703	2880
813.845	2853
813.986	2785
814.127	2724
814.268	2785
814.41	2830
814.551	2781
814.692	2864
814.833	2769
814.974	2883
815.115	2967
815.256	2811
815.397	2781
815.539	2826
815.68	2750
815.821	2819
815.962	2929
816.103	2944
816.244	2842
816.385	2842
816.526	2944
816.666	2891
816.807	2735
816.948	2849
817.089	2899
817.23	2830
817.371	2769
817.512	2785
817.653	2857
817.793	2804
817.934	2887
818.075	2925
818.216	3001
818.356	2990
818.497	2834
818.638	2788
818.778	2861
818.919	2800
819.06	2766
819.2	2876
819.341	2807
819.481	2781
819.622	2941
819.762	3077
819.903	3032
820.043	2902
820.184	2895
820.324	2914
820.465	2986
820.605	3005
820.746	3028
820.886	2914
821.026	3112
821.167	3142
821.307	3249
821.447	3268
821.588	3245
821.728	3150
821.868	3218
822.008	3093
822.149	3184
822.289	3218
822.429	3066
822.569	3085
822.709	3173
822.849	3043
822.99	3058
823.13	3161
823.27	3199
823.41	3085
823.55	3150
823.69	3146
823.83	3146
823.97	3100
824.11	3005
824.25	2967
824.389	3081
824.529	3123
824.669	3028
824.809	3161
824.949	3287
825.089	3230
825.228	3142
825.368	2975
825.508	2960
825.648	2982
825.787	2975
825.927	2998
826.067	2963
826.206	2914
826.346	3036
826.485	3055
826.625	3138
826.765	3237
826.904	3176
827.044	2990
827.183	2952
827.323	2845
827.462	2956
827.601	2948
827.741	2906
827.88	2937
828.02	2868
828.159	2944
828.298	3043
828.437	3104
828.577	3032
828.716	3241
828.855	3051
828.994	2910
829.134	2906
829.273	2891
829.412	2868
829.551	2857
829.69	2906
829.829	2956
829.968	3108
830.107	2971
830.246	3020
830.385	2899
830.524	2838
830.663	2845
830.802	2727
830.941	2674
831.08	2644
831.219	2773
831.357	2735
831.496	2941
831.635	2682
831.774	2655
831.913	2648
832.051	2549
832.19	2587
832.329	2678
832.467	2507
832.606	2450
832.744	2606
832.883	2560
833.022	2583
833.16	2640
833.299	2674
833.437	2674
833.576	2674
833.714	2716
833.852	2724
833.991	2758
834.129	2826
834.267	2785
834.406	2788
834.544	2838
834.682	2849
834.821	2880
834.959	3100
835.097	2906
835.235	3051
835.373	2963
835.511	3013
835.65	2937
835.788	2960
835.926	2792
836.064	2796
836.202	2842
836.34	3070
836.478	3127
836.615	3047
836.753	3127
836.891	3180
837.029	3169
837.167	3112
837.305	3066
837.443	3013
837.58	2925
837.718	3131
837.856	3028
837.993	3017
838.131	3119
838.269	3100
838.406	3116
838.544	3085
838.681	2883
838.819	2925
838.956	2834
839.094	2849
839.231	2899
839.369	3020
839.506	3291
839.643	3176
839.781	3005
839.918	2952
840.055	3017
840.193	3055
840.33	3036
840.467	3081
840.604	3127
840.742	3359
840.879	3020
841.016	3013
841.153	3108
841.29	3287
841.427	3287
841.564	3256
841.701	3332
841.838	3195
841.975	3184
842.112	3226
842.249	3062
842.385	3017
842.522	3222
842.659	3085
842.796	3093
842.933	3066
843.069	3039
843.206	3013
843.343	3146
843.479	3093
843.616	3070
843.752	2891
843.889	2815
844.025	3066
844.162	2834
844.298	3074
844.435	2918
844.571	2883
844.708	3055
844.844	3142
844.98	3218
845.117	3188
845.253	3032
845.389	2998
845.525	3055
845.661	3070
845.798	3028
845.934	3074
846.07	3028
846.206	3154
846.342	3313
846.478	3169
846.614	3074
846.75	3032
846.886	3017
847.022	3218
847.158	3089
847.294	3169
847.429	3249
847.565	3184
847.701	3435
847.837	3020
847.972	2982
848.108	3131
848.244	3150
848.379	2979
848.515	2937
848.65	2880
848.786	2925
848.921	3009
849.057	3112
849.192	3165
849.328	3066
849.463	3112
849.598	3070
849.734	3017
849.869	2982
850.004	2929
850.14	2971
850.275	2914
850.41	2830
850.545	2880
850.68	2998
850.815	2963
850.95	2960
851.085	3207
851.22	3135
851.355	3039
851.49	2960
851.625	2982
851.76	3047
851.895	2948
852.03	2963
852.165	3077
852.299	3123
852.434	3169
852.569	3123
852.703	3173
852.838	3249
852.973	3370
853.107	3359
853.242	3142
853.376	3119
853.511	2990
853.645	3062
853.78	3294
853.914	3165
854.048	3135
854.183	3093
854.317	3203
854.451	3302
854.585	3131
854.72	3112
854.854	3199
854.988	3108
855.122	3123
855.256	3028
855.39	3161
855.524	3306
855.658	3211
855.792	3169
855.926	3214
856.06	3260
856.194	3241
856.327	3176
856.461	3104
856.595	3104
856.729	3131
856.862	3268
856.996	3192
857.13	3211
857.263	3226
857.397	3283
857.53	3150
857.664	3237
857.797	3268
857.931	3275
858.064	3214
858.197	3283
858.331	3150
858.464	3157
858.597	2990
858.731	3127
858.864	3154
858.997	3127
859.13	3211
859.263	3173
859.396	3222
859.529	3085
859.662	3123
859.795	3097
859.928	3135
860.061	3283
860.194	3325
860.327	3207
860.46	3127
860.592	3256
860.725	3268
860.858	3306
860.99	3135
861.123	3081
861.256	3047
861.388	3169
861.521	3819
861.653	3047
861.786	3043
861.918	3055
862.05	3085
862.183	3081
862.315	3199
862.447	3233
862.58	3154
862.712	3032
862.844	2922
862.976	3055
863.108	2994
863.24	3355
863.372	2914
863.504	2986
863.636	2929
863.768	3093
863.9	3020
864.032	2948
864.164	2952
864.296	3055
864.428	3131
864.559	3108
864.691	3100
864.823	3093
864.954	3081
865.086	3077
865.217	3024
865.349	2967
865.48	3028
865.612	3039
865.743	3165
865.875	3005
866.006	2941
866.137	2998
866.269	2960
866.4	2986
866.531	2941
866.662	2922
866.793	2910
866.924	2948
867.055	3020
867.186	2967
867.317	2906
867.448	2857
867.579	2891
867.71	2880
867.841	2838
867.972	2925
868.103	2899
868.233	2910
868.364	2914
868.495	2910
868.625	3097
868.756	3184
868.886	2982
869.017	3043
869.147	3199
869.278	3207
869.408	3077
869.539	3039
869.669	3112
869.799	3074
869.929	3150
870.06	3192
870.19	3306
870.32	3340
870.45	3336
870.58	3386
870.71	3443
870.84	3481
870.97	3306
871.1	3272
871.23	3496
871.36	3481
871.489	3367
871.619	3386
871.749	3458
871.879	3477
872.008	3515
872.138	3420
872.267	3283
872.397	3173
872.526	3093
872.656	3055
872.785	3112
872.915	3233
873.044	3344
873.173	3230
873.303	3272
873.432	3249
873.561	3256
873.69	3157
873.819	3176
873.948	3275
874.077	3150
874.206	3043
874.335	3089
874.464	3249
874.593	3386
874.722	3256
874.851	3397
874.979	3355
875.108	3389
875.237	3211
875.365	3157
875.494	3192
875.623	3291
875.751	3100
875.88	3157
876.008	3195
876.136	3222
876.265	3401
876.393	3515
876.521	3496
876.65	3424
876.778	3329
876.906	3294
877.034	3218
877.162	3222
877.29	3211
877.418	3279
877.546	3256
877.674	3264
877.802	3275
877.93	3211
878.058	3142
878.185	3116
878.313	3237
878.441	3226
878.568	3093
878.696	3157
878.824	3260
878.951	3321
879.079	3435
879.206	3675
879.333	3450
879.461	3389
879.588	3370
879.715	3515
879.842	3614
879.97	3409
880.097	3199
880.224	3161
880.351	3207
880.478	3218
880.605	3237
880.732	3230
880.859	3526
880.986	3344
881.112	3351
881.239	3233
881.366	3119
881.493	3085
881.619	3024
881.746	3108
881.872	3127
881.999	3123
882.125	3184
882.252	3260
882.378	3313
882.505	3454
882.631	3321
882.757	3188
882.883	3253
883.01	3272
883.136	3150
883.262	3135
883.388	3146
883.514	3389
883.64	3397
883.766	3325
883.892	3195
884.018	3253
884.143	3435
884.269	3553
884.395	3226
884.52	3214
884.646	3173
884.772	3192
884.897	3123
885.023	3218
885.148	3344
885.274	3469
885.399	3386
885.524	3306
885.65	3272
885.775	3321
885.9	3268
886.025	3473
886.15	3420
886.275	3355
886.4	3256
886.525	3313
886.65	3310
886.775	3310
886.9	3538
887.025	3679
887.149	3431
887.274	3306
887.399	3188
887.523	3211
887.648	3157
887.773	3199
887.897	3378
888.021	3405
888.146	3302
888.27	3462
888.395	3561
888.519	3447
888.643	3462
888.767	3450
888.891	3355
889.015	3279
889.139	3355
889.263	3237
889.387	3458
889.511	3515
889.635	3466
889.759	3302
889.883	3294
890.006	3439
890.13	3519
890.254	3260
890.377	3389
890.501	3245
890.624	3180
890.748	3351
890.871	3199
890.995	3116
891.118	3081
891.241	3184
891.364	3253
891.488	3302
891.611	3195
891.734	3218
891.857	3302
891.98	3264
892.103	3355
892.226	3287
892.349	3249
892.471	3097
892.594	3298
892.717	3325
892.839	3294
892.962	3317
893.085	3370
893.207	3325
893.33	3135
893.452	3245
893.575	3370
893.697	3291
893.819	3477
893.941	3504
894.064	3443
894.186	3306
894.308	3291
894.43	3473
894.552	3584
894.674	3477
894.796	3275
894.918	3302
895.04	3348
895.161	3397
895.283	3420
895.405	3348
895.526	3367
895.648	3412
895.769	3469
895.891	3462
896.012	3469
896.134	3511
896.255	3450
896.376	3401
896.498	3355
896.619	3431
896.74	3374
896.861	3439
896.982	3633
897.103	3838
897.224	3641
897.345	3515
897.466	3431
897.587	3504
897.708	3599
897.828	3549
897.949	3466
898.07	3340
898.19	3393
898.311	3568
898.431	3466
898.552	3576
898.672	3584
898.792	3622
898.913	3564
899.033	3397
899.153	3287
899.273	3230
899.393	3302
899.513	3313
899.633	3306
899.753	3351
899.873	3329
899.993	3416
900.113	3348
900.232	3389
900.352	3367
900.472	3298
900.591	3230
900.711	3310
900.83	3222
900.95	3439
901.069	3549
901.189	3332
901.308	3173
901.427	3142
901.546	3249
901.665	3287
901.784	3340
901.904	3249
902.023	3157
902.141	3020
902.26	3005
902.379	3138
902.498	3097
902.617	3074
902.735	3203
902.854	3272
902.973	3188
903.091	3070
903.21	3085
903.328	3184
903.446	3116
903.565	3127
903.683	3195
903.801	3150
903.919	3245
904.038	3283
904.156	3165
904.274	3340
904.392	3294
904.51	3310
904.627	3325
904.745	3462
904.863	3488
904.981	3287
905.098	3165
905.216	3260
905.334	3325
905.451	3317
905.569	3332
905.686	3469
905.803	3473
905.921	3283
906.038	3424
906.155	3329
906.272	3294
906.389	3340
906.506	3207
906.623	3249
906.74	3272
906.857	3169
906.974	3287
907.091	3439
907.208	3576
907.324	3500
907.441	3412
907.557	3230
907.674	3253
907.79	3222
907.907	3287
908.023	3378
908.139	3374
908.256	3351
908.372	3374
908.488	3382
908.604	3253
908.72	3256
908.836	3287
908.952	3291
909.068	3351
909.184	3466
909.3	3397
909.415	3515
909.531	3466
909.647	3264
909.762	3294
909.878	3268
909.993	3397
910.108	3348
910.224	3325
910.339	3401
910.454	3329
910.57	3298
910.685	3249
910.8	3641
910.915	3545
911.03	3447
911.145	3245
911.259	3264
911.374	3321
911.489	3329
911.604	3214
911.718	3176
911.833	3161
911.947	2998
912.062	2975
912.176	3142
912.291	3203
912.405	3226
912.519	3420
912.633	3466
912.748	3291
912.862	3237
912.976	3184
913.09	3081
913.204	3150
913.318	3195
913.431	3359
913.545	3313
913.659	3409
913.772	3306
913.886	3233
914	3211
914.113	3351
914.226	3389
914.34	3393
914.453	3237
914.566	3397
914.68	3310
914.793	3287
914.906	3165
915.019	3127
915.132	3112
915.245	3192
915.358	3207
915.47	3207
915.583	3272
915.696	3294
915.809	3447
915.921	3450
916.034	3222
916.146	3241
916.259	3226
916.371	3401
916.483	3382
916.595	3275
916.708	3329
916.82	3378
916.932	3351
917.044	3336
917.156	3374
917.268	3298
917.38	3279
917.491	3272
917.603	3393
917.715	3439
917.826	3469
917.938	3389
918.049	3272
918.161	3443
918.272	3568
918.384	3591
918.495	3492
918.606	3367
918.717	3317
918.828	3405
918.939	3454
919.05	3310
919.161	3355
919.272	3192
919.383	3317
919.494	3507
919.604	3671
919.715	3538
919.826	3466
919.936	3526
920.047	3644
920.157	3545
920.267	3827
920.378	3671
920.488	3599
920.598	3785
920.708	4002
920.818	3857
920.928	3846
921.038	4048
921.148	4006
921.258	3747
921.368	3656
921.477	3618
921.587	3568
921.697	3507
921.806	3698
921.916	3549
922.025	3450
922.134	3416
922.244	3359
922.353	3431
922.462	3302
922.571	3298
922.68	3169
922.789	3157
922.898	3195
923.007	3127
923.116	3230
923.224	3207
923.333	3245
923.442	3176
923.55	3081
923.659	3199
923.767	3272
923.876	3188
923.984	3256
924.092	3173
924.201	3245
924.309	3260
924.417	3249
924.525	3256
924.633	3310
924.741	4029
924.849	3077
924.956	3294
925.064	3127
925.172	3066
925.279	3138
925.387	3241
925.494	3241
925.602	3393
925.709	3397
925.816	3214
925.924	3348
926.031	3439
926.138	3340
926.245	3393
926.352	3283
926.459	3428
926.566	3492
926.673	3306
926.779	3256
926.886	3302
926.993	3218
927.099	3184
927.206	3142
927.312	3119
927.419	3264
927.525	3237
927.631	3310
927.737	3184
927.843	3188
927.95	3085
928.056	3146
928.162	3207
928.267	3291
928.373	3896
928.479	3348
928.585	3131
928.69	3222
928.796	3287
928.901	3195
929.007	3055
929.112	3249
929.218	3226
929.323	3173
929.428	3165
929.533	3367
929.638	3173
929.743	3199
929.848	3294
929.953	3245
930.058	3131
930.163	3020
930.267	3085
930.372	3268
930.477	3074
930.581	3348
930.685	3218
930.79	3100
930.894	3154
930.998	3127
931.103	3294
931.207	3001
931.311	3009
931.415	2986
931.519	2849
931.623	2864
