Data from test_V78500241_505.txt Node
Date: Fri Mar 25 16:18:42 CST 2022
User: usil
Spectrometer: V785-0024
Trigger mode: 0
Integration Time (sec): 4.000000E-1
Scans to average: 1
Nonlinearity correction enabled: false
Boxcar width: 0
Storing dark spectrum: false
XAxis mode: Wavelengths
Number of Pixels in Spectrum: 1024
>>>>>Begin Spectral Data<<<<<
801.071	2952
801.214	2963
801.356	2857
801.499	2914
801.641	2880
801.783	2941
801.926	3070
802.068	2975
802.211	3001
802.353	3047
802.496	2979
802.638	2963
802.78	3062
802.923	3074
803.065	3036
803.208	2887
803.35	2929
803.492	2925
803.635	2918
803.777	2746
803.919	2861
804.061	3230
804.204	2971
804.346	2895
804.488	2819
804.63	3024
804.773	2883
804.915	2956
805.057	3104
805.199	2971
805.341	3001
805.483	3077
805.626	3020
805.768	2944
805.91	3085
806.052	3123
806.194	3062
806.336	3222
806.478	3001
806.62	2960
806.762	2990
806.904	3051
807.046	3203
807.188	2994
807.33	2891
807.472	3028
807.614	2902
807.756	3009
807.898	2933
808.04	2899
808.182	2967
808.324	2960
808.465	2914
808.607	2880
808.749	2781
808.891	2853
809.033	2971
809.174	2967
809.316	2899
809.458	2880
809.6	2758
809.741	2762
809.883	2769
810.025	2864
810.166	2849
810.308	2800
810.45	2883
810.591	2769
810.733	2777
810.875	2830
811.016	2766
811.158	2785
811.299	2823
811.441	2906
811.582	2891
811.724	2800
811.865	2838
812.007	2887
812.148	2910
812.29	2838
812.431	2918
812.573	2937
812.714	2979
812.855	3062
812.997	3047
813.138	3135
813.279	2990
813.421	2994
813.562	2979
813.703	2891
813.845	2887
813.986	2743
814.127	2731
814.268	2861
814.41	2849
814.551	2861
814.692	2899
814.833	2819
814.974	2891
815.115	2986
815.256	2853
815.397	2807
815.539	2853
815.68	2762
815.821	2830
815.962	2948
816.103	2941
816.244	2876
816.385	2861
816.526	2952
816.666	2925
816.807	2781
816.948	2902
817.089	2883
817.23	2872
817.371	2777
817.512	2796
817.653	2849
817.793	2838
817.934	2906
818.075	2952
818.216	2979
818.356	3058
818.497	2868
818.638	2807
818.778	2823
818.919	2788
819.06	2773
819.2	2876
819.341	2804
819.481	2807
819.622	2960
819.762	3131
819.903	3047
820.043	2944
820.184	2891
820.324	2887
820.465	3013
820.605	3005
820.746	3001
820.886	2914
821.026	3127
821.167	3180
821.307	3241
821.447	3268
821.588	3272
821.728	3176
821.868	3176
822.008	3089
822.149	3199
822.289	3207
822.429	3100
822.569	3116
822.709	3226
822.849	3028
822.99	3108
823.13	3131
823.27	3192
823.41	3085
823.55	3131
823.69	3142
823.83	3211
823.97	3093
824.11	2994
824.25	3013
824.389	3039
824.529	3104
824.669	3017
824.809	3237
824.949	3237
825.089	3245
825.228	3154
825.368	2963
825.508	2960
825.648	2963
825.787	2982
825.927	3024
826.067	2975
826.206	2971
826.346	3020
826.485	3085
826.625	3089
826.765	3256
826.904	3207
827.044	3032
827.183	2914
827.323	2868
827.462	2982
827.601	2948
827.741	2902
827.88	2952
828.02	2887
828.159	2948
828.298	3047
828.437	3100
828.577	3036
828.716	3241
828.855	3047
828.994	2914
829.134	2868
829.273	2880
829.412	2834
829.551	2872
829.69	2857
829.829	2982
829.968	3123
830.107	3009
830.246	3032
830.385	2910
830.524	2891
830.663	2815
830.802	2731
830.941	2663
831.08	2648
831.219	2750
831.357	2712
831.496	2925
831.635	2693
831.774	2682
831.913	2667
832.051	2545
832.19	2575
832.329	2682
832.467	2564
832.606	2484
832.744	2575
832.883	2583
833.022	2575
833.16	2659
833.299	2682
833.437	2689
833.576	2663
833.714	2754
833.852	2724
833.991	2769
834.129	2830
834.267	2823
834.406	2777
834.544	2868
834.682	2880
834.821	2842
834.959	3066
835.097	2902
835.235	3077
835.373	3001
835.511	3024
835.65	2963
835.788	2960
835.926	2857
836.064	2807
836.202	2815
836.34	3119
836.478	3119
836.615	3047
836.753	3150
836.891	3180
837.029	3154
837.167	3077
837.305	3043
837.443	3024
837.58	2960
837.718	3116
837.856	3112
837.993	3005
838.131	3127
838.269	3074
838.406	3066
838.544	3066
838.681	2906
838.819	2910
838.956	2823
839.094	2830
839.231	2914
839.369	3032
839.506	3363
839.643	3222
839.781	2994
839.918	2956
840.055	3070
840.193	3058
840.33	3077
840.467	3051
840.604	3127
840.742	3401
840.879	3066
841.016	3066
841.153	3081
841.29	3321
841.427	3283
841.564	3275
841.701	3306
841.838	3195
841.975	3146
842.112	3241
842.249	3077
842.385	3028
842.522	3275
842.659	3085
842.796	3074
842.933	3062
843.069	3058
843.206	3032
843.343	3173
843.479	3138
843.616	3142
843.752	2857
843.889	2849
844.025	3089
844.162	2918
844.298	3116
844.435	2967
844.571	2891
844.708	3062
844.844	3169
844.98	3233
845.117	3230
845.253	3039
845.389	2960
845.525	3104
845.661	3066
845.798	3017
845.934	3089
846.07	3055
846.206	3233
846.342	3264
846.478	3207
846.614	3112
846.75	3066
846.886	3017
847.022	3226
847.158	3154
847.294	3195
847.429	3211
847.565	3192
847.701	3488
847.837	3017
847.972	3013
848.108	3169
848.244	3119
848.379	3024
848.515	2952
848.65	2948
848.786	2979
848.921	2971
849.057	3100
849.192	3138
849.328	3077
849.463	3119
849.598	3070
849.734	2986
849.869	3001
850.004	2910
850.14	2952
850.275	2880
850.41	2864
850.545	2849
850.68	2895
850.815	2918
850.95	3005
851.085	3150
851.22	3104
851.355	3017
851.49	2998
851.625	2994
851.76	3058
851.895	2933
852.03	2925
852.165	3039
852.299	3116
852.434	3173
852.569	3165
852.703	3199
852.838	3230
852.973	3329
853.107	3329
853.242	3180
853.376	3100
853.511	2971
853.645	3055
853.78	3249
853.914	3146
854.048	3112
854.183	3070
854.317	3146
854.451	3268
854.585	3104
854.72	3097
854.854	3195
854.988	3066
855.122	3058
855.256	2982
855.39	3100
855.524	3199
855.658	3161
855.792	3123
855.926	3180
856.06	3218
856.194	3230
856.327	3119
856.461	3070
856.595	3081
856.729	3097
856.862	3176
856.996	3142
857.13	3199
857.263	3233
857.397	3283
857.53	3112
857.664	3214
857.797	3237
857.931	3256
858.064	3173
858.197	3218
858.331	3146
858.464	3108
858.597	3009
858.731	3112
858.864	3146
858.997	3070
859.13	3169
859.263	3146
859.396	3199
859.529	3058
859.662	3062
859.795	3036
859.928	3127
860.061	3298
860.194	3249
860.327	3112
860.46	3066
860.592	3230
860.725	3264
860.858	3233
860.99	3085
861.123	3020
861.256	3036
861.388	3146
861.521	3827
861.653	2994
861.786	2975
861.918	2960
862.05	3066
862.183	3055
862.315	3138
862.447	3173
862.58	3085
862.712	2933
862.844	2868
862.976	3047
863.108	2979
863.24	3416
863.372	2883
863.504	3005
863.636	2952
863.768	3028
863.9	2952
864.032	2922
864.164	2918
864.296	3028
864.428	3077
864.559	3066
864.691	3070
864.823	3036
864.954	3051
865.086	3055
865.217	2967
865.349	2948
865.48	2963
865.612	3036
865.743	3157
865.875	2975
866.006	2944
866.137	2967
866.269	2933
866.4	2910
866.531	2922
866.662	2872
866.793	2872
866.924	2880
867.055	2941
867.186	2910
867.317	2838
867.448	2853
867.579	2807
867.71	2857
867.841	2800
867.972	2899
868.103	2902
868.233	2944
868.364	2845
868.495	2868
868.625	3036
868.756	3157
868.886	2933
869.017	2990
869.147	3173
869.278	3146
869.408	3058
869.539	3013
869.669	3104
869.799	3043
869.929	3119
870.06	3089
870.19	3275
870.32	3279
870.45	3253
870.58	3378
870.71	3386
870.84	3469
870.97	3302
871.1	3222
871.23	3504
871.36	3466
871.489	3348
871.619	3431
871.749	3378
871.879	3428
872.008	3466
872.138	3351
872.267	3241
872.397	3116
872.526	3127
872.656	3013
872.785	3093
872.915	3230
873.044	3264
873.173	3203
873.303	3253
873.432	3249
873.561	3203
873.69	3138
873.819	3135
873.948	3188
874.077	3138
874.206	3032
874.335	3074
874.464	3180
874.593	3294
874.722	3233
874.851	3386
874.979	3329
875.108	3287
875.237	3188
875.365	3127
875.494	3176
875.623	3230
875.751	3077
875.88	3123
876.008	3199
876.136	3214
876.265	3386
876.393	3519
876.521	3367
876.65	3382
876.778	3306
876.906	3214
877.034	3184
877.162	3226
877.29	3157
877.418	3272
877.546	3226
877.674	3226
877.802	3207
877.93	3222
878.058	3180
878.185	3077
878.313	3165
878.441	3203
878.568	3047
878.696	3169
878.824	3253
878.951	3287
879.079	3435
879.206	3618
879.333	3439
879.461	3317
879.588	3348
879.715	3466
879.842	3576
879.97	3363
880.097	3176
880.224	3131
880.351	3195
880.478	3249
880.605	3131
880.732	3203
880.859	3473
880.986	3298
881.112	3336
881.239	3192
881.366	3119
881.493	3036
881.619	3024
881.746	3039
881.872	3108
881.999	3104
882.125	3146
882.252	3253
882.378	3294
882.505	3450
882.631	3306
882.757	3146
882.883	3176
883.01	3230
883.136	3165
883.262	3058
883.388	3104
883.514	3329
883.64	3355
883.766	3275
883.892	3146
884.018	3195
884.143	3367
884.269	3564
884.395	3199
884.52	3135
884.646	3146
884.772	3085
884.897	3116
885.023	3180
885.148	3367
885.274	3420
885.399	3389
885.524	3249
885.65	3249
885.775	3283
885.9	3256
886.025	3454
886.15	3329
886.275	3298
886.4	3233
886.525	3302
886.65	3256
886.775	3287
886.9	3458
887.025	3644
887.149	3363
887.274	3233
887.399	3180
887.523	3199
887.648	3142
887.773	3173
887.897	3336
888.021	3386
888.146	3272
888.27	3462
888.395	3511
888.519	3481
888.643	3420
888.767	3447
888.891	3302
889.015	3256
889.139	3268
889.263	3218
889.387	3386
889.511	3466
889.635	3428
889.759	3279
889.883	3294
890.006	3355
890.13	3466
890.254	3298
890.377	3344
890.501	3169
890.624	3154
890.748	3306
890.871	3203
890.995	3108
891.118	3085
891.241	3165
891.364	3237
891.488	3302
891.611	3184
891.734	3211
891.857	3287
891.98	3230
892.103	3298
892.226	3249
892.349	3237
892.471	3108
892.594	3226
892.717	3298
892.839	3291
892.962	3298
893.085	3370
893.207	3268
893.33	3154
893.452	3184
893.575	3321
893.697	3241
893.819	3450
893.941	3488
894.064	3405
894.186	3249
894.308	3249
894.43	3454
894.552	3542
894.674	3447
894.796	3245
894.918	3294
895.04	3253
895.161	3447
895.283	3401
895.405	3298
895.526	3336
895.648	3389
895.769	3443
895.891	3424
896.012	3424
896.134	3447
896.255	3389
896.376	3393
896.498	3363
896.619	3424
896.74	3355
896.861	3370
896.982	3713
897.103	3857
897.224	3584
897.345	3485
897.466	3405
897.587	3466
897.708	3580
897.828	3553
897.949	3412
898.07	3367
898.19	3370
898.311	3584
898.431	3443
898.552	3488
898.672	3564
898.792	3587
898.913	3553
899.033	3435
899.153	3260
899.273	3245
899.393	3302
899.513	3294
899.633	3294
899.753	3355
899.873	3306
899.993	3374
900.113	3336
900.232	3370
900.352	3348
900.472	3249
900.591	3157
900.711	3302
900.83	3207
900.95	3389
901.069	3473
901.189	3363
901.308	3165
901.427	3093
901.546	3169
901.665	3268
901.784	3298
901.904	3203
902.023	3135
902.141	3020
902.26	2990
902.379	3097
902.498	3089
902.617	3036
902.735	3214
902.854	3207
902.973	3199
903.091	3070
903.21	3077
903.328	3150
903.446	3112
903.565	3077
903.683	3203
903.801	3146
903.919	3218
904.038	3291
904.156	3154
904.274	3245
904.392	3211
904.51	3298
904.627	3332
904.745	3473
904.863	3507
904.981	3249
905.098	3150
905.216	3203
905.334	3275
905.451	3260
905.569	3313
905.686	3443
905.803	3409
905.921	3275
906.038	3409
906.155	3367
906.272	3291
906.389	3302
906.506	3207
906.623	3253
906.74	3275
906.857	3173
906.974	3211
907.091	3458
907.208	3523
907.324	3462
907.441	3401
907.557	3226
907.674	3176
907.79	3211
907.907	3294
908.023	3378
908.139	3374
908.256	3313
908.372	3355
908.488	3340
908.604	3256
908.72	3199
908.836	3245
908.952	3264
909.068	3344
909.184	3469
909.3	3386
909.415	3488
909.531	3485
909.647	3214
909.762	3291
909.878	3245
909.993	3374
910.108	3332
910.224	3298
910.339	3409
910.454	3310
910.57	3241
910.685	3207
910.8	3526
910.915	3549
911.03	3393
911.145	3214
911.259	3272
911.374	3275
911.489	3233
911.604	3211
911.718	3123
911.833	3135
911.947	3020
912.062	2975
912.176	3161
912.291	3192
912.405	3195
912.519	3405
912.633	3420
912.748	3317
912.862	3302
912.976	3169
913.09	3055
913.204	3142
913.318	3173
913.431	3298
913.545	3306
913.659	3378
913.772	3321
913.886	3214
914	3211
914.113	3306
914.226	3439
914.34	3355
914.453	3180
914.566	3378
914.68	3291
914.793	3298
914.906	3123
915.019	3085
915.132	3032
915.245	3188
915.358	3188
915.47	3226
915.583	3226
915.696	3294
915.809	3450
915.921	3405
916.034	3291
916.146	3260
916.259	3226
916.371	3401
916.483	3355
916.595	3268
916.708	3359
916.82	3329
916.932	3340
917.044	3332
917.156	3329
917.268	3264
917.38	3336
917.491	3283
917.603	3405
917.715	3473
917.826	3481
917.938	3382
918.049	3264
918.161	3485
918.272	3606
918.384	3561
918.495	3462
918.606	3386
918.717	3298
918.828	3397
918.939	3450
919.05	3321
919.161	3405
919.272	3218
919.383	3344
919.494	3519
919.604	3682
919.715	3496
919.826	3420
919.936	3466
920.047	3606
920.157	3572
920.267	3785
920.378	3686
920.488	3580
920.598	3846
920.708	3987
920.818	3797
920.928	3869
921.038	4090
921.148	4040
921.258	3770
921.368	3675
921.477	3614
921.587	3561
921.697	3469
921.806	3671
921.916	3564
922.025	3370
922.134	3420
922.244	3332
922.353	3473
922.462	3313
922.571	3291
922.68	3131
922.789	3108
922.898	3184
923.007	3142
923.116	3256
923.224	3169
923.333	3207
923.442	3116
923.55	3135
923.659	3173
923.767	3279
923.876	3154
923.984	3287
924.092	3161
924.201	3237
924.309	3298
924.417	3260
924.525	3237
924.633	3291
924.741	4207
924.849	3131
924.956	3283
925.064	3154
925.172	3070
925.279	3146
925.387	3279
925.494	3218
925.602	3386
925.709	3336
925.816	3264
925.924	3329
926.031	3389
926.138	3329
926.245	3412
926.352	3321
926.459	3447
926.566	3477
926.673	3363
926.779	3313
926.886	3272
926.993	3222
927.099	3226
927.206	3138
927.312	3138
927.419	3268
927.525	3230
927.631	3283
927.737	3173
927.843	3146
927.95	3058
928.056	3195
928.162	3203
928.267	3275
928.373	3812
928.479	3340
928.585	3085
928.69	3241
928.796	3294
928.901	3211
929.007	3074
929.112	3226
929.218	3207
929.323	3207
929.428	3142
929.533	3370
929.638	3135
929.743	3195
929.848	3275
929.953	3233
930.058	3184
930.163	3036
930.267	3097
930.372	3245
930.477	3051
930.581	3313
930.685	3233
930.79	3070
930.894	3169
930.998	3131
931.103	3325
931.207	3024
931.311	2971
931.415	2941
931.519	2766
931.623	2861
