Data from test_V78500241_703.txt Node
Date: Fri Mar 25 16:20:04 CST 2022
User: usil
Spectrometer: V785-0024
Trigger mode: 0
Integration Time (sec): 4.000000E-1
Scans to average: 1
Nonlinearity correction enabled: false
Boxcar width: 0
Storing dark spectrum: false
XAxis mode: Wavelengths
Number of Pixels in Spectrum: 1024
>>>>>Begin Spectral Data<<<<<
801.071	2906
801.214	2933
801.356	2895
801.499	2918
801.641	2868
801.783	2906
801.926	2998
802.068	2952
802.211	2971
802.353	3036
802.496	2929
802.638	3020
802.78	3024
802.923	3074
803.065	3009
803.208	2895
803.35	2910
803.492	2971
803.635	2910
803.777	2788
803.919	2823
804.061	3195
804.204	2960
804.346	2891
804.488	2807
804.63	2952
804.773	2861
804.915	2902
805.057	3093
805.199	2933
805.341	3005
805.483	2982
805.626	2986
805.768	2979
805.91	3077
806.052	3112
806.194	3032
806.336	3237
806.478	3017
806.62	2952
806.762	2937
806.904	3058
807.046	3154
807.188	2960
807.33	2914
807.472	2994
807.614	2899
807.756	2975
807.898	2941
808.04	2914
808.182	2952
808.324	2918
808.465	2883
808.607	2895
808.749	2785
808.891	2830
809.033	2979
809.174	2960
809.316	2880
809.458	2891
809.6	2754
809.741	2731
809.883	2735
810.025	2883
810.166	2895
810.308	2842
810.45	2857
810.591	2796
810.733	2743
810.875	2830
811.016	2792
811.158	2750
811.299	2792
811.441	2895
811.582	2891
811.724	2811
811.865	2811
812.007	2910
812.148	2883
812.29	2891
812.431	2906
812.573	2956
812.714	2944
812.855	3028
812.997	3039
813.138	3135
813.279	2967
813.421	3001
813.562	2941
813.703	2876
813.845	2864
813.986	2769
814.127	2735
814.268	2804
814.41	2842
814.551	2830
814.692	2872
814.833	2880
814.974	2872
815.115	2956
815.256	2823
815.397	2811
815.539	2883
815.68	2781
815.821	2804
815.962	2948
816.103	2922
816.244	2861
816.385	2868
816.526	2944
816.666	2895
816.807	2743
816.948	2906
817.089	2925
817.23	2849
817.371	2773
817.512	2746
817.653	2842
817.793	2830
817.934	2868
818.075	2971
818.216	2979
818.356	3020
818.497	2868
818.638	2788
818.778	2861
818.919	2785
819.06	2773
819.2	2853
819.341	2769
819.481	2792
819.622	2933
819.762	3085
819.903	3036
820.043	2906
820.184	2876
820.324	2933
820.465	3020
820.605	3009
820.746	3024
820.886	2937
821.026	3077
821.167	3123
821.307	3287
821.447	3287
821.588	3222
821.728	3165
821.868	3214
822.008	3077
822.149	3173
822.289	3272
822.429	3093
822.569	3104
822.709	3188
822.849	2994
822.99	3036
823.13	3138
823.27	3176
823.41	3112
823.55	3169
823.69	3157
823.83	3180
823.97	3089
824.11	2982
824.25	2998
824.389	3077
824.529	3104
824.669	3047
824.809	3207
824.949	3226
825.089	3233
825.228	3161
825.368	2979
825.508	2941
825.648	2967
825.787	2990
825.927	3001
826.067	2998
826.206	2918
826.346	3024
826.485	3051
826.625	3093
826.765	3237
826.904	3211
827.044	2986
827.183	2929
827.323	2819
827.462	2986
827.601	2895
827.741	2948
827.88	2937
828.02	2800
828.159	2975
828.298	3074
828.437	3097
828.577	3051
828.716	3268
828.855	3036
828.994	2883
829.134	2861
829.273	2929
829.412	2842
829.551	2838
829.69	2880
829.829	2963
829.968	3093
830.107	2998
830.246	3020
830.385	2906
830.524	2876
830.663	2819
830.802	2708
830.941	2632
831.08	2606
831.219	2705
831.357	2739
831.496	2925
831.635	2743
831.774	2629
831.913	2640
832.051	2530
832.19	2568
832.329	2659
832.467	2503
832.606	2469
832.744	2583
832.883	2590
833.022	2590
833.16	2670
833.299	2670
833.437	2689
833.576	2708
833.714	2727
833.852	2724
833.991	2739
834.129	2811
834.267	2807
834.406	2792
834.544	2864
834.682	2861
834.821	2838
834.959	3047
835.097	2891
835.235	3081
835.373	3009
835.511	3028
835.65	2933
835.788	2937
835.926	2826
836.064	2788
836.202	2838
836.34	3112
836.478	3154
836.615	2986
836.753	3104
836.891	3199
837.029	3169
837.167	3112
837.305	3074
837.443	3047
837.58	2925
837.718	3116
837.856	3020
837.993	3009
838.131	3127
838.269	3100
838.406	3123
838.544	3055
838.681	2925
838.819	2902
838.956	2811
839.094	2819
839.231	2902
839.369	2994
839.506	3363
839.643	3199
839.781	3032
839.918	2914
840.055	3020
840.193	3043
840.33	3081
840.467	3104
840.604	3112
840.742	3412
840.879	3032
841.016	3028
841.153	3097
841.29	3306
841.427	3291
841.564	3241
841.701	3260
841.838	3188
841.975	3176
842.112	3226
842.249	3036
842.385	3055
842.522	3237
842.659	3077
842.796	3051
842.933	3085
843.069	3009
843.206	3017
843.343	3165
843.479	3097
843.616	3097
843.752	2887
843.889	2834
844.025	3043
844.162	2864
844.298	3043
844.435	2925
844.571	2880
844.708	3058
844.844	3161
844.98	3192
845.117	3161
845.253	3013
845.389	2963
845.525	3062
845.661	3047
845.798	3005
845.934	3108
846.07	3039
846.206	3192
846.342	3310
846.478	3192
846.614	3097
846.75	3028
846.886	2982
847.022	3245
847.158	3070
847.294	3180
847.429	3218
847.565	3184
847.701	3424
847.837	3047
847.972	2963
848.108	3165
848.244	3127
848.379	2975
848.515	2925
848.65	2902
848.786	2963
848.921	2971
849.057	3097
849.192	3127
849.328	3036
849.463	3085
849.598	3047
849.734	3024
849.869	2948
850.004	2929
850.14	2937
850.275	2929
850.41	2830
850.545	2925
850.68	2925
850.815	2956
850.95	2967
851.085	3207
851.22	3112
851.355	3058
851.49	3013
851.625	3013
851.76	3017
851.895	2906
852.03	2895
852.165	3032
852.299	3127
852.434	3249
852.569	3161
852.703	3180
852.838	3272
852.973	3332
853.107	3317
853.242	3192
853.376	3093
853.511	3005
853.645	3085
853.78	3298
853.914	3157
854.048	3146
854.183	3127
854.317	3142
854.451	3351
854.585	3173
854.72	3138
854.854	3233
854.988	3070
855.122	3093
855.256	3001
855.39	3150
855.524	3253
855.658	3195
855.792	3207
855.926	3214
856.06	3214
856.194	3325
856.327	3222
856.461	3089
856.595	3108
856.729	3108
856.862	3237
856.996	3211
857.13	3275
857.263	3260
857.397	3359
857.53	3165
857.664	3199
857.797	3291
857.931	3298
858.064	3226
858.197	3253
858.331	3195
858.464	3142
858.597	3058
858.731	3104
858.864	3173
858.997	3135
859.13	3184
859.263	3260
859.396	3218
859.529	3123
859.662	3135
859.795	3097
859.928	3207
860.061	3298
860.194	3298
860.327	3150
860.46	3131
860.592	3256
860.725	3253
860.858	3249
860.99	3123
861.123	3085
861.256	3116
861.388	3180
861.521	3934
861.653	3055
861.786	3013
861.918	3017
862.05	3055
862.183	3123
862.315	3207
862.447	3241
862.58	3123
862.712	2979
862.844	2902
862.976	3062
863.108	3013
863.24	3447
863.372	2899
863.504	3009
863.636	2979
863.768	3009
863.9	3020
864.032	2933
864.164	2952
864.296	3009
864.428	3070
864.559	3123
864.691	3089
864.823	3093
864.954	3077
865.086	3058
865.217	3036
865.349	2975
865.48	3024
865.612	3089
865.743	3176
865.875	3005
866.006	2986
866.137	3005
866.269	2952
866.4	2933
866.531	2956
866.662	2918
866.793	2922
866.924	2899
867.055	2979
867.186	2933
867.317	2925
867.448	2876
867.579	2910
867.71	2857
867.841	2857
867.972	2895
868.103	2895
868.233	2887
868.364	2922
868.495	2941
868.625	3131
868.756	3169
868.886	2990
869.017	3036
869.147	3150
869.278	3203
869.408	3066
869.539	3055
869.669	3104
869.799	3055
869.929	3142
870.06	3112
870.19	3336
870.32	3298
870.45	3283
870.58	3389
870.71	3466
870.84	3507
870.97	3298
871.1	3279
871.23	3507
871.36	3492
871.489	3393
871.619	3458
871.749	3424
871.879	3477
872.008	3492
872.138	3355
872.267	3317
872.397	3195
872.526	3112
872.656	3077
872.785	3119
872.915	3249
873.044	3355
873.173	3233
873.303	3268
873.432	3268
873.561	3264
873.69	3142
873.819	3173
873.948	3260
874.077	3131
874.206	3104
874.335	3123
874.464	3218
874.593	3389
874.722	3256
874.851	3431
874.979	3363
875.108	3336
875.237	3195
875.365	3169
875.494	3188
875.623	3264
875.751	3104
875.88	3142
876.008	3211
876.136	3222
876.265	3397
876.393	3538
876.521	3473
876.65	3428
876.778	3370
876.906	3302
877.034	3253
877.162	3237
877.29	3226
877.418	3302
877.546	3279
877.674	3245
877.802	3260
877.93	3310
878.058	3184
878.185	3131
878.313	3226
878.441	3268
878.568	3081
878.696	3192
878.824	3272
878.951	3310
879.079	3458
879.206	3667
879.333	3496
879.461	3370
879.588	3389
879.715	3492
879.842	3618
879.97	3416
880.097	3218
880.224	3142
880.351	3222
880.478	3237
880.605	3241
880.732	3226
880.859	3477
880.986	3287
881.112	3359
881.239	3226
881.366	3097
881.493	3074
881.619	3039
881.746	3070
881.872	3112
881.999	3104
882.125	3165
882.252	3279
882.378	3287
882.505	3488
882.631	3306
882.757	3169
882.883	3264
883.01	3260
883.136	3203
883.262	3135
883.388	3154
883.514	3351
883.64	3355
883.766	3359
883.892	3199
884.018	3264
884.143	3454
884.269	3564
884.395	3222
884.52	3203
884.646	3184
884.772	3138
884.897	3123
885.023	3245
885.148	3382
885.274	3420
885.399	3405
885.524	3317
885.65	3268
885.775	3332
885.9	3321
886.025	3450
886.15	3378
886.275	3310
886.4	3275
886.525	3294
886.65	3321
886.775	3302
886.9	3523
887.025	3663
887.149	3447
887.274	3294
887.399	3176
887.523	3253
887.648	3188
887.773	3241
887.897	3435
888.021	3416
888.146	3329
888.27	3469
888.395	3553
888.519	3439
888.643	3466
888.767	3473
888.891	3306
889.015	3264
889.139	3317
889.263	3256
889.387	3420
889.511	3553
889.635	3447
889.759	3302
889.883	3306
890.006	3397
890.13	3534
890.254	3283
890.377	3344
890.501	3230
890.624	3207
890.748	3313
890.871	3154
890.995	3089
891.118	3070
891.241	3230
891.364	3256
891.488	3332
891.611	3188
891.734	3241
891.857	3313
891.98	3253
892.103	3359
892.226	3306
892.349	3230
892.471	3112
892.594	3214
892.717	3306
892.839	3291
892.962	3313
893.085	3378
893.207	3306
893.33	3188
893.452	3256
893.575	3291
893.697	3245
893.819	3496
893.941	3496
894.064	3450
894.186	3287
894.308	3306
894.43	3496
894.552	3564
894.674	3485
894.796	3291
894.918	3348
895.04	3317
895.161	3412
895.283	3401
895.405	3317
895.526	3435
895.648	3447
895.769	3477
895.891	3473
896.012	3530
896.134	3488
896.255	3409
896.376	3397
896.498	3382
896.619	3507
896.74	3344
896.861	3409
896.982	3686
897.103	3842
897.224	3599
897.345	3534
897.466	3435
897.587	3496
897.708	3625
897.828	3564
897.949	3458
898.07	3382
898.19	3431
898.311	3667
898.431	3473
898.552	3542
898.672	3633
898.792	3568
898.913	3576
899.033	3431
899.153	3283
899.273	3207
899.393	3283
899.513	3332
899.633	3291
899.753	3336
899.873	3306
899.993	3370
900.113	3370
900.232	3389
900.352	3367
900.472	3298
900.591	3226
900.711	3294
900.83	3253
900.95	3447
901.069	3507
901.189	3370
901.308	3207
901.427	3131
901.546	3237
901.665	3298
901.784	3332
901.904	3279
902.023	3180
902.141	3055
902.26	3017
902.379	3135
902.498	3085
902.617	3100
902.735	3241
902.854	3275
902.973	3218
903.091	3055
903.21	3043
903.328	3157
903.446	3146
903.565	3169
903.683	3245
903.801	3146
903.919	3245
904.038	3329
904.156	3165
904.274	3313
904.392	3302
904.51	3287
904.627	3294
904.745	3477
904.863	3473
904.981	3272
905.098	3230
905.216	3249
905.334	3272
905.451	3317
905.569	3264
905.686	3428
905.803	3435
905.921	3268
906.038	3466
906.155	3359
906.272	3287
906.389	3329
906.506	3256
906.623	3268
906.74	3294
906.857	3203
906.974	3264
907.091	3454
907.208	3572
907.324	3473
907.441	3401
907.557	3230
907.674	3211
907.79	3214
907.907	3291
908.023	3367
908.139	3397
908.256	3386
908.372	3431
908.488	3340
908.604	3249
908.72	3287
908.836	3310
908.952	3294
909.068	3325
909.184	3511
909.3	3412
909.415	3519
909.531	3530
909.647	3298
909.762	3332
909.878	3272
909.993	3363
910.108	3340
910.224	3355
910.339	3435
910.454	3374
910.57	3332
910.685	3237
910.8	3671
910.915	3526
911.03	3462
911.145	3260
911.259	3325
911.374	3397
911.489	3256
911.604	3241
911.718	3142
911.833	3165
911.947	3028
912.062	3013
912.176	3169
912.291	3161
912.405	3207
912.519	3481
912.633	3454
912.748	3348
912.862	3279
912.976	3154
913.09	3047
913.204	3127
913.318	3241
913.431	3340
913.545	3336
913.659	3370
913.772	3340
913.886	3226
914	3253
914.113	3351
914.226	3439
914.34	3405
914.453	3230
914.566	3374
914.68	3336
914.793	3367
914.906	3146
915.019	3131
915.132	3085
915.245	3176
915.358	3169
915.47	3218
915.583	3275
915.696	3294
915.809	3454
915.921	3428
916.034	3268
916.146	3264
916.259	3214
916.371	3393
916.483	3374
916.595	3260
916.708	3363
916.82	3317
916.932	3348
917.044	3340
917.156	3340
917.268	3283
917.38	3294
917.491	3283
917.603	3370
917.715	3504
917.826	3519
917.938	3386
918.049	3279
918.161	3412
918.272	3606
918.384	3584
918.495	3530
918.606	3325
918.717	3313
918.828	3397
918.939	3435
919.05	3302
919.161	3397
919.272	3226
919.383	3264
919.494	3488
919.604	3701
919.715	3545
919.826	3435
919.936	3496
920.047	3591
920.157	3584
920.267	3823
920.378	3641
920.488	3584
920.598	3800
920.708	3998
920.818	3861
920.928	3880
921.038	4097
921.148	3991
921.258	3686
921.368	3675
921.477	3622
921.587	3595
921.697	3515
921.806	3698
921.916	3545
922.025	3428
922.134	3393
922.244	3367
922.353	3431
922.462	3306
922.571	3275
922.68	3165
922.789	3108
922.898	3199
923.007	3176
923.116	3272
923.224	3207
923.333	3249
923.442	3142
923.55	3157
923.659	3173
923.767	3249
923.876	3146
923.984	3287
924.092	3150
924.201	3268
924.309	3291
924.417	3268
924.525	3218
924.633	3306
924.741	4211
924.849	3127
924.956	3298
925.064	3131
925.172	3097
925.279	3131
925.387	3203
925.494	3268
925.602	3386
925.709	3348
925.816	3260
925.924	3348
926.031	3393
926.138	3367
926.245	3363
926.352	3298
926.459	3431
926.566	3549
926.673	3351
926.779	3291
926.886	3287
926.993	3203
927.099	3165
927.206	3127
927.312	3146
927.419	3294
927.525	3233
927.631	3325
927.737	3180
927.843	3195
927.95	3081
928.056	3192
928.162	3253
928.267	3241
928.373	3896
928.479	3351
928.585	3104
928.69	3268
928.796	3279
928.901	3207
929.007	3108
929.112	3222
929.218	3203
929.323	3195
929.428	3154
929.533	3355
929.638	3138
929.743	3207
929.848	3291
929.953	3256
930.058	3184
930.163	3032
930.267	3089
930.372	3272
930.477	3077
930.581	3351
930.685	3188
930.79	3135
930.894	3207
930.998	3127
931.103	3344
931.207	2975
931.311	2982
931.415	2971
931.519	2834
931.623	2853
