Data from test_V78500241_216.txt Node
Date: Fri Mar 25 16:16:42 CST 2022
User: usil
Spectrometer: V785-0024
Trigger mode: 0
Integration Time (sec): 4.000000E-1
Scans to average: 1
Nonlinearity correction enabled: false
Boxcar width: 0
Storing dark spectrum: false
XAxis mode: Wavelengths
Number of Pixels in Spectrum: 1024
>>>>>Begin Spectral Data<<<<<
801.071	2918
801.214	2933
801.356	2861
801.499	2902
801.641	2849
801.783	2956
801.926	3020
802.068	2967
802.211	2998
802.353	3051
802.496	2960
802.638	3036
802.78	3043
802.923	3100
803.065	3020
803.208	2891
803.35	2929
803.492	2937
803.635	2929
803.777	2743
803.919	2876
804.061	3192
804.204	2918
804.346	2868
804.488	2861
804.63	3009
804.773	2861
804.915	2941
805.057	3062
805.199	2948
805.341	2990
805.483	3085
805.626	3051
805.768	2944
805.91	3070
806.052	3104
806.194	3001
806.336	3226
806.478	3070
806.62	2971
806.762	2963
806.904	3077
807.046	3142
807.188	2971
807.33	2941
807.472	2975
807.614	2941
807.756	2960
807.898	2948
808.04	2914
808.182	2960
808.324	2948
808.465	2853
808.607	2902
808.749	2796
808.891	2842
809.033	2975
809.174	2948
809.316	2902
809.458	2918
809.6	2792
809.741	2746
809.883	2788
810.025	2849
810.166	2887
810.308	2876
810.45	2883
810.591	2823
810.733	2792
810.875	2834
811.016	2830
811.158	2773
811.299	2857
811.441	2922
811.582	2895
811.724	2876
811.865	2849
812.007	2929
812.148	2857
812.29	2868
812.431	2925
812.573	2967
812.714	2956
812.855	3074
812.997	3039
813.138	3123
813.279	3028
813.421	2982
813.562	2960
813.703	2895
813.845	2902
813.986	2788
814.127	2720
814.268	2823
814.41	2864
814.551	2807
814.692	2887
814.833	2796
814.974	2883
815.115	2986
815.256	2826
815.397	2807
815.539	2853
815.68	2769
815.821	2838
815.962	2952
816.103	2941
816.244	2880
816.385	2895
816.526	2975
816.666	2933
816.807	2735
816.948	2914
817.089	2925
817.23	2902
817.371	2830
817.512	2773
817.653	2834
817.793	2804
817.934	2872
818.075	2944
818.216	3013
818.356	3055
818.497	2899
818.638	2796
818.778	2815
818.919	2804
819.06	2777
819.2	2868
819.341	2804
819.481	2823
819.622	2914
819.762	3089
819.903	3001
820.043	2941
820.184	2914
820.324	2944
820.465	3032
820.605	3039
820.746	3036
820.886	2941
821.026	3077
821.167	3131
821.307	3253
821.447	3287
821.588	3260
821.728	3180
821.868	3192
822.008	3081
822.149	3237
822.289	3230
822.429	3138
822.569	3089
822.709	3195
822.849	3017
822.99	3062
823.13	3188
823.27	3135
823.41	3119
823.55	3135
823.69	3127
823.83	3203
823.97	3123
824.11	2979
824.25	3066
824.389	3119
824.529	3131
824.669	3036
824.809	3195
824.949	3230
825.089	3195
825.228	3188
825.368	3020
825.508	2956
825.648	2982
825.787	3036
825.927	3039
826.067	2937
826.206	3001
826.346	3036
826.485	3116
826.625	3135
826.765	3272
826.904	3214
827.044	3005
827.183	2944
827.323	2906
827.462	2971
827.601	2937
827.741	2933
827.88	3009
828.02	2857
828.159	2967
828.298	3047
828.437	3089
828.577	3081
828.716	3275
828.855	3062
828.994	2933
829.134	2887
829.273	2922
829.412	2872
829.551	2861
829.69	2899
829.829	3028
829.968	3150
830.107	3020
830.246	3017
830.385	2960
830.524	2937
830.663	2823
830.802	2746
830.941	2663
831.08	2667
831.219	2754
831.357	2781
831.496	2960
831.635	2697
831.774	2667
831.913	2655
832.051	2568
832.19	2575
832.329	2667
832.467	2526
832.606	2469
832.744	2583
832.883	2590
833.022	2579
833.16	2651
833.299	2716
833.437	2743
833.576	2727
833.714	2724
833.852	2731
833.991	2777
834.129	2807
834.267	2834
834.406	2800
834.544	2887
834.682	2830
834.821	2861
834.959	3093
835.097	2910
835.235	3051
835.373	2982
835.511	3001
835.65	2975
835.788	2937
835.926	2853
836.064	2823
836.202	2842
836.34	3116
836.478	3184
836.615	3070
836.753	3131
836.891	3203
837.029	3150
837.167	3108
837.305	3066
837.443	3058
837.58	2975
837.718	3161
837.856	3104
837.993	3051
838.131	3169
838.269	3116
838.406	3108
838.544	3074
838.681	2933
838.819	2937
838.956	2861
839.094	2849
839.231	2933
839.369	3001
839.506	3389
839.643	3230
839.781	3055
839.918	2944
840.055	3070
840.193	3077
840.33	3039
840.467	3093
840.604	3184
840.742	3378
840.879	3036
841.016	3024
841.153	3131
841.29	3332
841.427	3268
841.564	3294
841.701	3298
841.838	3237
841.975	3173
842.112	3230
842.249	3085
842.385	3066
842.522	3230
842.659	3104
842.796	3036
842.933	3119
843.069	3070
843.206	3036
843.343	3214
843.479	3108
843.616	3135
843.752	2868
843.889	2891
844.025	3093
844.162	2868
844.298	3081
844.435	2929
844.571	2941
844.708	3051
844.844	3180
844.98	3230
845.117	3180
845.253	3028
845.389	3024
845.525	3119
845.661	3089
845.798	3013
845.934	3157
846.07	3081
846.206	3195
846.342	3310
846.478	3249
846.614	3070
846.75	3066
846.886	3043
847.022	3211
847.158	3184
847.294	3207
847.429	3264
847.565	3218
847.701	3515
847.837	3070
847.972	2975
848.108	3150
848.244	3085
848.379	3005
848.515	2963
848.65	2933
848.786	2960
848.921	3013
849.057	3097
849.192	3138
849.328	3062
849.463	3112
849.598	3100
849.734	3032
849.869	2998
850.004	2918
850.14	2975
850.275	2906
850.41	2838
850.545	2883
850.68	2944
850.815	2960
850.95	2956
851.085	3161
851.22	3100
851.355	3043
851.49	3020
851.625	3028
851.76	3028
851.895	2941
852.03	2906
852.165	3066
852.299	3100
852.434	3173
852.569	3154
852.703	3150
852.838	3249
852.973	3348
853.107	3332
853.242	3180
853.376	3077
853.511	2948
853.645	3047
853.78	3237
853.914	3119
854.048	3127
854.183	3074
854.317	3150
854.451	3287
854.585	3131
854.72	3123
854.854	3230
854.988	3051
855.122	3100
855.256	2975
855.39	3104
855.524	3203
855.658	3188
855.792	3195
855.926	3218
856.06	3180
856.194	3310
856.327	3173
856.461	3093
856.595	3097
856.729	3104
856.862	3253
856.996	3150
857.13	3203
857.263	3203
857.397	3302
857.53	3157
857.664	3195
857.797	3222
857.931	3275
858.064	3180
858.197	3245
858.331	3150
858.464	3108
858.597	2982
858.731	3135
858.864	3131
858.997	3066
859.13	3131
859.263	3199
859.396	3226
859.529	3077
859.662	3089
859.795	3039
859.928	3142
860.061	3272
860.194	3336
860.327	3169
860.46	3108
860.592	3268
860.725	3256
860.858	3253
860.99	3131
861.123	3055
861.256	3066
861.388	3135
861.521	3842
861.653	2986
861.786	2998
861.918	3013
862.05	3108
862.183	3123
862.315	3142
862.447	3222
862.58	3116
862.712	2960
862.844	2891
862.976	2994
863.108	2963
863.24	3291
863.372	2876
863.504	2944
863.636	2975
863.768	2994
863.9	3017
864.032	2910
864.164	2937
864.296	3013
864.428	3093
864.559	3089
864.691	3062
864.823	3066
864.954	3017
865.086	3043
865.217	3013
865.349	2956
865.48	2960
865.612	3043
865.743	3135
865.875	3009
866.006	2956
866.137	2979
866.269	2952
866.4	2941
866.531	2914
866.662	2925
866.793	2880
866.924	2887
867.055	2971
867.186	2906
867.317	2883
867.448	2838
867.579	2864
867.71	2834
867.841	2811
867.972	2914
868.103	2937
868.233	2891
868.364	2872
868.495	2918
868.625	3058
868.756	3146
868.886	2979
869.017	3032
869.147	3161
869.278	3161
869.408	3039
869.539	3039
869.669	3100
869.799	3020
869.929	3119
870.06	3100
870.19	3294
870.32	3291
870.45	3287
870.58	3382
870.71	3462
870.84	3462
870.97	3310
871.1	3237
871.23	3477
871.36	3450
871.489	3355
871.619	3401
871.749	3386
871.879	3439
872.008	3488
872.138	3386
872.267	3275
872.397	3135
872.526	3062
872.656	3024
872.785	3058
872.915	3268
873.044	3306
873.173	3222
873.303	3275
873.432	3230
873.561	3249
873.69	3161
873.819	3135
873.948	3165
874.077	3081
874.206	3051
874.335	3055
874.464	3188
874.593	3344
874.722	3241
874.851	3359
874.979	3340
875.108	3321
875.237	3211
875.365	3142
875.494	3184
875.623	3222
875.751	3074
875.88	3119
876.008	3184
876.136	3245
876.265	3359
876.393	3504
876.521	3412
876.65	3355
876.778	3340
876.906	3218
877.034	3211
877.162	3199
877.29	3173
877.418	3268
877.546	3268
877.674	3279
877.802	3233
877.93	3260
878.058	3180
878.185	3089
878.313	3203
878.441	3192
878.568	3047
878.696	3138
878.824	3268
878.951	3344
879.079	3443
879.206	3595
879.333	3443
879.461	3344
879.588	3363
879.715	3519
879.842	3641
879.97	3363
880.097	3188
880.224	3116
880.351	3226
880.478	3184
880.605	3237
880.732	3253
880.859	3500
880.986	3351
881.112	3344
881.239	3222
881.366	3176
881.493	3074
881.619	3047
881.746	3108
881.872	3131
881.999	3123
882.125	3161
882.252	3256
882.378	3298
882.505	3473
882.631	3317
882.757	3218
882.883	3253
883.01	3256
883.136	3211
883.262	3138
883.388	3176
883.514	3363
883.64	3386
883.766	3363
883.892	3233
884.018	3298
884.143	3454
884.269	3599
884.395	3279
884.52	3237
884.646	3237
884.772	3169
884.897	3135
885.023	3241
885.148	3382
885.274	3504
885.399	3469
885.524	3348
885.65	3268
885.775	3351
885.9	3283
886.025	3450
886.15	3424
886.275	3367
886.4	3302
886.525	3378
886.65	3329
886.775	3363
886.9	3545
887.025	3690
887.149	3416
887.274	3329
887.399	3226
887.523	3264
887.648	3214
887.773	3241
887.897	3428
888.021	3488
888.146	3340
888.27	3530
888.395	3553
888.519	3469
888.643	3500
888.767	3538
888.891	3310
889.015	3268
889.139	3340
889.263	3272
889.387	3428
889.511	3584
889.635	3504
889.759	3340
889.883	3344
890.006	3454
890.13	3557
890.254	3340
890.377	3363
890.501	3256
890.624	3241
890.748	3336
890.871	3279
890.995	3188
891.118	3112
891.241	3237
891.364	3283
891.488	3374
891.611	3226
891.734	3253
891.857	3344
891.98	3279
892.103	3412
892.226	3336
892.349	3256
892.471	3165
892.594	3291
892.717	3321
892.839	3336
892.962	3336
893.085	3443
893.207	3332
893.33	3218
893.452	3279
893.575	3378
893.697	3310
893.819	3500
893.941	3545
894.064	3481
894.186	3306
894.308	3298
894.43	3515
894.552	3576
894.674	3553
894.796	3313
894.918	3306
895.04	3340
895.161	3477
895.283	3473
895.405	3359
895.526	3439
895.648	3477
895.769	3431
895.891	3485
896.012	3534
896.134	3485
896.255	3454
896.376	3458
896.498	3405
896.619	3447
896.74	3393
896.861	3431
896.982	3717
897.103	3819
897.224	3644
897.345	3564
897.466	3473
897.587	3534
897.708	3694
897.828	3591
897.949	3469
898.07	3370
898.19	3443
898.311	3648
898.431	3485
898.552	3568
898.672	3637
898.792	3595
898.913	3542
899.033	3435
899.153	3332
899.273	3245
899.393	3313
899.513	3355
899.633	3416
899.753	3351
899.873	3351
899.993	3431
900.113	3355
900.232	3477
900.352	3393
900.472	3344
900.591	3268
900.711	3310
900.83	3256
900.95	3488
901.069	3561
901.189	3409
901.308	3207
901.427	3192
901.546	3218
901.665	3351
901.784	3378
901.904	3237
902.023	3176
902.141	3055
902.26	3043
902.379	3157
902.498	3123
902.617	3077
902.735	3279
902.854	3294
902.973	3256
903.091	3085
903.21	3062
903.328	3161
903.446	3173
903.565	3146
903.683	3222
903.801	3173
903.919	3264
904.038	3351
904.156	3184
904.274	3329
904.392	3321
904.51	3310
904.627	3386
904.745	3526
904.863	3549
904.981	3302
905.098	3222
905.216	3264
905.334	3317
905.451	3355
905.569	3340
905.686	3416
905.803	3477
905.921	3317
906.038	3488
906.155	3401
906.272	3367
906.389	3374
906.506	3256
906.623	3310
906.74	3344
906.857	3214
906.974	3332
907.091	3557
907.208	3618
907.324	3488
907.441	3431
907.557	3325
907.674	3264
907.79	3245
907.907	3294
908.023	3424
908.139	3401
908.256	3344
908.372	3416
908.488	3424
908.604	3340
908.72	3317
908.836	3325
908.952	3294
909.068	3397
909.184	3519
909.3	3458
909.415	3545
909.531	3485
909.647	3340
909.762	3344
909.878	3302
909.993	3397
910.108	3378
910.224	3370
910.339	3454
910.454	3405
910.57	3359
910.685	3325
910.8	3644
910.915	3561
911.03	3507
911.145	3317
911.259	3317
911.374	3348
911.489	3302
911.604	3253
911.718	3138
911.833	3233
911.947	3066
912.062	3039
912.176	3214
912.291	3241
912.405	3230
912.519	3477
912.633	3519
912.748	3348
912.862	3321
912.976	3207
913.09	3154
913.204	3142
913.318	3260
913.431	3386
913.545	3348
913.659	3462
913.772	3359
913.886	3226
914	3237
914.113	3393
914.226	3428
914.34	3409
914.453	3275
914.566	3428
914.68	3302
914.793	3359
914.906	3161
915.019	3161
915.132	3085
915.245	3233
915.358	3192
915.47	3260
915.583	3329
915.696	3310
915.809	3466
915.921	3454
916.034	3317
916.146	3264
916.259	3275
916.371	3401
916.483	3370
916.595	3332
916.708	3355
916.82	3412
916.932	3367
917.044	3329
917.156	3374
917.268	3306
917.38	3310
917.491	3313
917.603	3416
917.715	3519
917.826	3492
917.938	3431
918.049	3332
918.161	3462
918.272	3641
918.384	3591
918.495	3504
918.606	3389
918.717	3310
918.828	3420
918.939	3458
919.05	3340
919.161	3363
919.272	3249
919.383	3344
919.494	3504
919.604	3736
919.715	3542
919.826	3447
919.936	3485
920.047	3606
920.157	3587
920.267	3800
920.378	3633
920.488	3614
920.598	3812
920.708	3953
920.818	3850
920.928	3880
921.038	4067
921.148	4040
921.258	3694
921.368	3618
921.477	3656
921.587	3561
921.697	3492
921.806	3637
921.916	3500
922.025	3389
922.134	3389
922.244	3382
922.353	3443
922.462	3302
922.571	3302
922.68	3146
922.789	3123
922.898	3165
923.007	3142
923.116	3260
923.224	3218
923.333	3245
923.442	3112
923.55	3108
923.659	3161
923.767	3268
923.876	3127
923.984	3283
924.092	3119
924.201	3233
924.309	3291
924.417	3275
924.525	3211
924.633	3253
924.741	4204
924.849	3097
924.956	3306
925.064	3093
925.172	3085
925.279	3150
925.387	3207
925.494	3249
925.602	3378
925.709	3355
925.816	3207
925.924	3336
926.031	3409
926.138	3340
926.245	3424
926.352	3287
926.459	3447
926.566	3488
926.673	3336
926.779	3275
926.886	3302
926.993	3150
927.099	3180
927.206	3146
927.312	3169
927.419	3214
927.525	3222
927.631	3313
927.737	3173
927.843	3127
927.95	3066
928.056	3165
928.162	3222
928.267	3287
928.373	3899
928.479	3370
928.585	3131
928.69	3188
928.796	3329
928.901	3207
929.007	3070
929.112	3272
929.218	3237
929.323	3192
929.428	3142
929.533	3374
929.638	3146
929.743	3211
929.848	3294
929.953	3264
930.058	3184
930.163	3032
930.267	3066
930.372	3245
930.477	3089
930.581	3378
930.685	3218
930.79	3097
930.894	3131
930.998	3135
931.103	3325
931.207	2990
931.311	3017
931.415	2944
931.519	2823
931.623	2842
