Data from test_V78500241_157.txt Node
Date: Fri Mar 25 16:16:17 CST 2022
User: usil
Spectrometer: V785-0024
Trigger mode: 0
Integration Time (sec): 4.000000E-1
Scans to average: 1
Nonlinearity correction enabled: false
Boxcar width: 0
Storing dark spectrum: false
XAxis mode: Wavelengths
Number of Pixels in Spectrum: 1024
>>>>>Begin Spectral Data<<<<<
801.071	2948
801.214	2941
801.356	2853
801.499	2918
801.641	2891
801.783	2948
801.926	3062
802.068	2971
802.211	3024
802.353	3032
802.496	2971
802.638	2986
802.78	3036
802.923	3085
803.065	2986
803.208	2895
803.35	2922
803.492	2960
803.635	2944
803.777	2739
803.919	2899
804.061	3192
804.204	2941
804.346	2929
804.488	2876
804.63	2975
804.773	2891
804.915	2933
805.057	3116
805.199	2925
805.341	3001
805.483	3047
805.626	2998
805.768	2982
805.91	3089
806.052	3100
806.194	3043
806.336	3253
806.478	3043
806.62	2960
806.762	2963
806.904	3032
807.046	3157
807.188	2971
807.33	2933
807.472	2982
807.614	2914
807.756	2982
807.898	2929
808.04	2880
808.182	3001
808.324	2925
808.465	2883
808.607	2895
808.749	2838
808.891	2845
809.033	2998
809.174	2979
809.316	2914
809.458	2895
809.6	2792
809.741	2773
809.883	2792
810.025	2853
810.166	2895
810.308	2830
810.45	2868
810.591	2762
810.733	2788
810.875	2849
811.016	2804
811.158	2804
811.299	2769
811.441	2956
811.582	2922
811.724	2853
811.865	2819
812.007	2906
812.148	2876
812.29	2887
812.431	2899
812.573	2937
812.714	3028
812.855	3089
812.997	3062
813.138	3157
813.279	3039
813.421	2948
813.562	2975
813.703	2918
813.845	2914
813.986	2754
814.127	2777
814.268	2830
814.41	2830
814.551	2823
814.692	2872
814.833	2826
814.974	2925
815.115	2971
815.256	2804
815.397	2845
815.539	2876
815.68	2796
815.821	2804
815.962	2963
816.103	2960
816.244	2895
816.385	2910
816.526	2975
816.666	2922
816.807	2735
816.948	2910
817.089	2960
817.23	2872
817.371	2807
817.512	2788
817.653	2823
817.793	2861
817.934	2895
818.075	2948
818.216	3009
818.356	3043
818.497	2891
818.638	2792
818.778	2842
818.919	2777
819.06	2769
819.2	2872
819.341	2796
819.481	2800
819.622	2918
819.762	3077
819.903	3077
820.043	2948
820.184	2902
820.324	2918
820.465	3047
820.605	3028
820.746	3013
820.886	2956
821.026	3093
821.167	3169
821.307	3272
821.447	3291
821.588	3226
821.728	3226
821.868	3195
822.008	3116
822.149	3184
822.289	3226
822.429	3081
822.569	3074
822.709	3184
822.849	3070
822.99	3081
823.13	3176
823.27	3230
823.41	3165
823.55	3146
823.69	3165
823.83	3195
823.97	3108
824.11	2994
824.25	2990
824.389	3058
824.529	3127
824.669	3058
824.809	3176
824.949	3249
825.089	3207
825.228	3203
825.368	3017
825.508	2998
825.648	3005
825.787	3020
825.927	3047
826.067	2963
826.206	3009
826.346	3066
826.485	3119
826.625	3116
826.765	3287
826.904	3245
827.044	3020
827.183	2929
827.323	2895
827.462	3017
827.601	2975
827.741	3013
827.88	2990
828.02	2861
828.159	3055
828.298	3093
828.437	3161
828.577	3055
828.716	3272
828.855	3100
828.994	2937
829.134	2933
829.273	2948
829.412	2910
829.551	2910
829.69	2933
829.829	3005
829.968	3154
830.107	3062
830.246	3077
830.385	2979
830.524	2906
830.663	2891
830.802	2781
830.941	2712
831.08	2720
831.219	2815
831.357	2849
831.496	3013
831.635	2807
831.774	2670
831.913	2731
832.051	2571
832.19	2644
832.329	2731
832.467	2598
832.606	2537
832.744	2629
832.883	2632
833.022	2667
833.16	2720
833.299	2746
833.437	2739
833.576	2773
833.714	2785
833.852	2788
833.991	2823
834.129	2872
834.267	2876
834.406	2834
834.544	2967
834.682	2918
834.821	2922
834.959	3104
835.097	2952
835.235	3142
835.373	3051
835.511	3081
835.65	3020
835.788	3013
835.926	2895
836.064	2853
836.202	2914
836.34	3184
836.478	3184
836.615	3077
836.753	3195
836.891	3291
837.029	3218
837.167	3119
837.305	3074
837.443	3116
837.58	2998
837.718	3218
837.856	3119
837.993	3077
838.131	3138
838.269	3180
838.406	3146
838.544	3127
838.681	3001
838.819	2929
838.956	2883
839.094	2887
839.231	2975
839.369	3062
839.506	3435
839.643	3256
839.781	3112
839.918	3009
840.055	3093
840.193	3142
840.33	3169
840.467	3154
840.604	3195
840.742	3431
840.879	3077
841.016	3116
841.153	3138
841.29	3401
841.427	3359
841.564	3344
841.701	3386
841.838	3294
841.975	3203
842.112	3256
842.249	3123
842.385	3108
842.522	3325
842.659	3104
842.796	3108
842.933	3157
843.069	3127
843.206	3127
843.343	3241
843.479	3161
843.616	3230
843.752	2952
843.889	2902
844.025	3131
844.162	2880
844.298	3097
844.435	3005
844.571	2982
844.708	3119
844.844	3230
844.98	3260
845.117	3268
845.253	3131
845.389	3058
845.525	3097
845.661	3192
845.798	3089
845.934	3203
846.07	3077
846.206	3298
846.342	3389
846.478	3268
846.614	3127
846.75	3100
846.886	3097
847.022	3264
847.158	3184
847.294	3279
847.429	3310
847.565	3264
847.701	3557
847.837	3074
847.972	3047
848.108	3218
848.244	3169
848.379	3024
848.515	3005
848.65	2990
848.786	3036
848.921	3055
849.057	3127
849.192	3218
849.328	3100
849.463	3165
849.598	3150
849.734	3055
849.869	3020
850.004	2929
850.14	3055
850.275	2925
850.41	2891
850.545	2956
850.68	2982
850.815	2979
850.95	3036
851.085	3241
851.22	3131
851.355	3051
851.49	3062
851.625	2986
851.76	3039
851.895	2979
852.03	2944
852.165	3062
852.299	3119
852.434	3211
852.569	3165
852.703	3184
852.838	3272
852.973	3378
853.107	3374
853.242	3180
853.376	3127
853.511	3047
853.645	3085
853.78	3291
853.914	3195
854.048	3176
854.183	3150
854.317	3192
854.451	3313
854.585	3165
854.72	3116
854.854	3237
854.988	3097
855.122	3093
855.256	3020
855.39	3112
855.524	3283
855.658	3249
855.792	3180
855.926	3256
856.06	3237
856.194	3287
856.327	3207
856.461	3138
856.595	3154
856.729	3161
856.862	3253
856.996	3222
857.13	3199
857.263	3298
857.397	3332
857.53	3184
857.664	3233
857.797	3264
857.931	3291
858.064	3230
858.197	3237
858.331	3207
858.464	3112
858.597	3039
858.731	3138
858.864	3199
858.997	3119
859.13	3180
859.263	3176
859.396	3195
859.529	3165
859.662	3127
859.795	3116
859.928	3184
860.061	3325
860.194	3321
860.327	3169
860.46	3119
860.592	3256
860.725	3283
860.858	3272
860.99	3135
861.123	3119
861.256	3123
861.388	3161
861.521	3762
861.653	3017
861.786	3028
861.918	3051
862.05	3074
862.183	3123
862.315	3184
862.447	3233
862.58	3146
862.712	2952
862.844	2925
862.976	3062
863.108	3051
863.24	3374
863.372	2918
863.504	2956
863.636	3001
863.768	3043
863.9	3043
864.032	2914
864.164	2979
864.296	3085
864.428	3135
864.559	3165
864.691	3119
864.823	3112
864.954	3074
865.086	3116
865.217	3077
865.349	3005
865.48	3005
865.612	3058
865.743	3157
865.875	3024
866.006	2967
866.137	3005
866.269	2994
866.4	2975
866.531	2979
866.662	2891
866.793	2941
866.924	2975
867.055	3024
867.186	2948
867.317	2910
867.448	2883
867.579	2887
867.71	2880
867.841	2857
867.972	2914
868.103	2960
868.233	2891
868.364	2925
868.495	2937
868.625	3085
868.756	3180
868.886	2982
869.017	3058
869.147	3207
869.278	3203
869.408	3036
869.539	3081
869.669	3112
869.799	3058
869.929	3169
870.06	3135
870.19	3370
870.32	3340
870.45	3302
870.58	3355
870.71	3507
870.84	3507
870.97	3363
871.1	3253
871.23	3580
871.36	3477
871.489	3405
871.619	3458
871.749	3424
871.879	3462
872.008	3500
872.138	3401
872.267	3336
872.397	3195
872.526	3135
872.656	2979
872.785	3108
872.915	3268
873.044	3325
873.173	3279
873.303	3310
873.432	3306
873.561	3256
873.69	3218
873.819	3188
873.948	3211
874.077	3131
874.206	3066
874.335	3085
874.464	3283
874.593	3416
874.722	3287
874.851	3443
874.979	3397
875.108	3359
875.237	3253
875.365	3211
875.494	3195
875.623	3306
875.751	3138
875.88	3150
876.008	3199
876.136	3272
876.265	3416
876.393	3584
876.521	3431
876.65	3447
876.778	3336
876.906	3272
877.034	3245
877.162	3287
877.29	3241
877.418	3302
877.546	3253
877.674	3272
877.802	3306
877.93	3241
878.058	3188
878.185	3161
878.313	3230
878.441	3237
878.568	3085
878.696	3184
878.824	3272
878.951	3294
879.079	3431
879.206	3629
879.333	3428
879.461	3344
879.588	3389
879.715	3496
879.842	3622
879.97	3420
880.097	3192
880.224	3127
880.351	3184
880.478	3272
880.605	3260
880.732	3195
880.859	3507
880.986	3348
881.112	3351
881.239	3203
881.366	3104
881.493	3093
881.619	3093
881.746	3108
881.872	3138
881.999	3108
882.125	3207
882.252	3298
882.378	3344
882.505	3458
882.631	3302
882.757	3203
882.883	3291
883.01	3207
883.136	3199
883.262	3165
883.388	3127
883.514	3351
883.64	3412
883.766	3325
883.892	3218
884.018	3264
884.143	3450
884.269	3595
884.395	3256
884.52	3180
884.646	3245
884.772	3123
884.897	3138
885.023	3233
885.148	3348
885.274	3435
885.399	3409
885.524	3336
885.65	3298
885.775	3355
885.9	3355
886.025	3469
886.15	3374
886.275	3336
886.4	3256
886.525	3329
886.65	3279
886.775	3325
886.9	3496
887.025	3663
887.149	3458
887.274	3275
887.399	3256
887.523	3237
887.648	3253
887.773	3249
887.897	3424
888.021	3447
888.146	3355
888.27	3473
888.395	3557
888.519	3466
888.643	3507
888.767	3454
888.891	3325
889.015	3268
889.139	3340
889.263	3287
889.387	3447
889.511	3545
889.635	3469
889.759	3329
889.883	3332
890.006	3424
890.13	3530
890.254	3298
890.377	3359
890.501	3279
890.624	3207
890.748	3340
890.871	3211
890.995	3154
891.118	3089
891.241	3222
891.364	3264
891.488	3348
891.611	3180
891.734	3253
891.857	3321
891.98	3279
892.103	3359
892.226	3302
892.349	3218
892.471	3127
892.594	3279
892.717	3336
892.839	3340
892.962	3313
893.085	3420
893.207	3302
893.33	3184
893.452	3241
893.575	3367
893.697	3294
893.819	3462
893.941	3515
894.064	3454
894.186	3340
894.308	3298
894.43	3507
894.552	3553
894.674	3488
894.796	3317
894.918	3332
895.04	3306
895.161	3477
895.283	3420
895.405	3336
895.526	3393
895.648	3431
895.769	3428
895.891	3507
896.012	3462
896.134	3466
896.255	3428
896.376	3412
896.498	3367
896.619	3485
896.74	3344
896.861	3454
896.982	3751
897.103	3873
897.224	3660
897.345	3515
897.466	3466
897.587	3530
897.708	3671
897.828	3542
897.949	3469
898.07	3374
898.19	3466
898.311	3618
898.431	3439
898.552	3542
898.672	3618
898.792	3656
898.913	3553
899.033	3428
899.153	3313
899.273	3268
899.393	3298
899.513	3344
899.633	3363
899.753	3374
899.873	3310
899.993	3416
900.113	3374
900.232	3431
900.352	3351
900.472	3329
900.591	3226
900.711	3325
900.83	3264
900.95	3431
901.069	3523
901.189	3397
901.308	3192
901.427	3165
901.546	3207
901.665	3310
901.784	3393
901.904	3222
902.023	3150
902.141	3077
902.26	3043
902.379	3173
902.498	3112
902.617	3112
902.735	3256
902.854	3256
902.973	3233
903.091	3089
903.21	3127
903.328	3161
903.446	3146
903.565	3138
903.683	3199
903.801	3150
903.919	3275
904.038	3310
904.156	3192
904.274	3363
904.392	3253
904.51	3329
904.627	3344
904.745	3511
904.863	3538
904.981	3294
905.098	3173
905.216	3272
905.334	3313
905.451	3321
905.569	3321
905.686	3439
905.803	3473
905.921	3268
906.038	3428
906.155	3386
906.272	3321
906.389	3359
906.506	3249
906.623	3260
906.74	3313
906.857	3184
906.974	3306
907.091	3477
907.208	3549
907.324	3469
907.441	3405
907.557	3264
907.674	3256
907.79	3245
907.907	3306
908.023	3382
908.139	3412
908.256	3386
908.372	3405
908.488	3401
908.604	3310
908.72	3272
908.836	3302
908.952	3313
909.068	3363
909.184	3526
909.3	3405
909.415	3511
909.531	3481
909.647	3291
909.762	3329
909.878	3272
909.993	3382
910.108	3363
910.224	3359
910.339	3435
910.454	3348
910.57	3302
910.685	3264
910.8	3629
910.915	3557
911.03	3462
911.145	3294
911.259	3325
911.374	3344
911.489	3264
911.604	3211
911.718	3135
911.833	3180
911.947	3074
912.062	3001
912.176	3199
912.291	3211
912.405	3230
912.519	3435
912.633	3458
912.748	3397
912.862	3321
912.976	3203
913.09	3070
913.204	3169
913.318	3249
913.431	3374
913.545	3378
913.659	3431
913.772	3321
913.886	3237
914	3272
914.113	3386
914.226	3428
914.34	3386
914.453	3249
914.566	3431
914.68	3310
914.793	3336
914.906	3169
915.019	3131
915.132	3074
915.245	3180
915.358	3218
915.47	3253
915.583	3287
915.696	3302
915.809	3428
915.921	3439
916.034	3272
916.146	3313
916.259	3237
916.371	3428
916.483	3374
916.595	3275
916.708	3344
916.82	3363
916.932	3332
917.044	3393
917.156	3370
917.268	3275
917.38	3268
917.491	3302
917.603	3382
917.715	3450
917.826	3492
917.938	3382
918.049	3313
918.161	3458
918.272	3603
918.384	3610
918.495	3488
918.606	3332
918.717	3283
918.828	3397
918.939	3416
919.05	3310
919.161	3428
919.272	3176
919.383	3317
919.494	3500
919.604	3766
919.715	3523
919.826	3473
919.936	3485
920.047	3618
920.157	3568
920.267	3778
920.378	3652
920.488	3561
920.598	3747
920.708	3968
920.818	3835
920.928	3876
921.038	4093
921.148	4002
921.258	3728
921.368	3633
921.477	3603
921.587	3564
921.697	3504
921.806	3641
921.916	3496
922.025	3367
922.134	3401
922.244	3332
922.353	3447
922.462	3306
922.571	3245
922.68	3142
922.789	3058
922.898	3161
923.007	3097
923.116	3203
923.224	3165
923.333	3180
923.442	3119
923.55	3093
923.659	3142
923.767	3218
923.876	3154
923.984	3294
924.092	3127
924.201	3256
924.309	3260
924.417	3287
924.525	3218
924.633	3268
924.741	4215
924.849	3047
924.956	3275
925.064	3108
925.172	3070
925.279	3100
925.387	3211
925.494	3222
925.602	3416
925.709	3332
925.816	3192
925.924	3291
926.031	3412
926.138	3344
926.245	3374
926.352	3294
926.459	3454
926.566	3519
926.673	3329
926.779	3275
926.886	3253
926.993	3173
927.099	3195
927.206	3154
927.312	3100
927.419	3260
927.525	3222
927.631	3302
927.737	3146
927.843	3161
927.95	3062
928.056	3146
928.162	3211
928.267	3283
928.373	3899
928.479	3298
928.585	3062
928.69	3226
928.796	3313
928.901	3203
929.007	3108
929.112	3138
929.218	3184
929.323	3116
929.428	3146
929.533	3325
929.638	3123
929.743	3188
929.848	3264
929.953	3279
930.058	3154
930.163	3020
930.267	3081
930.372	3207
930.477	3074
930.581	3344
930.685	3188
930.79	3062
930.894	3142
930.998	3138
931.103	3298
931.207	2986
931.311	2975
931.415	2956
931.519	2804
931.623	2830
