Data from test_V78500241_773.txt Node
Date: Fri Mar 25 16:20:33 CST 2022
User: usil
Spectrometer: V785-0024
Trigger mode: 0
Integration Time (sec): 4.000000E-1
Scans to average: 1
Nonlinearity correction enabled: false
Boxcar width: 0
Storing dark spectrum: false
XAxis mode: Wavelengths
Number of Pixels in Spectrum: 1024
>>>>>Begin Spectral Data<<<<<
801.071	2906
801.214	2975
801.356	2895
801.499	2925
801.641	2845
801.783	2902
801.926	3070
802.068	2914
802.211	2952
802.353	3036
802.496	2975
802.638	3009
802.78	3070
802.923	3066
803.065	3081
803.208	2910
803.35	2941
803.492	2895
803.635	2933
803.777	2754
803.919	2891
804.061	3203
804.204	2956
804.346	2891
804.488	2834
804.63	2952
804.773	2902
804.915	2925
805.057	3051
805.199	2956
805.341	2998
805.483	3039
805.626	2986
805.768	2975
805.91	3108
806.052	3150
806.194	3028
806.336	3218
806.478	3036
806.62	2948
806.762	2971
806.904	3058
807.046	3142
807.188	3001
807.33	2925
807.472	3009
807.614	2876
807.756	2990
807.898	2910
808.04	2899
808.182	2979
808.324	2941
808.465	2876
808.607	2922
808.749	2800
808.891	2842
809.033	2979
809.174	2948
809.316	2895
809.458	2902
809.6	2804
809.741	2773
809.883	2720
810.025	2845
810.166	2864
810.308	2838
810.45	2861
810.591	2796
810.733	2785
810.875	2838
811.016	2754
811.158	2762
811.299	2819
811.441	2941
811.582	2883
811.724	2815
811.865	2864
812.007	2902
812.148	2895
812.29	2819
812.431	2883
812.573	2941
812.714	2922
812.855	3032
812.997	3062
813.138	3127
813.279	2998
813.421	2960
813.562	2975
813.703	2868
813.845	2899
813.986	2769
814.127	2701
814.268	2842
814.41	2823
814.551	2792
814.692	2857
814.833	2792
814.974	2937
815.115	2971
815.256	2823
815.397	2796
815.539	2849
815.68	2746
815.821	2788
815.962	2963
816.103	2899
816.244	2891
816.385	2872
816.526	2925
816.666	2918
816.807	2750
816.948	2872
817.089	2918
817.23	2868
817.371	2766
817.512	2777
817.653	2834
817.793	2823
817.934	2876
818.075	2941
818.216	2948
818.356	3013
818.497	2895
818.638	2807
818.778	2804
818.919	2819
819.06	2773
819.2	2910
819.341	2804
819.481	2785
819.622	2918
819.762	3104
819.903	3039
820.043	2914
820.184	2887
820.324	2883
820.465	3047
820.605	3001
820.746	3047
820.886	2975
821.026	3100
821.167	3135
821.307	3260
821.447	3241
821.588	3233
821.728	3188
821.868	3157
822.008	3074
822.149	3173
822.289	3211
822.429	3100
822.569	3062
822.709	3161
822.849	3043
822.99	3058
823.13	3169
823.27	3161
823.41	3123
823.55	3131
823.69	3119
823.83	3180
823.97	3097
824.11	3017
824.25	2998
824.389	3051
824.529	3108
824.669	3055
824.809	3161
824.949	3245
825.089	3192
825.228	3176
825.368	2971
825.508	2963
825.648	2963
825.787	3001
825.927	3017
826.067	2967
826.206	2986
826.346	3047
826.485	3070
826.625	3150
826.765	3256
826.904	3157
827.044	2975
827.183	2899
827.323	2880
827.462	2994
827.601	2910
827.741	2941
827.88	2944
828.02	2861
828.159	2967
828.298	3020
828.437	3100
828.577	3043
828.716	3256
828.855	3055
828.994	2910
829.134	2906
829.273	2902
829.412	2861
829.551	2842
829.69	2899
829.829	2979
829.968	3138
830.107	3024
830.246	3051
830.385	2933
830.524	2895
830.663	2800
830.802	2727
830.941	2689
831.08	2659
831.219	2796
831.357	2777
831.496	2941
831.635	2701
831.774	2678
831.913	2640
832.051	2564
832.19	2575
832.329	2724
832.467	2530
832.606	2465
832.744	2583
832.883	2552
833.022	2571
833.16	2651
833.299	2670
833.437	2689
833.576	2705
833.714	2705
833.852	2743
833.991	2785
834.129	2823
834.267	2830
834.406	2811
834.544	2914
834.682	2876
834.821	2876
834.959	3055
835.097	2872
835.235	3009
835.373	3028
835.511	2994
835.65	2952
835.788	2948
835.926	2830
836.064	2815
836.202	2838
836.34	3070
836.478	3142
836.615	3062
836.753	3123
836.891	3230
837.029	3135
837.167	3081
837.305	3051
837.443	3047
837.58	2944
837.718	3119
837.856	3058
837.993	3047
838.131	3154
838.269	3127
838.406	3116
838.544	3100
838.681	2952
838.819	2899
838.956	2815
839.094	2823
839.231	2910
839.369	3051
839.506	3378
839.643	3211
839.781	2963
839.918	2948
840.055	3039
840.193	3055
840.33	3074
840.467	3093
840.604	3161
840.742	3382
840.879	3081
841.016	3055
841.153	3112
841.29	3321
841.427	3294
841.564	3233
841.701	3336
841.838	3176
841.975	3146
842.112	3233
842.249	3024
842.385	3020
842.522	3222
842.659	3051
842.796	3081
842.933	3066
843.069	3081
843.206	3024
843.343	3146
843.479	3138
843.616	3154
843.752	2899
843.889	2857
844.025	3100
844.162	2876
844.298	3074
844.435	2933
844.571	2914
844.708	3074
844.844	3138
844.98	3226
845.117	3173
845.253	3051
845.389	2998
845.525	3062
845.661	3081
845.798	2986
845.934	3104
846.07	3032
846.206	3222
846.342	3313
846.478	3214
846.614	3104
846.75	3077
846.886	3013
847.022	3245
847.158	3138
847.294	3207
847.429	3203
847.565	3199
847.701	3439
847.837	3017
847.972	2979
848.108	3161
848.244	3142
848.379	3001
848.515	2914
848.65	2937
848.786	2967
848.921	3001
849.057	3066
849.192	3142
849.328	3039
849.463	3104
849.598	3020
849.734	2967
849.869	2967
850.004	2910
850.14	2960
850.275	2937
850.41	2842
850.545	2853
850.68	2925
850.815	2902
850.95	2960
851.085	3188
851.22	3154
851.355	3036
851.49	2975
851.625	2994
851.76	3013
851.895	2941
852.03	2895
852.165	3024
852.299	3097
852.434	3150
852.569	3135
852.703	3146
852.838	3230
852.973	3329
853.107	3325
853.242	3112
853.376	3043
853.511	3009
853.645	3043
853.78	3218
853.914	3116
854.048	3085
854.183	3093
854.317	3116
854.451	3245
854.585	3123
854.72	3047
854.854	3184
854.988	3032
855.122	3093
855.256	2952
855.39	3119
855.524	3245
855.658	3180
855.792	3173
855.926	3192
856.06	3203
856.194	3275
856.327	3169
856.461	3051
856.595	3070
856.729	3104
856.862	3192
856.996	3180
857.13	3192
857.263	3230
857.397	3294
857.53	3127
857.664	3222
857.797	3199
857.931	3241
858.064	3154
858.197	3195
858.331	3123
858.464	3074
858.597	2971
858.731	3104
858.864	3138
858.997	3097
859.13	3169
859.263	3161
859.396	3176
859.529	3077
859.662	3051
859.795	3066
859.928	3138
860.061	3272
860.194	3256
860.327	3138
860.46	3142
860.592	3211
860.725	3279
860.858	3241
860.99	3089
861.123	3070
861.256	3055
861.388	3146
861.521	3899
861.653	3020
861.786	2990
861.918	3047
862.05	3036
862.183	3123
862.315	3142
862.447	3207
862.58	3135
862.712	2937
862.844	2910
862.976	3058
863.108	2994
863.24	3454
863.372	2861
863.504	2982
863.636	2948
863.768	3024
863.9	2960
864.032	2914
864.164	2979
864.296	3013
864.428	3077
864.559	3104
864.691	3062
864.823	3062
864.954	3005
865.086	3032
865.217	2979
865.349	2967
865.48	2967
865.612	3024
865.743	3154
865.875	3017
866.006	2899
866.137	2960
866.269	2941
866.4	2944
866.531	2876
866.662	2891
866.793	2857
866.924	2887
867.055	2990
867.186	2906
867.317	2887
867.448	2807
867.579	2853
867.71	2845
867.841	2823
867.972	2895
868.103	2929
868.233	2868
868.364	2834
868.495	2902
868.625	3043
868.756	3131
868.886	2979
869.017	3051
869.147	3184
869.278	3184
869.408	3066
869.539	3032
869.669	3089
869.799	2994
869.929	3123
870.06	3097
870.19	3329
870.32	3302
870.45	3260
870.58	3374
870.71	3412
870.84	3450
870.97	3272
871.1	3245
871.23	3466
871.36	3389
871.489	3332
871.619	3397
871.749	3393
871.879	3424
872.008	3458
872.138	3344
872.267	3313
872.397	3161
872.526	3097
872.656	3005
872.785	3085
872.915	3218
873.044	3313
873.173	3214
873.303	3279
873.432	3233
873.561	3207
873.69	3131
873.819	3142
873.948	3184
874.077	3093
874.206	3058
874.335	3104
874.464	3195
874.593	3340
874.722	3222
874.851	3393
874.979	3340
875.108	3348
875.237	3203
875.365	3131
875.494	3150
875.623	3222
875.751	3097
875.88	3123
876.008	3180
876.136	3203
876.265	3359
876.393	3481
876.521	3412
876.65	3389
876.778	3336
876.906	3214
877.034	3176
877.162	3207
877.29	3173
877.418	3256
877.546	3199
877.674	3233
877.802	3233
877.93	3199
878.058	3165
878.185	3081
878.313	3230
878.441	3211
878.568	3070
878.696	3199
878.824	3256
878.951	3256
879.079	3424
879.206	3610
879.333	3416
879.461	3367
879.588	3378
879.715	3477
879.842	3591
879.97	3359
880.097	3207
880.224	3154
880.351	3165
880.478	3173
880.605	3173
880.732	3176
880.859	3488
880.986	3253
881.112	3325
881.239	3214
881.366	3070
881.493	3024
881.619	3024
881.746	3051
881.872	3077
881.999	3085
882.125	3146
882.252	3218
882.378	3291
882.505	3401
882.631	3249
882.757	3142
882.883	3199
883.01	3192
883.136	3100
883.262	3108
883.388	3116
883.514	3302
883.64	3374
883.766	3302
883.892	3180
884.018	3211
884.143	3397
884.269	3557
884.395	3192
884.52	3173
884.646	3138
884.772	3108
884.897	3097
885.023	3245
885.148	3317
885.274	3428
885.399	3355
885.524	3249
885.65	3275
885.775	3287
885.9	3253
886.025	3416
886.15	3370
886.275	3264
886.4	3211
886.525	3313
886.65	3279
886.775	3310
886.9	3469
887.025	3641
887.149	3450
887.274	3218
887.399	3207
887.523	3211
887.648	3173
887.773	3184
887.897	3332
888.021	3405
888.146	3317
888.27	3443
888.395	3507
888.519	3431
888.643	3443
888.767	3477
888.891	3313
889.015	3249
889.139	3279
889.263	3237
889.387	3374
889.511	3481
889.635	3443
889.759	3329
889.883	3310
890.006	3386
890.13	3500
890.254	3279
890.377	3321
890.501	3150
890.624	3184
890.748	3260
890.871	3161
890.995	3116
891.118	3043
891.241	3184
891.364	3233
891.488	3310
891.611	3173
891.734	3230
891.857	3249
891.98	3237
892.103	3374
892.226	3256
892.349	3230
892.471	3066
892.594	3207
892.717	3306
892.839	3275
892.962	3313
893.085	3374
893.207	3298
893.33	3169
893.452	3199
893.575	3336
893.697	3249
893.819	3443
893.941	3492
894.064	3450
894.186	3279
894.308	3275
894.43	3424
894.552	3549
894.674	3447
894.796	3272
894.918	3325
895.04	3287
895.161	3420
895.283	3405
895.405	3302
895.526	3325
895.648	3412
895.769	3447
895.891	3473
896.012	3481
896.134	3511
896.255	3409
896.376	3310
896.498	3393
896.619	3386
896.74	3370
896.861	3401
896.982	3663
897.103	3854
897.224	3564
897.345	3511
897.466	3393
897.587	3526
897.708	3603
897.828	3572
897.949	3424
898.07	3313
898.19	3378
898.311	3595
898.431	3458
898.552	3545
898.672	3587
898.792	3542
898.913	3515
899.033	3363
899.153	3310
899.273	3222
899.393	3241
899.513	3310
899.633	3302
899.753	3329
899.873	3321
899.993	3389
900.113	3355
900.232	3351
900.352	3340
900.472	3291
900.591	3192
900.711	3279
900.83	3222
900.95	3382
901.069	3511
901.189	3340
901.308	3188
901.427	3157
901.546	3173
901.665	3279
901.784	3302
901.904	3207
902.023	3173
902.141	3039
902.26	2979
902.379	3142
902.498	3074
902.617	3089
902.735	3195
902.854	3199
902.973	3203
903.091	3055
903.21	3036
903.328	3108
903.446	3108
903.565	3085
903.683	3195
903.801	3146
903.919	3214
904.038	3260
904.156	3146
904.274	3310
904.392	3237
904.51	3313
904.627	3310
904.745	3409
904.863	3511
904.981	3241
905.098	3192
905.216	3233
905.334	3275
905.451	3298
905.569	3298
905.686	3428
905.803	3401
905.921	3298
906.038	3420
906.155	3348
906.272	3272
906.389	3336
906.506	3207
906.623	3260
906.74	3218
906.857	3165
906.974	3291
907.091	3458
907.208	3553
907.324	3469
907.441	3344
907.557	3264
907.674	3195
907.79	3230
907.907	3287
908.023	3393
908.139	3405
908.256	3306
908.372	3374
908.488	3363
908.604	3256
908.72	3233
908.836	3264
908.952	3287
909.068	3283
909.184	3504
909.3	3405
909.415	3519
909.531	3435
909.647	3245
909.762	3310
909.878	3256
909.993	3348
910.108	3370
910.224	3329
910.339	3409
910.454	3294
910.57	3264
910.685	3195
910.8	3587
910.915	3488
911.03	3435
911.145	3253
911.259	3264
911.374	3306
911.489	3260
911.604	3226
911.718	3161
911.833	3138
911.947	3020
912.062	2967
912.176	3180
912.291	3249
912.405	3230
912.519	3428
912.633	3439
912.748	3317
912.862	3264
912.976	3157
913.09	3070
913.204	3146
913.318	3226
913.431	3367
913.545	3313
913.659	3389
913.772	3306
913.886	3199
914	3211
914.113	3386
914.226	3416
914.34	3374
914.453	3199
914.566	3428
914.68	3298
914.793	3321
914.906	3127
915.019	3112
915.132	3039
915.245	3169
915.358	3184
915.47	3237
915.583	3298
915.696	3302
915.809	3382
915.921	3420
916.034	3245
916.146	3249
916.259	3226
916.371	3367
916.483	3370
916.595	3291
916.708	3325
916.82	3287
916.932	3344
917.044	3325
917.156	3325
917.268	3253
917.38	3294
917.491	3268
917.603	3370
917.715	3481
917.826	3469
917.938	3401
918.049	3256
918.161	3412
918.272	3553
918.384	3580
918.495	3443
918.606	3355
918.717	3264
918.828	3370
918.939	3397
919.05	3264
919.161	3393
919.272	3203
919.383	3310
919.494	3481
919.604	3656
919.715	3481
919.826	3431
919.936	3439
920.047	3584
920.157	3584
920.267	3770
920.378	3606
920.488	3549
920.598	3781
920.708	3972
920.818	3800
920.928	3857
921.038	3994
921.148	3983
921.258	3717
921.368	3618
921.477	3644
921.587	3500
921.697	3496
921.806	3622
921.916	3519
922.025	3336
922.134	3367
922.244	3310
922.353	3428
922.462	3264
922.571	3260
922.68	3100
922.789	3100
922.898	3146
923.007	3081
923.116	3226
923.224	3150
923.333	3188
923.442	3127
923.55	3089
923.659	3157
923.767	3241
923.876	3135
923.984	3207
924.092	3157
924.201	3176
924.309	3214
924.417	3226
924.525	3161
924.633	3245
924.741	4162
924.849	3051
924.956	3249
925.064	3081
925.172	3043
925.279	3097
925.387	3184
925.494	3192
925.602	3363
925.709	3370
925.816	3176
925.924	3291
926.031	3363
926.138	3317
926.245	3340
926.352	3222
926.459	3412
926.566	3443
926.673	3283
926.779	3256
926.886	3264
926.993	3173
927.099	3131
927.206	3097
927.312	3100
927.419	3211
927.525	3195
927.631	3214
927.737	3146
927.843	3131
927.95	3051
928.056	3085
928.162	3142
928.267	3253
928.373	3766
928.479	3310
928.585	3055
928.69	3192
928.796	3268
928.901	3135
929.007	3009
929.112	3154
929.218	3226
929.323	3173
929.428	3112
929.533	3302
929.638	3131
929.743	3214
929.848	3264
929.953	3256
930.058	3146
930.163	3009
930.267	3055
930.372	3211
930.477	3036
930.581	3325
930.685	3192
930.79	3055
930.894	3112
930.998	3131
931.103	3264
931.207	2971
931.311	2899
931.415	2922
931.519	2746
931.623	2811
