Data from test_V78500241_1306.txt Node
Date: Fri Mar 25 16:24:15 CST 2022
User: usil
Spectrometer: V785-0024
Trigger mode: 0
Integration Time (sec): 4.000000E-1
Scans to average: 1
Nonlinearity correction enabled: false
Boxcar width: 0
Storing dark spectrum: false
XAxis mode: Wavelengths
Number of Pixels in Spectrum: 1024
>>>>>Begin Spectral Data<<<<<
801.071	2933
801.214	2956
801.356	2899
801.499	2910
801.641	2876
801.783	2910
801.926	3047
802.068	2956
802.211	3024
802.353	3058
802.496	2960
802.638	3024
802.78	3009
802.923	3051
803.065	2979
803.208	2895
803.35	2937
803.492	2925
803.635	2906
803.777	2769
803.919	2830
804.061	3173
804.204	2944
804.346	2902
804.488	2838
804.63	2979
804.773	2883
804.915	2891
805.057	3077
805.199	2929
805.341	2944
805.483	2994
805.626	3001
805.768	2967
805.91	3055
806.052	3116
806.194	3009
806.336	3222
806.478	3032
806.62	2952
806.762	2990
806.904	3032
807.046	3184
807.188	2967
807.33	2948
807.472	2956
807.614	2925
807.756	2952
807.898	2880
808.04	2864
808.182	3001
808.324	2956
808.465	2864
808.607	2876
808.749	2807
808.891	2807
809.033	2982
809.174	2963
809.316	2876
809.458	2895
809.6	2762
809.741	2750
809.883	2781
810.025	2838
810.166	2842
810.308	2815
810.45	2864
810.591	2750
810.733	2762
810.875	2883
811.016	2792
811.158	2762
811.299	2800
811.441	2922
811.582	2895
811.724	2830
811.865	2819
812.007	2891
812.148	2883
812.29	2872
812.431	2914
812.573	2925
812.714	2994
812.855	3058
812.997	3039
813.138	3135
813.279	3005
813.421	2971
813.562	2994
813.703	2895
813.845	2918
813.986	2754
814.127	2708
814.268	2804
814.41	2823
814.551	2819
814.692	2887
814.833	2800
814.974	2895
815.115	2933
815.256	2834
815.397	2807
815.539	2838
815.68	2773
815.821	2762
815.962	2918
816.103	2948
816.244	2845
816.385	2887
816.526	2929
816.666	2922
816.807	2781
816.948	2849
817.089	2872
817.23	2895
817.371	2781
817.512	2769
817.653	2853
817.793	2811
817.934	2880
818.075	2967
818.216	2994
818.356	3020
818.497	2906
818.638	2773
818.778	2804
818.919	2815
819.06	2746
819.2	2857
819.341	2826
819.481	2792
819.622	2872
819.762	3104
819.903	3028
820.043	2948
820.184	2876
820.324	2906
820.465	2979
820.605	3017
820.746	3005
820.886	2948
821.026	3062
821.167	3154
821.307	3249
821.447	3260
821.588	3245
821.728	3157
821.868	3180
822.008	3085
822.149	3176
822.289	3218
822.429	3093
822.569	3070
822.709	3138
822.849	3036
822.99	3077
823.13	3176
823.27	3192
823.41	3081
823.55	3154
823.69	3100
823.83	3211
823.97	3097
824.11	2998
824.25	3013
824.389	3097
824.529	3112
824.669	3062
824.809	3188
824.949	3253
825.089	3249
825.228	3154
825.368	2971
825.508	2937
825.648	2948
825.787	2986
825.927	3028
826.067	2990
826.206	2929
826.346	3036
826.485	3097
826.625	3104
826.765	3249
826.904	3203
827.044	3001
827.183	2910
827.323	2849
827.462	2994
827.601	2902
827.741	2933
827.88	2956
828.02	2849
828.159	2960
828.298	3017
828.437	3081
828.577	3074
828.716	3249
828.855	3062
828.994	2895
829.134	2872
829.273	2937
829.412	2853
829.551	2857
829.69	2864
829.829	2944
829.968	3085
830.107	3020
830.246	3013
830.385	2914
830.524	2891
830.663	2826
830.802	2739
830.941	2640
831.08	2659
831.219	2762
831.357	2762
831.496	2914
831.635	2727
831.774	2621
831.913	2598
832.051	2556
832.19	2556
832.329	2644
832.467	2522
832.606	2461
832.744	2594
832.883	2564
833.022	2549
833.16	2617
833.299	2644
833.437	2701
833.576	2670
833.714	2701
833.852	2727
833.991	2762
834.129	2834
834.267	2807
834.406	2781
834.544	2887
834.682	2864
834.821	2883
834.959	3055
835.097	2899
835.235	3036
835.373	2994
835.511	3028
835.65	2967
835.788	2948
835.926	2845
836.064	2804
836.202	2815
836.34	3104
836.478	3119
836.615	3039
836.753	3116
836.891	3241
837.029	3123
837.167	3093
837.305	3058
837.443	3032
837.58	2941
837.718	3138
837.856	3051
837.993	3055
838.131	3116
838.269	3100
838.406	3089
838.544	3036
838.681	2937
838.819	2918
838.956	2826
839.094	2826
839.231	2922
839.369	3055
839.506	3340
839.643	3180
839.781	2979
839.918	2990
840.055	3066
840.193	3032
840.33	3047
840.467	3089
840.604	3157
840.742	3405
840.879	3005
841.016	3020
841.153	3135
841.29	3348
841.427	3260
841.564	3237
841.701	3294
841.838	3237
841.975	3180
842.112	3203
842.249	3074
842.385	3043
842.522	3287
842.659	3047
842.796	3047
842.933	3097
843.069	3032
843.206	3001
843.343	3157
843.479	3116
843.616	3131
843.752	2883
843.889	2891
844.025	3032
844.162	2876
844.298	3047
844.435	2925
844.571	2899
844.708	3051
844.844	3146
844.98	3256
845.117	3214
845.253	3070
845.389	3024
845.525	3081
845.661	3097
845.798	3017
845.934	3135
846.07	3058
846.206	3218
846.342	3268
846.478	3237
846.614	3100
846.75	3058
846.886	3036
847.022	3272
847.158	3116
847.294	3192
847.429	3272
847.565	3165
847.701	3431
847.837	2986
847.972	3013
848.108	3180
848.244	3116
848.379	2960
848.515	2922
848.65	2895
848.786	2952
848.921	2998
849.057	3112
849.192	3119
849.328	3074
849.463	3085
849.598	3081
849.734	3032
849.869	2937
850.004	2872
850.14	2956
850.275	2902
850.41	2857
850.545	2868
850.68	2883
850.815	2960
850.95	2960
851.085	3157
851.22	3077
851.355	3020
851.49	2944
851.625	3013
851.76	2998
851.895	2925
852.03	2925
852.165	3043
852.299	3089
852.434	3176
852.569	3089
852.703	3138
852.838	3230
852.973	3321
853.107	3302
853.242	3142
853.376	3089
853.511	2979
853.645	3055
853.78	3256
853.914	3081
854.048	3100
854.183	3081
854.317	3127
854.451	3268
854.585	3100
854.72	3058
854.854	3203
854.988	3036
855.122	3089
855.256	2956
855.39	3108
855.524	3211
855.658	3150
855.792	3154
855.926	3169
856.06	3192
856.194	3260
856.327	3135
856.461	3074
856.595	3085
856.729	3074
856.862	3230
856.996	3169
857.13	3203
857.263	3211
857.397	3264
857.53	3089
857.664	3180
857.797	3211
857.931	3275
858.064	3127
858.197	3203
858.331	3150
858.464	3070
858.597	3009
858.731	3097
858.864	3104
858.997	3074
859.13	3146
859.263	3176
859.396	3199
859.529	3081
859.662	3058
859.795	3081
859.928	3097
860.061	3260
860.194	3294
860.327	3119
860.46	3066
860.592	3241
860.725	3245
860.858	3245
860.99	3104
861.123	3066
861.256	3047
861.388	3116
861.521	3667
861.653	3024
861.786	3024
861.918	2998
862.05	3066
862.183	3074
862.315	3100
862.447	3214
862.58	3089
862.712	2925
862.844	2910
862.976	3024
863.108	2986
863.24	3321
863.372	2857
863.504	2956
863.636	2941
863.768	3013
863.9	2956
864.032	2906
864.164	2956
864.296	2986
864.428	3119
864.559	3055
864.691	3051
864.823	3066
864.954	3001
865.086	3051
865.217	2998
865.349	2922
865.48	2967
865.612	3032
865.743	3165
865.875	2929
866.006	2956
866.137	2990
866.269	2963
866.4	2922
866.531	2910
866.662	2845
866.793	2906
866.924	2933
867.055	2971
867.186	2918
867.317	2918
867.448	2849
867.579	2876
867.71	2857
867.841	2842
867.972	2883
868.103	2864
868.233	2872
868.364	2880
868.495	2883
868.625	3058
868.756	3154
868.886	2960
869.017	3032
869.147	3142
869.278	3127
869.408	3036
869.539	3009
869.669	3108
869.799	3032
869.929	3093
870.06	3104
870.19	3310
870.32	3294
870.45	3275
870.58	3378
870.71	3458
870.84	3443
870.97	3306
871.1	3237
871.23	3458
871.36	3481
871.489	3359
871.619	3378
871.749	3405
871.879	3389
872.008	3481
872.138	3344
872.267	3237
872.397	3138
872.526	3070
872.656	2990
872.785	3081
872.915	3226
873.044	3302
873.173	3218
873.303	3260
873.432	3241
873.561	3222
873.69	3157
873.819	3169
873.948	3207
874.077	3051
874.206	3047
874.335	3077
874.464	3188
874.593	3313
874.722	3218
874.851	3428
874.979	3363
875.108	3294
875.237	3192
875.365	3176
875.494	3157
875.623	3230
875.751	3081
875.88	3108
876.008	3161
876.136	3237
876.265	3321
876.393	3504
876.521	3378
876.65	3405
876.778	3332
876.906	3230
877.034	3173
877.162	3249
877.29	3161
877.418	3230
877.546	3253
877.674	3256
877.802	3253
877.93	3233
878.058	3119
878.185	3093
878.313	3203
878.441	3218
878.568	3020
878.696	3119
878.824	3222
878.951	3264
879.079	3450
879.206	3637
879.333	3416
879.461	3321
879.588	3332
879.715	3466
879.842	3538
879.97	3355
880.097	3142
880.224	3093
880.351	3157
880.478	3173
880.605	3161
880.732	3192
880.859	3492
880.986	3283
881.112	3313
881.239	3199
881.366	3116
881.493	3013
881.619	3005
881.746	3070
881.872	3104
881.999	3055
882.125	3142
882.252	3222
882.378	3294
882.505	3454
882.631	3302
882.757	3135
882.883	3233
883.01	3226
883.136	3135
883.262	3085
883.388	3142
883.514	3351
883.64	3374
883.766	3256
883.892	3184
884.018	3253
884.143	3405
884.269	3530
884.395	3211
884.52	3173
884.646	3161
884.772	3127
884.897	3131
885.023	3188
885.148	3317
885.274	3466
885.399	3329
885.524	3256
885.65	3256
885.775	3294
885.9	3313
886.025	3409
886.15	3329
886.275	3291
886.4	3207
886.525	3329
886.65	3264
886.775	3283
886.9	3454
887.025	3618
887.149	3420
887.274	3253
887.399	3154
887.523	3192
887.648	3165
887.773	3161
887.897	3370
888.021	3382
888.146	3287
888.27	3466
888.395	3492
888.519	3435
888.643	3443
888.767	3462
888.891	3317
889.015	3249
889.139	3287
889.263	3260
889.387	3416
889.511	3485
889.635	3458
889.759	3317
889.883	3298
890.006	3378
890.13	3507
890.254	3241
890.377	3351
890.501	3142
890.624	3188
890.748	3302
890.871	3173
890.995	3108
891.118	3043
891.241	3218
891.364	3245
891.488	3321
891.611	3195
891.734	3222
891.857	3260
891.98	3203
892.103	3298
892.226	3260
892.349	3188
892.471	3131
892.594	3222
892.717	3283
892.839	3249
892.962	3272
893.085	3370
893.207	3283
893.33	3169
893.452	3173
893.575	3313
893.697	3241
893.819	3454
893.941	3538
894.064	3447
894.186	3233
894.308	3268
894.43	3458
894.552	3538
894.674	3420
894.796	3260
894.918	3279
895.04	3287
895.161	3424
895.283	3401
895.405	3283
895.526	3355
895.648	3454
895.769	3447
895.891	3447
896.012	3458
896.134	3443
896.255	3420
896.376	3382
896.498	3344
896.619	3401
896.74	3332
896.861	3447
896.982	3701
897.103	3838
897.224	3603
897.345	3519
897.466	3428
897.587	3492
897.708	3603
897.828	3549
897.949	3454
898.07	3348
898.19	3359
898.311	3603
898.431	3469
898.552	3523
898.672	3584
898.792	3576
898.913	3523
899.033	3428
899.153	3321
899.273	3176
899.393	3260
899.513	3317
899.633	3313
899.753	3367
899.873	3313
899.993	3363
900.113	3359
900.232	3416
900.352	3294
900.472	3249
900.591	3203
900.711	3272
900.83	3222
900.95	3420
901.069	3477
901.189	3325
901.308	3165
901.427	3116
901.546	3161
901.665	3287
901.784	3321
901.904	3188
902.023	3123
902.141	3024
902.26	3013
902.379	3146
902.498	3047
902.617	3047
902.735	3226
902.854	3199
902.973	3184
903.091	3051
903.21	3100
903.328	3127
903.446	3055
903.565	3066
903.683	3161
903.801	3154
903.919	3253
904.038	3283
904.156	3150
904.274	3294
904.392	3226
904.51	3241
904.627	3325
904.745	3431
904.863	3488
904.981	3203
905.098	3138
905.216	3241
905.334	3256
905.451	3253
905.569	3291
905.686	3412
905.803	3424
905.921	3310
906.038	3431
906.155	3317
906.272	3283
906.389	3321
906.506	3241
906.623	3211
906.74	3260
906.857	3211
906.974	3275
907.091	3477
907.208	3599
907.324	3458
907.441	3378
907.557	3230
907.674	3207
907.79	3230
907.907	3306
908.023	3378
908.139	3374
908.256	3298
908.372	3370
908.488	3325
908.604	3256
908.72	3264
908.836	3302
908.952	3306
909.068	3344
909.184	3496
909.3	3386
909.415	3477
909.531	3473
909.647	3287
909.762	3275
909.878	3249
909.993	3340
910.108	3329
910.224	3325
910.339	3428
910.454	3363
910.57	3302
910.685	3253
910.8	3572
910.915	3519
911.03	3447
911.145	3275
911.259	3253
911.374	3298
911.489	3230
911.604	3188
911.718	3085
911.833	3169
911.947	3058
912.062	2963
912.176	3146
912.291	3218
912.405	3184
912.519	3405
912.633	3500
912.748	3332
912.862	3256
912.976	3165
913.09	3070
913.204	3138
913.318	3218
913.431	3310
913.545	3359
913.659	3435
913.772	3310
913.886	3226
914	3199
914.113	3359
914.226	3386
914.34	3382
914.453	3195
914.566	3397
914.68	3279
914.793	3310
914.906	3127
915.019	3131
915.132	3074
915.245	3165
915.358	3192
915.47	3237
915.583	3275
915.696	3313
915.809	3359
915.921	3386
916.034	3230
916.146	3249
916.259	3214
916.371	3386
916.483	3340
916.595	3253
916.708	3310
916.82	3340
916.932	3302
917.044	3332
917.156	3317
917.268	3207
917.38	3283
917.491	3313
917.603	3340
917.715	3454
917.826	3428
917.938	3428
918.049	3241
918.161	3409
918.272	3557
918.384	3595
918.495	3488
918.606	3351
918.717	3226
918.828	3393
918.939	3435
919.05	3294
919.161	3363
919.272	3131
919.383	3249
919.494	3534
919.604	3720
919.715	3458
919.826	3428
919.936	3488
920.047	3576
920.157	3542
920.267	3747
920.378	3561
920.488	3526
920.598	3797
920.708	3956
920.818	3842
920.928	3850
921.038	4029
921.148	4002
921.258	3679
921.368	3641
921.477	3564
921.587	3530
921.697	3473
921.806	3652
921.916	3500
922.025	3340
922.134	3351
922.244	3336
922.353	3409
922.462	3253
922.571	3207
922.68	3093
922.789	3089
922.898	3135
923.007	3112
923.116	3245
923.224	3138
923.333	3199
923.442	3119
923.55	3089
923.659	3138
923.767	3207
923.876	3100
923.984	3214
924.092	3108
924.201	3203
924.309	3233
924.417	3260
924.525	3173
924.633	3264
924.741	4040
924.849	3017
924.956	3233
925.064	3104
925.172	2986
925.279	3100
925.387	3176
925.494	3199
925.602	3351
925.709	3336
925.816	3180
925.924	3287
926.031	3378
926.138	3325
926.245	3359
926.352	3207
926.459	3409
926.566	3450
926.673	3298
926.779	3253
926.886	3203
926.993	3146
927.099	3112
927.206	3077
927.312	3119
927.419	3192
927.525	3184
927.631	3275
927.737	3150
927.843	3138
927.95	2998
928.056	3074
928.162	3180
928.267	3249
928.373	3884
928.479	3313
928.585	3089
928.69	3211
928.796	3253
928.901	3180
929.007	3047
929.112	3222
929.218	3173
929.323	3123
929.428	3157
929.533	3306
929.638	3081
929.743	3173
929.848	3264
929.953	3184
930.058	3119
930.163	2967
930.267	3024
930.372	3188
930.477	3032
930.581	3283
930.685	3142
930.79	3077
930.894	3123
930.998	3081
931.103	3294
931.207	2941
931.311	2891
931.415	2899
931.519	2750
931.623	2792
