Data from test_V78500241_1284.txt Node
Date: Fri Mar 25 16:24:05 CST 2022
User: usil
Spectrometer: V785-0024
Trigger mode: 0
Integration Time (sec): 4.000000E-1
Scans to average: 1
Nonlinearity correction enabled: false
Boxcar width: 0
Storing dark spectrum: false
XAxis mode: Wavelengths
Number of Pixels in Spectrum: 1024
>>>>>Begin Spectral Data<<<<<
801.071	2902
801.214	2956
801.356	2853
801.499	2906
801.641	2861
801.783	2902
801.926	3039
802.068	3017
802.211	2990
802.353	2990
802.496	2967
802.638	2990
802.78	3051
802.923	3051
803.065	2990
803.208	2872
803.35	2914
803.492	2952
803.635	2929
803.777	2773
803.919	2883
804.061	3184
804.204	2929
804.346	2914
804.488	2849
804.63	2998
804.773	2891
804.915	2918
805.057	3081
805.199	2902
805.341	2975
805.483	3081
805.626	3001
805.768	2948
805.91	3070
806.052	3119
806.194	3028
806.336	3195
806.478	3001
806.62	2925
806.762	2929
806.904	3070
807.046	3135
807.188	2956
807.33	2918
807.472	3001
807.614	2914
807.756	2979
807.898	2891
808.04	2891
808.182	3005
808.324	2952
808.465	2861
808.607	2891
808.749	2792
808.891	2857
809.033	2990
809.174	2998
809.316	2891
809.458	2842
809.6	2788
809.741	2766
809.883	2727
810.025	2857
810.166	2830
810.308	2857
810.45	2876
810.591	2788
810.733	2743
810.875	2845
811.016	2769
811.158	2746
811.299	2811
811.441	2941
811.582	2895
811.724	2834
811.865	2796
812.007	2948
812.148	2918
812.29	2864
812.431	2887
812.573	2967
812.714	2956
812.855	3028
812.997	3047
813.138	3112
813.279	3005
813.421	2975
813.562	2937
813.703	2872
813.845	2853
813.986	2785
814.127	2743
814.268	2811
814.41	2853
814.551	2849
814.692	2906
814.833	2815
814.974	2887
815.115	2929
815.256	2834
815.397	2804
815.539	2838
815.68	2777
815.821	2819
815.962	2937
816.103	2994
816.244	2887
816.385	2883
816.526	2979
816.666	2910
816.807	2746
816.948	2842
817.089	2883
817.23	2842
817.371	2777
817.512	2785
817.653	2849
817.793	2823
817.934	2857
818.075	2925
818.216	3001
818.356	3058
818.497	2857
818.638	2731
818.778	2845
818.919	2792
819.06	2758
819.2	2842
819.341	2811
819.481	2838
819.622	2902
819.762	3119
819.903	3047
820.043	2925
820.184	2895
820.324	2880
820.465	3020
820.605	3020
820.746	3005
820.886	2944
821.026	3108
821.167	3123
821.307	3287
821.447	3245
821.588	3226
821.728	3222
821.868	3199
822.008	3062
822.149	3176
822.289	3230
822.429	3116
822.569	3108
822.709	3184
822.849	3032
822.99	3077
823.13	3154
823.27	3230
823.41	3093
823.55	3127
823.69	3138
823.83	3176
823.97	3104
824.11	3013
824.25	2971
824.389	3039
824.529	3142
824.669	3093
824.809	3150
824.949	3226
825.089	3192
825.228	3154
825.368	2963
825.508	2960
825.648	2918
825.787	3013
825.927	2979
826.067	2967
826.206	2967
826.346	3017
826.485	3081
826.625	3123
826.765	3317
826.904	3222
827.044	2971
827.183	2899
827.323	2853
827.462	2960
827.601	2922
827.741	2887
827.88	2960
828.02	2842
828.159	2960
828.298	3081
828.437	3089
828.577	3039
828.716	3192
828.855	3104
828.994	2918
829.134	2895
829.273	2918
829.412	2868
829.551	2849
829.69	2918
829.829	2963
829.968	3112
830.107	3013
830.246	3005
830.385	2925
830.524	2826
830.663	2804
830.802	2720
830.941	2670
831.08	2667
831.219	2762
831.357	2758
831.496	2948
831.635	2705
831.774	2655
831.913	2663
832.051	2549
832.19	2583
832.329	2689
832.467	2533
832.606	2484
832.744	2571
832.883	2537
833.022	2545
833.16	2659
833.299	2678
833.437	2689
833.576	2667
833.714	2712
833.852	2727
833.991	2762
834.129	2826
834.267	2819
834.406	2743
834.544	2853
834.682	2899
834.821	2880
834.959	3100
835.097	2918
835.235	3100
835.373	3017
835.511	2998
835.65	2941
835.788	2960
835.926	2838
836.064	2807
836.202	2811
836.34	3062
836.478	3116
836.615	3017
836.753	3119
836.891	3214
837.029	3161
837.167	3093
837.305	3009
837.443	3043
837.58	2971
837.718	3127
837.856	3062
837.993	3047
838.131	3055
838.269	3123
838.406	3085
838.544	3081
838.681	2922
838.819	2922
838.956	2842
839.094	2826
839.231	2906
839.369	3028
839.506	3336
839.643	3207
839.781	3009
839.918	2948
840.055	3043
840.193	3036
840.33	3066
840.467	3089
840.604	3165
840.742	3424
840.879	3020
841.016	3001
841.153	3077
841.29	3310
841.427	3256
841.564	3222
841.701	3272
841.838	3214
841.975	3199
842.112	3169
842.249	3066
842.385	3077
842.522	3245
842.659	3036
842.796	3055
842.933	3070
843.069	3017
843.206	3039
843.343	3180
843.479	3100
843.616	3108
843.752	2883
843.889	2834
844.025	3070
844.162	2853
844.298	3047
844.435	2918
844.571	2887
844.708	3070
844.844	3180
844.98	3218
845.117	3173
845.253	3055
845.389	3017
845.525	3127
845.661	3085
845.798	3005
845.934	3123
846.07	3066
846.206	3222
846.342	3264
846.478	3226
846.614	3058
846.75	3097
846.886	3001
847.022	3256
847.158	3161
847.294	3184
847.429	3249
847.565	3214
847.701	3477
847.837	3039
847.972	2986
848.108	3157
848.244	3157
848.379	3013
848.515	2956
848.65	2937
848.786	2967
848.921	3028
849.057	3093
849.192	3135
849.328	3081
849.463	3108
849.598	3058
849.734	3028
849.869	2963
850.004	2929
850.14	3024
850.275	2910
850.41	2861
850.545	2895
850.68	2937
850.815	2956
850.95	2967
851.085	3188
851.22	3100
851.355	3020
851.49	2960
851.625	2967
851.76	3017
851.895	2960
852.03	2941
852.165	3074
852.299	3100
852.434	3157
852.569	3123
852.703	3165
852.838	3253
852.973	3298
853.107	3294
853.242	3127
853.376	3104
853.511	2941
853.645	3051
853.78	3184
853.914	3093
854.048	3123
854.183	3047
854.317	3116
854.451	3264
854.585	3154
854.72	3062
854.854	3199
854.988	3047
855.122	3104
855.256	2971
855.39	3146
855.524	3279
855.658	3176
855.792	3146
855.926	3146
856.06	3173
856.194	3260
856.327	3138
856.461	3074
856.595	3097
856.729	3112
856.862	3245
856.996	3150
857.13	3195
857.263	3214
857.397	3291
857.53	3081
857.664	3192
857.797	3222
857.931	3253
858.064	3135
858.197	3218
858.331	3127
858.464	3077
858.597	2986
858.731	3093
858.864	3150
858.997	3058
859.13	3165
859.263	3154
859.396	3203
859.529	3039
859.662	3051
859.795	3009
859.928	3123
860.061	3237
860.194	3256
860.327	3104
860.46	3036
860.592	3237
860.725	3245
860.858	3241
860.99	3119
861.123	3062
861.256	3055
861.388	3123
861.521	3694
861.653	3013
861.786	2971
861.918	3001
862.05	3058
862.183	3066
862.315	3165
862.447	3169
862.58	3066
862.712	2952
862.844	2849
862.976	3024
863.108	2990
863.24	3329
863.372	2922
863.504	2906
863.636	2952
863.768	3047
863.9	2956
864.032	2883
864.164	2971
864.296	3009
864.428	3058
864.559	3093
864.691	3024
864.823	3058
864.954	3058
865.086	3017
865.217	2963
865.349	2975
865.48	2982
865.612	3032
865.743	3135
865.875	3005
866.006	2960
866.137	2971
866.269	2956
866.4	2922
866.531	2902
866.662	2872
866.793	2906
866.924	2914
867.055	2971
867.186	2906
867.317	2899
867.448	2796
867.579	2838
867.71	2842
867.841	2830
867.972	2902
868.103	2887
868.233	2876
868.364	2861
868.495	2876
868.625	3055
868.756	3112
868.886	2967
869.017	3036
869.147	3161
869.278	3199
869.408	3036
869.539	3039
869.669	3039
869.799	3039
869.929	3123
870.06	3119
870.19	3279
870.32	3237
870.45	3279
870.58	3393
870.71	3466
870.84	3450
870.97	3302
871.1	3260
871.23	3473
871.36	3473
871.489	3351
871.619	3420
871.749	3439
871.879	3428
872.008	3485
872.138	3344
872.267	3283
872.397	3165
872.526	3104
872.656	2963
872.785	3085
872.915	3237
873.044	3306
873.173	3207
873.303	3188
873.432	3214
873.561	3230
873.69	3116
873.819	3146
873.948	3203
874.077	3104
874.206	3024
874.335	3070
874.464	3192
874.593	3351
874.722	3226
874.851	3412
874.979	3317
875.108	3321
875.237	3184
875.365	3138
875.494	3157
875.623	3211
875.751	3081
875.88	3093
876.008	3195
876.136	3226
876.265	3389
876.393	3557
876.521	3355
876.65	3370
876.778	3313
876.906	3226
877.034	3165
877.162	3214
877.29	3138
877.418	3253
877.546	3203
877.674	3264
877.802	3249
877.93	3237
878.058	3131
878.185	3127
878.313	3207
878.441	3233
878.568	3055
878.696	3135
878.824	3226
878.951	3306
879.079	3454
879.206	3644
879.333	3439
879.461	3313
879.588	3370
879.715	3454
879.842	3591
879.97	3344
880.097	3165
880.224	3074
880.351	3176
880.478	3203
880.605	3165
880.732	3146
880.859	3496
880.986	3302
881.112	3329
881.239	3173
881.366	3066
881.493	3005
881.619	3020
881.746	3058
881.872	3066
881.999	3085
882.125	3165
882.252	3218
882.378	3256
882.505	3409
882.631	3275
882.757	3123
882.883	3256
883.01	3184
883.136	3173
883.262	3112
883.388	3077
883.514	3329
883.64	3386
883.766	3283
883.892	3176
884.018	3195
884.143	3355
884.269	3530
884.395	3199
884.52	3135
884.646	3214
884.772	3135
884.897	3085
885.023	3211
885.148	3317
885.274	3416
885.399	3355
885.524	3268
885.65	3233
885.775	3268
885.9	3302
886.025	3401
886.15	3370
886.275	3287
886.4	3218
886.525	3313
886.65	3253
886.775	3256
886.9	3462
887.025	3637
887.149	3412
887.274	3253
887.399	3169
887.523	3188
887.648	3192
887.773	3203
887.897	3374
888.021	3363
888.146	3294
888.27	3424
888.395	3568
888.519	3374
888.643	3428
888.767	3458
888.891	3272
889.015	3226
889.139	3264
889.263	3222
889.387	3405
889.511	3496
889.635	3416
889.759	3279
889.883	3279
890.006	3359
890.13	3439
890.254	3268
890.377	3367
890.501	3233
890.624	3184
890.748	3275
890.871	3142
890.995	3070
891.118	3062
891.241	3176
891.364	3241
891.488	3294
891.611	3184
891.734	3226
891.857	3256
891.98	3192
892.103	3348
892.226	3287
892.349	3218
892.471	3108
892.594	3237
892.717	3298
892.839	3298
892.962	3302
893.085	3355
893.207	3306
893.33	3142
893.452	3214
893.575	3359
893.697	3222
893.819	3477
893.941	3530
894.064	3431
894.186	3264
894.308	3291
894.43	3473
894.552	3515
894.674	3496
894.796	3268
894.918	3287
895.04	3264
895.161	3424
895.283	3382
895.405	3283
895.526	3363
895.648	3428
895.769	3424
895.891	3439
896.012	3477
896.134	3431
896.255	3409
896.376	3431
896.498	3340
896.619	3450
896.74	3389
896.861	3382
896.982	3690
897.103	3789
897.224	3603
897.345	3523
897.466	3382
897.587	3504
897.708	3599
897.828	3557
897.949	3485
898.07	3310
898.19	3340
898.311	3591
898.431	3428
898.552	3530
898.672	3618
898.792	3603
898.913	3492
899.033	3401
899.153	3241
899.273	3203
899.393	3306
899.513	3298
899.633	3306
899.753	3313
899.873	3317
899.993	3367
900.113	3302
900.232	3351
900.352	3313
900.472	3283
900.591	3230
900.711	3264
900.83	3253
900.95	3428
901.069	3462
901.189	3321
901.308	3192
901.427	3138
901.546	3184
901.665	3256
901.784	3291
901.904	3233
902.023	3173
902.141	3001
902.26	3001
902.379	3161
902.498	3089
902.617	3047
902.735	3214
902.854	3226
902.973	3154
903.091	3077
903.21	3081
903.328	3116
903.446	3116
903.565	3066
903.683	3203
903.801	3142
903.919	3249
904.038	3245
904.156	3180
904.274	3256
904.392	3256
904.51	3253
904.627	3313
904.745	3409
904.863	3485
904.981	3237
905.098	3176
905.216	3264
905.334	3275
905.451	3298
905.569	3325
905.686	3393
905.803	3439
905.921	3310
906.038	3370
906.155	3321
906.272	3256
906.389	3310
906.506	3230
906.623	3230
906.74	3272
906.857	3161
906.974	3207
907.091	3462
907.208	3534
907.324	3526
907.441	3382
907.557	3214
907.674	3230
907.79	3199
907.907	3332
908.023	3370
908.139	3431
908.256	3302
908.372	3348
908.488	3348
908.604	3268
908.72	3188
908.836	3283
908.952	3264
909.068	3310
909.184	3496
909.3	3363
909.415	3462
909.531	3424
909.647	3256
909.762	3272
909.878	3275
909.993	3359
910.108	3340
910.224	3336
910.339	3397
910.454	3336
910.57	3256
910.685	3199
910.8	3572
910.915	3572
911.03	3420
911.145	3249
911.259	3283
911.374	3344
911.489	3222
911.604	3226
911.718	3123
911.833	3150
911.947	3036
912.062	2952
912.176	3173
912.291	3176
912.405	3195
912.519	3416
912.633	3485
912.748	3348
912.862	3313
912.976	3146
913.09	3043
913.204	3131
913.318	3169
913.431	3340
913.545	3317
913.659	3409
913.772	3348
913.886	3207
914	3184
914.113	3359
914.226	3386
914.34	3351
914.453	3211
914.566	3409
914.68	3275
914.793	3302
914.906	3161
915.019	3116
915.132	3036
915.245	3176
915.358	3161
915.47	3249
915.583	3245
915.696	3294
915.809	3370
915.921	3439
916.034	3256
916.146	3233
916.259	3230
916.371	3405
916.483	3378
916.595	3287
916.708	3332
916.82	3313
916.932	3370
917.044	3355
917.156	3359
917.268	3275
917.38	3344
917.491	3287
917.603	3382
917.715	3416
917.826	3477
917.938	3401
918.049	3272
918.161	3450
918.272	3587
918.384	3553
918.495	3488
918.606	3306
918.717	3260
918.828	3416
918.939	3405
919.05	3332
919.161	3363
919.272	3157
919.383	3279
919.494	3500
919.604	3660
919.715	3504
919.826	3374
919.936	3450
920.047	3549
920.157	3557
920.267	3751
920.378	3610
920.488	3530
920.598	3766
920.708	3937
920.818	3827
920.928	3896
921.038	4029
921.148	4029
921.258	3698
921.368	3606
921.477	3576
921.587	3538
921.697	3450
921.806	3633
921.916	3507
922.025	3332
922.134	3351
922.244	3298
922.353	3447
922.462	3260
922.571	3264
922.68	3066
922.789	3089
922.898	3135
923.007	3116
923.116	3199
923.224	3123
923.333	3157
923.442	3100
923.55	3089
923.659	3157
923.767	3169
923.876	3116
923.984	3268
924.092	3123
924.201	3195
924.309	3233
924.417	3233
924.525	3154
924.633	3214
924.741	4025
924.849	3047
924.956	3233
925.064	3051
925.172	3047
925.279	3104
925.387	3192
925.494	3214
925.602	3367
925.709	3329
925.816	3146
925.924	3275
926.031	3374
926.138	3287
926.245	3340
926.352	3253
926.459	3428
926.566	3431
926.673	3317
926.779	3237
926.886	3222
926.993	3131
927.099	3142
927.206	3089
927.312	3131
927.419	3203
927.525	3207
927.631	3317
927.737	3138
927.843	3150
927.95	2990
928.056	3157
928.162	3165
928.267	3241
928.373	3915
928.479	3279
928.585	3081
928.69	3230
928.796	3291
928.901	3199
929.007	3055
929.112	3165
929.218	3173
929.323	3138
929.428	3112
929.533	3344
929.638	3135
929.743	3176
929.848	3260
929.953	3207
930.058	3142
930.163	2990
930.267	3070
930.372	3233
930.477	3005
930.581	3298
930.685	3211
930.79	3062
930.894	3119
930.998	3077
931.103	3287
931.207	2948
931.311	2990
931.415	2895
931.519	2796
931.623	2773
