Data from test_V78500241_156.txt Node
Date: Fri Mar 25 16:16:17 CST 2022
User: usil
Spectrometer: V785-0024
Trigger mode: 0
Integration Time (sec): 4.000000E-1
Scans to average: 1
Nonlinearity correction enabled: false
Boxcar width: 0
Storing dark spectrum: false
XAxis mode: Wavelengths
Number of Pixels in Spectrum: 1024
>>>>>Begin Spectral Data<<<<<
801.071	2956
801.214	2982
801.356	2887
801.499	2929
801.641	2925
801.783	2937
801.926	3093
802.068	3017
802.211	2998
802.353	3047
802.496	3001
802.638	3062
802.78	3051
802.923	3104
803.065	3051
803.208	2895
803.35	2937
803.492	2941
803.635	2944
803.777	2785
803.919	2861
804.061	3195
804.204	2956
804.346	2941
804.488	2872
804.63	3009
804.773	2929
804.915	2914
805.057	3097
805.199	2956
805.341	3013
805.483	3051
805.626	3020
805.768	2963
805.91	3085
806.052	3112
806.194	3066
806.336	3256
806.478	3039
806.62	2986
806.762	2982
806.904	3051
807.046	3207
807.188	2986
807.33	2937
807.472	2990
807.614	2925
807.756	3001
807.898	2925
808.04	2922
808.182	2990
808.324	2975
808.465	2887
808.607	2918
808.749	2849
808.891	2842
809.033	2998
809.174	2994
809.316	2914
809.458	2887
809.6	2815
809.741	2785
809.883	2781
810.025	2849
810.166	2902
810.308	2872
810.45	2868
810.591	2758
810.733	2754
810.875	2864
811.016	2811
811.158	2796
811.299	2826
811.441	2937
811.582	2902
811.724	2819
811.865	2845
812.007	2956
812.148	2876
812.29	2834
812.431	2887
812.573	2975
812.714	2982
812.855	3047
812.997	3051
813.138	3154
813.279	3024
813.421	3043
813.562	2956
813.703	2861
813.845	2914
813.986	2769
814.127	2739
814.268	2834
814.41	2853
814.551	2792
814.692	2895
814.833	2845
814.974	2933
815.115	2971
815.256	2853
815.397	2845
815.539	2910
815.68	2800
815.821	2800
815.962	2922
816.103	2963
816.244	2887
816.385	2857
816.526	2952
816.666	2925
816.807	2781
816.948	2895
817.089	2933
817.23	2861
817.371	2769
817.512	2804
817.653	2868
817.793	2861
817.934	2899
818.075	2986
818.216	2990
818.356	3047
818.497	2910
818.638	2815
818.778	2849
818.919	2800
819.06	2785
819.2	2876
819.341	2769
819.481	2819
819.622	2956
819.762	3112
819.903	3024
820.043	2929
820.184	2925
820.324	2914
820.465	3017
820.605	3055
820.746	3062
820.886	2963
821.026	3146
821.167	3214
821.307	3298
821.447	3329
821.588	3256
821.728	3211
821.868	3180
822.008	3074
822.149	3218
822.289	3241
822.429	3127
822.569	3081
822.709	3211
822.849	3062
822.99	3074
823.13	3203
823.27	3199
823.41	3097
823.55	3180
823.69	3169
823.83	3195
823.97	3116
824.11	2994
824.25	2971
824.389	3032
824.529	3108
824.669	3100
824.809	3203
824.949	3253
825.089	3233
825.228	3165
825.368	3055
825.508	2967
825.648	2994
825.787	3020
825.927	3032
826.067	2979
826.206	2960
826.346	3070
826.485	3074
826.625	3116
826.765	3256
826.904	3195
827.044	2967
827.183	2933
827.323	2876
827.462	2998
827.601	2922
827.741	2929
827.88	2998
828.02	2853
828.159	2975
828.298	3055
828.437	3119
828.577	3013
828.716	3264
828.855	3089
828.994	2922
829.134	2853
829.273	2925
829.412	2883
829.551	2853
829.69	2906
829.829	2986
829.968	3116
830.107	2994
830.246	3032
830.385	2937
830.524	2864
830.663	2826
830.802	2754
830.941	2651
831.08	2659
831.219	2746
831.357	2781
831.496	2941
831.635	2724
831.774	2678
831.913	2678
832.051	2556
832.19	2590
832.329	2701
832.467	2590
832.606	2507
832.744	2590
832.883	2602
833.022	2629
833.16	2663
833.299	2716
833.437	2697
833.576	2689
833.714	2727
833.852	2727
833.991	2766
834.129	2853
834.267	2815
834.406	2804
834.544	2910
834.682	2914
834.821	2838
834.959	3074
835.097	2929
835.235	3093
835.373	3017
835.511	3047
835.65	2986
835.788	2960
835.926	2819
836.064	2796
836.202	2830
836.34	3119
836.478	3154
836.615	3055
836.753	3138
836.891	3214
837.029	3169
837.167	3127
837.305	3093
837.443	3047
837.58	2975
837.718	3131
837.856	3070
837.993	3032
838.131	3119
838.269	3135
838.406	3116
838.544	3066
838.681	2956
838.819	2902
838.956	2826
839.094	2807
839.231	2922
839.369	3028
839.506	3332
839.643	3233
839.781	3017
839.918	2967
840.055	3051
840.193	3074
840.33	3047
840.467	3104
840.604	3150
840.742	3393
840.879	3093
841.016	3066
841.153	3138
841.29	3351
841.427	3317
841.564	3287
841.701	3313
841.838	3195
841.975	3203
842.112	3222
842.249	3093
842.385	3032
842.522	3264
842.659	3112
842.796	3108
842.933	3138
843.069	3043
843.206	3047
843.343	3218
843.479	3123
843.616	3146
843.752	2925
843.889	2880
844.025	3112
844.162	2887
844.298	3077
844.435	2933
844.571	2933
844.708	3097
844.844	3195
844.98	3268
845.117	3199
845.253	3051
845.389	3001
845.525	3131
845.661	3104
845.798	3024
845.934	3142
846.07	3058
846.206	3256
846.342	3355
846.478	3245
846.614	3062
846.75	3070
846.886	3032
847.022	3302
847.158	3184
847.294	3214
847.429	3268
847.565	3173
847.701	3477
847.837	3058
847.972	3009
848.108	3195
848.244	3119
848.379	3020
848.515	2963
848.65	2960
848.786	3005
848.921	3051
849.057	3100
849.192	3176
849.328	3089
849.463	3131
849.598	3100
849.734	3032
849.869	2998
850.004	2910
850.14	2963
850.275	2895
850.41	2887
850.545	2887
850.68	2937
850.815	2979
850.95	3013
851.085	3214
851.22	3081
851.355	3047
851.49	3001
851.625	3009
851.76	3036
851.895	2960
852.03	2902
852.165	2994
852.299	3108
852.434	3157
852.569	3146
852.703	3203
852.838	3253
852.973	3382
853.107	3386
853.242	3173
853.376	3131
853.511	2971
853.645	3043
853.78	3230
853.914	3131
854.048	3146
854.183	3104
854.317	3131
854.451	3310
854.585	3135
854.72	3077
854.854	3253
854.988	3043
855.122	3066
855.256	3005
855.39	3108
855.524	3214
855.658	3184
855.792	3127
855.926	3199
856.06	3260
856.194	3306
856.327	3138
856.461	3070
856.595	3097
856.729	3116
856.862	3230
856.996	3138
857.13	3211
857.263	3256
857.397	3294
857.53	3142
857.664	3199
857.797	3245
857.931	3287
858.064	3135
858.197	3214
858.331	3135
858.464	3081
858.597	2998
858.731	3093
858.864	3123
858.997	3104
859.13	3146
859.263	3184
859.396	3199
859.529	3097
859.662	3081
859.795	3036
859.928	3138
860.061	3298
860.194	3249
860.327	3108
860.46	3123
860.592	3249
860.725	3237
860.858	3245
860.99	3093
861.123	3028
861.256	3055
861.388	3180
861.521	3705
861.653	3024
861.786	3024
861.918	3051
862.05	3055
862.183	3100
862.315	3161
862.447	3188
862.58	3104
862.712	2971
862.844	2899
862.976	3020
863.108	3005
863.24	3298
863.372	2880
863.504	2994
863.636	2967
863.768	3070
863.9	2979
864.032	2937
864.164	2918
864.296	2994
864.428	3097
864.559	3138
864.691	3066
864.823	3055
864.954	3043
865.086	3047
865.217	3036
865.349	2971
865.48	3005
865.612	3001
865.743	3161
865.875	3032
866.006	2963
866.137	3005
866.269	2937
866.4	2933
866.531	2933
866.662	2902
866.793	2910
866.924	2922
867.055	2982
867.186	2944
867.317	2872
867.448	2891
867.579	2849
867.71	2823
867.841	2838
867.972	2899
868.103	2952
868.233	2891
868.364	2887
868.495	2937
868.625	3062
868.756	3195
868.886	2994
869.017	3020
869.147	3176
869.278	3161
869.408	3055
869.539	2986
869.669	3074
869.799	3039
869.929	3119
870.06	3116
870.19	3332
870.32	3291
870.45	3302
870.58	3386
870.71	3466
870.84	3458
870.97	3272
871.1	3275
871.23	3481
871.36	3477
871.489	3370
871.619	3405
871.749	3428
871.879	3454
872.008	3447
872.138	3359
872.267	3310
872.397	3165
872.526	3085
872.656	3028
872.785	3093
872.915	3226
873.044	3329
873.173	3245
873.303	3272
873.432	3253
873.561	3279
873.69	3192
873.819	3135
873.948	3192
874.077	3161
874.206	3036
874.335	3093
874.464	3233
874.593	3332
874.722	3264
874.851	3378
874.979	3332
875.108	3351
875.237	3199
875.365	3169
875.494	3157
875.623	3245
875.751	3085
875.88	3116
876.008	3199
876.136	3211
876.265	3409
876.393	3523
876.521	3428
876.65	3405
876.778	3336
876.906	3260
877.034	3188
877.162	3253
877.29	3203
877.418	3268
877.546	3275
877.674	3275
877.802	3260
877.93	3203
878.058	3180
878.185	3138
878.313	3195
878.441	3203
878.568	3085
878.696	3176
878.824	3241
878.951	3321
879.079	3473
879.206	3637
879.333	3443
879.461	3370
879.588	3401
879.715	3496
879.842	3610
879.97	3393
880.097	3146
880.224	3119
880.351	3199
880.478	3222
880.605	3192
880.732	3165
880.859	3488
880.986	3313
881.112	3310
881.239	3192
881.366	3093
881.493	3085
881.619	2986
881.746	3081
881.872	3123
881.999	3104
882.125	3146
882.252	3249
882.378	3272
882.505	3462
882.631	3272
882.757	3199
882.883	3207
883.01	3230
883.136	3142
883.262	3142
883.388	3131
883.514	3313
883.64	3382
883.766	3310
883.892	3188
884.018	3264
884.143	3424
884.269	3545
884.395	3180
884.52	3211
884.646	3214
884.772	3157
884.897	3127
885.023	3245
885.148	3306
885.274	3450
885.399	3367
885.524	3287
885.65	3283
885.775	3340
885.9	3283
886.025	3473
886.15	3378
886.275	3336
886.4	3272
886.525	3325
886.65	3291
886.775	3325
886.9	3523
887.025	3656
887.149	3416
887.274	3268
887.399	3233
887.523	3192
887.648	3180
887.773	3256
887.897	3431
888.021	3420
888.146	3351
888.27	3462
888.395	3553
888.519	3458
888.643	3492
888.767	3534
888.891	3359
889.015	3287
889.139	3298
889.263	3313
889.387	3473
889.511	3553
889.635	3519
889.759	3351
889.883	3389
890.006	3424
890.13	3545
890.254	3310
890.377	3447
890.501	3294
890.624	3249
890.748	3370
890.871	3249
890.995	3150
891.118	3123
891.241	3275
891.364	3306
891.488	3359
891.611	3245
891.734	3317
891.857	3351
891.98	3279
892.103	3397
892.226	3374
892.349	3275
892.471	3192
892.594	3325
892.717	3340
892.839	3348
892.962	3329
893.085	3424
893.207	3348
893.33	3218
893.452	3279
893.575	3409
893.697	3298
893.819	3515
893.941	3515
894.064	3545
894.186	3283
894.308	3363
894.43	3504
894.552	3599
894.674	3477
894.796	3367
894.918	3363
895.04	3344
895.161	3473
895.283	3420
895.405	3389
895.526	3431
895.648	3515
895.769	3500
895.891	3504
896.012	3523
896.134	3515
896.255	3469
896.376	3409
896.498	3409
896.619	3496
896.74	3397
896.861	3450
896.982	3751
897.103	3892
897.224	3610
897.345	3549
897.466	3466
897.587	3580
897.708	3671
897.828	3557
897.949	3511
898.07	3420
898.19	3447
898.311	3660
898.431	3504
898.552	3564
898.672	3644
898.792	3618
898.913	3591
899.033	3458
899.153	3355
899.273	3283
899.393	3329
899.513	3382
899.633	3367
899.753	3367
899.873	3370
899.993	3435
900.113	3389
900.232	3443
900.352	3393
900.472	3351
900.591	3268
900.711	3355
900.83	3302
900.95	3492
901.069	3496
901.189	3389
901.308	3253
901.427	3218
901.546	3256
901.665	3363
901.784	3351
901.904	3241
902.023	3192
902.141	3055
902.26	3062
902.379	3203
902.498	3146
902.617	3127
902.735	3272
902.854	3310
902.973	3211
903.091	3089
903.21	3146
903.328	3199
903.446	3173
903.565	3131
903.683	3272
903.801	3180
903.919	3298
904.038	3332
904.156	3214
904.274	3332
904.392	3336
904.51	3370
904.627	3389
904.745	3496
904.863	3557
904.981	3313
905.098	3226
905.216	3283
905.334	3363
905.451	3302
905.569	3351
905.686	3454
905.803	3462
905.921	3329
906.038	3485
906.155	3374
906.272	3321
906.389	3393
906.506	3298
906.623	3340
906.74	3313
906.857	3245
906.974	3317
907.091	3530
907.208	3618
907.324	3507
907.441	3409
907.557	3302
907.674	3302
907.79	3283
907.907	3325
908.023	3450
908.139	3405
908.256	3370
908.372	3420
908.488	3405
908.604	3321
908.72	3268
908.836	3340
908.952	3313
909.068	3367
909.184	3530
909.3	3507
909.415	3549
909.531	3538
909.647	3355
909.762	3336
909.878	3310
909.993	3405
910.108	3370
910.224	3389
910.339	3458
910.454	3348
910.57	3363
910.685	3291
910.8	3686
910.915	3587
911.03	3458
911.145	3302
911.259	3310
911.374	3351
911.489	3302
911.604	3260
911.718	3161
911.833	3188
911.947	3062
912.062	3017
912.176	3241
912.291	3260
912.405	3256
912.519	3485
912.633	3534
912.748	3382
912.862	3313
912.976	3199
913.09	3104
913.204	3165
913.318	3241
913.431	3344
913.545	3393
913.659	3428
913.772	3389
913.886	3325
914	3264
914.113	3389
914.226	3477
914.34	3416
914.453	3279
914.566	3458
914.68	3344
914.793	3351
914.906	3176
915.019	3150
915.132	3119
915.245	3199
915.358	3256
915.47	3302
915.583	3317
915.696	3332
915.809	3458
915.921	3481
916.034	3294
916.146	3298
916.259	3302
916.371	3420
916.483	3386
916.595	3329
916.708	3336
916.82	3370
916.932	3416
917.044	3412
917.156	3344
917.268	3272
917.38	3325
917.491	3317
917.603	3431
917.715	3481
917.826	3492
917.938	3428
918.049	3351
918.161	3469
918.272	3622
918.384	3610
918.495	3568
918.606	3382
918.717	3306
918.828	3428
918.939	3412
919.05	3291
919.161	3405
919.272	3226
919.383	3291
919.494	3511
919.604	3736
919.715	3545
919.826	3424
919.936	3523
920.047	3603
920.157	3587
920.267	3808
920.378	3656
920.488	3599
920.598	3823
920.708	4017
920.818	3880
920.928	3873
921.038	4086
921.148	4010
921.258	3770
921.368	3667
921.477	3622
921.587	3587
921.697	3492
921.806	3671
921.916	3534
922.025	3409
922.134	3355
922.244	3393
922.353	3488
922.462	3344
922.571	3253
922.68	3165
922.789	3142
922.898	3207
923.007	3154
923.116	3279
923.224	3211
923.333	3253
923.442	3173
923.55	3161
923.659	3195
923.767	3287
923.876	3161
923.984	3283
924.092	3142
924.201	3245
924.309	3264
924.417	3310
924.525	3222
924.633	3302
924.741	4268
924.849	3097
924.956	3298
925.064	3112
925.172	3081
925.279	3135
925.387	3237
925.494	3218
925.602	3416
925.709	3340
925.816	3214
925.924	3344
926.031	3454
926.138	3344
926.245	3374
926.352	3272
926.459	3393
926.566	3534
926.673	3363
926.779	3256
926.886	3287
926.993	3211
927.099	3161
927.206	3150
927.312	3157
927.419	3298
927.525	3283
927.631	3310
927.737	3173
927.843	3176
927.95	3097
928.056	3188
928.162	3199
928.267	3256
928.373	3930
928.479	3359
928.585	3089
928.69	3245
928.796	3291
928.901	3180
929.007	3066
929.112	3275
929.218	3203
929.323	3180
929.428	3176
929.533	3321
929.638	3169
929.743	3218
929.848	3291
929.953	3253
930.058	3157
930.163	3032
930.267	3089
930.372	3241
930.477	3093
930.581	3374
930.685	3195
930.79	3066
930.894	3138
930.998	3138
931.103	3344
931.207	2994
931.311	2971
931.415	2914
931.519	2796
931.623	2815
