Data from test_V78500241_1266.txt Node
Date: Fri Mar 25 16:23:58 CST 2022
User: usil
Spectrometer: V785-0024
Trigger mode: 0
Integration Time (sec): 4.000000E-1
Scans to average: 1
Nonlinearity correction enabled: false
Boxcar width: 0
Storing dark spectrum: false
XAxis mode: Wavelengths
Number of Pixels in Spectrum: 1024
>>>>>Begin Spectral Data<<<<<
801.071	2891
801.214	2910
801.356	2838
801.499	2910
801.641	2868
801.783	2948
801.926	3028
802.068	2941
802.211	3017
802.353	3036
802.496	2956
802.638	3036
802.78	3028
802.923	3089
803.065	3020
803.208	2883
803.35	2906
803.492	2952
803.635	2918
803.777	2781
803.919	2838
804.061	3207
804.204	2937
804.346	2925
804.488	2819
804.63	2975
804.773	2906
804.915	2906
805.057	3047
805.199	2941
805.341	2948
805.483	3062
805.626	2975
805.768	2925
805.91	3097
806.052	3123
806.194	3036
806.336	3211
806.478	3005
806.62	2990
806.762	2971
806.904	3043
807.046	3138
807.188	2922
807.33	2891
807.472	2994
807.614	2925
807.756	2960
807.898	2929
808.04	2899
808.182	2986
808.324	2944
808.465	2861
808.607	2891
808.749	2773
808.891	2815
809.033	2979
809.174	2918
809.316	2883
809.458	2887
809.6	2788
809.741	2773
809.883	2769
810.025	2853
810.166	2838
810.308	2842
810.45	2838
810.591	2777
810.733	2788
810.875	2849
811.016	2762
811.158	2746
811.299	2781
811.441	2899
811.582	2899
811.724	2815
811.865	2792
812.007	2883
812.148	2868
812.29	2830
812.431	2895
812.573	2960
812.714	2952
812.855	3024
812.997	3047
813.138	3135
813.279	3024
813.421	2998
813.562	2956
813.703	2857
813.845	2872
813.986	2773
814.127	2727
814.268	2815
814.41	2807
814.551	2811
814.692	2883
814.833	2804
814.974	2880
815.115	2963
815.256	2811
815.397	2826
815.539	2849
815.68	2792
815.821	2762
815.962	2948
816.103	2929
816.244	2895
816.385	2861
816.526	2963
816.666	2883
816.807	2766
816.948	2872
817.089	2918
817.23	2880
817.371	2807
817.512	2804
817.653	2773
817.793	2834
817.934	2899
818.075	2979
818.216	2960
818.356	2998
818.497	2883
818.638	2807
818.778	2830
818.919	2788
819.06	2720
819.2	2853
819.341	2777
819.481	2766
819.622	2925
819.762	3066
819.903	3001
820.043	2929
820.184	2883
820.324	2899
820.465	3020
820.605	2990
820.746	3051
820.886	2887
821.026	3093
821.167	3138
821.307	3214
821.447	3291
821.588	3226
821.728	3207
821.868	3188
822.008	3081
822.149	3173
822.289	3165
822.429	3055
822.569	3062
822.709	3165
822.849	3017
822.99	3070
823.13	3131
823.27	3203
823.41	3104
823.55	3165
823.69	3131
823.83	3207
823.97	3097
824.11	3020
824.25	2975
824.389	3058
824.529	3112
824.669	3039
824.809	3146
824.949	3256
825.089	3150
825.228	3173
825.368	2979
825.508	2918
825.648	2944
825.787	3036
825.927	3013
826.067	2929
826.206	3005
826.346	3062
826.485	3066
826.625	3104
826.765	3237
826.904	3184
827.044	2979
827.183	2925
827.323	2880
827.462	2963
827.601	2941
827.741	2918
827.88	2906
828.02	2861
828.159	2986
828.298	3032
828.437	3112
828.577	3058
828.716	3260
828.855	3055
828.994	2902
829.134	2857
829.273	2902
829.412	2823
829.551	2849
829.69	2868
829.829	3017
829.968	3085
830.107	2982
830.246	2994
830.385	2910
830.524	2861
830.663	2781
830.802	2754
830.941	2651
831.08	2648
831.219	2758
831.357	2746
831.496	2956
831.635	2716
831.774	2663
831.913	2663
832.051	2514
832.19	2568
832.329	2697
832.467	2499
832.606	2438
832.744	2571
832.883	2579
833.022	2617
833.16	2663
833.299	2674
833.437	2727
833.576	2697
833.714	2735
833.852	2727
833.991	2731
834.129	2826
834.267	2815
834.406	2777
834.544	2834
834.682	2857
834.821	2857
834.959	3051
835.097	2838
835.235	3077
835.373	3036
835.511	3055
835.65	2967
835.788	2948
835.926	2800
836.064	2811
836.202	2819
836.34	3085
836.478	3112
836.615	3024
836.753	3123
836.891	3180
837.029	3169
837.167	3116
837.305	3036
837.443	3024
837.58	2944
837.718	3131
837.856	3047
837.993	3001
838.131	3093
838.269	3119
838.406	3104
838.544	3051
838.681	2967
838.819	2929
838.956	2834
839.094	2853
839.231	2880
839.369	3024
839.506	3374
839.643	3218
839.781	3020
839.918	2986
840.055	3058
840.193	3036
840.33	3058
840.467	3093
840.604	3157
840.742	3412
840.879	3020
841.016	3036
841.153	3127
841.29	3306
841.427	3302
841.564	3264
841.701	3340
841.838	3180
841.975	3176
842.112	3218
842.249	3081
842.385	3047
842.522	3211
842.659	3081
842.796	3032
842.933	3104
843.069	3051
843.206	3055
843.343	3188
843.479	3085
843.616	3138
843.752	2910
843.889	2834
844.025	3070
844.162	2861
844.298	3051
844.435	2944
844.571	2944
844.708	3085
844.844	3184
844.98	3237
845.117	3180
845.253	3036
845.389	2967
845.525	3097
845.661	3085
845.798	3020
845.934	3081
846.07	3028
846.206	3226
846.342	3325
846.478	3264
846.614	3077
846.75	3062
846.886	3017
847.022	3218
847.158	3112
847.294	3237
847.429	3199
847.565	3230
847.701	3454
847.837	3036
847.972	3005
848.108	3138
848.244	3150
848.379	2975
848.515	2891
848.65	2937
848.786	2963
848.921	2971
849.057	3081
849.192	3127
849.328	3077
849.463	3104
849.598	3062
849.734	3047
849.869	2956
850.004	2941
850.14	2933
850.275	2914
850.41	2838
850.545	2864
850.68	2899
850.815	2948
850.95	2948
851.085	3173
851.22	3089
851.355	3024
851.49	2933
851.625	2986
851.76	3028
851.895	2895
852.03	2906
852.165	3001
852.299	3119
852.434	3169
852.569	3157
852.703	3150
852.838	3230
852.973	3321
853.107	3298
853.242	3146
853.376	3051
853.511	2941
853.645	3058
853.78	3230
853.914	3089
854.048	3085
854.183	3077
854.317	3165
854.451	3294
854.585	3127
854.72	3055
854.854	3192
854.988	3028
855.122	3108
855.256	2979
855.39	3108
855.524	3188
855.658	3135
855.792	3142
855.926	3173
856.06	3184
856.194	3233
856.327	3104
856.461	3058
856.595	3104
856.729	3066
856.862	3180
856.996	3119
857.13	3192
857.263	3211
857.397	3233
857.53	3108
857.664	3169
857.797	3230
857.931	3230
858.064	3119
858.197	3180
858.331	3154
858.464	3074
858.597	3013
858.731	3116
858.864	3138
858.997	3093
859.13	3097
859.263	3173
859.396	3184
859.529	3081
859.662	3070
859.795	3062
859.928	3123
860.061	3241
860.194	3329
860.327	3150
860.46	3074
860.592	3207
860.725	3199
860.858	3199
860.99	3039
861.123	3062
861.256	3043
861.388	3135
861.521	3713
861.653	3036
861.786	2986
861.918	2975
862.05	3009
862.183	3081
862.315	3142
862.447	3154
862.58	3055
862.712	2933
862.844	2872
862.976	3028
863.108	2979
863.24	3298
863.372	2876
863.504	2986
863.636	2941
863.768	2982
863.9	2994
864.032	2887
864.164	2933
864.296	2990
864.428	3116
864.559	3081
864.691	3036
864.823	3028
864.954	2990
865.086	3039
865.217	3009
865.349	2952
865.48	2906
865.612	3020
865.743	3131
865.875	2986
866.006	2933
866.137	2956
866.269	2929
866.4	2918
866.531	2880
866.662	2895
866.793	2891
866.924	2868
867.055	2956
867.186	2910
867.317	2868
867.448	2857
867.579	2876
867.71	2864
867.841	2838
867.972	2899
868.103	2868
868.233	2868
868.364	2861
868.495	2910
868.625	3028
868.756	3097
868.886	2956
869.017	2990
869.147	3188
869.278	3188
869.408	3062
869.539	2979
869.669	3100
869.799	3013
869.929	3127
870.06	3077
870.19	3317
870.32	3291
870.45	3272
870.58	3374
870.71	3462
870.84	3412
870.97	3268
871.1	3230
871.23	3458
871.36	3443
871.489	3321
871.619	3374
871.749	3386
871.879	3420
872.008	3435
872.138	3329
872.267	3272
872.397	3146
872.526	3081
872.656	3005
872.785	3085
872.915	3222
873.044	3260
873.173	3203
873.303	3226
873.432	3207
873.561	3275
873.69	3123
873.819	3154
873.948	3135
874.077	3077
874.206	3047
874.335	3066
874.464	3207
874.593	3306
874.722	3203
874.851	3325
874.979	3370
875.108	3275
875.237	3199
875.365	3146
875.494	3146
875.623	3226
875.751	3047
875.88	3123
876.008	3188
876.136	3226
876.265	3378
876.393	3511
876.521	3416
876.65	3405
876.778	3302
876.906	3230
877.034	3173
877.162	3230
877.29	3165
877.418	3188
877.546	3211
877.674	3188
877.802	3184
877.93	3214
878.058	3165
878.185	3066
878.313	3169
878.441	3161
878.568	3070
878.696	3123
878.824	3275
878.951	3253
879.079	3409
879.206	3599
879.333	3424
879.461	3325
879.588	3386
879.715	3496
879.842	3622
879.97	3370
880.097	3161
880.224	3093
880.351	3142
880.478	3195
880.605	3222
880.732	3173
880.859	3477
880.986	3283
881.112	3325
881.239	3180
881.366	3070
881.493	3005
881.619	3009
881.746	3055
881.872	3070
881.999	3036
882.125	3108
882.252	3226
882.378	3268
882.505	3386
882.631	3241
882.757	3135
882.883	3184
883.01	3245
883.136	3146
883.262	3077
883.388	3089
883.514	3283
883.64	3382
883.766	3253
883.892	3150
884.018	3184
884.143	3405
884.269	3496
884.395	3150
884.52	3123
884.646	3127
884.772	3116
884.897	3074
885.023	3180
885.148	3283
885.274	3386
885.399	3363
885.524	3287
885.65	3256
885.775	3294
885.9	3302
886.025	3420
886.15	3359
886.275	3268
886.4	3218
886.525	3336
886.65	3226
886.775	3264
886.9	3492
887.025	3637
887.149	3405
887.274	3256
887.399	3180
887.523	3173
887.648	3203
887.773	3230
887.897	3393
888.021	3405
888.146	3325
888.27	3405
888.395	3488
888.519	3428
888.643	3397
888.767	3496
888.891	3325
889.015	3253
889.139	3283
889.263	3291
889.387	3386
889.511	3511
889.635	3481
889.759	3302
889.883	3321
890.006	3401
890.13	3477
890.254	3264
890.377	3374
890.501	3199
890.624	3195
890.748	3325
890.871	3241
890.995	3138
891.118	3108
891.241	3203
891.364	3264
891.488	3321
891.611	3222
891.734	3268
891.857	3306
891.98	3279
892.103	3370
892.226	3302
892.349	3264
892.471	3138
892.594	3306
892.717	3359
892.839	3313
892.962	3332
893.085	3416
893.207	3332
893.33	3207
893.452	3241
893.575	3351
893.697	3310
893.819	3534
893.941	3523
894.064	3507
894.186	3313
894.308	3294
894.43	3534
894.552	3553
894.674	3488
894.796	3291
894.918	3321
895.04	3283
895.161	3477
895.283	3401
895.405	3332
895.526	3401
895.648	3462
895.769	3466
895.891	3492
896.012	3500
896.134	3454
896.255	3477
896.376	3424
896.498	3420
896.619	3473
896.74	3382
896.861	3424
896.982	3732
897.103	3846
897.224	3610
897.345	3530
897.466	3481
897.587	3526
897.708	3679
897.828	3599
897.949	3450
898.07	3348
898.19	3431
898.311	3618
898.431	3485
898.552	3530
898.672	3591
898.792	3568
898.913	3568
899.033	3439
899.153	3344
899.273	3241
899.393	3348
899.513	3279
899.633	3336
899.753	3359
899.873	3363
899.993	3431
900.113	3393
900.232	3401
900.352	3374
900.472	3313
900.591	3268
900.711	3355
900.83	3291
900.95	3454
901.069	3526
901.189	3405
901.308	3222
901.427	3150
901.546	3237
901.665	3268
901.784	3397
901.904	3268
902.023	3184
902.141	3066
902.26	3028
902.379	3176
902.498	3093
902.617	3066
902.735	3241
902.854	3275
902.973	3230
903.091	3077
903.21	3077
903.328	3142
903.446	3116
903.565	3135
903.683	3253
903.801	3169
903.919	3260
904.038	3321
904.156	3173
904.274	3306
904.392	3317
904.51	3306
904.627	3389
904.745	3420
904.863	3523
904.981	3306
905.098	3169
905.216	3222
905.334	3325
905.451	3340
905.569	3332
905.686	3450
905.803	3485
905.921	3321
906.038	3466
906.155	3397
906.272	3272
906.389	3370
906.506	3249
906.623	3264
906.74	3325
906.857	3203
906.974	3287
907.091	3519
907.208	3595
907.324	3481
907.441	3389
907.557	3245
907.674	3272
907.79	3237
907.907	3294
908.023	3367
908.139	3405
908.256	3332
908.372	3355
908.488	3378
908.604	3283
908.72	3272
908.836	3325
908.952	3321
909.068	3367
909.184	3469
909.3	3405
909.415	3526
909.531	3504
909.647	3283
909.762	3321
909.878	3317
909.993	3382
910.108	3367
910.224	3378
910.339	3439
910.454	3409
910.57	3351
910.685	3287
910.8	3618
910.915	3568
911.03	3458
911.145	3332
911.259	3306
911.374	3325
911.489	3302
911.604	3237
911.718	3165
911.833	3173
911.947	3089
912.062	2982
912.176	3188
912.291	3226
912.405	3245
912.519	3466
912.633	3488
912.748	3363
912.862	3313
912.976	3173
913.09	3097
913.204	3154
913.318	3233
913.431	3397
913.545	3340
913.659	3439
913.772	3332
913.886	3233
914	3230
914.113	3412
914.226	3462
914.34	3389
914.453	3245
914.566	3431
914.68	3336
914.793	3321
914.906	3161
915.019	3135
915.132	3138
915.245	3180
915.358	3222
915.47	3230
915.583	3321
915.696	3370
915.809	3439
915.921	3458
916.034	3317
916.146	3272
916.259	3249
916.371	3409
916.483	3355
916.595	3272
916.708	3336
916.82	3374
916.932	3386
917.044	3374
917.156	3378
917.268	3260
917.38	3302
917.491	3291
917.603	3397
917.715	3481
917.826	3473
917.938	3420
918.049	3291
918.161	3447
918.272	3610
918.384	3633
918.495	3542
918.606	3336
918.717	3306
918.828	3428
918.939	3420
919.05	3329
919.161	3405
919.272	3199
919.383	3294
919.494	3504
919.604	3705
919.715	3500
919.826	3416
919.936	3485
920.047	3568
920.157	3564
920.267	3751
920.378	3637
920.488	3591
920.598	3804
920.708	3983
920.818	3850
920.928	3823
921.038	4021
921.148	4010
921.258	3724
921.368	3667
921.477	3584
921.587	3576
921.697	3477
921.806	3641
921.916	3507
922.025	3359
922.134	3336
922.244	3336
922.353	3412
922.462	3279
922.571	3237
922.68	3146
922.789	3116
922.898	3165
923.007	3161
923.116	3218
923.224	3199
923.333	3207
923.442	3138
923.55	3097
923.659	3188
923.767	3237
923.876	3188
923.984	3279
924.092	3093
924.201	3260
924.309	3237
924.417	3279
924.525	3176
924.633	3241
924.741	4040
924.849	3097
924.956	3310
925.064	3085
925.172	3055
925.279	3123
925.387	3226
925.494	3237
925.602	3351
925.709	3378
925.816	3207
925.924	3367
926.031	3374
926.138	3348
926.245	3401
926.352	3283
926.459	3420
926.566	3481
926.673	3351
926.779	3253
926.886	3256
926.993	3192
927.099	3165
927.206	3161
927.312	3157
927.419	3249
927.525	3245
927.631	3291
927.737	3161
927.843	3180
927.95	3055
928.056	3135
928.162	3188
928.267	3279
928.373	3880
928.479	3340
928.585	3074
928.69	3241
928.796	3283
928.901	3184
929.007	3089
929.112	3222
929.218	3157
929.323	3188
929.428	3173
929.533	3332
929.638	3154
929.743	3169
929.848	3249
929.953	3211
930.058	3157
930.163	3058
930.267	3062
930.372	3222
930.477	3051
930.581	3336
930.685	3233
930.79	3089
930.894	3154
930.998	3108
931.103	3291
931.207	2941
931.311	2941
931.415	2944
931.519	2811
931.623	2830
