Data from test_V78500241_984.txt Node
Date: Fri Mar 25 16:22:01 CST 2022
User: usil
Spectrometer: V785-0024
Trigger mode: 0
Integration Time (sec): 4.000000E-1
Scans to average: 1
Nonlinearity correction enabled: false
Boxcar width: 0
Storing dark spectrum: false
XAxis mode: Wavelengths
Number of Pixels in Spectrum: 1024
>>>>>Begin Spectral Data<<<<<
801.071	2891
801.214	2925
801.356	2857
801.499	2918
801.641	2883
801.783	2895
801.926	3058
802.068	2994
802.211	3024
802.353	3028
802.496	3001
802.638	3020
802.78	3055
802.923	3070
803.065	3036
803.208	2883
803.35	2910
803.492	2902
803.635	2967
803.777	2735
803.919	2861
804.061	3207
804.204	2982
804.346	2880
804.488	2834
804.63	2944
804.773	2902
804.915	2910
805.057	3089
805.199	2910
805.341	2971
805.483	3058
805.626	3001
805.768	2944
805.91	3070
806.052	3085
806.194	3005
806.336	3249
806.478	2990
806.62	2918
806.762	2982
806.904	3036
807.046	3173
807.188	3001
807.33	2914
807.472	3001
807.614	2910
807.756	2979
807.898	2857
808.04	2891
808.182	2967
808.324	2937
808.465	2880
808.607	2910
808.749	2777
808.891	2845
809.033	2960
809.174	2990
809.316	2842
809.458	2883
809.6	2792
809.741	2781
809.883	2796
810.025	2842
810.166	2876
810.308	2815
810.45	2830
810.591	2773
810.733	2792
810.875	2826
811.016	2788
811.158	2769
811.299	2781
811.441	2922
811.582	2914
811.724	2800
811.865	2815
812.007	2899
812.148	2853
812.29	2838
812.431	2895
812.573	2933
812.714	2941
812.855	3055
812.997	3043
813.138	3119
813.279	2990
813.421	2979
813.562	2937
813.703	2861
813.845	2823
813.986	2777
814.127	2716
814.268	2826
814.41	2857
814.551	2804
814.692	2868
814.833	2811
814.974	2872
815.115	2967
815.256	2834
815.397	2845
815.539	2853
815.68	2781
815.821	2754
815.962	2941
816.103	2902
816.244	2876
816.385	2857
816.526	2929
816.666	2887
816.807	2743
816.948	2883
817.089	2910
817.23	2815
817.371	2758
817.512	2781
817.653	2838
817.793	2792
817.934	2902
818.075	2971
818.216	2948
818.356	3051
818.497	2918
818.638	2788
818.778	2834
818.919	2823
819.06	2769
819.2	2861
819.341	2773
819.481	2773
819.622	2918
819.762	3112
819.903	3089
820.043	2914
820.184	2899
820.324	2895
820.465	2994
820.605	3024
820.746	2990
820.886	2906
821.026	3089
821.167	3173
821.307	3268
821.447	3283
821.588	3222
821.728	3214
821.868	3226
822.008	3085
822.149	3222
822.289	3241
822.429	3104
822.569	3055
822.709	3214
822.849	3013
822.99	3036
823.13	3169
823.27	3233
823.41	3112
823.55	3146
823.69	3123
823.83	3188
823.97	3097
824.11	3005
824.25	2967
824.389	3032
824.529	3058
824.669	3032
824.809	3169
824.949	3237
825.089	3214
825.228	3142
825.368	3013
825.508	2963
825.648	2952
825.787	3024
825.927	3036
826.067	2933
826.206	2952
826.346	3051
826.485	3077
826.625	3131
826.765	3268
826.904	3230
827.044	2975
827.183	2929
827.323	2845
827.462	2982
827.601	2910
827.741	2941
827.88	2948
828.02	2868
828.159	2960
828.298	2990
828.437	3146
828.577	3005
828.716	3245
828.855	3089
828.994	2929
829.134	2864
829.273	2906
829.412	2857
829.551	2887
829.69	2887
829.829	3009
829.968	3116
830.107	3005
830.246	2998
830.385	2902
830.524	2864
830.663	2800
830.802	2758
830.941	2663
831.08	2636
831.219	2731
831.357	2743
831.496	2975
831.635	2720
831.774	2629
831.913	2640
832.051	2545
832.19	2602
832.329	2663
832.467	2526
832.606	2480
832.744	2602
832.883	2571
833.022	2594
833.16	2632
833.299	2682
833.437	2678
833.576	2686
833.714	2724
833.852	2708
833.991	2739
834.129	2849
834.267	2834
834.406	2785
834.544	2853
834.682	2857
834.821	2872
834.959	3028
835.097	2853
835.235	3058
835.373	2975
835.511	2994
835.65	2933
835.788	2963
835.926	2815
836.064	2781
836.202	2815
836.34	3058
836.478	3127
836.615	3013
836.753	3112
836.891	3184
837.029	3169
837.167	3097
837.305	3085
837.443	3047
837.58	2956
837.718	3116
837.856	3009
837.993	3047
838.131	3112
838.269	3085
838.406	3070
838.544	3062
838.681	2967
838.819	2899
838.956	2830
839.094	2804
839.231	2895
839.369	3005
839.506	3325
839.643	3203
839.781	2998
839.918	2982
840.055	3020
840.193	3051
840.33	3058
840.467	3062
840.604	3135
840.742	3428
840.879	3081
841.016	3001
841.153	3116
841.29	3348
841.427	3287
841.564	3260
841.701	3302
841.838	3214
841.975	3211
842.112	3188
842.249	3028
842.385	3047
842.522	3283
842.659	3097
842.796	3051
842.933	3081
843.069	3024
843.206	3009
843.343	3150
843.479	3108
843.616	3138
843.752	2887
843.889	2842
844.025	3043
844.162	2876
844.298	3081
844.435	2933
844.571	2902
844.708	3039
844.844	3214
844.98	3214
845.117	3180
845.253	3081
845.389	2998
845.525	3074
845.661	3081
845.798	2975
845.934	3127
846.07	3032
846.206	3237
846.342	3302
846.478	3245
846.614	3077
846.75	3001
846.886	3039
847.022	3218
847.158	3119
847.294	3161
847.429	3256
847.565	3199
847.701	3481
847.837	2982
847.972	2975
848.108	3150
848.244	3150
848.379	2952
848.515	2979
848.65	2883
848.786	2952
848.921	3005
849.057	3097
849.192	3169
849.328	3074
849.463	3165
849.598	3077
849.734	3020
849.869	2944
850.004	2899
850.14	2956
850.275	2918
850.41	2823
850.545	2883
850.68	2914
850.815	2967
850.95	2975
851.085	3169
851.22	3081
851.355	3028
851.49	2971
851.625	3024
851.76	3013
851.895	2933
852.03	2899
852.165	3028
852.299	3085
852.434	3180
852.569	3104
852.703	3169
852.838	3249
852.973	3329
853.107	3306
853.242	3138
853.376	3097
853.511	2963
853.645	3017
853.78	3214
853.914	3097
854.048	3097
854.183	3074
854.317	3154
854.451	3283
854.585	3104
854.72	3066
854.854	3199
854.988	3036
855.122	3077
855.256	3009
855.39	3081
855.524	3211
855.658	3230
855.792	3176
855.926	3154
856.06	3184
856.194	3291
856.327	3146
856.461	3077
856.595	3093
856.729	3100
856.862	3176
856.996	3119
857.13	3226
857.263	3214
857.397	3268
857.53	3097
857.664	3192
857.797	3256
857.931	3237
858.064	3165
858.197	3237
858.331	3085
858.464	3108
858.597	3001
858.731	3119
858.864	3116
858.997	3100
859.13	3165
859.263	3169
859.396	3199
859.529	3093
859.662	3058
859.795	3043
859.928	3135
860.061	3287
860.194	3256
860.327	3116
860.46	3074
860.592	3230
860.725	3230
860.858	3287
860.99	3093
861.123	3051
861.256	3032
861.388	3146
861.521	3800
861.653	3036
861.786	2994
861.918	3036
862.05	3043
862.183	3051
862.315	3142
862.447	3169
862.58	3116
862.712	2937
862.844	2853
862.976	2998
863.108	3013
863.24	3428
863.372	2914
863.504	2918
863.636	2952
863.768	3024
863.9	2982
864.032	2899
864.164	2956
864.296	3047
864.428	3089
864.559	3116
864.691	3055
864.823	3066
864.954	3043
865.086	3005
865.217	3001
865.349	2925
865.48	2960
865.612	3009
865.743	3142
865.875	2971
866.006	2925
866.137	3001
866.269	2933
866.4	2914
866.531	2910
866.662	2861
866.793	2891
866.924	2906
867.055	2990
867.186	2922
867.317	2849
867.448	2811
867.579	2861
867.71	2845
867.841	2811
867.972	2864
868.103	2857
868.233	2872
868.364	2918
868.495	2887
868.625	3051
868.756	3123
868.886	2941
869.017	3020
869.147	3135
869.278	3157
869.408	3051
869.539	3028
869.669	3062
869.799	3020
869.929	3093
870.06	3081
870.19	3321
870.32	3294
870.45	3317
870.58	3363
870.71	3431
870.84	3450
870.97	3313
871.1	3226
871.23	3466
871.36	3420
871.489	3344
871.619	3389
871.749	3386
871.879	3412
872.008	3466
872.138	3313
872.267	3256
872.397	3112
872.526	3100
872.656	3028
872.785	3138
872.915	3245
873.044	3351
873.173	3222
873.303	3245
873.432	3241
873.561	3188
873.69	3142
873.819	3150
873.948	3184
874.077	3119
874.206	3013
874.335	3062
874.464	3207
874.593	3329
874.722	3192
874.851	3344
874.979	3310
875.108	3287
875.237	3192
875.365	3138
875.494	3165
875.623	3241
875.751	3074
875.88	3104
876.008	3157
876.136	3203
876.265	3340
876.393	3447
876.521	3439
876.65	3355
876.778	3336
876.906	3249
877.034	3184
877.162	3264
877.29	3161
877.418	3233
877.546	3222
877.674	3222
877.802	3188
877.93	3192
878.058	3123
878.185	3066
878.313	3203
878.441	3203
878.568	3066
878.696	3176
878.824	3256
878.951	3294
879.079	3412
879.206	3629
879.333	3431
879.461	3344
879.588	3367
879.715	3492
879.842	3580
879.97	3401
880.097	3173
880.224	3119
880.351	3176
880.478	3207
880.605	3180
880.732	3195
880.859	3458
880.986	3287
881.112	3310
881.239	3180
881.366	3100
881.493	3032
881.619	3009
881.746	3032
881.872	3055
881.999	3043
882.125	3150
882.252	3237
882.378	3294
882.505	3473
882.631	3302
882.757	3154
882.883	3218
883.01	3173
883.136	3176
883.262	3074
883.388	3116
883.514	3321
883.64	3367
883.766	3325
883.892	3203
884.018	3245
884.143	3397
884.269	3515
884.395	3195
884.52	3192
884.646	3176
884.772	3081
884.897	3108
885.023	3207
885.148	3336
885.274	3412
885.399	3340
885.524	3302
885.65	3249
885.775	3294
885.9	3264
886.025	3393
886.15	3348
886.275	3317
886.4	3245
886.525	3302
886.65	3253
886.775	3272
886.9	3496
887.025	3625
887.149	3420
887.274	3207
887.399	3195
887.523	3157
887.648	3138
887.773	3150
887.897	3363
888.021	3382
888.146	3294
888.27	3439
888.395	3515
888.519	3424
888.643	3401
888.767	3485
888.891	3272
889.015	3211
889.139	3279
889.263	3230
889.387	3393
889.511	3534
889.635	3462
889.759	3272
889.883	3253
890.006	3374
890.13	3488
890.254	3279
890.377	3313
890.501	3203
890.624	3184
890.748	3321
890.871	3135
890.995	3097
891.118	3081
891.241	3138
891.364	3214
891.488	3325
891.611	3214
891.734	3195
891.857	3294
891.98	3207
892.103	3344
892.226	3275
892.349	3260
892.471	3123
892.594	3260
892.717	3279
892.839	3256
892.962	3317
893.085	3351
893.207	3306
893.33	3161
893.452	3184
893.575	3332
893.697	3241
893.819	3450
893.941	3496
894.064	3466
894.186	3245
894.308	3249
894.43	3443
894.552	3500
894.674	3409
894.796	3241
894.918	3302
895.04	3256
895.161	3409
895.283	3382
895.405	3291
895.526	3332
895.648	3416
895.769	3389
895.891	3481
896.012	3500
896.134	3500
896.255	3389
896.376	3416
896.498	3367
896.619	3473
896.74	3344
896.861	3420
896.982	3671
897.103	3846
897.224	3625
897.345	3526
897.466	3469
897.587	3507
897.708	3618
897.828	3523
897.949	3424
898.07	3329
898.19	3412
898.311	3576
898.431	3424
898.552	3519
898.672	3622
898.792	3580
898.913	3462
899.033	3405
899.153	3291
899.273	3241
899.393	3275
899.513	3264
899.633	3321
899.753	3294
899.873	3310
899.993	3378
900.113	3355
900.232	3397
900.352	3348
900.472	3287
900.591	3199
900.711	3272
900.83	3226
900.95	3389
901.069	3515
901.189	3359
901.308	3203
901.427	3119
901.546	3188
901.665	3306
901.784	3332
901.904	3207
902.023	3146
902.141	3001
902.26	2998
902.379	3150
902.498	3081
902.617	3032
902.735	3176
902.854	3207
902.973	3169
903.091	3074
903.21	3070
903.328	3123
903.446	3116
903.565	3127
903.683	3192
903.801	3089
903.919	3218
904.038	3294
904.156	3157
904.274	3287
904.392	3256
904.51	3302
904.627	3317
904.745	3450
904.863	3504
904.981	3230
905.098	3161
905.216	3249
905.334	3256
905.451	3302
905.569	3283
905.686	3393
905.803	3466
905.921	3268
906.038	3397
906.155	3321
906.272	3268
906.389	3332
906.506	3211
906.623	3272
906.74	3245
906.857	3192
906.974	3230
907.091	3443
907.208	3534
907.324	3447
907.441	3359
907.557	3226
907.674	3253
907.79	3176
907.907	3287
908.023	3359
908.139	3382
908.256	3363
908.372	3374
908.488	3359
908.604	3237
908.72	3230
908.836	3291
908.952	3294
909.068	3329
909.184	3507
909.3	3412
909.415	3496
909.531	3439
909.647	3275
909.762	3283
909.878	3275
909.993	3359
910.108	3325
910.224	3321
910.339	3363
910.454	3344
910.57	3306
910.685	3241
910.8	3599
910.915	3534
911.03	3401
911.145	3268
911.259	3256
911.374	3325
911.489	3230
911.604	3230
911.718	3097
911.833	3146
911.947	3017
912.062	2990
912.176	3173
912.291	3184
912.405	3211
912.519	3435
912.633	3469
912.748	3325
912.862	3279
912.976	3169
913.09	3055
913.204	3138
913.318	3226
913.431	3317
913.545	3329
913.659	3386
913.772	3386
913.886	3230
914	3199
914.113	3344
914.226	3405
914.34	3378
914.453	3211
914.566	3389
914.68	3264
914.793	3344
914.906	3119
915.019	3100
915.132	3085
915.245	3150
915.358	3222
915.47	3203
915.583	3256
915.696	3279
915.809	3435
915.921	3424
916.034	3279
916.146	3237
916.259	3211
916.371	3378
916.483	3386
916.595	3260
916.708	3359
916.82	3344
916.932	3340
917.044	3336
917.156	3344
917.268	3264
917.38	3298
917.491	3294
917.603	3340
917.715	3439
917.826	3454
917.938	3378
918.049	3241
918.161	3409
918.272	3568
918.384	3530
918.495	3466
918.606	3306
918.717	3253
918.828	3378
918.939	3412
919.05	3272
919.161	3367
919.272	3165
919.383	3287
919.494	3526
919.604	3682
919.715	3496
919.826	3374
919.936	3412
920.047	3561
920.157	3526
920.267	3762
920.378	3618
920.488	3545
920.598	3816
920.708	3972
920.818	3831
920.928	3850
921.038	4002
921.148	3983
921.258	3705
921.368	3629
921.477	3572
921.587	3500
921.697	3454
921.806	3614
921.916	3500
922.025	3325
922.134	3370
922.244	3355
922.353	3424
922.462	3313
922.571	3241
922.68	3093
922.789	3062
922.898	3142
923.007	3108
923.116	3180
923.224	3165
923.333	3184
923.442	3112
923.55	3112
923.659	3157
923.767	3188
923.876	3116
923.984	3226
924.092	3085
924.201	3195
924.309	3233
924.417	3218
924.525	3173
924.633	3260
924.741	4143
924.849	3062
924.956	3256
925.064	3104
925.172	3024
925.279	3077
925.387	3199
925.494	3207
925.602	3363
925.709	3340
925.816	3188
925.924	3264
926.031	3370
926.138	3317
926.245	3344
926.352	3256
926.459	3431
926.566	3477
926.673	3340
926.779	3260
926.886	3268
926.993	3173
927.099	3131
927.206	3157
927.312	3100
927.419	3214
927.525	3211
927.631	3283
927.737	3142
927.843	3093
927.95	3013
928.056	3116
928.162	3150
928.267	3241
928.373	3857
928.479	3336
928.585	3047
928.69	3230
928.796	3272
928.901	3188
929.007	3032
929.112	3214
929.218	3173
929.323	3154
929.428	3131
929.533	3313
929.638	3138
929.743	3188
929.848	3264
929.953	3199
930.058	3131
930.163	2956
930.267	3062
930.372	3214
930.477	3032
930.581	3294
930.685	3176
930.79	3070
930.894	3100
930.998	3119
931.103	3268
931.207	2960
931.311	2925
931.415	2937
931.519	2762
931.623	2777
