Data from test_V78500241_1393.txt Node
Date: Fri Mar 25 16:24:51 CST 2022
User: usil
Spectrometer: V785-0024
Trigger mode: 0
Integration Time (sec): 4.000000E-1
Scans to average: 1
Nonlinearity correction enabled: false
Boxcar width: 0
Storing dark spectrum: false
XAxis mode: Wavelengths
Number of Pixels in Spectrum: 1024
>>>>>Begin Spectral Data<<<<<
801.071	2895
801.214	2937
801.356	2853
801.499	2902
801.641	2887
801.783	2883
801.926	3074
802.068	2933
802.211	2975
802.353	3005
802.496	2971
802.638	3017
802.78	3001
802.923	3077
803.065	3005
803.208	2929
803.35	2918
803.492	2948
803.635	2918
803.777	2785
803.919	2872
804.061	3192
804.204	2944
804.346	2872
804.488	2853
804.63	2967
804.773	2887
804.915	2902
805.057	3055
805.199	2918
805.341	2933
805.483	3020
805.626	2998
805.768	2941
805.91	3077
806.052	3100
806.194	3055
806.336	3279
806.478	2998
806.62	2960
806.762	2982
806.904	3058
807.046	3199
807.188	2952
807.33	2872
807.472	2963
807.614	2906
807.756	2963
807.898	2918
808.04	2880
808.182	2967
808.324	2944
808.465	2853
808.607	2906
808.749	2788
808.891	2823
809.033	2948
809.174	2982
809.316	2895
809.458	2910
809.6	2777
809.741	2743
809.883	2758
810.025	2838
810.166	2819
810.308	2868
810.45	2842
810.591	2758
810.733	2758
810.875	2834
811.016	2769
811.158	2750
811.299	2792
811.441	2872
811.582	2868
811.724	2807
811.865	2811
812.007	2883
812.148	2914
812.29	2849
812.431	2868
812.573	2918
812.714	2963
812.855	3028
812.997	3024
813.138	3058
813.279	2998
813.421	2998
813.562	2975
813.703	2864
813.845	2906
813.986	2781
814.127	2766
814.268	2842
814.41	2845
814.551	2800
814.692	2883
814.833	2754
814.974	2853
815.115	2967
815.256	2792
815.397	2800
815.539	2868
815.68	2800
815.821	2830
815.962	2864
816.103	2979
816.244	2887
816.385	2880
816.526	2925
816.666	2883
816.807	2758
816.948	2872
817.089	2910
817.23	2857
817.371	2769
817.512	2785
817.653	2849
817.793	2826
817.934	2883
818.075	2986
818.216	2963
818.356	2990
818.497	2887
818.638	2766
818.778	2788
818.919	2777
819.06	2754
819.2	2872
819.341	2792
819.481	2792
819.622	2906
819.762	3085
819.903	3032
820.043	2899
820.184	2880
820.324	2880
820.465	2975
820.605	3001
820.746	3005
820.886	2906
821.026	3093
821.167	3180
821.307	3272
821.447	3241
821.588	3237
821.728	3165
821.868	3180
822.008	3058
822.149	3157
822.289	3222
822.429	3104
822.569	3089
822.709	3142
822.849	3043
822.99	3051
823.13	3161
823.27	3173
823.41	3146
823.55	3127
823.69	3142
823.83	3203
823.97	3062
824.11	2990
824.25	3017
824.389	3077
824.529	3077
824.669	3062
824.809	3176
824.949	3222
825.089	3192
825.228	3146
825.368	2990
825.508	2956
825.648	2975
825.787	2986
825.927	3009
826.067	2971
826.206	2933
826.346	3020
826.485	3047
826.625	3142
826.765	3283
826.904	3184
827.044	2990
827.183	2937
827.323	2838
827.462	3001
827.601	2899
827.741	2910
827.88	2982
828.02	2864
828.159	2982
828.298	3043
828.437	3108
828.577	3047
828.716	3230
828.855	3043
828.994	2929
829.134	2891
829.273	2899
829.412	2853
829.551	2883
829.69	2864
829.829	2998
829.968	3142
830.107	2994
830.246	3009
830.385	2922
830.524	2899
830.663	2773
830.802	2727
830.941	2629
831.08	2640
831.219	2788
831.357	2750
831.496	2960
831.635	2701
831.774	2625
831.913	2655
832.051	2533
832.19	2564
832.329	2701
832.467	2530
832.606	2495
832.744	2560
832.883	2564
833.022	2568
833.16	2667
833.299	2686
833.437	2674
833.576	2667
833.714	2716
833.852	2750
833.991	2720
834.129	2811
834.267	2845
834.406	2781
834.544	2868
834.682	2868
834.821	2876
834.959	3051
835.097	2899
835.235	3062
835.373	3024
835.511	3005
835.65	2937
835.788	2941
835.926	2796
836.064	2823
836.202	2830
836.34	3085
836.478	3146
836.615	3009
836.753	3127
836.891	3199
837.029	3165
837.167	3108
837.305	3074
837.443	2994
837.58	2910
837.718	3074
837.856	3097
837.993	3032
838.131	3062
838.269	3100
838.406	3108
838.544	3093
838.681	2918
838.819	2929
838.956	2773
839.094	2811
839.231	2883
839.369	3024
839.506	3340
839.643	3192
839.781	2967
839.918	2929
840.055	3089
840.193	3043
840.33	3024
840.467	3066
840.604	3161
840.742	3348
840.879	3036
841.016	3047
841.153	3119
841.29	3306
841.427	3260
841.564	3260
841.701	3291
841.838	3203
841.975	3131
842.112	3222
842.249	3055
842.385	2982
842.522	3241
842.659	3081
842.796	3036
842.933	3108
843.069	3005
843.206	3062
843.343	3180
843.479	3093
843.616	3097
843.752	2918
843.889	2883
844.025	3055
844.162	2842
844.298	3085
844.435	2929
844.571	2929
844.708	3089
844.844	3184
844.98	3203
845.117	3169
845.253	3058
845.389	2979
845.525	3081
845.661	3066
845.798	3028
845.934	3157
846.07	3055
846.206	3195
846.342	3298
846.478	3211
846.614	3089
846.75	3032
846.886	3009
847.022	3253
847.158	3077
847.294	3154
847.429	3245
847.565	3188
847.701	3424
847.837	3047
847.972	2979
848.108	3135
848.244	3135
848.379	2990
848.515	2979
848.65	2899
848.786	2929
848.921	3028
849.057	3112
849.192	3119
849.328	3062
849.463	3108
849.598	3077
849.734	3028
849.869	2948
850.004	2937
850.14	2982
850.275	2922
850.41	2857
850.545	2872
850.68	2948
850.815	2990
850.95	2944
851.085	3169
851.22	3104
851.355	3001
851.49	2990
851.625	2971
851.76	3001
851.895	2910
852.03	2883
852.165	3009
852.299	3089
852.434	3188
852.569	3142
852.703	3119
852.838	3256
852.973	3336
853.107	3321
853.242	3127
853.376	3093
853.511	2956
853.645	3020
853.78	3226
853.914	3165
854.048	3077
854.183	3112
854.317	3116
854.451	3268
854.585	3135
854.72	3085
854.854	3161
854.988	3024
855.122	3097
855.256	2982
855.39	3093
855.524	3211
855.658	3142
855.792	3154
855.926	3173
856.06	3214
856.194	3249
856.327	3104
856.461	3066
856.595	3047
856.729	3066
856.862	3211
856.996	3127
857.13	3146
857.263	3214
857.397	3253
857.53	3142
857.664	3249
857.797	3222
857.931	3260
858.064	3146
858.197	3195
858.331	3131
858.464	3089
858.597	2960
858.731	3108
858.864	3119
858.997	3085
859.13	3154
859.263	3176
859.396	3173
859.529	3058
859.662	3055
859.795	3032
859.928	3154
860.061	3275
860.194	3264
860.327	3131
860.46	3062
860.592	3211
860.725	3211
860.858	3184
860.99	3089
861.123	3028
861.256	3058
861.388	3146
861.521	3759
861.653	2998
861.786	2963
861.918	3009
862.05	3062
862.183	3058
862.315	3119
862.447	3188
862.58	3058
862.712	2948
862.844	2845
862.976	3005
863.108	2986
863.24	3344
863.372	2861
863.504	2948
863.636	2937
863.768	2994
863.9	2948
864.032	2876
864.164	2922
864.296	2994
864.428	3097
864.559	3070
864.691	3074
864.823	3051
864.954	3009
865.086	3047
865.217	2971
865.349	2906
865.48	2963
865.612	3005
865.743	3150
865.875	2967
866.006	2910
866.137	2971
866.269	2902
866.4	2933
866.531	2899
866.662	2895
866.793	2853
866.924	2902
867.055	2944
867.186	2902
867.317	2883
867.448	2853
867.579	2811
867.71	2807
867.841	2758
867.972	2838
868.103	2895
868.233	2891
868.364	2868
868.495	2857
868.625	3036
868.756	3127
868.886	2948
869.017	3039
869.147	3154
869.278	3123
869.408	3032
869.539	3024
869.669	3043
869.799	3032
869.929	3100
870.06	3093
870.19	3294
870.32	3241
870.45	3268
870.58	3332
870.71	3405
870.84	3428
870.97	3283
871.1	3226
871.23	3477
871.36	3443
871.489	3329
871.619	3431
871.749	3416
871.879	3447
872.008	3447
872.138	3374
872.267	3291
872.397	3123
872.526	3150
872.656	3001
872.785	3104
872.915	3211
873.044	3344
873.173	3249
873.303	3253
873.432	3256
873.561	3241
873.69	3199
873.819	3123
873.948	3222
874.077	3135
874.206	3066
874.335	3127
874.464	3230
874.593	3363
874.722	3275
874.851	3405
874.979	3367
875.108	3367
875.237	3207
875.365	3211
875.494	3192
875.623	3294
875.751	3116
875.88	3127
876.008	3218
876.136	3253
876.265	3412
876.393	3538
876.521	3507
876.65	3473
876.778	3344
876.906	3287
877.034	3245
877.162	3253
877.29	3268
877.418	3298
877.546	3275
877.674	3313
877.802	3298
877.93	3279
878.058	3245
878.185	3173
878.313	3184
878.441	3256
878.568	3180
878.696	3188
878.824	3245
878.951	3294
879.079	3492
879.206	3644
879.333	3443
879.461	3363
879.588	3416
879.715	3542
879.842	3606
879.97	3439
880.097	3203
880.224	3203
880.351	3226
880.478	3253
880.605	3275
880.732	3253
880.859	3500
880.986	3359
881.112	3306
881.239	3226
881.366	3089
881.493	3100
881.619	3074
881.746	3108
881.872	3119
881.999	3154
882.125	3188
882.252	3291
882.378	3348
882.505	3477
882.631	3336
882.757	3199
882.883	3207
883.01	3260
883.136	3142
883.262	3116
883.388	3165
883.514	3332
883.64	3439
883.766	3310
883.892	3199
884.018	3256
884.143	3450
884.269	3564
884.395	3226
884.52	3188
884.646	3192
884.772	3214
884.897	3150
885.023	3211
885.148	3386
885.274	3454
885.399	3386
885.524	3287
885.65	3306
885.775	3351
885.9	3329
886.025	3420
886.15	3397
886.275	3310
886.4	3260
886.525	3325
886.65	3294
886.775	3313
886.9	3542
887.025	3637
887.149	3443
887.274	3313
887.399	3214
887.523	3226
887.648	3214
887.773	3226
887.897	3393
888.021	3405
888.146	3302
888.27	3507
888.395	3576
888.519	3435
888.643	3485
888.767	3469
888.891	3348
889.015	3233
889.139	3310
889.263	3302
889.387	3469
889.511	3530
889.635	3469
889.759	3294
889.883	3302
890.006	3389
890.13	3519
890.254	3310
890.377	3370
890.501	3222
890.624	3173
890.748	3351
890.871	3180
890.995	3116
891.118	3108
891.241	3241
891.364	3264
891.488	3329
891.611	3169
891.734	3222
891.857	3332
891.98	3237
892.103	3351
892.226	3298
892.349	3222
892.471	3131
892.594	3264
892.717	3306
892.839	3275
892.962	3325
893.085	3393
893.207	3313
893.33	3146
893.452	3245
893.575	3355
893.697	3306
893.819	3500
893.941	3511
894.064	3450
894.186	3306
894.308	3313
894.43	3428
894.552	3553
894.674	3507
894.796	3260
894.918	3382
895.04	3306
895.161	3431
895.283	3405
895.405	3409
895.526	3370
895.648	3431
895.769	3431
895.891	3485
896.012	3469
896.134	3496
896.255	3428
896.376	3401
896.498	3378
896.619	3473
896.74	3412
896.861	3458
896.982	3713
897.103	3876
897.224	3622
897.345	3526
897.466	3462
897.587	3515
897.708	3625
897.828	3568
897.949	3481
898.07	3378
898.19	3443
898.311	3660
898.431	3507
898.552	3545
898.672	3618
898.792	3580
898.913	3553
899.033	3412
899.153	3348
899.273	3226
899.393	3329
899.513	3336
899.633	3359
899.753	3363
899.873	3397
899.993	3393
900.113	3389
900.232	3435
900.352	3367
900.472	3325
900.591	3218
900.711	3329
900.83	3268
900.95	3424
901.069	3507
901.189	3401
901.308	3192
901.427	3150
901.546	3237
901.665	3317
901.784	3386
901.904	3272
902.023	3211
902.141	3058
902.26	3047
902.379	3150
902.498	3138
902.617	3112
902.735	3203
902.854	3245
902.973	3192
903.091	3077
903.21	3123
903.328	3195
903.446	3150
903.565	3104
903.683	3211
903.801	3142
903.919	3298
904.038	3344
904.156	3211
904.274	3306
904.392	3222
904.51	3325
904.627	3363
904.745	3469
904.863	3549
904.981	3268
905.098	3173
905.216	3211
905.334	3287
905.451	3329
905.569	3302
905.686	3420
905.803	3481
905.921	3313
906.038	3485
906.155	3393
906.272	3268
906.389	3344
906.506	3230
906.623	3291
906.74	3298
906.857	3218
906.974	3302
907.091	3511
907.208	3591
907.324	3492
907.441	3405
907.557	3241
907.674	3233
907.79	3256
907.907	3294
908.023	3424
908.139	3416
908.256	3359
908.372	3367
908.488	3386
908.604	3287
908.72	3253
908.836	3275
908.952	3256
909.068	3332
909.184	3477
909.3	3428
909.415	3500
909.531	3492
909.647	3287
909.762	3321
909.878	3321
909.993	3405
910.108	3370
910.224	3351
910.339	3428
910.454	3348
910.57	3291
910.685	3241
910.8	3599
910.915	3542
911.03	3488
911.145	3287
911.259	3298
911.374	3336
911.489	3264
911.604	3249
911.718	3135
911.833	3173
911.947	3058
912.062	3039
912.176	3184
912.291	3233
912.405	3237
912.519	3462
912.633	3466
912.748	3370
912.862	3310
912.976	3241
913.09	3062
913.204	3173
913.318	3222
913.431	3298
913.545	3351
913.659	3443
913.772	3336
913.886	3233
914	3192
914.113	3397
914.226	3431
914.34	3351
914.453	3222
914.566	3397
914.68	3306
914.793	3344
914.906	3131
915.019	3169
915.132	3066
915.245	3157
915.358	3203
915.47	3279
915.583	3306
915.696	3321
915.809	3447
915.921	3439
916.034	3268
916.146	3313
916.259	3272
916.371	3424
916.483	3382
916.595	3298
916.708	3336
916.82	3355
916.932	3351
917.044	3332
917.156	3374
917.268	3264
917.38	3298
917.491	3294
917.603	3351
917.715	3492
917.826	3477
917.938	3359
918.049	3272
918.161	3424
918.272	3580
918.384	3580
918.495	3500
918.606	3386
918.717	3317
918.828	3405
918.939	3454
919.05	3355
919.161	3389
919.272	3203
919.383	3272
919.494	3534
919.604	3675
919.715	3542
919.826	3420
919.936	3492
920.047	3576
920.157	3561
920.267	3762
920.378	3603
920.488	3584
920.598	3781
920.708	3975
920.818	3804
920.928	3865
921.038	4029
921.148	3994
921.258	3709
921.368	3648
921.477	3584
921.587	3584
921.697	3507
921.806	3652
921.916	3553
922.025	3367
922.134	3355
922.244	3306
922.353	3412
922.462	3233
922.571	3241
922.68	3127
922.789	3093
922.898	3119
923.007	3123
923.116	3237
923.224	3161
923.333	3245
923.442	3123
923.55	3100
923.659	3188
923.767	3218
923.876	3161
923.984	3241
924.092	3150
924.201	3226
924.309	3214
924.417	3268
924.525	3233
924.633	3233
924.741	4006
924.849	3024
924.956	3272
925.064	3097
925.172	3055
925.279	3119
925.387	3192
925.494	3203
925.602	3370
925.709	3378
925.816	3214
925.924	3287
926.031	3355
926.138	3378
926.245	3405
926.352	3268
926.459	3401
926.566	3504
926.673	3294
926.779	3279
926.886	3249
926.993	3161
927.099	3154
927.206	3154
927.312	3097
927.419	3253
927.525	3199
927.631	3264
927.737	3176
927.843	3116
927.95	3028
928.056	3154
928.162	3184
928.267	3264
928.373	3884
928.479	3291
928.585	3074
928.69	3195
928.796	3253
928.901	3195
929.007	3070
929.112	3199
929.218	3188
929.323	3123
929.428	3192
929.533	3329
929.638	3108
929.743	3157
929.848	3268
929.953	3226
930.058	3142
930.163	2986
930.267	3058
930.372	3211
930.477	3070
930.581	3298
930.685	3131
930.79	3058
930.894	3055
930.998	3085
931.103	3298
931.207	2971
931.311	2944
931.415	2910
931.519	2800
931.623	2823
