Data from test_V78500241_589.txt Node
Date: Fri Mar 25 16:19:17 CST 2022
User: usil
Spectrometer: V785-0024
Trigger mode: 0
Integration Time (sec): 4.000000E-1
Scans to average: 1
Nonlinearity correction enabled: false
Boxcar width: 0
Storing dark spectrum: false
XAxis mode: Wavelengths
Number of Pixels in Spectrum: 1024
>>>>>Begin Spectral Data<<<<<
801.071	2914
801.214	2914
801.356	2891
801.499	2914
801.641	2842
801.783	2925
801.926	3051
802.068	2982
802.211	2990
802.353	3051
802.496	2922
802.638	2994
802.78	3036
802.923	3081
803.065	3001
803.208	2899
803.35	2887
803.492	2910
803.635	2906
803.777	2788
803.919	2834
804.061	3188
804.204	2933
804.346	2906
804.488	2819
804.63	2971
804.773	2868
804.915	2918
805.057	3066
805.199	2918
805.341	2960
805.483	3024
805.626	3001
805.768	2944
805.91	3062
806.052	3119
806.194	3062
806.336	3226
806.478	2986
806.62	2929
806.762	2952
806.904	3032
807.046	3165
807.188	3013
807.33	2906
807.472	2994
807.614	2914
807.756	2960
807.898	2918
808.04	2842
808.182	2971
808.324	2956
808.465	2910
808.607	2887
808.749	2796
808.891	2838
809.033	2952
809.174	2952
809.316	2868
809.458	2857
809.6	2785
809.741	2785
809.883	2758
810.025	2826
810.166	2876
810.308	2864
810.45	2864
810.591	2762
810.733	2762
810.875	2872
811.016	2750
811.158	2758
811.299	2811
811.441	2952
811.582	2910
811.724	2838
811.865	2845
812.007	2895
812.148	2876
812.29	2887
812.431	2899
812.573	2963
812.714	2975
812.855	3074
812.997	3032
813.138	3081
813.279	2998
813.421	2963
813.562	2906
813.703	2872
813.845	2906
813.986	2766
814.127	2708
814.268	2807
814.41	2830
814.551	2826
814.692	2845
814.833	2804
814.974	2910
815.115	2975
815.256	2800
815.397	2807
815.539	2868
815.68	2792
815.821	2743
815.962	2963
816.103	2925
816.244	2876
816.385	2857
816.526	2941
816.666	2918
816.807	2762
816.948	2895
817.089	2910
817.23	2861
817.371	2796
817.512	2788
817.653	2853
817.793	2788
817.934	2845
818.075	2963
818.216	3001
818.356	3013
818.497	2899
818.638	2769
818.778	2800
818.919	2743
819.06	2781
819.2	2914
819.341	2792
819.481	2777
819.622	2944
819.762	3100
819.903	2994
820.043	2910
820.184	2906
820.324	2899
820.465	2990
820.605	3028
820.746	3009
820.886	2941
821.026	3112
821.167	3142
821.307	3245
821.447	3294
821.588	3226
821.728	3188
821.868	3222
822.008	3104
822.149	3203
822.289	3188
822.429	3070
822.569	3066
822.709	3165
822.849	3024
822.99	3058
823.13	3123
823.27	3218
823.41	3108
823.55	3161
823.69	3150
823.83	3176
823.97	3074
824.11	3005
824.25	2986
824.389	3081
824.529	3112
824.669	3093
824.809	3188
824.949	3264
825.089	3180
825.228	3127
825.368	3013
825.508	2948
825.648	2967
825.787	3001
825.927	2990
826.067	2967
826.206	2941
826.346	3043
826.485	3058
826.625	3112
826.765	3241
826.904	3218
827.044	2956
827.183	2937
827.323	2842
827.462	2963
827.601	2944
827.741	2910
827.88	2925
828.02	2845
828.159	2971
828.298	3017
828.437	3135
828.577	3036
828.716	3287
828.855	3062
828.994	2906
829.134	2857
829.273	2868
829.412	2872
829.551	2872
829.69	2861
829.829	3005
829.968	3142
830.107	3028
830.246	3024
830.385	2933
830.524	2891
830.663	2804
830.802	2739
830.941	2670
831.08	2625
831.219	2777
831.357	2773
831.496	2922
831.635	2727
831.774	2640
831.913	2663
832.051	2560
832.19	2564
832.329	2644
832.467	2507
832.606	2492
832.744	2545
832.883	2545
833.022	2610
833.16	2655
833.299	2689
833.437	2705
833.576	2701
833.714	2739
833.852	2731
833.991	2758
834.129	2826
834.267	2788
834.406	2788
834.544	2838
834.682	2861
834.821	2914
834.959	3074
835.097	2899
835.235	3013
835.373	2944
835.511	2971
835.65	2941
835.788	2971
835.926	2838
836.064	2807
836.202	2838
836.34	3089
836.478	3146
836.615	3001
836.753	3112
836.891	3203
837.029	3150
837.167	3074
837.305	3036
837.443	3024
837.58	2982
837.718	3108
837.856	3074
837.993	3005
838.131	3112
838.269	3108
838.406	3081
838.544	3097
838.681	2960
838.819	2883
838.956	2796
839.094	2842
839.231	2880
839.369	3009
839.506	3367
839.643	3218
839.781	3039
839.918	2960
840.055	3058
840.193	3077
840.33	3066
840.467	3074
840.604	3157
840.742	3382
840.879	2979
841.016	3001
841.153	3119
841.29	3351
841.427	3363
841.564	3294
841.701	3306
841.838	3211
841.975	3154
842.112	3192
842.249	3097
842.385	3005
842.522	3233
842.659	3066
842.796	3066
842.933	3085
843.069	3043
843.206	3020
843.343	3169
843.479	3097
843.616	3131
843.752	2883
843.889	2864
844.025	3081
844.162	2891
844.298	3055
844.435	2944
844.571	2883
844.708	3093
844.844	3211
844.98	3218
845.117	3180
845.253	3028
845.389	3024
845.525	3123
845.661	3081
845.798	2986
845.934	3108
846.07	3047
846.206	3218
846.342	3310
846.478	3188
846.614	3097
846.75	3032
846.886	3013
847.022	3211
847.158	3116
847.294	3207
847.429	3241
847.565	3233
847.701	3488
847.837	3032
847.972	2998
848.108	3173
848.244	3142
848.379	2994
848.515	2956
848.65	2986
848.786	2967
848.921	3024
849.057	3074
849.192	3142
849.328	3051
849.463	3112
849.598	3051
849.734	3051
849.869	2975
850.004	2952
850.14	2982
850.275	2952
850.41	2838
850.545	2864
850.68	2944
850.815	2941
850.95	2963
851.085	3188
851.22	3116
851.355	3017
851.49	2967
851.625	2975
851.76	2986
851.895	2914
852.03	2906
852.165	3028
852.299	3070
852.434	3154
852.569	3123
852.703	3169
852.838	3241
852.973	3329
853.107	3348
853.242	3104
853.376	3066
853.511	3001
853.645	3051
853.78	3233
853.914	3116
854.048	3085
854.183	3112
854.317	3138
854.451	3253
854.585	3089
854.72	3055
854.854	3222
854.988	3036
855.122	3100
855.256	2990
855.39	3089
855.524	3241
855.658	3180
855.792	3150
855.926	3173
856.06	3207
856.194	3283
856.327	3135
856.461	3043
856.595	3062
856.729	3062
856.862	3146
856.996	3154
857.13	3180
857.263	3203
857.397	3283
857.53	3066
857.664	3188
857.797	3237
857.931	3253
858.064	3154
858.197	3222
858.331	3146
858.464	3058
858.597	2994
858.731	3123
858.864	3127
858.997	3043
859.13	3146
859.263	3157
859.396	3165
859.529	3097
859.662	3051
859.795	3024
859.928	3146
860.061	3264
860.194	3256
860.327	3135
860.46	3116
860.592	3218
860.725	3253
860.858	3222
860.99	3100
861.123	3070
861.256	3077
861.388	3154
861.521	3709
861.653	2986
861.786	2967
861.918	2998
862.05	3077
862.183	3085
862.315	3150
862.447	3188
862.58	3089
862.712	2956
862.844	2868
862.976	3028
863.108	2975
863.24	3409
863.372	2899
863.504	2979
863.636	2960
863.768	3051
863.9	2979
864.032	2895
864.164	2933
864.296	3017
864.428	3077
864.559	3074
864.691	3062
864.823	3116
864.954	3005
865.086	3058
865.217	2990
865.349	2944
865.48	2982
865.612	3005
865.743	3131
865.875	2967
866.006	2963
866.137	2929
866.269	2960
866.4	2994
866.531	2918
866.662	2857
866.793	2880
866.924	2880
867.055	2933
867.186	2918
867.317	2849
867.448	2853
867.579	2815
867.71	2849
867.841	2819
867.972	2918
868.103	2895
868.233	2864
868.364	2853
868.495	2906
868.625	3032
868.756	3123
868.886	2979
869.017	3020
869.147	3169
869.278	3146
869.408	3039
869.539	3017
869.669	3074
869.799	3036
869.929	3135
870.06	3089
870.19	3268
870.32	3283
870.45	3317
870.58	3329
870.71	3428
870.84	3462
870.97	3298
871.1	3233
871.23	3469
871.36	3462
871.489	3367
871.619	3374
871.749	3397
871.879	3443
872.008	3496
872.138	3370
872.267	3245
872.397	3131
872.526	3070
872.656	2990
872.785	3089
872.915	3241
873.044	3325
873.173	3195
873.303	3249
873.432	3207
873.561	3226
873.69	3173
873.819	3157
873.948	3188
874.077	3104
874.206	3058
874.335	3089
874.464	3222
874.593	3287
874.722	3256
874.851	3401
874.979	3344
875.108	3287
875.237	3211
875.365	3176
875.494	3195
875.623	3249
875.751	3074
875.88	3119
876.008	3226
876.136	3230
876.265	3393
876.393	3530
876.521	3401
876.65	3393
876.778	3332
876.906	3199
877.034	3214
877.162	3241
877.29	3161
877.418	3253
877.546	3218
877.674	3222
877.802	3275
877.93	3211
878.058	3097
878.185	3074
878.313	3184
878.441	3222
878.568	3055
878.696	3157
878.824	3241
878.951	3306
879.079	3473
879.206	3538
879.333	3416
879.461	3329
879.588	3355
879.715	3450
879.842	3568
879.97	3397
880.097	3188
880.224	3104
880.351	3184
880.478	3241
880.605	3195
880.732	3180
880.859	3488
880.986	3355
881.112	3321
881.239	3188
881.366	3077
881.493	3017
881.619	3013
881.746	3036
881.872	3036
881.999	3112
882.125	3112
882.252	3279
882.378	3294
882.505	3443
882.631	3264
882.757	3127
882.883	3195
883.01	3199
883.136	3123
883.262	3070
883.388	3142
883.514	3294
883.64	3382
883.766	3272
883.892	3157
884.018	3260
884.143	3416
884.269	3530
884.395	3199
884.52	3157
884.646	3180
884.772	3100
884.897	3100
885.023	3165
885.148	3313
885.274	3443
885.399	3374
885.524	3279
885.65	3230
885.775	3310
885.9	3291
886.025	3435
886.15	3386
886.275	3310
886.4	3199
886.525	3294
886.65	3230
886.775	3272
886.9	3523
887.025	3614
887.149	3416
887.274	3264
887.399	3199
887.523	3184
887.648	3169
887.773	3195
887.897	3363
888.021	3409
888.146	3302
888.27	3405
888.395	3568
888.519	3462
888.643	3454
888.767	3477
888.891	3287
889.015	3199
889.139	3253
889.263	3230
889.387	3443
889.511	3485
889.635	3458
889.759	3245
889.883	3264
890.006	3359
890.13	3496
890.254	3275
890.377	3332
890.501	3211
890.624	3154
890.748	3291
890.871	3207
890.995	3055
891.118	3043
891.241	3169
891.364	3241
891.488	3306
891.611	3192
891.734	3199
891.857	3291
891.98	3245
892.103	3336
892.226	3268
892.349	3173
892.471	3112
892.594	3241
892.717	3291
892.839	3253
892.962	3294
893.085	3336
893.207	3287
893.33	3142
893.452	3226
893.575	3329
893.697	3237
893.819	3428
893.941	3466
894.064	3431
894.186	3302
894.308	3222
894.43	3439
894.552	3553
894.674	3416
894.796	3275
894.918	3260
895.04	3298
895.161	3428
895.283	3382
895.405	3275
895.526	3389
895.648	3431
895.769	3424
895.891	3454
896.012	3454
896.134	3477
896.255	3393
896.376	3405
896.498	3378
896.619	3447
896.74	3355
896.861	3386
896.982	3690
897.103	3797
897.224	3606
897.345	3534
897.466	3435
897.587	3454
897.708	3622
897.828	3561
897.949	3428
898.07	3310
898.19	3340
898.311	3648
898.431	3424
898.552	3492
898.672	3606
898.792	3580
898.913	3549
899.033	3416
899.153	3233
899.273	3249
899.393	3291
899.513	3325
899.633	3310
899.753	3382
899.873	3325
899.993	3344
900.113	3294
900.232	3386
900.352	3332
900.472	3291
900.591	3199
900.711	3260
900.83	3192
900.95	3412
901.069	3409
901.189	3351
901.308	3199
901.427	3108
901.546	3157
901.665	3291
901.784	3325
901.904	3226
902.023	3131
902.141	3028
902.26	2998
902.379	3123
902.498	3062
902.617	3047
902.735	3241
902.854	3272
902.973	3192
903.091	3051
903.21	3070
903.328	3123
903.446	3100
903.565	3108
903.683	3188
903.801	3116
903.919	3226
904.038	3264
904.156	3146
904.274	3264
904.392	3237
904.51	3245
904.627	3302
904.745	3412
904.863	3500
904.981	3245
905.098	3214
905.216	3218
905.334	3294
905.451	3313
905.569	3260
905.686	3409
905.803	3424
905.921	3291
906.038	3393
906.155	3378
906.272	3264
906.389	3344
906.506	3245
906.623	3226
906.74	3283
906.857	3169
906.974	3249
907.091	3462
907.208	3553
907.324	3466
907.441	3397
907.557	3245
907.674	3207
907.79	3188
907.907	3275
908.023	3378
908.139	3340
908.256	3344
908.372	3367
908.488	3355
908.604	3268
908.72	3237
908.836	3275
908.952	3233
909.068	3332
909.184	3458
909.3	3378
909.415	3477
909.531	3473
909.647	3268
909.762	3310
909.878	3253
909.993	3374
910.108	3336
910.224	3317
910.339	3412
910.454	3332
910.57	3275
910.685	3241
910.8	3587
910.915	3534
911.03	3397
911.145	3260
911.259	3245
911.374	3294
911.489	3226
911.604	3211
911.718	3116
911.833	3138
911.947	3051
912.062	2952
912.176	3195
912.291	3169
912.405	3211
912.519	3439
912.633	3450
912.748	3329
912.862	3279
912.976	3157
913.09	3055
913.204	3119
913.318	3241
913.431	3325
913.545	3306
913.659	3405
913.772	3329
913.886	3203
914	3214
914.113	3340
914.226	3412
914.34	3363
914.453	3180
914.566	3409
914.68	3249
914.793	3332
914.906	3123
915.019	3100
915.132	3089
915.245	3176
915.358	3192
915.47	3218
915.583	3249
915.696	3310
915.809	3393
915.921	3420
916.034	3298
916.146	3260
916.259	3222
916.371	3382
916.483	3348
916.595	3302
916.708	3325
916.82	3325
916.932	3302
917.044	3363
917.156	3344
917.268	3203
917.38	3287
917.491	3287
917.603	3367
917.715	3450
917.826	3488
917.938	3374
918.049	3233
918.161	3424
918.272	3580
918.384	3572
918.495	3477
918.606	3317
918.717	3272
918.828	3359
918.939	3389
919.05	3302
919.161	3363
919.272	3180
919.383	3264
919.494	3488
919.604	3694
919.715	3462
919.826	3359
919.936	3485
920.047	3572
920.157	3526
920.267	3778
920.378	3614
920.488	3549
920.598	3747
920.708	3949
920.818	3819
920.928	3827
921.038	4055
921.148	3991
921.258	3713
921.368	3667
921.477	3568
921.587	3538
921.697	3439
921.806	3641
921.916	3545
922.025	3359
922.134	3363
922.244	3310
922.353	3393
922.462	3218
922.571	3233
922.68	3119
922.789	3036
922.898	3112
923.007	3127
923.116	3214
923.224	3135
923.333	3146
923.442	3112
923.55	3077
923.659	3093
923.767	3230
923.876	3097
923.984	3218
924.092	3085
924.201	3184
924.309	3222
924.417	3260
924.525	3207
924.633	3249
924.741	3998
924.849	3055
924.956	3268
925.064	3097
925.172	3024
925.279	3100
925.387	3154
925.494	3226
925.602	3355
925.709	3313
925.816	3176
925.924	3287
926.031	3374
926.138	3310
926.245	3340
926.352	3272
926.459	3428
926.566	3458
926.673	3317
926.779	3268
926.886	3233
926.993	3123
927.099	3150
927.206	3108
927.312	3135
927.419	3214
927.525	3207
927.631	3275
927.737	3093
927.843	3169
927.95	3017
928.056	3161
928.162	3188
928.267	3237
928.373	3793
928.479	3294
928.585	3062
928.69	3188
928.796	3260
928.901	3135
929.007	3039
929.112	3222
929.218	3169
929.323	3135
929.428	3165
929.533	3291
929.638	3123
929.743	3146
929.848	3268
929.953	3199
930.058	3119
930.163	3001
930.267	3074
930.372	3184
930.477	3013
930.581	3291
930.685	3157
930.79	3055
930.894	3081
930.998	3112
931.103	3241
931.207	2990
931.311	2902
931.415	2910
931.519	2773
931.623	2845
