Data from test_V78500241_120.txt Node
Date: Fri Mar 25 16:16:02 CST 2022
User: usil
Spectrometer: V785-0024
Trigger mode: 0
Integration Time (sec): 4.000000E-1
Scans to average: 1
Nonlinearity correction enabled: false
Boxcar width: 0
Storing dark spectrum: false
XAxis mode: Wavelengths
Number of Pixels in Spectrum: 1024
>>>>>Begin Spectral Data<<<<<
801.071	2960
801.214	2956
801.356	2925
801.499	2960
801.641	2925
801.783	2937
801.926	3032
802.068	2982
802.211	3047
802.353	3047
802.496	2986
802.638	3039
802.78	3047
802.923	3119
803.065	3070
803.208	2960
803.35	2941
803.492	2933
803.635	2979
803.777	2804
803.919	2895
804.061	3241
804.204	3024
804.346	2933
804.488	2857
804.63	3005
804.773	2918
804.915	2910
805.057	3135
805.199	2948
805.341	2986
805.483	3112
805.626	3024
805.768	2986
805.91	3123
806.052	3142
806.194	3047
806.336	3245
806.478	3051
806.62	2963
806.762	3020
806.904	3077
807.046	3195
807.188	3028
807.33	2937
807.472	3005
807.614	2937
807.756	2990
807.898	2944
808.04	2941
808.182	3032
808.324	2971
808.465	2914
808.607	2876
808.749	2849
808.891	2880
809.033	2998
809.174	3020
809.316	2891
809.458	2929
809.6	2792
809.741	2804
809.883	2804
810.025	2838
810.166	2876
810.308	2864
810.45	2899
810.591	2807
810.733	2785
810.875	2853
811.016	2800
811.158	2785
811.299	2826
811.441	2910
811.582	2925
811.724	2845
811.865	2891
812.007	2922
812.148	2902
812.29	2887
812.431	2956
812.573	2979
812.714	2990
812.855	3070
812.997	3097
813.138	3142
813.279	3032
813.421	2986
813.562	2986
813.703	2925
813.845	2918
813.986	2796
814.127	2773
814.268	2845
814.41	2872
814.551	2834
814.692	2910
814.833	2838
814.974	2918
815.115	2998
815.256	2853
815.397	2811
815.539	2922
815.68	2773
815.821	2819
815.962	2941
816.103	2975
816.244	2902
816.385	2906
816.526	3001
816.666	2952
816.807	2800
816.948	2914
817.089	2933
817.23	2887
817.371	2815
817.512	2800
817.653	2887
817.793	2826
817.934	2887
818.075	2990
818.216	3036
818.356	3081
818.497	2902
818.638	2796
818.778	2826
818.919	2796
819.06	2781
819.2	2887
819.341	2792
819.481	2834
819.622	2960
819.762	3108
819.903	3104
820.043	2975
820.184	2994
820.324	2906
820.465	3070
820.605	3062
820.746	3066
820.886	2990
821.026	3112
821.167	3192
821.307	3272
821.447	3313
821.588	3264
821.728	3230
821.868	3226
822.008	3123
822.149	3253
822.289	3283
822.429	3123
822.569	3108
822.709	3214
822.849	3070
822.99	3070
823.13	3233
823.27	3264
823.41	3142
823.55	3169
823.69	3173
823.83	3203
823.97	3154
824.11	3024
824.25	3020
824.389	3108
824.529	3138
824.669	3100
824.809	3245
824.949	3272
825.089	3268
825.228	3195
825.368	3024
825.508	2994
825.648	2975
825.787	3017
825.927	3081
826.067	3017
826.206	2998
826.346	3070
826.485	3100
826.625	3142
826.765	3310
826.904	3233
827.044	3036
827.183	2960
827.323	2902
827.462	3005
827.601	2929
827.741	2979
827.88	3001
828.02	2906
828.159	3005
828.298	3070
828.437	3157
828.577	3070
828.716	3275
828.855	3093
828.994	2929
829.134	2910
829.273	2937
829.412	2925
829.551	2899
829.69	2941
829.829	3020
829.968	3157
830.107	3036
830.246	3081
830.385	2937
830.524	2861
830.663	2826
830.802	2777
830.941	2693
831.08	2682
831.219	2792
831.357	2777
831.496	2960
831.635	2796
831.774	2686
831.913	2701
832.051	2587
832.19	2590
832.329	2674
832.467	2587
832.606	2511
832.744	2571
832.883	2610
833.022	2625
833.16	2686
833.299	2712
833.437	2739
833.576	2712
833.714	2739
833.852	2735
833.991	2785
834.129	2902
834.267	2815
834.406	2815
834.544	2899
834.682	2887
834.821	2883
834.959	3093
835.097	2925
835.235	3081
835.373	3017
835.511	3028
835.65	2982
835.788	2952
835.926	2887
836.064	2853
836.202	2849
836.34	3085
836.478	3165
836.615	3062
836.753	3154
836.891	3203
837.029	3218
837.167	3119
837.305	3100
837.443	3066
837.58	2986
837.718	3142
837.856	3039
837.993	3017
838.131	3165
838.269	3131
838.406	3135
838.544	3093
838.681	3009
838.819	2910
838.956	2830
839.094	2857
839.231	2956
839.369	3032
839.506	3397
839.643	3241
839.781	3017
839.918	2998
840.055	3066
840.193	3085
840.33	3108
840.467	3116
840.604	3173
840.742	3405
840.879	3081
841.016	3062
841.153	3146
841.29	3359
841.427	3355
841.564	3268
841.701	3344
841.838	3226
841.975	3180
842.112	3233
842.249	3123
842.385	3055
842.522	3313
842.659	3119
842.796	3043
842.933	3131
843.069	3055
843.206	3070
843.343	3192
843.479	3154
843.616	3165
843.752	2937
843.889	2864
844.025	3119
844.162	2887
844.298	3112
844.435	2956
844.571	2937
844.708	3104
844.844	3226
844.98	3272
845.117	3218
845.253	3081
845.389	3036
845.525	3138
845.661	3142
845.798	2998
845.934	3169
846.07	3089
846.206	3241
846.342	3340
846.478	3268
846.614	3108
846.75	3081
846.886	3024
847.022	3264
847.158	3150
847.294	3226
847.429	3260
847.565	3264
847.701	3473
847.837	3058
847.972	3013
848.108	3154
848.244	3146
848.379	2994
848.515	2960
848.65	2948
848.786	2971
848.921	3013
849.057	3157
849.192	3207
849.328	3112
849.463	3108
849.598	3135
849.734	3039
849.869	2956
850.004	2922
850.14	2979
850.275	2929
850.41	2876
850.545	2891
850.68	2941
850.815	2986
850.95	2994
851.085	3195
851.22	3119
851.355	3066
851.49	3009
851.625	3058
851.76	3081
851.895	2929
852.03	2914
852.165	3043
852.299	3135
852.434	3203
852.569	3142
852.703	3165
852.838	3279
852.973	3340
853.107	3374
853.242	3173
853.376	3097
853.511	2971
853.645	3047
853.78	3287
853.914	3161
854.048	3154
854.183	3108
854.317	3165
854.451	3279
854.585	3135
854.72	3085
854.854	3241
854.988	3043
855.122	3097
855.256	3001
855.39	3104
855.524	3256
855.658	3218
855.792	3169
855.926	3184
856.06	3199
856.194	3275
856.327	3176
856.461	3070
856.595	3150
856.729	3100
856.862	3256
856.996	3154
857.13	3199
857.263	3237
857.397	3272
857.53	3112
857.664	3218
857.797	3253
857.931	3294
858.064	3192
858.197	3256
858.331	3116
858.464	3116
858.597	3028
858.731	3173
858.864	3146
858.997	3089
859.13	3176
859.263	3203
859.396	3195
859.529	3081
859.662	3039
859.795	3051
859.928	3131
860.061	3279
860.194	3306
860.327	3135
860.46	3131
860.592	3272
860.725	3237
860.858	3283
860.99	3161
861.123	3055
861.256	3070
861.388	3169
861.521	3770
861.653	3032
861.786	3028
861.918	3013
862.05	3089
862.183	3123
862.315	3173
862.447	3195
862.58	3112
862.712	2948
862.844	2922
862.976	3047
863.108	3062
863.24	3469
863.372	2925
863.504	2963
863.636	2952
863.768	3028
863.9	2963
864.032	2922
864.164	2982
864.296	3036
864.428	3138
864.559	3116
864.691	3089
864.823	3074
864.954	3062
865.086	3047
865.217	2990
865.349	2956
865.48	3036
865.612	3009
865.743	3138
865.875	2990
866.006	2948
866.137	3013
866.269	2982
866.4	2952
866.531	2948
866.662	2891
866.793	2902
866.924	2906
867.055	3001
867.186	2941
867.317	2872
867.448	2872
867.579	2880
867.71	2887
867.841	2834
867.972	2914
868.103	2902
868.233	2941
868.364	2895
868.495	2891
868.625	3066
868.756	3150
868.886	2998
869.017	3058
869.147	3211
869.278	3180
869.408	3081
869.539	3039
869.669	3142
869.799	3043
869.929	3188
870.06	3150
870.19	3359
870.32	3302
870.45	3344
870.58	3397
870.71	3447
870.84	3511
870.97	3306
871.1	3249
871.23	3519
871.36	3477
871.489	3367
871.619	3443
871.749	3454
871.879	3424
872.008	3511
872.138	3401
872.267	3310
872.397	3199
872.526	3093
872.656	3028
872.785	3097
872.915	3275
873.044	3359
873.173	3226
873.303	3279
873.432	3256
873.561	3245
873.69	3165
873.819	3173
873.948	3203
874.077	3116
874.206	3081
874.335	3116
874.464	3230
874.593	3370
874.722	3264
874.851	3409
874.979	3340
875.108	3310
875.237	3203
875.365	3161
875.494	3188
875.623	3245
875.751	3074
875.88	3142
876.008	3199
876.136	3260
876.265	3401
876.393	3507
876.521	3428
876.65	3370
876.778	3359
876.906	3287
877.034	3218
877.162	3279
877.29	3203
877.418	3245
877.546	3275
877.674	3253
877.802	3275
877.93	3253
878.058	3169
878.185	3127
878.313	3245
878.441	3195
878.568	3100
878.696	3131
878.824	3279
878.951	3302
879.079	3488
879.206	3663
879.333	3500
879.461	3348
879.588	3386
879.715	3507
879.842	3633
879.97	3405
880.097	3184
880.224	3161
880.351	3199
880.478	3237
880.605	3192
880.732	3192
880.859	3530
880.986	3302
881.112	3321
881.239	3249
881.366	3097
881.493	3020
881.619	3017
881.746	3104
881.872	3127
881.999	3123
882.125	3176
882.252	3256
882.378	3329
882.505	3447
882.631	3264
882.757	3157
882.883	3199
883.01	3237
883.136	3188
883.262	3127
883.388	3089
883.514	3351
883.64	3386
883.766	3321
883.892	3249
884.018	3249
884.143	3409
884.269	3553
884.395	3237
884.52	3188
884.646	3230
884.772	3142
884.897	3108
885.023	3275
885.148	3363
885.274	3458
885.399	3382
885.524	3329
885.65	3279
885.775	3344
885.9	3294
886.025	3447
886.15	3382
886.275	3313
886.4	3237
886.525	3336
886.65	3291
886.775	3279
886.9	3496
887.025	3648
887.149	3450
887.274	3256
887.399	3195
887.523	3249
887.648	3192
887.773	3199
887.897	3401
888.021	3420
888.146	3317
888.27	3462
888.395	3572
888.519	3424
888.643	3435
888.767	3462
888.891	3310
889.015	3264
889.139	3310
889.263	3256
889.387	3431
889.511	3519
889.635	3450
889.759	3329
889.883	3329
890.006	3401
890.13	3473
890.254	3325
890.377	3374
890.501	3222
890.624	3195
890.748	3359
890.871	3211
890.995	3154
891.118	3085
891.241	3203
891.364	3237
891.488	3332
891.611	3161
891.734	3245
891.857	3275
891.98	3275
892.103	3374
892.226	3279
892.349	3222
892.471	3146
892.594	3272
892.717	3363
892.839	3287
892.962	3332
893.085	3405
893.207	3317
893.33	3203
893.452	3203
893.575	3374
893.697	3222
893.819	3500
893.941	3538
894.064	3428
894.186	3302
894.308	3313
894.43	3447
894.552	3568
894.674	3443
894.796	3348
894.918	3325
895.04	3310
895.161	3462
895.283	3447
895.405	3359
895.526	3409
895.648	3439
895.769	3393
895.891	3488
896.012	3466
896.134	3496
896.255	3466
896.376	3393
896.498	3378
896.619	3507
896.74	3378
896.861	3386
896.982	3686
897.103	3869
897.224	3629
897.345	3504
897.466	3435
897.587	3523
897.708	3663
897.828	3599
897.949	3469
898.07	3397
898.19	3409
898.311	3660
898.431	3473
898.552	3549
898.672	3614
898.792	3610
898.913	3496
899.033	3420
899.153	3268
899.273	3222
899.393	3348
899.513	3348
899.633	3321
899.753	3382
899.873	3329
899.993	3382
900.113	3363
900.232	3397
900.352	3382
900.472	3325
900.591	3214
900.711	3306
900.83	3275
900.95	3443
901.069	3515
901.189	3382
901.308	3233
901.427	3131
901.546	3161
901.665	3355
901.784	3329
901.904	3218
902.023	3199
902.141	3062
902.26	3013
902.379	3146
902.498	3116
902.617	3074
902.735	3222
902.854	3218
902.973	3222
903.091	3081
903.21	3119
903.328	3154
903.446	3100
903.565	3157
903.683	3226
903.801	3169
903.919	3291
904.038	3329
904.156	3192
904.274	3336
904.392	3298
904.51	3325
904.627	3325
904.745	3469
904.863	3538
904.981	3268
905.098	3173
905.216	3218
905.334	3298
905.451	3340
905.569	3336
905.686	3466
905.803	3485
905.921	3313
906.038	3420
906.155	3355
906.272	3313
906.389	3363
906.506	3218
906.623	3306
906.74	3302
906.857	3199
906.974	3287
907.091	3443
907.208	3568
907.324	3496
907.441	3370
907.557	3241
907.674	3275
907.79	3245
907.907	3317
908.023	3401
908.139	3382
908.256	3332
908.372	3401
908.488	3393
908.604	3306
908.72	3253
908.836	3275
908.952	3332
909.068	3412
909.184	3511
909.3	3409
909.415	3523
909.531	3515
909.647	3294
909.762	3351
909.878	3294
909.993	3382
910.108	3370
910.224	3367
910.339	3443
910.454	3355
910.57	3325
910.685	3241
910.8	3629
910.915	3576
911.03	3454
911.145	3264
911.259	3287
911.374	3336
911.489	3253
911.604	3214
911.718	3157
911.833	3176
911.947	3024
912.062	3020
912.176	3188
912.291	3211
912.405	3268
912.519	3435
912.633	3511
912.748	3351
912.862	3264
912.976	3192
913.09	3108
913.204	3192
913.318	3249
913.431	3386
913.545	3359
913.659	3412
913.772	3302
913.886	3279
914	3207
914.113	3374
914.226	3424
914.34	3393
914.453	3260
914.566	3443
914.68	3294
914.793	3344
914.906	3138
915.019	3135
915.132	3100
915.245	3188
915.358	3188
915.47	3245
915.583	3283
915.696	3359
915.809	3435
915.921	3473
916.034	3256
916.146	3313
916.259	3241
916.371	3389
916.483	3409
916.595	3302
916.708	3367
916.82	3351
916.932	3348
917.044	3382
917.156	3355
917.268	3310
917.38	3332
917.491	3329
917.603	3412
917.715	3477
917.826	3496
917.938	3431
918.049	3317
918.161	3447
918.272	3580
918.384	3606
918.495	3542
918.606	3374
918.717	3313
918.828	3393
918.939	3435
919.05	3332
919.161	3386
919.272	3188
919.383	3279
919.494	3500
919.604	3713
919.715	3515
919.826	3454
919.936	3481
920.047	3568
920.157	3561
920.267	3812
920.378	3622
920.488	3603
920.598	3819
920.708	3964
920.818	3857
920.928	3850
921.038	4013
921.148	4044
921.258	3694
921.368	3633
921.477	3587
921.587	3564
921.697	3458
921.806	3656
921.916	3568
922.025	3359
922.134	3374
922.244	3344
922.353	3416
922.462	3298
922.571	3218
922.68	3157
922.789	3146
922.898	3180
923.007	3161
923.116	3207
923.224	3214
923.333	3203
923.442	3150
923.55	3123
923.659	3146
923.767	3283
923.876	3138
923.984	3256
924.092	3097
924.201	3233
924.309	3214
924.417	3306
924.525	3211
924.633	3249
924.741	4249
924.849	3070
924.956	3272
925.064	3100
925.172	3047
925.279	3112
925.387	3218
925.494	3203
925.602	3359
925.709	3348
925.816	3218
925.924	3268
926.031	3420
926.138	3363
926.245	3428
926.352	3298
926.459	3450
926.566	3488
926.673	3294
926.779	3256
926.886	3245
926.993	3188
927.099	3165
927.206	3135
927.312	3154
927.419	3226
927.525	3226
927.631	3260
927.737	3165
927.843	3157
927.95	3028
928.056	3161
928.162	3169
928.267	3264
928.373	3842
928.479	3348
928.585	3135
928.69	3233
928.796	3317
928.901	3207
929.007	3119
929.112	3188
929.218	3230
929.323	3169
929.428	3142
929.533	3317
929.638	3131
929.743	3188
929.848	3256
929.953	3260
930.058	3138
930.163	3043
930.267	3081
930.372	3188
930.477	3062
930.581	3344
930.685	3199
930.79	3081
930.894	3127
930.998	3131
931.103	3310
931.207	2963
931.311	2975
931.415	2929
931.519	2785
931.623	2811
