Data from test_V78500241_706.txt Node
Date: Fri Mar 25 16:20:05 CST 2022
User: usil
Spectrometer: V785-0024
Trigger mode: 0
Integration Time (sec): 4.000000E-1
Scans to average: 1
Nonlinearity correction enabled: false
Boxcar width: 0
Storing dark spectrum: false
XAxis mode: Wavelengths
Number of Pixels in Spectrum: 1024
>>>>>Begin Spectral Data<<<<<
801.071	2906
801.214	2956
801.356	2883
801.499	2937
801.641	2883
801.783	2937
801.926	3081
802.068	2975
802.211	2990
802.353	3051
802.496	3009
802.638	3047
802.78	3036
802.923	3100
803.065	3017
803.208	2914
803.35	2918
803.492	2918
803.635	2937
803.777	2788
803.919	2834
804.061	3241
804.204	2937
804.346	2906
804.488	2880
804.63	2956
804.773	2868
804.915	2925
805.057	3108
805.199	2922
805.341	2971
805.483	3070
805.626	3032
805.768	3005
805.91	3085
806.052	3100
806.194	3028
806.336	3264
806.478	3036
806.62	2963
806.762	2979
806.904	3055
807.046	3142
807.188	3017
807.33	2933
807.472	2994
807.614	2918
807.756	2971
807.898	2883
808.04	2914
808.182	2986
808.324	2971
808.465	2883
808.607	2883
808.749	2819
808.891	2845
809.033	3005
809.174	2979
809.316	2880
809.458	2887
809.6	2766
809.741	2792
809.883	2769
810.025	2830
810.166	2861
810.308	2815
810.45	2853
810.591	2758
810.733	2788
810.875	2811
811.016	2766
811.158	2796
811.299	2769
811.441	2933
811.582	2922
811.724	2804
811.865	2857
812.007	2918
812.148	2906
812.29	2868
812.431	2887
812.573	2929
812.714	2994
812.855	3032
812.997	3055
813.138	3116
813.279	2998
813.421	2982
813.562	2967
813.703	2872
813.845	2891
813.986	2781
814.127	2746
814.268	2819
814.41	2823
814.551	2823
814.692	2861
814.833	2819
814.974	2906
815.115	2941
815.256	2845
815.397	2811
815.539	2868
815.68	2777
815.821	2781
815.962	2914
816.103	2922
816.244	2842
816.385	2864
816.526	3005
816.666	2899
816.807	2758
816.948	2883
817.089	2891
817.23	2883
817.371	2788
817.512	2811
817.653	2830
817.793	2815
817.934	2876
818.075	2963
818.216	2975
818.356	3028
818.497	2899
818.638	2819
818.778	2834
818.919	2769
819.06	2788
819.2	2872
819.341	2788
819.481	2830
819.622	2937
819.762	3138
819.903	3066
820.043	2906
820.184	2891
820.324	2937
820.465	3028
820.605	3013
820.746	3032
820.886	2956
821.026	3138
821.167	3150
821.307	3275
821.447	3272
821.588	3237
821.728	3226
821.868	3222
822.008	3085
822.149	3203
822.289	3268
822.429	3154
822.569	3131
822.709	3180
822.849	3047
822.99	3074
823.13	3176
823.27	3253
823.41	3116
823.55	3180
823.69	3165
823.83	3218
823.97	3119
824.11	3089
824.25	3043
824.389	3161
824.529	3119
824.669	3093
824.809	3218
824.949	3306
825.089	3249
825.228	3154
825.368	3009
825.508	3005
825.648	3005
825.787	3024
825.927	3085
826.067	3013
826.206	2998
826.346	3100
826.485	3089
826.625	3142
826.765	3336
826.904	3237
827.044	3058
827.183	2941
827.323	2944
827.462	2986
827.601	2902
827.741	2982
827.88	2986
828.02	2895
828.159	3001
828.298	3058
828.437	3138
828.577	3108
828.716	3268
828.855	3116
828.994	2948
829.134	2956
829.273	2956
829.412	2910
829.551	2906
829.69	2952
829.829	3036
829.968	3173
830.107	3028
830.246	3074
830.385	2960
830.524	2937
830.663	2861
830.802	2777
830.941	2705
831.08	2667
831.219	2811
831.357	2788
831.496	2971
831.635	2758
831.774	2655
831.913	2689
832.051	2583
832.19	2632
832.329	2712
832.467	2579
832.606	2492
832.744	2648
832.883	2602
833.022	2648
833.16	2674
833.299	2708
833.437	2712
833.576	2727
833.714	2766
833.852	2754
833.991	2811
834.129	2895
834.267	2872
834.406	2849
834.544	2941
834.682	2906
834.821	2887
834.959	3116
835.097	2910
835.235	3085
835.373	3032
835.511	3039
835.65	3001
835.788	2994
835.926	2880
836.064	2838
836.202	2857
836.34	3112
836.478	3226
836.615	3077
836.753	3150
836.891	3222
837.029	3184
837.167	3135
837.305	3119
837.443	3070
837.58	2998
837.718	3180
837.856	3108
837.993	3051
838.131	3154
838.269	3093
838.406	3135
838.544	3093
838.681	2979
838.819	2956
838.956	2853
839.094	2887
839.231	2982
839.369	3055
839.506	3386
839.643	3222
839.781	2986
839.918	3001
840.055	3058
840.193	3093
840.33	3077
840.467	3127
840.604	3165
840.742	3477
840.879	3104
841.016	3081
841.153	3131
841.29	3348
841.427	3302
841.564	3279
841.701	3344
841.838	3203
841.975	3207
842.112	3249
842.249	3119
842.385	3039
842.522	3260
842.659	3154
842.796	3108
842.933	3116
843.069	3127
843.206	3093
843.343	3222
843.479	3138
843.616	3188
843.752	2899
843.889	2933
844.025	3116
844.162	2937
844.298	3108
844.435	3020
844.571	2948
844.708	3058
844.844	3214
844.98	3245
845.117	3218
845.253	3077
845.389	3013
845.525	3157
845.661	3142
845.798	3024
845.934	3127
846.07	3081
846.206	3291
846.342	3359
846.478	3253
846.614	3119
846.75	3100
846.886	3066
847.022	3283
847.158	3192
847.294	3218
847.429	3249
847.565	3245
847.701	3515
847.837	3020
847.972	3047
848.108	3157
848.244	3173
848.379	2979
848.515	3013
848.65	2979
848.786	3005
848.921	3039
849.057	3089
849.192	3192
849.328	3085
849.463	3127
849.598	3089
849.734	3081
849.869	2998
850.004	2941
850.14	2971
850.275	2910
850.41	2895
850.545	2899
850.68	2937
850.815	2975
850.95	2994
851.085	3218
851.22	3093
851.355	3051
851.49	2986
851.625	3058
851.76	3077
851.895	2914
852.03	2979
852.165	3081
852.299	3157
852.434	3214
852.569	3176
852.703	3188
852.838	3291
852.973	3351
853.107	3359
853.242	3154
853.376	3131
853.511	3013
853.645	3055
853.78	3260
853.914	3157
854.048	3127
854.183	3104
854.317	3165
854.451	3321
854.585	3161
854.72	3108
854.854	3237
854.988	3100
855.122	3093
855.256	2998
855.39	3180
855.524	3268
855.658	3192
855.792	3211
855.926	3237
856.06	3241
856.194	3275
856.327	3195
856.461	3104
856.595	3142
856.729	3135
856.862	3237
856.996	3180
857.13	3188
857.263	3260
857.397	3313
857.53	3207
857.664	3203
857.797	3272
857.931	3249
858.064	3203
858.197	3253
858.331	3157
858.464	3085
858.597	3020
858.731	3089
858.864	3150
858.997	3131
859.13	3161
859.263	3176
859.396	3256
859.529	3142
859.662	3085
859.795	3055
859.928	3203
860.061	3302
860.194	3279
860.327	3146
860.46	3116
860.592	3245
860.725	3226
860.858	3268
860.99	3150
861.123	3112
861.256	3097
861.388	3192
861.521	3926
861.653	3013
861.786	3032
861.918	3055
862.05	3077
862.183	3100
862.315	3173
862.447	3195
862.58	3070
862.712	2960
862.844	2864
862.976	3032
863.108	3009
863.24	3401
863.372	2925
863.504	2998
863.636	2956
863.768	3074
863.9	3024
864.032	2937
864.164	2952
864.296	3055
864.428	3116
864.559	3131
864.691	3100
864.823	3089
864.954	3024
865.086	3074
865.217	2982
865.349	2960
865.48	3017
865.612	3028
865.743	3138
865.875	3009
866.006	2998
866.137	2982
866.269	2952
866.4	2963
866.531	2948
866.662	2925
866.793	2899
866.924	2956
867.055	2963
867.186	2956
867.317	2918
867.448	2842
867.579	2902
867.71	2872
867.841	2842
867.972	2914
868.103	2929
868.233	2948
868.364	2918
868.495	2910
868.625	3077
868.756	3195
868.886	2986
869.017	3024
869.147	3184
869.278	3192
869.408	3085
869.539	3032
869.669	3123
869.799	3062
869.929	3184
870.06	3097
870.19	3313
870.32	3291
870.45	3336
870.58	3416
870.71	3447
870.84	3428
870.97	3351
871.1	3203
871.23	3485
871.36	3458
871.489	3351
871.619	3424
871.749	3420
871.879	3462
872.008	3526
872.138	3378
872.267	3306
872.397	3173
872.526	3138
872.656	3013
872.785	3100
872.915	3253
873.044	3294
873.173	3214
873.303	3253
873.432	3294
873.561	3256
873.69	3180
873.819	3138
873.948	3203
874.077	3097
874.206	3077
874.335	3119
874.464	3230
874.593	3359
874.722	3218
874.851	3420
874.979	3344
875.108	3336
875.237	3207
875.365	3195
875.494	3180
875.623	3294
875.751	3074
875.88	3154
876.008	3214
876.136	3241
876.265	3382
876.393	3542
876.521	3401
876.65	3428
876.778	3332
876.906	3321
877.034	3226
877.162	3279
877.29	3214
877.418	3272
877.546	3226
877.674	3245
877.802	3283
877.93	3302
878.058	3157
878.185	3131
878.313	3268
878.441	3241
878.568	3081
878.696	3173
878.824	3256
878.951	3283
879.079	3450
879.206	3603
879.333	3420
879.461	3367
879.588	3397
879.715	3485
879.842	3606
879.97	3416
880.097	3195
880.224	3131
880.351	3211
880.478	3203
880.605	3249
880.732	3165
880.859	3496
880.986	3332
881.112	3351
881.239	3211
881.366	3093
881.493	3085
881.619	3039
881.746	3116
881.872	3150
881.999	3089
882.125	3165
882.252	3287
882.378	3294
882.505	3405
882.631	3283
882.757	3123
882.883	3222
883.01	3199
883.136	3154
883.262	3119
883.388	3127
883.514	3313
883.64	3386
883.766	3329
883.892	3195
884.018	3310
884.143	3447
884.269	3545
884.395	3195
884.52	3195
884.646	3173
884.772	3123
884.897	3112
885.023	3211
885.148	3401
885.274	3450
885.399	3393
885.524	3272
885.65	3283
885.775	3355
885.9	3310
886.025	3409
886.15	3367
886.275	3310
886.4	3199
886.525	3359
886.65	3302
886.775	3313
886.9	3519
887.025	3641
887.149	3405
887.274	3275
887.399	3195
887.523	3226
887.648	3176
887.773	3218
887.897	3370
888.021	3450
888.146	3287
888.27	3458
888.395	3564
888.519	3488
888.643	3443
888.767	3477
888.891	3268
889.015	3264
889.139	3329
889.263	3272
889.387	3412
889.511	3553
889.635	3466
889.759	3321
889.883	3298
890.006	3401
890.13	3500
890.254	3329
890.377	3386
890.501	3203
890.624	3195
890.748	3302
890.871	3199
890.995	3135
891.118	3097
891.241	3211
891.364	3245
891.488	3344
891.611	3176
891.734	3233
891.857	3298
891.98	3268
892.103	3321
892.226	3272
892.349	3211
892.471	3127
892.594	3230
892.717	3256
892.839	3306
892.962	3313
893.085	3374
893.207	3272
893.33	3142
893.452	3203
893.575	3367
893.697	3279
893.819	3466
893.941	3530
894.064	3458
894.186	3283
894.308	3283
894.43	3443
894.552	3568
894.674	3477
894.796	3302
894.918	3313
895.04	3287
895.161	3458
895.283	3428
895.405	3302
895.526	3405
895.648	3462
895.769	3458
895.891	3450
896.012	3439
896.134	3447
896.255	3409
896.376	3359
896.498	3363
896.619	3439
896.74	3401
896.861	3435
896.982	3682
897.103	3846
897.224	3587
897.345	3523
897.466	3420
897.587	3500
897.708	3652
897.828	3587
897.949	3469
898.07	3355
898.19	3393
898.311	3625
898.431	3477
898.552	3500
898.672	3641
898.792	3572
898.913	3580
899.033	3405
899.153	3313
899.273	3195
899.393	3283
899.513	3329
899.633	3336
899.753	3340
899.873	3325
899.993	3393
900.113	3370
900.232	3363
900.352	3332
900.472	3283
900.591	3211
900.711	3306
900.83	3233
900.95	3389
901.069	3507
901.189	3374
901.308	3176
901.427	3123
901.546	3184
901.665	3336
901.784	3302
901.904	3214
902.023	3165
902.141	3036
902.26	3028
902.379	3165
902.498	3036
902.617	3047
902.735	3207
902.854	3237
902.973	3195
903.091	3055
903.21	3070
903.328	3154
903.446	3093
903.565	3127
903.683	3226
903.801	3150
903.919	3249
904.038	3302
904.156	3173
904.274	3279
904.392	3226
904.51	3298
904.627	3332
904.745	3420
904.863	3488
904.981	3321
905.098	3154
905.216	3264
905.334	3279
905.451	3302
905.569	3317
905.686	3435
905.803	3393
905.921	3321
906.038	3420
906.155	3367
906.272	3325
906.389	3321
906.506	3260
906.623	3241
906.74	3260
906.857	3207
906.974	3272
907.091	3428
907.208	3561
907.324	3477
907.441	3370
907.557	3283
907.674	3264
907.79	3237
907.907	3245
908.023	3397
908.139	3363
908.256	3370
908.372	3401
908.488	3348
908.604	3237
908.72	3230
908.836	3313
908.952	3249
909.068	3294
909.184	3492
909.3	3401
909.415	3515
909.531	3439
909.647	3298
909.762	3287
909.878	3272
909.993	3336
910.108	3355
910.224	3317
910.339	3405
910.454	3382
910.57	3287
910.685	3218
910.8	3580
910.915	3542
911.03	3454
911.145	3283
911.259	3268
911.374	3310
911.489	3241
911.604	3233
911.718	3119
911.833	3184
911.947	3017
912.062	2967
912.176	3157
912.291	3214
912.405	3233
912.519	3454
912.633	3477
912.748	3317
912.862	3279
912.976	3207
913.09	3058
913.204	3135
913.318	3283
913.431	3359
913.545	3306
913.659	3409
913.772	3340
913.886	3199
914	3214
914.113	3370
914.226	3443
914.34	3367
914.453	3226
914.566	3420
914.68	3287
914.793	3351
914.906	3154
915.019	3119
915.132	3047
915.245	3199
915.358	3214
915.47	3245
915.583	3264
915.696	3310
915.809	3416
915.921	3405
916.034	3287
916.146	3241
916.259	3256
916.371	3401
916.483	3420
916.595	3260
916.708	3340
916.82	3329
916.932	3374
917.044	3313
917.156	3351
917.268	3272
917.38	3298
917.491	3332
917.603	3359
917.715	3443
917.826	3443
917.938	3370
918.049	3256
918.161	3439
918.272	3538
918.384	3545
918.495	3515
918.606	3310
918.717	3279
918.828	3363
918.939	3409
919.05	3310
919.161	3359
919.272	3180
919.383	3268
919.494	3519
919.604	3663
919.715	3443
919.826	3412
919.936	3473
920.047	3614
920.157	3564
920.267	3751
920.378	3637
920.488	3587
920.598	3808
920.708	3968
920.818	3861
920.928	3835
921.038	4051
921.148	3972
921.258	3732
921.368	3633
921.477	3587
921.587	3568
921.697	3447
921.806	3629
921.916	3500
922.025	3344
922.134	3351
922.244	3329
922.353	3412
922.462	3294
922.571	3237
922.68	3123
922.789	3081
922.898	3161
923.007	3138
923.116	3203
923.224	3192
923.333	3161
923.442	3116
923.55	3100
923.659	3142
923.767	3230
923.876	3131
923.984	3256
924.092	3123
924.201	3199
924.309	3222
924.417	3249
924.525	3169
924.633	3264
924.741	4150
924.849	3043
924.956	3249
925.064	3108
925.172	3058
925.279	3093
925.387	3199
925.494	3230
925.602	3325
925.709	3317
925.816	3199
925.924	3279
926.031	3370
926.138	3405
926.245	3359
926.352	3249
926.459	3412
926.566	3454
926.673	3294
926.779	3253
926.886	3256
926.993	3176
927.099	3150
927.206	3119
927.312	3123
927.419	3222
927.525	3207
927.631	3241
927.737	3192
927.843	3093
927.95	3051
928.056	3150
928.162	3161
928.267	3241
928.373	3892
928.479	3340
928.585	3077
928.69	3180
928.796	3260
928.901	3157
929.007	3032
929.112	3241
929.218	3188
929.323	3146
929.428	3116
929.533	3351
929.638	3135
929.743	3218
929.848	3245
929.953	3237
930.058	3127
930.163	3001
930.267	3055
930.372	3237
930.477	3070
930.581	3298
930.685	3184
930.79	3047
930.894	3116
930.998	3085
931.103	3275
931.207	2952
931.311	2929
931.415	2891
931.519	2785
931.623	2815
