Data from test_V78500241_1229.txt Node
Date: Fri Mar 25 16:23:43 CST 2022
User: usil
Spectrometer: V785-0024
Trigger mode: 0
Integration Time (sec): 4.000000E-1
Scans to average: 1
Nonlinearity correction enabled: false
Boxcar width: 0
Storing dark spectrum: false
XAxis mode: Wavelengths
Number of Pixels in Spectrum: 1024
>>>>>Begin Spectral Data<<<<<
801.071	2933
801.214	2918
801.356	2883
801.499	2891
801.641	2883
801.783	2929
801.926	3074
802.068	2960
802.211	3001
802.353	3036
802.496	2952
802.638	2990
802.78	2986
802.923	3108
803.065	3001
803.208	2906
803.35	2902
803.492	2960
803.635	2952
803.777	2766
803.919	2845
804.061	3207
804.204	2960
804.346	2887
804.488	2826
804.63	2994
804.773	2845
804.915	2929
805.057	3066
805.199	2883
805.341	2948
805.483	3093
805.626	2971
805.768	2975
805.91	3039
806.052	3093
806.194	3100
806.336	3226
806.478	3013
806.62	2956
806.762	2994
806.904	3039
807.046	3157
807.188	2963
807.33	2891
807.472	3009
807.614	2906
807.756	2986
807.898	2910
808.04	2864
808.182	2979
808.324	2922
808.465	2899
808.607	2895
808.749	2807
808.891	2823
809.033	2963
809.174	2975
809.316	2891
809.458	2895
809.6	2773
809.741	2773
809.883	2796
810.025	2880
810.166	2838
810.308	2819
810.45	2838
810.591	2811
810.733	2735
810.875	2807
811.016	2777
811.158	2777
811.299	2838
811.441	2952
811.582	2899
811.724	2815
811.865	2830
812.007	2906
812.148	2918
812.29	2838
812.431	2872
812.573	2933
812.714	2948
812.855	3036
812.997	3058
813.138	3104
813.279	2982
813.421	2971
813.562	2937
813.703	2861
813.845	2880
813.986	2750
814.127	2735
814.268	2826
814.41	2842
814.551	2819
814.692	2842
814.833	2788
814.974	2876
815.115	2941
815.256	2861
815.397	2804
815.539	2842
815.68	2762
815.821	2800
815.962	2906
816.103	2906
816.244	2849
816.385	2861
816.526	2967
816.666	2895
816.807	2739
816.948	2887
817.089	2872
817.23	2864
817.371	2819
817.512	2800
817.653	2849
817.793	2842
817.934	2864
818.075	2956
818.216	2994
818.356	2994
818.497	2895
818.638	2766
818.778	2826
818.919	2792
819.06	2769
819.2	2830
819.341	2800
819.481	2792
819.622	2914
819.762	3097
819.903	3039
820.043	2899
820.184	2902
820.324	2906
820.465	3001
820.605	3032
820.746	2971
820.886	2944
821.026	3116
821.167	3154
821.307	3253
821.447	3260
821.588	3260
821.728	3195
821.868	3176
822.008	3066
822.149	3195
822.289	3214
822.429	3089
822.569	3108
822.709	3203
822.849	3009
822.99	3074
823.13	3184
823.27	3233
823.41	3085
823.55	3097
823.69	3104
823.83	3218
823.97	3123
824.11	2960
824.25	2963
824.389	3051
824.529	3146
824.669	3055
824.809	3169
824.949	3272
825.089	3218
825.228	3131
825.368	3017
825.508	2944
825.648	2975
825.787	2986
825.927	3032
826.067	2975
826.206	2956
826.346	2998
826.485	3047
826.625	3116
826.765	3279
826.904	3214
827.044	2967
827.183	2952
827.323	2845
827.462	2986
827.601	2891
827.741	2910
827.88	2971
828.02	2838
828.159	2982
828.298	3032
828.437	3138
828.577	3024
828.716	3214
828.855	3051
828.994	2929
829.134	2876
829.273	2918
829.412	2834
829.551	2853
829.69	2864
829.829	2944
829.968	3093
830.107	3005
830.246	2990
830.385	2922
830.524	2883
830.663	2815
830.802	2712
830.941	2636
831.08	2640
831.219	2762
831.357	2750
831.496	2902
831.635	2750
831.774	2613
831.913	2621
832.051	2522
832.19	2590
832.329	2644
832.467	2511
832.606	2461
832.744	2594
832.883	2575
833.022	2575
833.16	2644
833.299	2705
833.437	2697
833.576	2727
833.714	2716
833.852	2724
833.991	2727
834.129	2830
834.267	2807
834.406	2796
834.544	2853
834.682	2853
834.821	2872
834.959	3032
835.097	2876
835.235	3074
835.373	2986
835.511	3017
835.65	2948
835.788	2952
835.926	2834
836.064	2796
836.202	2823
836.34	3112
836.478	3161
836.615	3058
836.753	3154
836.891	3180
837.029	3135
837.167	3119
837.305	3047
837.443	3020
837.58	2986
837.718	3112
837.856	3058
837.993	3036
838.131	3135
838.269	3093
838.406	3097
838.544	3077
838.681	2899
838.819	2918
838.956	2792
839.094	2826
839.231	2918
839.369	3039
839.506	3386
839.643	3173
839.781	3013
839.918	2982
840.055	3005
840.193	3020
840.33	3058
840.467	3070
840.604	3154
840.742	3393
840.879	3009
841.016	3039
841.153	3146
841.29	3302
841.427	3310
841.564	3268
841.701	3268
841.838	3188
841.975	3169
842.112	3211
842.249	2990
842.385	3005
842.522	3264
842.659	3123
842.796	3036
842.933	3112
843.069	3024
843.206	3020
843.343	3154
843.479	3100
843.616	3116
843.752	2861
843.889	2880
844.025	3089
844.162	2887
844.298	3077
844.435	2933
844.571	2922
844.708	3055
844.844	3233
844.98	3241
845.117	3165
845.253	3020
845.389	2952
845.525	3108
845.661	3081
845.798	3009
845.934	3142
846.07	3028
846.206	3214
846.342	3336
846.478	3211
846.614	3081
846.75	3058
846.886	3020
847.022	3214
847.158	3112
847.294	3203
847.429	3214
847.565	3211
847.701	3469
847.837	3047
847.972	2982
848.108	3150
848.244	3112
848.379	2956
848.515	2941
848.65	2929
848.786	2944
848.921	3017
849.057	3135
849.192	3157
849.328	3070
849.463	3077
849.598	3055
849.734	3055
849.869	3005
850.004	2872
850.14	2937
850.275	2929
850.41	2807
850.545	2880
850.68	2952
850.815	2922
850.95	2975
851.085	3184
851.22	3085
851.355	3043
851.49	2963
851.625	3009
851.76	3009
851.895	2929
852.03	2929
852.165	3032
852.299	3138
852.434	3188
852.569	3165
852.703	3123
852.838	3256
852.973	3321
853.107	3310
853.242	3138
853.376	3077
853.511	2982
853.645	3017
853.78	3222
853.914	3146
854.048	3081
854.183	3074
854.317	3157
854.451	3283
854.585	3138
854.72	3093
854.854	3199
854.988	3020
855.122	3100
855.256	2963
855.39	3108
855.524	3237
855.658	3154
855.792	3146
855.926	3161
856.06	3233
856.194	3230
856.327	3135
856.461	3085
856.595	3081
856.729	3058
856.862	3207
856.996	3097
857.13	3192
857.263	3211
857.397	3237
857.53	3062
857.664	3218
857.797	3241
857.931	3226
858.064	3135
858.197	3207
858.331	3131
858.464	3104
858.597	3013
858.731	3093
858.864	3135
858.997	3066
859.13	3154
859.263	3165
859.396	3180
859.529	3093
859.662	3055
859.795	3058
859.928	3123
860.061	3245
860.194	3260
860.327	3127
860.46	3074
860.592	3275
860.725	3211
860.858	3249
860.99	3112
861.123	3062
861.256	3020
861.388	3112
861.521	3686
861.653	3036
861.786	2956
861.918	2956
862.05	3051
862.183	3100
862.315	3165
862.447	3192
862.58	3062
862.712	2910
862.844	2887
862.976	3062
863.108	2994
863.24	3275
863.372	2857
863.504	2986
863.636	2922
863.768	3024
863.9	2963
864.032	2883
864.164	2952
864.296	3013
864.428	3104
864.559	3112
864.691	3085
864.823	3058
864.954	3005
865.086	3020
865.217	2982
865.349	2922
865.48	2933
865.612	3001
865.743	3127
865.875	3001
866.006	2925
866.137	2952
866.269	2937
866.4	2906
866.531	2922
866.662	2899
866.793	2887
866.924	2891
867.055	2956
867.186	2899
867.317	2880
867.448	2838
867.579	2834
867.71	2838
867.841	2838
867.972	2918
868.103	2906
868.233	2899
868.364	2918
868.495	2887
868.625	3066
868.756	3176
868.886	2952
869.017	2986
869.147	3131
869.278	3131
869.408	3028
869.539	3020
869.669	3089
869.799	3001
869.929	3176
870.06	3116
870.19	3340
870.32	3237
870.45	3302
870.58	3378
870.71	3473
870.84	3447
870.97	3306
871.1	3272
871.23	3466
871.36	3500
871.489	3336
871.619	3416
871.749	3397
871.879	3416
872.008	3450
872.138	3351
872.267	3268
872.397	3146
872.526	3116
872.656	2994
872.785	3062
872.915	3283
873.044	3306
873.173	3203
873.303	3207
873.432	3249
873.561	3207
873.69	3138
873.819	3127
873.948	3226
874.077	3066
874.206	3051
874.335	3089
874.464	3222
874.593	3317
874.722	3226
874.851	3389
874.979	3351
875.108	3306
875.237	3176
875.365	3157
875.494	3161
875.623	3249
875.751	3074
875.88	3062
876.008	3161
876.136	3207
876.265	3370
876.393	3481
876.521	3428
876.65	3374
876.778	3336
876.906	3211
877.034	3195
877.162	3203
877.29	3188
877.418	3275
877.546	3222
877.674	3283
877.802	3226
877.93	3199
878.058	3093
878.185	3116
878.313	3184
878.441	3195
878.568	3047
878.696	3097
878.824	3226
878.951	3275
879.079	3435
879.206	3599
879.333	3416
879.461	3283
879.588	3367
879.715	3469
879.842	3576
879.97	3348
880.097	3199
880.224	3112
880.351	3154
880.478	3188
880.605	3180
880.732	3161
880.859	3500
880.986	3294
881.112	3317
881.239	3214
881.366	3085
881.493	3058
881.619	3028
881.746	3043
881.872	3070
881.999	3085
882.125	3135
882.252	3233
882.378	3272
882.505	3435
882.631	3291
882.757	3131
882.883	3203
883.01	3222
883.136	3150
883.262	3093
883.388	3055
883.514	3313
883.64	3355
883.766	3310
883.892	3154
884.018	3230
884.143	3424
884.269	3507
884.395	3203
884.52	3142
884.646	3157
884.772	3127
884.897	3085
885.023	3222
885.148	3325
885.274	3443
885.399	3363
885.524	3268
885.65	3294
885.775	3283
885.9	3256
886.025	3428
886.15	3367
886.275	3287
886.4	3241
886.525	3294
886.65	3253
886.775	3260
886.9	3466
887.025	3675
887.149	3420
887.274	3237
887.399	3169
887.523	3165
887.648	3184
887.773	3154
887.897	3374
888.021	3454
888.146	3291
888.27	3443
888.395	3553
888.519	3397
888.643	3424
888.767	3439
888.891	3332
889.015	3226
889.139	3317
889.263	3249
889.387	3386
889.511	3485
889.635	3420
889.759	3249
889.883	3306
890.006	3367
890.13	3473
890.254	3298
890.377	3340
890.501	3214
890.624	3188
890.748	3298
890.871	3188
890.995	3142
891.118	3066
891.241	3203
891.364	3218
891.488	3313
891.611	3184
891.734	3237
891.857	3268
891.98	3245
892.103	3332
892.226	3298
892.349	3207
892.471	3085
892.594	3233
892.717	3272
892.839	3279
892.962	3310
893.085	3340
893.207	3272
893.33	3138
893.452	3218
893.575	3298
893.697	3207
893.819	3473
893.941	3488
894.064	3393
894.186	3233
894.308	3275
894.43	3424
894.552	3542
894.674	3488
894.796	3249
894.918	3283
895.04	3241
895.161	3412
895.283	3348
895.405	3302
895.526	3359
895.648	3435
895.769	3412
895.891	3416
896.012	3481
896.134	3454
896.255	3412
896.376	3359
896.498	3370
896.619	3386
896.74	3370
896.861	3420
896.982	3663
897.103	3819
897.224	3584
897.345	3473
897.466	3447
897.587	3473
897.708	3587
897.828	3519
897.949	3443
898.07	3279
898.19	3401
898.311	3599
898.431	3473
898.552	3492
898.672	3580
898.792	3561
898.913	3492
899.033	3374
899.153	3298
899.273	3192
899.393	3241
899.513	3283
899.633	3291
899.753	3332
899.873	3302
899.993	3359
900.113	3321
900.232	3367
900.352	3340
900.472	3306
900.591	3211
900.711	3302
900.83	3211
900.95	3443
901.069	3454
901.189	3351
901.308	3195
901.427	3093
901.546	3161
901.665	3279
901.784	3310
901.904	3195
902.023	3127
902.141	3043
902.26	3009
902.379	3112
902.498	3032
902.617	3047
902.735	3192
902.854	3241
902.973	3180
903.091	3009
903.21	3081
903.328	3169
903.446	3085
903.565	3123
903.683	3233
903.801	3116
903.919	3207
904.038	3260
904.156	3176
904.274	3256
904.392	3256
904.51	3310
904.627	3317
904.745	3389
904.863	3462
904.981	3294
905.098	3188
905.216	3226
905.334	3279
905.451	3294
905.569	3344
905.686	3386
905.803	3458
905.921	3287
906.038	3431
906.155	3325
906.272	3279
906.389	3321
906.506	3214
906.623	3256
906.74	3291
906.857	3146
906.974	3237
907.091	3416
907.208	3549
907.324	3492
907.441	3393
907.557	3237
907.674	3203
907.79	3226
907.907	3256
908.023	3386
908.139	3363
908.256	3340
908.372	3386
908.488	3355
908.604	3253
908.72	3230
908.836	3283
908.952	3268
909.068	3329
909.184	3466
909.3	3359
909.415	3462
909.531	3454
909.647	3279
909.762	3313
909.878	3230
909.993	3344
910.108	3332
910.224	3317
910.339	3382
910.454	3306
910.57	3306
910.685	3226
910.8	3568
910.915	3504
911.03	3443
911.145	3264
911.259	3256
911.374	3344
911.489	3226
911.604	3218
911.718	3089
911.833	3131
911.947	3036
912.062	2967
912.176	3180
912.291	3180
912.405	3230
912.519	3420
912.633	3492
912.748	3336
912.862	3237
912.976	3192
913.09	3028
913.204	3154
913.318	3176
913.431	3321
913.545	3340
913.659	3412
913.772	3336
913.886	3218
914	3233
914.113	3363
914.226	3363
914.34	3329
914.453	3226
914.566	3401
914.68	3291
914.793	3294
914.906	3154
915.019	3089
915.132	3081
915.245	3161
915.358	3226
915.47	3192
915.583	3253
915.696	3283
915.809	3370
915.921	3409
916.034	3237
916.146	3279
916.259	3233
916.371	3401
916.483	3355
916.595	3233
916.708	3313
916.82	3336
916.932	3351
917.044	3363
917.156	3336
917.268	3230
917.38	3275
917.491	3325
917.603	3325
917.715	3462
917.826	3443
917.938	3382
918.049	3306
918.161	3428
918.272	3538
918.384	3557
918.495	3481
918.606	3313
918.717	3272
918.828	3348
918.939	3336
919.05	3287
919.161	3393
919.272	3192
919.383	3245
919.494	3530
919.604	3694
919.715	3485
919.826	3416
919.936	3447
920.047	3545
920.157	3530
920.267	3728
920.378	3644
920.488	3545
920.598	3766
920.708	3937
920.818	3793
920.928	3800
921.038	4040
921.148	3949
921.258	3686
921.368	3603
921.477	3587
921.587	3519
921.697	3439
921.806	3644
921.916	3511
922.025	3348
922.134	3367
922.244	3321
922.353	3466
922.462	3245
922.571	3249
922.68	3100
922.789	3055
922.898	3074
923.007	3081
923.116	3180
923.224	3157
923.333	3165
923.442	3146
923.55	3100
923.659	3157
923.767	3180
923.876	3085
923.984	3230
924.092	3100
924.201	3211
924.309	3192
924.417	3249
924.525	3180
924.633	3218
924.741	4036
924.849	3070
924.956	3253
925.064	3108
925.172	3036
925.279	3093
925.387	3203
925.494	3192
925.602	3351
925.709	3348
925.816	3173
925.924	3279
926.031	3382
926.138	3363
926.245	3359
926.352	3256
926.459	3431
926.566	3485
926.673	3340
926.779	3226
926.886	3275
926.993	3161
927.099	3127
927.206	3116
927.312	3085
927.419	3214
927.525	3195
927.631	3260
927.737	3116
927.843	3062
927.95	3009
928.056	3119
928.162	3150
928.267	3222
928.373	3865
928.479	3268
928.585	3070
928.69	3211
928.796	3256
928.901	3165
929.007	3093
929.112	3199
929.218	3169
929.323	3154
929.428	3119
929.533	3272
929.638	3097
929.743	3169
929.848	3264
929.953	3218
930.058	3100
930.163	2994
930.267	3047
930.372	3150
930.477	3024
930.581	3233
930.685	3142
930.79	3032
930.894	3116
930.998	3081
931.103	3287
931.207	2971
931.311	2922
931.415	2910
931.519	2804
931.623	2815
