Data from test_V78500241_528.txt Node
Date: Fri Mar 25 16:18:51 CST 2022
User: usil
Spectrometer: V785-0024
Trigger mode: 0
Integration Time (sec): 4.000000E-1
Scans to average: 1
Nonlinearity correction enabled: false
Boxcar width: 0
Storing dark spectrum: false
XAxis mode: Wavelengths
Number of Pixels in Spectrum: 1024
>>>>>Begin Spectral Data<<<<<
801.071	2933
801.214	2960
801.356	2842
801.499	2868
801.641	2849
801.783	2891
801.926	3013
802.068	2948
802.211	2990
802.353	3028
802.496	2963
802.638	2979
802.78	3013
802.923	3066
803.065	3024
803.208	2880
803.35	2914
803.492	2925
803.635	2899
803.777	2766
803.919	2804
804.061	3211
804.204	2925
804.346	2910
804.488	2800
804.63	2963
804.773	2853
804.915	2887
805.057	3047
805.199	2902
805.341	2956
805.483	3058
805.626	2994
805.768	2948
805.91	3062
806.052	3112
806.194	3017
806.336	3211
806.478	3017
806.62	2937
806.762	2963
806.904	3036
807.046	3116
807.188	2994
807.33	2914
807.472	2975
807.614	2899
807.756	3024
807.898	2922
808.04	2887
808.182	2956
808.324	2948
808.465	2880
808.607	2910
808.749	2777
808.891	2838
809.033	2944
809.174	2979
809.316	2887
809.458	2887
809.6	2746
809.741	2773
809.883	2766
810.025	2834
810.166	2830
810.308	2842
810.45	2880
810.591	2804
810.733	2750
810.875	2838
811.016	2735
811.158	2777
811.299	2830
811.441	2941
811.582	2883
811.724	2815
811.865	2830
812.007	2880
812.148	2872
812.29	2864
812.431	2883
812.573	2925
812.714	2960
812.855	3017
812.997	3047
813.138	3100
813.279	2967
813.421	2982
813.562	2975
813.703	2853
813.845	2864
813.986	2769
814.127	2743
814.268	2819
814.41	2834
814.551	2804
814.692	2868
814.833	2800
814.974	2872
815.115	2963
815.256	2838
815.397	2819
815.539	2842
815.68	2773
815.821	2811
815.962	2956
816.103	2948
816.244	2861
816.385	2906
816.526	2967
816.666	2925
816.807	2727
816.948	2872
817.089	2876
817.23	2864
817.371	2762
817.512	2766
817.653	2849
817.793	2834
817.934	2883
818.075	2956
818.216	3020
818.356	3028
818.497	2914
818.638	2800
818.778	2823
818.919	2796
819.06	2777
819.2	2899
819.341	2853
819.481	2807
819.622	2944
819.762	3119
819.903	3043
820.043	2941
820.184	2891
820.324	2906
820.465	3020
820.605	2994
820.746	2979
820.886	2910
821.026	3116
821.167	3131
821.307	3245
821.447	3268
821.588	3214
821.728	3211
821.868	3218
822.008	3032
822.149	3157
822.289	3230
822.429	3108
822.569	3108
822.709	3180
822.849	3005
822.99	3097
823.13	3161
823.27	3226
823.41	3074
823.55	3184
823.69	3154
823.83	3184
823.97	3116
824.11	3013
824.25	3013
824.389	3028
824.529	3116
824.669	3032
824.809	3173
824.949	3230
825.089	3180
825.228	3135
825.368	2998
825.508	2944
825.648	2941
825.787	2982
825.927	3017
826.067	2960
826.206	2963
826.346	3043
826.485	3074
826.625	3119
826.765	3222
826.904	3222
827.044	3013
827.183	2952
827.323	2868
827.462	2990
827.601	2906
827.741	2899
827.88	2941
828.02	2861
828.159	2979
828.298	3013
828.437	3123
828.577	2994
828.716	3214
828.855	3032
828.994	2902
829.134	2899
829.273	2876
829.412	2857
829.551	2914
829.69	2864
829.829	2929
829.968	3123
830.107	3032
830.246	3036
830.385	2925
830.524	2868
830.663	2838
830.802	2735
830.941	2655
831.08	2655
831.219	2769
831.357	2766
831.496	2948
831.635	2705
831.774	2617
831.913	2613
832.051	2507
832.19	2587
832.329	2659
832.467	2514
832.606	2488
832.744	2587
832.883	2571
833.022	2598
833.16	2644
833.299	2686
833.437	2712
833.576	2686
833.714	2693
833.852	2724
833.991	2743
834.129	2838
834.267	2853
834.406	2815
834.544	2887
834.682	2883
834.821	2872
834.959	3024
835.097	2895
835.235	3036
835.373	2979
835.511	3005
835.65	2941
835.788	2975
835.926	2823
836.064	2804
836.202	2845
836.34	3074
836.478	3146
836.615	3028
836.753	3112
836.891	3195
837.029	3116
837.167	3123
837.305	3032
837.443	3051
837.58	2948
837.718	3123
837.856	3062
837.993	3013
838.131	3081
838.269	3123
838.406	3077
838.544	3089
838.681	2925
838.819	2899
838.956	2830
839.094	2796
839.231	2906
839.369	3043
839.506	3370
839.643	3195
839.781	2986
839.918	2941
840.055	3055
840.193	3058
840.33	3070
840.467	3070
840.604	3127
840.742	3409
840.879	3020
841.016	3039
841.153	3104
841.29	3344
841.427	3291
841.564	3291
841.701	3291
841.838	3214
841.975	3150
842.112	3237
842.249	3058
842.385	3051
842.522	3237
842.659	3058
842.796	3024
842.933	3043
843.069	3051
843.206	3032
843.343	3195
843.479	3146
843.616	3093
843.752	2880
843.889	2857
844.025	3074
844.162	2842
844.298	3058
844.435	2956
844.571	2937
844.708	3043
844.844	3165
844.98	3218
845.117	3165
845.253	3009
845.389	3024
845.525	3112
845.661	3104
845.798	3005
845.934	3093
846.07	3047
846.206	3184
846.342	3332
846.478	3249
846.614	3039
846.75	3066
846.886	3032
847.022	3245
847.158	3127
847.294	3176
847.429	3199
847.565	3188
847.701	3454
847.837	3051
847.972	3001
848.108	3150
848.244	3150
848.379	3013
848.515	2967
848.65	2918
848.786	2948
848.921	3032
849.057	3116
849.192	3127
849.328	3051
849.463	3108
849.598	3051
849.734	3062
849.869	2986
850.004	2914
850.14	2902
850.275	2880
850.41	2826
850.545	2864
850.68	2906
850.815	2925
850.95	2948
851.085	3173
851.22	3127
851.355	2994
851.49	2967
851.625	2975
851.76	2990
851.895	2914
852.03	2941
852.165	3024
852.299	3100
852.434	3195
852.569	3138
852.703	3199
852.838	3256
852.973	3340
853.107	3348
853.242	3173
853.376	3081
853.511	2963
853.645	3020
853.78	3226
853.914	3104
854.048	3123
854.183	3066
854.317	3142
854.451	3287
854.585	3146
854.72	3077
854.854	3218
854.988	3039
855.122	3097
855.256	3005
855.39	3081
855.524	3222
855.658	3150
855.792	3150
855.926	3218
856.06	3173
856.194	3241
856.327	3123
856.461	3055
856.595	3081
856.729	3039
856.862	3211
856.996	3131
857.13	3192
857.263	3218
857.397	3253
857.53	3108
857.664	3192
857.797	3222
857.931	3260
858.064	3165
858.197	3241
858.331	3131
858.464	3077
858.597	2998
858.731	3100
858.864	3104
858.997	3051
859.13	3123
859.263	3146
859.396	3157
859.529	3081
859.662	3028
859.795	3028
859.928	3146
860.061	3264
860.194	3302
860.327	3127
860.46	3085
860.592	3237
860.725	3241
860.858	3241
860.99	3100
861.123	3032
861.256	3081
861.388	3154
861.521	3892
861.653	3017
861.786	3005
861.918	2982
862.05	3055
862.183	3097
862.315	3176
862.447	3203
862.58	3097
862.712	2891
862.844	2876
862.976	3020
863.108	2979
863.24	3469
863.372	2868
863.504	2963
863.636	2975
863.768	3009
863.9	2986
864.032	2914
864.164	2914
864.296	2990
864.428	3070
864.559	3085
864.691	3085
864.823	3055
864.954	3070
865.086	3077
865.217	2952
865.349	2914
865.48	2952
865.612	3017
865.743	3119
865.875	2975
866.006	2944
866.137	2998
866.269	2922
866.4	2941
866.531	2895
866.662	2880
866.793	2880
866.924	2857
867.055	3001
867.186	2914
867.317	2880
867.448	2842
867.579	2796
867.71	2861
867.841	2811
867.972	2876
868.103	2918
868.233	2876
868.364	2887
868.495	2891
868.625	3104
868.756	3138
868.886	2982
869.017	3009
869.147	3173
869.278	3142
869.408	3066
869.539	3013
869.669	3100
869.799	3036
869.929	3173
870.06	3100
870.19	3306
870.32	3268
870.45	3253
870.58	3367
870.71	3443
870.84	3428
870.97	3291
871.1	3260
871.23	3435
871.36	3477
871.489	3351
871.619	3363
871.749	3439
871.879	3409
872.008	3519
872.138	3374
872.267	3268
872.397	3131
872.526	3104
872.656	3017
872.785	3093
872.915	3203
873.044	3291
873.173	3214
873.303	3211
873.432	3214
873.561	3199
873.69	3116
873.819	3131
873.948	3211
874.077	3085
874.206	3055
874.335	3081
874.464	3195
874.593	3367
874.722	3233
874.851	3393
874.979	3302
875.108	3329
875.237	3157
875.365	3192
875.494	3135
875.623	3233
875.751	3066
875.88	3093
876.008	3214
876.136	3207
876.265	3386
876.393	3515
876.521	3443
876.65	3428
876.778	3321
876.906	3222
877.034	3192
877.162	3237
877.29	3180
877.418	3272
877.546	3256
877.674	3230
877.802	3218
877.93	3218
878.058	3131
878.185	3112
878.313	3241
878.441	3192
878.568	3039
878.696	3157
878.824	3275
878.951	3268
879.079	3443
879.206	3599
879.333	3447
879.461	3348
879.588	3332
879.715	3458
879.842	3603
879.97	3386
880.097	3180
880.224	3142
880.351	3169
880.478	3184
880.605	3230
880.732	3203
880.859	3500
880.986	3287
881.112	3321
881.239	3184
881.366	3104
881.493	3085
881.619	3009
881.746	3085
881.872	3081
881.999	3077
882.125	3150
882.252	3249
882.378	3302
882.505	3420
882.631	3306
882.757	3161
882.883	3195
883.01	3222
883.136	3157
883.262	3108
883.388	3135
883.514	3302
883.64	3378
883.766	3279
883.892	3176
884.018	3237
884.143	3420
884.269	3519
884.395	3195
884.52	3146
884.646	3199
884.772	3108
884.897	3081
885.023	3192
885.148	3310
885.274	3363
885.399	3374
885.524	3317
885.65	3241
885.775	3344
885.9	3233
886.025	3420
886.15	3386
886.275	3291
886.4	3211
886.525	3306
886.65	3294
886.775	3272
886.9	3500
887.025	3671
887.149	3370
887.274	3264
887.399	3192
887.523	3135
887.648	3180
887.773	3195
887.897	3344
888.021	3370
888.146	3294
888.27	3405
888.395	3504
888.519	3382
888.643	3454
888.767	3454
888.891	3310
889.015	3222
889.139	3291
889.263	3237
889.387	3420
889.511	3500
889.635	3431
889.759	3264
889.883	3287
890.006	3363
890.13	3492
890.254	3268
890.377	3351
890.501	3195
890.624	3184
890.748	3272
890.871	3180
890.995	3135
891.118	3051
891.241	3176
891.364	3199
891.488	3351
891.611	3157
891.734	3207
891.857	3287
891.98	3214
892.103	3321
892.226	3313
892.349	3169
892.471	3112
892.594	3226
892.717	3253
892.839	3264
892.962	3287
893.085	3363
893.207	3279
893.33	3169
893.452	3195
893.575	3329
893.697	3249
893.819	3450
893.941	3481
894.064	3428
894.186	3302
894.308	3222
894.43	3443
894.552	3538
894.674	3462
894.796	3268
894.918	3294
895.04	3249
895.161	3416
895.283	3363
895.405	3325
895.526	3389
895.648	3382
895.769	3397
895.891	3469
896.012	3477
896.134	3473
896.255	3389
896.376	3370
896.498	3317
896.619	3443
896.74	3317
896.861	3416
896.982	3675
897.103	3800
897.224	3587
897.345	3500
897.466	3439
897.587	3485
897.708	3622
897.828	3545
897.949	3420
898.07	3313
898.19	3389
898.311	3595
898.431	3420
898.552	3511
898.672	3545
898.792	3538
898.913	3507
899.033	3431
899.153	3283
899.273	3264
899.393	3275
899.513	3287
899.633	3329
899.753	3329
899.873	3329
899.993	3329
900.113	3367
900.232	3374
900.352	3344
900.472	3306
900.591	3199
900.711	3329
900.83	3195
900.95	3389
901.069	3488
901.189	3363
901.308	3154
901.427	3116
901.546	3211
901.665	3313
901.784	3348
901.904	3184
902.023	3146
902.141	2971
902.26	2979
902.379	3089
902.498	3074
902.617	3062
902.735	3207
902.854	3256
902.973	3161
903.091	3039
903.21	3081
903.328	3123
903.446	3131
903.565	3116
903.683	3184
903.801	3173
903.919	3253
904.038	3291
904.156	3165
904.274	3275
904.392	3222
904.51	3268
904.627	3313
904.745	3416
904.863	3538
904.981	3260
905.098	3184
905.216	3192
905.334	3237
905.451	3291
905.569	3283
905.686	3420
905.803	3466
905.921	3272
906.038	3431
906.155	3321
906.272	3302
906.389	3348
906.506	3226
906.623	3260
906.74	3264
906.857	3176
906.974	3249
907.091	3435
907.208	3580
907.324	3473
907.441	3374
907.557	3233
907.674	3260
907.79	3241
907.907	3256
908.023	3382
908.139	3386
908.256	3283
908.372	3355
908.488	3348
908.604	3275
908.72	3256
908.836	3287
908.952	3249
909.068	3340
909.184	3458
909.3	3409
909.415	3496
909.531	3450
909.647	3306
909.762	3245
909.878	3268
909.993	3393
910.108	3355
910.224	3363
910.339	3393
910.454	3332
910.57	3287
910.685	3275
910.8	3553
910.915	3507
911.03	3424
911.145	3260
911.259	3241
911.374	3329
911.489	3230
911.604	3241
911.718	3100
911.833	3188
911.947	3009
912.062	3005
912.176	3199
912.291	3211
912.405	3222
912.519	3401
912.633	3462
912.748	3367
912.862	3256
912.976	3150
913.09	3089
913.204	3135
913.318	3176
913.431	3359
913.545	3325
913.659	3386
913.772	3329
913.886	3203
914	3195
914.113	3344
914.226	3386
914.34	3363
914.453	3237
914.566	3409
914.68	3306
914.793	3321
914.906	3154
915.019	3104
915.132	3097
915.245	3199
915.358	3199
915.47	3237
915.583	3256
915.696	3317
915.809	3397
915.921	3405
916.034	3260
916.146	3287
916.259	3226
916.371	3409
916.483	3370
916.595	3260
916.708	3321
916.82	3321
916.932	3332
917.044	3298
917.156	3351
917.268	3264
917.38	3264
917.491	3268
917.603	3359
917.715	3477
917.826	3481
917.938	3382
918.049	3256
918.161	3439
918.272	3561
918.384	3553
918.495	3500
918.606	3355
918.717	3256
918.828	3416
918.939	3416
919.05	3329
919.161	3450
919.272	3226
919.383	3275
919.494	3477
919.604	3667
919.715	3450
919.826	3420
919.936	3443
920.047	3580
920.157	3538
920.267	3747
920.378	3564
920.488	3568
920.598	3789
920.708	3945
920.818	3823
920.928	3846
921.038	4021
921.148	3983
921.258	3701
921.368	3625
921.477	3576
921.587	3542
921.697	3458
921.806	3637
921.916	3564
922.025	3310
922.134	3382
922.244	3302
922.353	3389
922.462	3279
922.571	3264
922.68	3093
922.789	3043
922.898	3135
923.007	3089
923.116	3188
923.224	3161
923.333	3161
923.442	3104
923.55	3070
923.659	3173
923.767	3195
923.876	3127
923.984	3222
924.092	3077
924.201	3169
924.309	3188
924.417	3268
924.525	3203
924.633	3230
924.741	4154
924.849	3047
924.956	3279
925.064	3100
925.172	3077
925.279	3077
925.387	3203
925.494	3233
925.602	3363
925.709	3306
925.816	3233
925.924	3268
926.031	3351
926.138	3348
926.245	3374
926.352	3279
926.459	3401
926.566	3462
926.673	3298
926.779	3272
926.886	3222
926.993	3138
927.099	3123
927.206	3116
927.312	3116
927.419	3245
927.525	3230
927.631	3298
927.737	3157
927.843	3097
927.95	3039
928.056	3131
928.162	3154
928.267	3245
928.373	3804
928.479	3355
928.585	3070
928.69	3211
928.796	3260
928.901	3192
929.007	3047
929.112	3211
929.218	3161
929.323	3157
929.428	3146
929.533	3374
929.638	3112
929.743	3142
929.848	3272
929.953	3207
930.058	3146
930.163	2979
930.267	3020
930.372	3188
930.477	3005
930.581	3310
930.685	3169
930.79	3043
930.894	3104
930.998	3097
931.103	3283
931.207	2963
931.311	2979
931.415	2925
931.519	2811
931.623	2826
