Data from test_V78500241_991.txt Node
Date: Fri Mar 25 16:22:04 CST 2022
User: usil
Spectrometer: V785-0024
Trigger mode: 0
Integration Time (sec): 4.000000E-1
Scans to average: 1
Nonlinearity correction enabled: false
Boxcar width: 0
Storing dark spectrum: false
XAxis mode: Wavelengths
Number of Pixels in Spectrum: 1024
>>>>>Begin Spectral Data<<<<<
801.071	2910
801.214	2914
801.356	2857
801.499	2891
801.641	2838
801.783	2899
801.926	3020
802.068	2994
802.211	2971
802.353	3001
802.496	2963
802.638	3005
802.78	2994
802.923	3043
803.065	2944
803.208	2880
803.35	2906
803.492	2883
803.635	2948
803.777	2727
803.919	2826
804.061	3165
804.204	2918
804.346	2880
804.488	2815
804.63	3009
804.773	2838
804.915	2906
805.057	3043
805.199	2899
805.341	2956
805.483	3024
805.626	2967
805.768	2925
805.91	3066
806.052	3097
806.194	3047
806.336	3207
806.478	3017
806.62	2929
806.762	2925
806.904	3066
807.046	3165
807.188	2937
807.33	2887
807.472	2967
807.614	2887
807.756	2952
807.898	2910
808.04	2918
808.182	2948
808.324	2937
808.465	2853
808.607	2891
808.749	2792
808.891	2853
809.033	2982
809.174	2941
809.316	2880
809.458	2864
809.6	2746
809.741	2750
809.883	2746
810.025	2849
810.166	2830
810.308	2849
810.45	2815
810.591	2746
810.733	2739
810.875	2826
811.016	2792
811.158	2712
811.299	2800
811.441	2906
811.582	2895
811.724	2834
811.865	2823
812.007	2880
812.148	2842
812.29	2823
812.431	2902
812.573	2933
812.714	2971
812.855	3058
812.997	3039
813.138	3085
813.279	3024
813.421	2933
813.562	2941
813.703	2899
813.845	2861
813.986	2766
814.127	2727
814.268	2823
814.41	2857
814.551	2800
814.692	2891
814.833	2815
814.974	2887
815.115	2960
815.256	2800
815.397	2800
815.539	2887
815.68	2781
815.821	2781
815.962	2956
816.103	2902
816.244	2864
816.385	2849
816.526	2986
816.666	2895
816.807	2735
816.948	2883
817.089	2937
817.23	2868
817.371	2773
817.512	2781
817.653	2845
817.793	2826
817.934	2891
818.075	2967
818.216	3032
818.356	3020
818.497	2864
818.638	2758
818.778	2823
818.919	2766
819.06	2777
819.2	2864
819.341	2788
819.481	2800
819.622	2925
819.762	3100
819.903	3070
820.043	2933
820.184	2899
820.324	2876
820.465	2990
820.605	3020
820.746	3001
820.886	2914
821.026	3100
821.167	3180
821.307	3249
821.447	3268
821.588	3222
821.728	3211
821.868	3161
822.008	3066
822.149	3135
822.289	3192
822.429	3062
822.569	3062
822.709	3138
822.849	2998
822.99	3055
823.13	3150
823.27	3211
823.41	3135
823.55	3100
823.69	3127
823.83	3192
823.97	3089
824.11	2956
824.25	3009
824.389	3039
824.529	3116
824.669	3036
824.809	3169
824.949	3249
825.089	3192
825.228	3138
825.368	2971
825.508	2929
825.648	2933
825.787	2994
825.927	3028
826.067	2944
826.206	2948
826.346	3047
826.485	3081
826.625	3085
826.765	3222
826.904	3230
827.044	3024
827.183	2899
827.323	2868
827.462	2971
827.601	2925
827.741	2937
827.88	2986
828.02	2876
828.159	3009
828.298	3036
828.437	3142
828.577	3028
828.716	3237
828.855	3123
828.994	2929
829.134	2906
829.273	2944
829.412	2925
829.551	2864
829.69	2910
829.829	3001
829.968	3142
830.107	3032
830.246	3009
830.385	2963
830.524	2918
830.663	2842
830.802	2705
830.941	2663
831.08	2670
831.219	2762
831.357	2811
831.496	2994
831.635	2785
831.774	2686
831.913	2682
832.051	2571
832.19	2602
832.329	2735
832.467	2575
832.606	2511
832.744	2610
832.883	2594
833.022	2606
833.16	2693
833.299	2708
833.437	2758
833.576	2766
833.714	2750
833.852	2804
833.991	2781
834.129	2910
834.267	2861
834.406	2842
834.544	2902
834.682	2906
834.821	2902
834.959	3108
835.097	2906
835.235	3085
835.373	3051
835.511	3058
835.65	2979
835.788	3013
835.926	2891
836.064	2883
836.202	2861
836.34	3138
836.478	3146
836.615	3085
836.753	3165
836.891	3226
837.029	3176
837.167	3157
837.305	3100
837.443	3085
837.58	2998
837.718	3226
837.856	3085
837.993	3074
838.131	3176
838.269	3161
838.406	3108
838.544	3100
838.681	2975
838.819	2956
838.956	2868
839.094	2880
839.231	2952
839.369	3036
839.506	3370
839.643	3264
839.781	3055
839.918	3032
840.055	3077
840.193	3077
840.33	3100
840.467	3161
840.604	3173
840.742	3424
840.879	3070
841.016	3104
841.153	3169
841.29	3351
841.427	3329
841.564	3310
841.701	3355
841.838	3230
841.975	3195
842.112	3199
842.249	3112
842.385	3070
842.522	3264
842.659	3112
842.796	3097
842.933	3135
843.069	3093
843.206	3055
843.343	3218
843.479	3154
843.616	3104
843.752	2948
843.889	2899
844.025	3089
844.162	2906
844.298	3123
844.435	3032
844.571	2933
844.708	3119
844.844	3211
844.98	3272
845.117	3199
845.253	3058
845.389	3013
845.525	3119
845.661	3131
845.798	3077
845.934	3150
846.07	3070
846.206	3218
846.342	3374
846.478	3291
846.614	3116
846.75	3097
846.886	3043
847.022	3275
847.158	3135
847.294	3226
847.429	3237
847.565	3222
847.701	3492
847.837	3062
847.972	3017
848.108	3192
848.244	3176
848.379	3009
848.515	2967
848.65	2967
848.786	2986
848.921	3051
849.057	3108
849.192	3157
849.328	3108
849.463	3112
849.598	3097
849.734	3077
849.869	2990
850.004	2963
850.14	2971
850.275	2922
850.41	2864
850.545	2929
850.68	2941
850.815	2990
850.95	2986
851.085	3233
851.22	3116
851.355	3028
851.49	3005
851.625	2994
851.76	3051
851.895	2944
852.03	2937
852.165	3081
852.299	3142
852.434	3165
852.569	3150
852.703	3214
852.838	3287
852.973	3367
853.107	3340
853.242	3184
853.376	3119
853.511	3051
853.645	3036
853.78	3260
853.914	3169
854.048	3146
854.183	3108
854.317	3176
854.451	3329
854.585	3169
854.72	3077
854.854	3226
854.988	3066
855.122	3104
855.256	3013
855.39	3146
855.524	3249
855.658	3256
855.792	3169
855.926	3233
856.06	3260
856.194	3264
856.327	3207
856.461	3131
856.595	3112
856.729	3093
856.862	3253
856.996	3203
857.13	3264
857.263	3264
857.397	3294
857.53	3165
857.664	3207
857.797	3260
857.931	3272
858.064	3169
858.197	3226
858.331	3180
858.464	3089
858.597	3055
858.731	3146
858.864	3188
858.997	3123
859.13	3150
859.263	3184
859.396	3195
859.529	3116
859.662	3104
859.795	3104
859.928	3154
860.061	3279
860.194	3344
860.327	3161
860.46	3074
860.592	3218
860.725	3249
860.858	3298
860.99	3123
861.123	3039
861.256	3104
861.388	3169
861.521	3846
861.653	3020
861.786	3036
861.918	3043
862.05	3097
862.183	3081
862.315	3176
862.447	3241
862.58	3119
862.712	2967
862.844	2922
862.976	3070
863.108	3036
863.24	3458
863.372	2887
863.504	2990
863.636	3013
863.768	3028
863.9	3005
864.032	2960
864.164	2960
864.296	3085
864.428	3074
864.559	3112
864.691	3074
864.823	3077
864.954	3066
865.086	3070
865.217	2998
865.349	2998
865.48	3017
865.612	3062
865.743	3184
865.875	3028
866.006	2986
866.137	3005
866.269	2990
866.4	2922
866.531	2929
866.662	2929
866.793	2925
866.924	2902
867.055	3017
867.186	2982
867.317	2918
867.448	2849
867.579	2899
867.71	2883
867.841	2849
867.972	2925
868.103	2944
868.233	2910
868.364	2910
868.495	2944
868.625	3093
868.756	3188
868.886	3017
869.017	3036
869.147	3203
869.278	3211
869.408	3070
869.539	3070
869.669	3142
869.799	3058
869.929	3127
870.06	3161
870.19	3329
870.32	3298
870.45	3329
870.58	3382
870.71	3458
870.84	3424
870.97	3302
871.1	3298
871.23	3473
871.36	3485
871.489	3386
871.619	3409
871.749	3428
871.879	3481
872.008	3492
872.138	3355
872.267	3329
872.397	3150
872.526	3161
872.656	3028
872.785	3104
872.915	3264
873.044	3359
873.173	3256
873.303	3253
873.432	3249
873.561	3264
873.69	3184
873.819	3138
873.948	3241
874.077	3108
874.206	3055
874.335	3085
874.464	3226
874.593	3336
874.722	3264
874.851	3370
874.979	3351
875.108	3325
875.237	3233
875.365	3169
875.494	3192
875.623	3253
875.751	3070
875.88	3112
876.008	3184
876.136	3222
876.265	3378
876.393	3511
876.521	3435
876.65	3420
876.778	3359
876.906	3264
877.034	3237
877.162	3199
877.29	3214
877.418	3298
877.546	3260
877.674	3256
877.802	3249
877.93	3245
878.058	3165
878.185	3100
878.313	3176
878.441	3241
878.568	3100
878.696	3161
878.824	3272
878.951	3302
879.079	3500
879.206	3675
879.333	3500
879.461	3340
879.588	3351
879.715	3511
879.842	3591
879.97	3397
880.097	3184
880.224	3142
880.351	3195
880.478	3260
880.605	3218
880.732	3203
880.859	3496
880.986	3306
881.112	3355
881.239	3222
881.366	3077
881.493	3055
881.619	3047
881.746	3081
881.872	3081
881.999	3074
882.125	3180
882.252	3256
882.378	3313
882.505	3420
882.631	3302
882.757	3123
882.883	3237
883.01	3249
883.136	3203
883.262	3112
883.388	3135
883.514	3336
883.64	3428
883.766	3298
883.892	3218
884.018	3230
884.143	3397
884.269	3549
884.395	3222
884.52	3169
884.646	3176
884.772	3161
884.897	3131
885.023	3173
885.148	3359
885.274	3397
885.399	3416
885.524	3321
885.65	3275
885.775	3329
885.9	3317
886.025	3485
886.15	3370
886.275	3340
886.4	3275
886.525	3264
886.65	3279
886.775	3321
886.9	3485
887.025	3679
887.149	3397
887.274	3268
887.399	3150
887.523	3214
887.648	3226
887.773	3184
887.897	3348
888.021	3420
888.146	3283
888.27	3447
888.395	3580
888.519	3458
888.643	3466
888.767	3477
888.891	3325
889.015	3260
889.139	3306
889.263	3245
889.387	3405
889.511	3504
889.635	3466
889.759	3313
889.883	3355
890.006	3370
890.13	3488
890.254	3283
890.377	3355
890.501	3233
890.624	3199
890.748	3287
890.871	3199
890.995	3157
891.118	3085
891.241	3233
891.364	3207
891.488	3313
891.611	3169
891.734	3230
891.857	3302
891.98	3233
892.103	3291
892.226	3336
892.349	3241
892.471	3165
892.594	3233
892.717	3279
892.839	3260
892.962	3264
893.085	3382
893.207	3317
893.33	3173
893.452	3222
893.575	3355
893.697	3253
893.819	3496
893.941	3507
894.064	3454
894.186	3291
894.308	3275
894.43	3435
894.552	3545
894.674	3492
894.796	3302
894.918	3332
895.04	3279
895.161	3435
895.283	3424
895.405	3359
895.526	3386
895.648	3428
895.769	3435
895.891	3458
896.012	3507
896.134	3515
896.255	3363
896.376	3393
896.498	3397
896.619	3401
896.74	3386
896.861	3416
896.982	3701
897.103	3854
897.224	3622
897.345	3526
897.466	3409
897.587	3557
897.708	3614
897.828	3545
897.949	3431
898.07	3344
898.19	3389
898.311	3614
898.431	3466
898.552	3538
898.672	3587
898.792	3603
898.913	3485
899.033	3450
899.153	3329
899.273	3260
899.393	3283
899.513	3298
899.633	3359
899.753	3332
899.873	3336
899.993	3378
900.113	3355
900.232	3409
900.352	3329
900.472	3298
900.591	3188
900.711	3310
900.83	3241
900.95	3431
901.069	3473
901.189	3363
901.308	3195
901.427	3112
901.546	3203
901.665	3302
901.784	3359
901.904	3207
902.023	3146
902.141	3020
902.26	3005
902.379	3161
902.498	3043
902.617	3032
902.735	3218
902.854	3207
902.973	3214
903.091	3055
903.21	3077
903.328	3119
903.446	3127
903.565	3116
903.683	3184
903.801	3138
903.919	3260
904.038	3332
904.156	3188
904.274	3268
904.392	3222
904.51	3272
904.627	3374
904.745	3477
904.863	3496
904.981	3260
905.098	3222
905.216	3245
905.334	3310
905.451	3344
905.569	3306
905.686	3428
905.803	3409
905.921	3321
906.038	3439
906.155	3351
906.272	3317
906.389	3340
906.506	3253
906.623	3256
906.74	3256
906.857	3199
906.974	3253
907.091	3420
907.208	3633
907.324	3466
907.441	3393
907.557	3245
907.674	3260
907.79	3237
907.907	3291
908.023	3412
908.139	3374
908.256	3382
908.372	3416
908.488	3378
908.604	3272
908.72	3245
908.836	3275
908.952	3275
909.068	3332
909.184	3485
909.3	3401
909.415	3500
909.531	3485
909.647	3325
909.762	3321
909.878	3268
909.993	3405
910.108	3310
910.224	3382
910.339	3382
910.454	3332
910.57	3336
910.685	3253
910.8	3599
910.915	3557
911.03	3477
911.145	3279
911.259	3249
911.374	3336
911.489	3237
911.604	3260
911.718	3123
911.833	3154
911.947	3051
912.062	3005
912.176	3123
912.291	3184
912.405	3218
912.519	3443
912.633	3466
912.748	3287
912.862	3298
912.976	3203
913.09	3074
913.204	3180
913.318	3184
913.431	3317
913.545	3340
913.659	3397
913.772	3351
913.886	3195
914	3222
914.113	3363
914.226	3386
914.34	3389
914.453	3230
914.566	3393
914.68	3287
914.793	3291
914.906	3135
915.019	3123
915.132	3077
915.245	3214
915.358	3260
915.47	3211
915.583	3260
915.696	3332
915.809	3389
915.921	3435
916.034	3268
916.146	3256
916.259	3241
916.371	3382
916.483	3332
916.595	3306
916.708	3298
916.82	3348
916.932	3317
917.044	3313
917.156	3351
917.268	3260
917.38	3306
917.491	3298
917.603	3348
917.715	3435
917.826	3409
917.938	3409
918.049	3264
918.161	3416
918.272	3564
918.384	3553
918.495	3477
918.606	3298
918.717	3283
918.828	3401
918.939	3393
919.05	3272
919.161	3363
919.272	3180
919.383	3260
919.494	3481
919.604	3698
919.715	3485
919.826	3420
919.936	3447
920.047	3580
920.157	3580
920.267	3766
920.378	3603
920.488	3538
920.598	3751
920.708	3987
920.818	3789
920.928	3819
921.038	4055
921.148	4006
921.258	3690
921.368	3633
921.477	3591
921.587	3564
921.697	3454
921.806	3622
921.916	3485
922.025	3321
922.134	3340
922.244	3306
922.353	3389
922.462	3283
922.571	3241
922.68	3089
922.789	3066
922.898	3150
923.007	3093
923.116	3230
923.224	3157
923.333	3226
923.442	3131
923.55	3051
923.659	3135
923.767	3207
923.876	3116
923.984	3272
924.092	3081
924.201	3192
924.309	3211
924.417	3264
924.525	3169
924.633	3226
924.741	4173
924.849	3043
924.956	3287
925.064	3112
925.172	3062
925.279	3104
925.387	3192
925.494	3199
925.602	3351
925.709	3317
925.816	3199
925.924	3272
926.031	3340
926.138	3306
926.245	3344
926.352	3195
926.459	3409
926.566	3469
926.673	3329
926.779	3264
926.886	3245
926.993	3146
927.099	3119
927.206	3116
927.312	3127
927.419	3241
927.525	3230
927.631	3275
927.737	3131
927.843	3104
927.95	3020
928.056	3157
928.162	3184
928.267	3272
928.373	3842
928.479	3302
928.585	3089
928.69	3195
928.796	3256
928.901	3192
929.007	3020
929.112	3249
929.218	3169
929.323	3119
929.428	3150
929.533	3283
929.638	3116
929.743	3150
929.848	3287
929.953	3184
930.058	3192
930.163	3020
930.267	3036
930.372	3218
930.477	3036
930.581	3302
930.685	3188
930.79	3081
930.894	3085
930.998	3070
931.103	3287
931.207	2967
931.311	2952
931.415	2929
931.519	2792
931.623	2815
