Data from test_V78500241_275.txt Node
Date: Fri Mar 25 16:17:06 CST 2022
User: usil
Spectrometer: V785-0024
Trigger mode: 0
Integration Time (sec): 4.000000E-1
Scans to average: 1
Nonlinearity correction enabled: false
Boxcar width: 0
Storing dark spectrum: false
XAxis mode: Wavelengths
Number of Pixels in Spectrum: 1024
>>>>>Begin Spectral Data<<<<<
801.071	2914
801.214	2956
801.356	2880
801.499	2895
801.641	2876
801.783	2937
801.926	3051
802.068	2979
802.211	2979
802.353	3028
802.496	2960
802.638	3001
802.78	3024
802.923	3043
803.065	2960
803.208	2906
803.35	2899
803.492	2929
803.635	2941
803.777	2743
803.919	2876
804.061	3146
804.204	2944
804.346	2891
804.488	2838
804.63	3001
804.773	2906
804.915	2902
805.057	3077
805.199	2929
805.341	2960
805.483	3051
805.626	2963
805.768	2979
805.91	3085
806.052	3104
806.194	3055
806.336	3245
806.478	3013
806.62	2960
806.762	2986
806.904	3055
807.046	3161
807.188	2960
807.33	2880
807.472	2990
807.614	2895
807.756	2982
807.898	2914
808.04	2914
808.182	2982
808.324	3001
808.465	2891
808.607	2845
808.749	2792
808.891	2883
809.033	2971
809.174	2986
809.316	2899
809.458	2887
809.6	2796
809.741	2777
809.883	2796
810.025	2819
810.166	2880
810.308	2842
810.45	2922
810.591	2788
810.733	2796
810.875	2845
811.016	2769
811.158	2762
811.299	2792
811.441	2925
811.582	2937
811.724	2849
811.865	2811
812.007	2937
812.148	2902
812.29	2830
812.431	2883
812.573	2918
812.714	2963
812.855	2998
812.997	3024
813.138	3112
813.279	3017
813.421	2982
813.562	2979
813.703	2891
813.845	2895
813.986	2777
814.127	2746
814.268	2807
814.41	2834
814.551	2842
814.692	2864
814.833	2838
814.974	2914
815.115	2948
815.256	2830
815.397	2804
815.539	2899
815.68	2769
815.821	2785
815.962	2941
816.103	2963
816.244	2880
816.385	2906
816.526	2979
816.666	2933
816.807	2720
816.948	2899
817.089	2918
817.23	2891
817.371	2792
817.512	2819
817.653	2826
817.793	2849
817.934	2880
818.075	2963
818.216	3024
818.356	3017
818.497	2914
818.638	2777
818.778	2823
818.919	2804
819.06	2746
819.2	2906
819.341	2800
819.481	2842
819.622	2944
819.762	3100
819.903	2982
820.043	2929
820.184	2906
820.324	2895
820.465	2986
820.605	2998
820.746	3001
820.886	2937
821.026	3089
821.167	3188
821.307	3268
821.447	3230
821.588	3241
821.728	3218
821.868	3192
822.008	3077
822.149	3195
822.289	3230
822.429	3085
822.569	3127
822.709	3180
822.849	2990
822.99	3036
823.13	3188
823.27	3188
823.41	3097
823.55	3157
823.69	3176
823.83	3188
823.97	3093
824.11	3013
824.25	3032
824.389	3051
824.529	3123
824.669	3055
824.809	3165
824.949	3306
825.089	3222
825.228	3199
825.368	3024
825.508	2986
825.648	2960
825.787	3005
825.927	3047
826.067	2986
826.206	2960
826.346	3032
826.485	3036
826.625	3077
826.765	3256
826.904	3207
827.044	2971
827.183	2929
827.323	2891
827.462	2979
827.601	2944
827.741	2941
827.88	2960
828.02	2845
828.159	2982
828.298	3032
828.437	3123
828.577	3074
828.716	3226
828.855	3055
828.994	2887
829.134	2853
829.273	2937
829.412	2883
829.551	2842
829.69	2922
829.829	2986
829.968	3119
830.107	3043
830.246	3001
830.385	2937
830.524	2861
830.663	2826
830.802	2773
830.941	2617
831.08	2606
831.219	2777
831.357	2766
831.496	2948
831.635	2720
831.774	2636
831.913	2640
832.051	2564
832.19	2590
832.329	2670
832.467	2503
832.606	2495
832.744	2537
832.883	2587
833.022	2583
833.16	2648
833.299	2686
833.437	2686
833.576	2708
833.714	2762
833.852	2739
833.991	2739
834.129	2830
834.267	2842
834.406	2785
834.544	2895
834.682	2883
834.821	2880
834.959	3074
835.097	2883
835.235	3055
835.373	3013
835.511	3028
835.65	2960
835.788	2929
835.926	2842
836.064	2792
836.202	2857
836.34	3100
836.478	3127
836.615	3074
836.753	3161
836.891	3203
837.029	3150
837.167	3104
837.305	3077
837.443	3066
837.58	2960
837.718	3142
837.856	3085
837.993	3028
838.131	3142
838.269	3131
838.406	3104
838.544	3100
838.681	2998
838.819	2902
838.956	2807
839.094	2838
839.231	2906
839.369	3001
839.506	3321
839.643	3226
839.781	2986
839.918	2952
840.055	3039
840.193	3017
840.33	3051
840.467	3135
840.604	3154
840.742	3374
840.879	3051
841.016	3043
841.153	3108
841.29	3348
841.427	3317
841.564	3249
841.701	3332
841.838	3203
841.975	3203
842.112	3214
842.249	3077
842.385	3062
842.522	3283
842.659	3058
842.796	3055
842.933	3074
843.069	3062
843.206	3028
843.343	3173
843.479	3127
843.616	3157
843.752	2895
843.889	2864
844.025	3074
844.162	2906
844.298	3100
844.435	2982
844.571	2929
844.708	3039
844.844	3184
844.98	3214
845.117	3157
845.253	3070
845.389	3005
845.525	3104
845.661	3112
845.798	3058
845.934	3093
846.07	3066
846.206	3218
846.342	3329
846.478	3264
846.614	3077
846.75	3039
846.886	3013
847.022	3233
847.158	3161
847.294	3211
847.429	3218
847.565	3218
847.701	3504
847.837	3032
847.972	2975
848.108	3184
848.244	3157
848.379	2975
848.515	2952
848.65	2925
848.786	2948
848.921	3013
849.057	3089
849.192	3169
849.328	3036
849.463	3173
849.598	3047
849.734	3028
849.869	2986
850.004	2925
850.14	2960
850.275	2883
850.41	2842
850.545	2918
850.68	2933
850.815	2960
850.95	2982
851.085	3176
851.22	3119
851.355	3062
851.49	2967
851.625	2982
851.76	2986
851.895	2941
852.03	2922
852.165	3020
852.299	3161
852.434	3180
852.569	3146
852.703	3173
852.838	3245
852.973	3359
853.107	3370
853.242	3157
853.376	3112
853.511	2990
853.645	3036
853.78	3253
853.914	3104
854.048	3116
854.183	3081
854.317	3161
854.451	3313
854.585	3135
854.72	3089
854.854	3207
854.988	3043
855.122	3123
855.256	2979
855.39	3135
855.524	3260
855.658	3157
855.792	3173
855.926	3176
856.06	3226
856.194	3275
856.327	3131
856.461	3058
856.595	3108
856.729	3119
856.862	3275
856.996	3192
857.13	3207
857.263	3237
857.397	3275
857.53	3142
857.664	3173
857.797	3233
857.931	3241
858.064	3157
858.197	3245
858.331	3135
858.464	3093
858.597	2979
858.731	3116
858.864	3131
858.997	3100
859.13	3146
859.263	3138
859.396	3218
859.529	3062
859.662	3081
859.795	3074
859.928	3142
860.061	3294
860.194	3264
860.327	3146
860.46	3116
860.592	3214
860.725	3294
860.858	3275
860.99	3119
861.123	3051
861.256	3043
861.388	3161
861.521	3892
861.653	3032
861.786	3028
861.918	2998
862.05	3108
862.183	3112
862.315	3123
862.447	3203
862.58	3119
862.712	2982
862.844	2868
862.976	3028
863.108	3020
863.24	3336
863.372	2906
863.504	2967
863.636	2986
863.768	3024
863.9	2960
864.032	2941
864.164	2979
864.296	3039
864.428	3089
864.559	3131
864.691	3062
864.823	3062
864.954	3055
865.086	3066
865.217	2990
865.349	2956
865.48	2986
865.612	3043
865.743	3131
865.875	2963
866.006	2941
866.137	2967
866.269	2937
866.4	2944
866.531	2967
866.662	2914
866.793	2910
866.924	2910
867.055	2960
867.186	2941
867.317	2895
867.448	2815
867.579	2838
867.71	2845
867.841	2800
867.972	2899
868.103	2925
868.233	2876
868.364	2864
868.495	2906
868.625	3055
868.756	3180
868.886	2975
869.017	3020
869.147	3154
869.278	3112
869.408	3066
869.539	3020
869.669	3043
869.799	3055
869.929	3165
870.06	3097
870.19	3325
870.32	3283
870.45	3279
870.58	3393
870.71	3496
870.84	3488
870.97	3310
871.1	3211
871.23	3481
871.36	3473
871.489	3359
871.619	3344
871.749	3401
871.879	3443
872.008	3469
872.138	3370
872.267	3291
872.397	3131
872.526	3123
872.656	3043
872.785	3089
872.915	3253
873.044	3321
873.173	3233
873.303	3214
873.432	3253
873.561	3256
873.69	3169
873.819	3154
873.948	3222
874.077	3131
874.206	3081
874.335	3074
874.464	3233
874.593	3348
874.722	3253
874.851	3386
874.979	3306
875.108	3291
875.237	3226
875.365	3195
875.494	3176
875.623	3214
875.751	3047
875.88	3131
876.008	3203
876.136	3222
876.265	3370
876.393	3488
876.521	3389
876.65	3374
876.778	3348
876.906	3222
877.034	3169
877.162	3241
877.29	3169
877.418	3283
877.546	3233
877.674	3226
877.802	3264
877.93	3211
878.058	3131
878.185	3104
878.313	3214
878.441	3230
878.568	3043
878.696	3169
878.824	3294
878.951	3294
879.079	3477
879.206	3622
879.333	3435
879.461	3374
879.588	3378
879.715	3485
879.842	3587
879.97	3382
880.097	3207
880.224	3131
880.351	3176
880.478	3218
880.605	3211
880.732	3169
880.859	3481
880.986	3302
881.112	3325
881.239	3203
881.366	3066
881.493	3017
881.619	3032
881.746	3055
881.872	3077
881.999	3085
882.125	3161
882.252	3272
882.378	3340
882.505	3409
882.631	3275
882.757	3180
882.883	3241
883.01	3199
883.136	3127
883.262	3081
883.388	3138
883.514	3325
883.64	3420
883.766	3325
883.892	3253
884.018	3230
884.143	3435
884.269	3542
884.395	3195
884.52	3150
884.646	3214
884.772	3123
884.897	3093
885.023	3237
885.148	3329
885.274	3416
885.399	3405
885.524	3241
885.65	3313
885.775	3294
885.9	3294
886.025	3401
886.15	3382
886.275	3287
886.4	3291
886.525	3325
886.65	3291
886.775	3279
886.9	3488
887.025	3641
887.149	3443
887.274	3226
887.399	3165
887.523	3249
887.648	3180
887.773	3176
887.897	3363
888.021	3355
888.146	3260
888.27	3412
888.395	3504
888.519	3435
888.643	3431
888.767	3477
888.891	3321
889.015	3241
889.139	3302
889.263	3256
889.387	3420
889.511	3545
889.635	3420
889.759	3283
889.883	3325
890.006	3367
890.13	3477
890.254	3256
890.377	3348
890.501	3214
890.624	3199
890.748	3279
890.871	3176
890.995	3119
891.118	3097
891.241	3192
891.364	3222
891.488	3336
891.611	3203
891.734	3245
891.857	3287
891.98	3222
892.103	3332
892.226	3313
892.349	3264
892.471	3119
892.594	3268
892.717	3283
892.839	3283
892.962	3306
893.085	3310
893.207	3287
893.33	3157
893.452	3253
893.575	3313
893.697	3264
893.819	3469
893.941	3469
894.064	3481
894.186	3298
894.308	3306
894.43	3420
894.552	3523
894.674	3488
894.796	3306
894.918	3310
895.04	3253
895.161	3397
895.283	3374
895.405	3321
895.526	3389
895.648	3428
895.769	3405
895.891	3420
896.012	3496
896.134	3488
896.255	3405
896.376	3355
896.498	3374
896.619	3409
896.74	3348
896.861	3393
896.982	3633
897.103	3850
897.224	3633
897.345	3523
897.466	3424
897.587	3485
897.708	3625
897.828	3584
897.949	3443
898.07	3313
898.19	3416
898.311	3629
898.431	3439
898.552	3530
898.672	3576
898.792	3610
898.913	3496
899.033	3428
899.153	3313
899.273	3199
899.393	3306
899.513	3351
899.633	3332
899.753	3344
899.873	3294
899.993	3401
900.113	3336
900.232	3401
900.352	3363
900.472	3275
900.591	3188
900.711	3283
900.83	3218
900.95	3416
901.069	3496
901.189	3355
901.308	3207
901.427	3154
901.546	3211
901.665	3306
901.784	3378
901.904	3218
902.023	3138
902.141	3039
902.26	2975
902.379	3173
902.498	3055
902.617	3039
902.735	3226
902.854	3245
902.973	3173
903.091	3051
903.21	3077
903.328	3146
903.446	3119
903.565	3119
903.683	3214
903.801	3131
903.919	3268
904.038	3272
904.156	3169
904.274	3279
904.392	3233
904.51	3302
904.627	3321
904.745	3420
904.863	3515
904.981	3306
905.098	3195
905.216	3245
905.334	3336
905.451	3302
905.569	3302
905.686	3450
905.803	3466
905.921	3317
906.038	3431
906.155	3393
906.272	3287
906.389	3351
906.506	3279
906.623	3298
906.74	3287
906.857	3188
906.974	3249
907.091	3477
907.208	3526
907.324	3481
907.441	3355
907.557	3253
907.674	3253
907.79	3211
907.907	3313
908.023	3355
908.139	3359
908.256	3317
908.372	3374
908.488	3386
908.604	3253
908.72	3211
908.836	3249
908.952	3264
909.068	3374
909.184	3473
909.3	3367
909.415	3523
909.531	3488
909.647	3237
909.762	3291
909.878	3313
909.993	3348
910.108	3313
910.224	3363
910.339	3412
910.454	3275
910.57	3313
910.685	3203
910.8	3618
910.915	3584
911.03	3447
911.145	3275
911.259	3268
911.374	3321
911.489	3237
911.604	3222
911.718	3081
911.833	3150
911.947	3081
912.062	2979
912.176	3150
912.291	3211
912.405	3256
912.519	3447
912.633	3458
912.748	3325
912.862	3279
912.976	3173
913.09	3032
913.204	3146
913.318	3226
913.431	3348
913.545	3310
913.659	3382
913.772	3329
913.886	3214
914	3211
914.113	3363
914.226	3416
914.34	3393
914.453	3211
914.566	3439
914.68	3279
914.793	3310
914.906	3176
915.019	3135
915.132	3077
915.245	3173
915.358	3211
915.47	3260
915.583	3272
915.696	3287
915.809	3378
915.921	3428
916.034	3249
916.146	3260
916.259	3222
916.371	3405
916.483	3393
916.595	3249
916.708	3321
916.82	3355
916.932	3351
917.044	3374
917.156	3310
917.268	3249
917.38	3283
917.491	3275
917.603	3386
917.715	3477
917.826	3443
917.938	3370
918.049	3298
918.161	3428
918.272	3557
918.384	3561
918.495	3488
918.606	3367
918.717	3294
918.828	3405
918.939	3409
919.05	3253
919.161	3397
919.272	3173
919.383	3306
919.494	3507
919.604	3675
919.715	3496
919.826	3428
919.936	3450
920.047	3637
920.157	3538
920.267	3751
920.378	3614
920.488	3614
920.598	3743
920.708	3987
920.818	3838
920.928	3835
921.038	3979
921.148	3998
921.258	3690
921.368	3610
921.477	3572
921.587	3534
921.697	3473
921.806	3652
921.916	3553
922.025	3332
922.134	3370
922.244	3363
922.353	3378
922.462	3298
922.571	3226
922.68	3135
922.789	3066
922.898	3135
923.007	3070
923.116	3203
923.224	3154
923.333	3176
923.442	3097
923.55	3089
923.659	3146
923.767	3169
923.876	3150
923.984	3241
924.092	3119
924.201	3188
924.309	3203
924.417	3275
924.525	3184
924.633	3241
924.741	4169
924.849	3024
924.956	3272
925.064	3093
925.172	3039
925.279	3112
925.387	3260
925.494	3245
925.602	3340
925.709	3317
925.816	3195
925.924	3272
926.031	3401
926.138	3325
926.245	3374
926.352	3256
926.459	3386
926.566	3481
926.673	3317
926.779	3291
926.886	3253
926.993	3157
927.099	3154
927.206	3100
927.312	3119
927.419	3237
927.525	3180
927.631	3287
927.737	3154
927.843	3138
927.95	3020
928.056	3138
928.162	3218
928.267	3233
928.373	3835
928.479	3317
928.585	3047
928.69	3260
928.796	3237
928.901	3123
929.007	3036
929.112	3233
929.218	3184
929.323	3169
929.428	3123
929.533	3306
929.638	3135
929.743	3165
929.848	3264
929.953	3237
930.058	3192
930.163	3005
930.267	3070
930.372	3218
930.477	3077
930.581	3313
930.685	3192
930.79	3055
930.894	3119
930.998	3081
931.103	3283
931.207	2994
931.311	2956
931.415	2925
931.519	2792
931.623	2807
