Data from test_V78500241_1914.txt Node
Date: Fri Mar 25 16:28:27 CST 2022
User: usil
Spectrometer: V785-0024
Trigger mode: 0
Integration Time (sec): 4.000000E-1
Scans to average: 1
Nonlinearity correction enabled: false
Boxcar width: 0
Storing dark spectrum: false
XAxis mode: Wavelengths
Number of Pixels in Spectrum: 1024
>>>>>Begin Spectral Data<<<<<
801.071	2891
801.214	2937
801.356	2868
801.499	2868
801.641	2872
801.783	2929
801.926	3009
802.068	2990
802.211	3017
802.353	3089
802.496	2952
802.638	3013
802.78	3077
802.923	3074
803.065	2990
803.208	2876
803.35	2872
803.492	2925
803.635	2906
803.777	2750
803.919	2872
804.061	3222
804.204	2963
804.346	2902
804.488	2804
804.63	2952
804.773	2895
804.915	2906
805.057	3066
805.199	2922
805.341	2941
805.483	3005
805.626	2998
805.768	2929
805.91	3074
806.052	3089
806.194	3009
806.336	3203
806.478	3055
806.62	2982
806.762	2975
806.904	3085
807.046	3195
807.188	2986
807.33	2922
807.472	2982
807.614	2883
807.756	2967
807.898	2902
808.04	2880
808.182	2963
808.324	2986
808.465	2895
808.607	2880
808.749	2815
808.891	2811
809.033	2925
809.174	2929
809.316	2845
809.458	2895
809.6	2773
809.741	2777
809.883	2807
810.025	2857
810.166	2861
810.308	2826
810.45	2861
810.591	2769
810.733	2754
810.875	2849
811.016	2754
811.158	2769
811.299	2815
811.441	2925
811.582	2876
811.724	2815
811.865	2845
812.007	2925
812.148	2864
812.29	2823
812.431	2891
812.573	2967
812.714	2952
812.855	3039
812.997	3051
813.138	3119
813.279	3024
813.421	2960
813.562	2982
813.703	2845
813.845	2880
813.986	2792
814.127	2735
814.268	2861
814.41	2842
814.551	2807
814.692	2834
814.833	2826
814.974	2895
815.115	2941
815.256	2781
815.397	2811
815.539	2876
815.68	2750
815.821	2823
815.962	2925
816.103	2929
816.244	2857
816.385	2880
816.526	2937
816.666	2918
816.807	2743
816.948	2914
817.089	2891
817.23	2845
817.371	2777
817.512	2804
817.653	2872
817.793	2834
817.934	2899
818.075	2948
818.216	2994
818.356	3009
818.497	2891
818.638	2773
818.778	2807
818.919	2811
819.06	2735
819.2	2914
819.341	2792
819.481	2796
819.622	2937
819.762	3081
819.903	3077
820.043	2914
820.184	2880
820.324	2933
820.465	3028
820.605	3020
820.746	3013
820.886	2956
821.026	3085
821.167	3146
821.307	3237
821.447	3283
821.588	3245
821.728	3173
821.868	3199
822.008	3100
822.149	3207
822.289	3230
822.429	3123
822.569	3100
822.709	3199
822.849	3001
822.99	3047
823.13	3169
823.27	3169
823.41	3116
823.55	3146
823.69	3135
823.83	3165
823.97	3093
824.11	2990
824.25	2990
824.389	3028
824.529	3112
824.669	3066
824.809	3157
824.949	3233
825.089	3184
825.228	3157
825.368	3005
825.508	2941
825.648	2937
825.787	3013
825.927	3017
826.067	2967
826.206	2963
826.346	3047
826.485	3089
826.625	3077
826.765	3249
826.904	3199
827.044	3009
827.183	2925
827.323	2845
827.462	2971
827.601	2914
827.741	2902
827.88	2929
828.02	2868
828.159	2975
828.298	2990
828.437	3119
828.577	3051
828.716	3226
828.855	3093
828.994	2925
829.134	2902
829.273	2918
829.412	2868
829.551	2861
829.69	2887
829.829	2994
829.968	3119
830.107	2990
830.246	2990
830.385	2929
830.524	2845
830.663	2792
830.802	2754
830.941	2636
831.08	2648
831.219	2735
831.357	2712
831.496	2937
831.635	2701
831.774	2636
831.913	2678
832.051	2507
832.19	2571
832.329	2682
832.467	2552
832.606	2480
832.744	2583
832.883	2549
833.022	2613
833.16	2659
833.299	2705
833.437	2678
833.576	2701
833.714	2701
833.852	2693
833.991	2781
834.129	2826
834.267	2826
834.406	2781
834.544	2849
834.682	2883
834.821	2849
834.959	3085
835.097	2902
835.235	3058
835.373	2971
835.511	3017
835.65	2914
835.788	2925
835.926	2785
836.064	2811
836.202	2845
836.34	3077
836.478	3108
836.615	3055
836.753	3093
836.891	3203
837.029	3165
837.167	3123
837.305	3024
837.443	3051
837.58	2967
837.718	3138
837.856	3017
837.993	2998
838.131	3154
838.269	3116
838.406	3077
838.544	3081
838.681	2933
838.819	2906
838.956	2788
839.094	2861
839.231	2883
839.369	2994
839.506	3370
839.643	3226
839.781	2979
839.918	2994
840.055	3009
840.193	3020
840.33	3077
840.467	3093
840.604	3157
840.742	3401
840.879	3043
841.016	3013
841.153	3119
841.29	3306
841.427	3291
841.564	3256
841.701	3287
841.838	3214
841.975	3138
842.112	3195
842.249	3085
842.385	3055
842.522	3226
842.659	3066
842.796	3036
842.933	3093
843.069	3032
843.206	3066
843.343	3176
843.479	3089
843.616	3089
843.752	2895
843.889	2880
844.025	3058
844.162	2883
844.298	3097
844.435	2960
844.571	2914
844.708	3047
844.844	3199
844.98	3226
845.117	3173
845.253	3077
845.389	2982
845.525	3093
845.661	3104
845.798	3032
845.934	3112
846.07	3055
846.206	3195
846.342	3279
846.478	3203
846.614	3077
846.75	3051
846.886	3043
847.022	3268
847.158	3097
847.294	3214
847.429	3245
847.565	3222
847.701	3511
847.837	3036
847.972	2956
848.108	3157
848.244	3119
848.379	2971
848.515	2937
848.65	2937
848.786	2929
848.921	3032
849.057	3135
849.192	3165
849.328	3047
849.463	3104
849.598	3051
849.734	3032
849.869	2937
850.004	2941
850.14	2929
850.275	2937
850.41	2823
850.545	2891
850.68	2929
850.815	2948
850.95	2956
851.085	3173
851.22	3077
851.355	2994
851.49	2990
851.625	2990
851.76	3024
851.895	2948
852.03	2914
852.165	3062
852.299	3074
852.434	3173
852.569	3127
852.703	3127
852.838	3237
852.973	3348
853.107	3321
853.242	3150
853.376	3062
853.511	3005
853.645	3024
853.78	3211
853.914	3116
854.048	3138
854.183	3051
854.317	3161
854.451	3306
854.585	3104
854.72	3058
854.854	3218
854.988	3058
855.122	3074
855.256	2960
855.39	3104
855.524	3237
855.658	3146
855.792	3108
855.926	3195
856.06	3203
856.194	3283
856.327	3138
856.461	3093
856.595	3074
856.729	3108
856.862	3188
856.996	3169
857.13	3203
857.263	3230
857.397	3226
857.53	3131
857.664	3184
857.797	3233
857.931	3237
858.064	3169
858.197	3199
858.331	3150
858.464	3055
858.597	3001
858.731	3089
858.864	3127
858.997	3074
859.13	3127
859.263	3173
859.396	3188
859.529	3085
859.662	3066
859.795	3062
859.928	3131
860.061	3260
860.194	3275
860.327	3150
860.46	3089
860.592	3203
860.725	3233
860.858	3207
860.99	3074
861.123	3051
861.256	3047
861.388	3146
861.521	3797
861.653	3028
861.786	2971
861.918	2994
862.05	3028
862.183	3081
862.315	3135
862.447	3192
862.58	3123
862.712	2937
862.844	2868
862.976	2986
863.108	3024
863.24	3302
863.372	2880
863.504	2948
863.636	2952
863.768	3001
863.9	2979
864.032	2922
864.164	2937
864.296	3009
864.428	3108
864.559	3074
864.691	3093
864.823	3039
864.954	3013
865.086	3062
865.217	2975
865.349	2910
865.48	2937
865.612	3024
865.743	3154
865.875	2963
866.006	2952
866.137	2941
866.269	2956
866.4	2979
866.531	2906
866.662	2906
866.793	2861
866.924	2868
867.055	2998
867.186	2944
867.317	2876
867.448	2849
867.579	2834
867.71	2861
867.841	2800
867.972	2902
868.103	2922
868.233	2910
868.364	2868
868.495	2864
868.625	3085
868.756	3173
868.886	2944
869.017	3017
869.147	3176
869.278	3142
869.408	3024
869.539	3055
869.669	3081
869.799	3036
869.929	3131
870.06	3097
870.19	3317
870.32	3222
870.45	3279
870.58	3405
870.71	3458
870.84	3409
870.97	3279
871.1	3275
871.23	3473
871.36	3454
871.489	3340
871.619	3359
871.749	3393
871.879	3428
872.008	3439
872.138	3363
872.267	3233
872.397	3112
872.526	3081
872.656	3009
872.785	3097
872.915	3253
873.044	3279
873.173	3222
873.303	3275
873.432	3230
873.561	3222
873.69	3169
873.819	3165
873.948	3173
874.077	3112
874.206	3047
874.335	3062
874.464	3195
874.593	3359
874.722	3249
874.851	3409
874.979	3332
875.108	3317
875.237	3199
875.365	3176
875.494	3138
875.623	3218
875.751	3070
875.88	3093
876.008	3176
876.136	3188
876.265	3344
876.393	3447
876.521	3389
876.65	3374
876.778	3310
876.906	3253
877.034	3199
877.162	3230
877.29	3154
877.418	3241
877.546	3245
877.674	3230
877.802	3260
877.93	3218
878.058	3146
878.185	3085
878.313	3188
878.441	3199
878.568	3093
878.696	3123
878.824	3260
878.951	3306
879.079	3450
879.206	3663
879.333	3397
879.461	3306
879.588	3313
879.715	3507
879.842	3587
879.97	3355
880.097	3195
880.224	3150
880.351	3203
880.478	3203
880.605	3176
880.732	3169
880.859	3462
880.986	3317
881.112	3310
881.239	3226
881.366	3100
881.493	3047
881.619	3009
881.746	3074
881.872	3104
881.999	3131
882.125	3157
882.252	3237
882.378	3260
882.505	3412
882.631	3256
882.757	3123
882.883	3176
883.01	3211
883.136	3173
883.262	3089
883.388	3116
883.514	3313
883.64	3344
883.766	3313
883.892	3184
884.018	3249
884.143	3393
884.269	3526
884.395	3226
884.52	3165
884.646	3176
884.772	3142
884.897	3119
885.023	3199
885.148	3332
885.274	3431
885.399	3359
885.524	3260
885.65	3245
885.775	3291
885.9	3279
886.025	3412
886.15	3313
886.275	3283
886.4	3241
886.525	3291
886.65	3253
886.775	3256
886.9	3485
887.025	3614
887.149	3401
887.274	3272
887.399	3180
887.523	3154
887.648	3188
887.773	3199
887.897	3355
888.021	3416
888.146	3264
888.27	3378
888.395	3530
888.519	3439
888.643	3443
888.767	3447
888.891	3332
889.015	3233
889.139	3287
889.263	3214
889.387	3405
889.511	3500
889.635	3447
889.759	3279
889.883	3268
890.006	3386
890.13	3500
890.254	3241
890.377	3348
890.501	3157
890.624	3180
890.748	3306
890.871	3112
890.995	3100
891.118	3047
891.241	3214
891.364	3222
891.488	3313
891.611	3195
891.734	3218
891.857	3272
891.98	3211
892.103	3325
892.226	3283
892.349	3222
892.471	3116
892.594	3203
892.717	3294
892.839	3211
892.962	3279
893.085	3321
893.207	3287
893.33	3135
893.452	3192
893.575	3348
893.697	3264
893.819	3473
893.941	3469
894.064	3405
894.186	3275
894.308	3260
894.43	3443
894.552	3538
894.674	3488
894.796	3249
894.918	3287
895.04	3302
895.161	3389
895.283	3363
895.405	3291
895.526	3329
895.648	3401
895.769	3439
895.891	3477
896.012	3458
896.134	3462
896.255	3447
896.376	3344
896.498	3359
896.619	3416
896.74	3348
896.861	3374
896.982	3686
897.103	3816
897.224	3561
897.345	3443
897.466	3443
897.587	3488
897.708	3610
897.828	3553
897.949	3431
898.07	3306
898.19	3412
898.311	3610
898.431	3409
898.552	3542
898.672	3610
898.792	3599
898.913	3473
899.033	3420
899.153	3268
899.273	3199
899.393	3275
899.513	3268
899.633	3310
899.753	3363
899.873	3256
899.993	3363
900.113	3298
900.232	3393
900.352	3340
900.472	3268
900.591	3226
900.711	3272
900.83	3233
900.95	3363
901.069	3496
901.189	3389
901.308	3161
901.427	3131
901.546	3211
901.665	3253
901.784	3283
901.904	3226
902.023	3123
902.141	2994
902.26	2952
902.379	3131
902.498	3097
902.617	3062
902.735	3214
902.854	3256
902.973	3222
903.091	3032
903.21	3074
903.328	3097
903.446	3062
903.565	3062
903.683	3195
903.801	3123
903.919	3214
904.038	3268
904.156	3135
904.274	3294
904.392	3195
904.51	3306
904.627	3313
904.745	3428
904.863	3473
904.981	3249
905.098	3154
905.216	3222
905.334	3287
905.451	3291
905.569	3325
905.686	3416
905.803	3405
905.921	3313
906.038	3412
906.155	3313
906.272	3230
906.389	3336
906.506	3188
906.623	3211
906.74	3237
906.857	3154
906.974	3218
907.091	3435
907.208	3542
907.324	3462
907.441	3348
907.557	3211
907.674	3214
907.79	3222
907.907	3237
908.023	3344
908.139	3382
908.256	3340
908.372	3332
908.488	3344
908.604	3214
908.72	3233
908.836	3249
908.952	3283
909.068	3344
909.184	3477
909.3	3393
909.415	3500
909.531	3473
909.647	3237
909.762	3287
909.878	3275
909.993	3344
910.108	3313
910.224	3351
910.339	3378
910.454	3351
910.57	3313
910.685	3256
910.8	3591
910.915	3538
911.03	3462
911.145	3260
911.259	3249
911.374	3340
911.489	3272
911.604	3237
911.718	3108
911.833	3176
911.947	3062
912.062	3024
912.176	3188
912.291	3195
912.405	3222
912.519	3401
912.633	3447
912.748	3348
912.862	3313
912.976	3188
913.09	3119
913.204	3161
913.318	3237
913.431	3370
913.545	3367
913.659	3412
913.772	3370
913.886	3249
914	3237
914.113	3367
914.226	3481
914.34	3397
914.453	3249
914.566	3405
914.68	3313
914.793	3367
914.906	3173
915.019	3157
915.132	3093
915.245	3195
915.358	3256
915.47	3264
915.583	3329
915.696	3374
915.809	3450
915.921	3469
916.034	3268
916.146	3268
916.259	3218
916.371	3454
916.483	3428
916.595	3344
916.708	3340
916.82	3355
916.932	3386
917.044	3378
917.156	3389
917.268	3336
917.38	3340
917.491	3329
917.603	3397
917.715	3485
917.826	3473
917.938	3416
918.049	3348
918.161	3450
918.272	3610
918.384	3576
918.495	3542
918.606	3382
918.717	3317
918.828	3393
918.939	3416
919.05	3310
919.161	3397
919.272	3245
919.383	3291
919.494	3542
919.604	3698
919.715	3557
919.826	3389
919.936	3515
920.047	3610
920.157	3599
920.267	3804
920.378	3648
920.488	3610
920.598	3827
920.708	3998
920.818	3831
920.928	3842
921.038	4044
921.148	4006
921.258	3755
921.368	3644
921.477	3606
921.587	3549
921.697	3507
921.806	3705
921.916	3580
922.025	3409
922.134	3405
922.244	3332
922.353	3454
922.462	3317
922.571	3260
922.68	3131
922.789	3100
922.898	3165
923.007	3108
923.116	3268
923.224	3230
923.333	3184
923.442	3123
923.55	3116
923.659	3214
923.767	3283
923.876	3173
923.984	3256
924.092	3146
924.201	3214
924.309	3241
924.417	3287
924.525	3188
924.633	3264
924.741	4055
924.849	3097
924.956	3264
925.064	3123
925.172	3058
925.279	3138
925.387	3230
925.494	3222
925.602	3386
925.709	3370
925.816	3218
925.924	3313
926.031	3359
926.138	3386
926.245	3458
926.352	3298
926.459	3462
926.566	3526
926.673	3325
926.779	3268
926.886	3272
926.993	3150
927.099	3188
927.206	3146
927.312	3176
927.419	3211
927.525	3218
927.631	3287
927.737	3192
927.843	3199
927.95	3058
928.056	3169
928.162	3150
928.267	3245
928.373	3903
928.479	3370
928.585	3074
928.69	3253
928.796	3268
928.901	3161
929.007	3074
929.112	3245
929.218	3180
929.323	3173
929.428	3161
929.533	3332
929.638	3161
929.743	3199
929.848	3279
929.953	3268
930.058	3211
930.163	3032
930.267	3108
930.372	3207
930.477	3055
930.581	3344
930.685	3226
930.79	3104
930.894	3135
930.998	3146
931.103	3329
931.207	3017
931.311	3009
931.415	2990
931.519	2804
931.623	2830
