Data from test_V78500241_1525.txt Node
Date: Fri Mar 25 16:25:46 CST 2022
User: usil
Spectrometer: V785-0024
Trigger mode: 0
Integration Time (sec): 4.000000E-1
Scans to average: 1
Nonlinearity correction enabled: false
Boxcar width: 0
Storing dark spectrum: false
XAxis mode: Wavelengths
Number of Pixels in Spectrum: 1024
>>>>>Begin Spectral Data<<<<<
801.071	2944
801.214	2922
801.356	2914
801.499	2922
801.641	2899
801.783	2925
801.926	3085
802.068	2994
802.211	2990
802.353	3028
802.496	3024
802.638	3013
802.78	3058
802.923	3146
803.065	3028
803.208	2944
803.35	2971
803.492	2922
803.635	2960
803.777	2773
803.919	2861
804.061	3237
804.204	2948
804.346	2922
804.488	2849
804.63	3036
804.773	2895
804.915	2925
805.057	3104
805.199	2929
805.341	2982
805.483	3039
805.626	3005
805.768	2979
805.91	3074
806.052	3085
806.194	3032
806.336	3253
806.478	3020
806.62	2998
806.762	2990
806.904	3062
807.046	3180
807.188	3005
807.33	2910
807.472	2975
807.614	2891
807.756	2990
807.898	2918
808.04	2941
808.182	2986
808.324	2975
808.465	2925
808.607	2899
808.749	2823
808.891	2895
809.033	3009
809.174	3036
809.316	2914
809.458	2899
809.6	2788
809.741	2811
809.883	2804
810.025	2849
810.166	2895
810.308	2838
810.45	2887
810.591	2815
810.733	2777
810.875	2891
811.016	2819
811.158	2766
811.299	2807
811.441	2952
811.582	2918
811.724	2853
811.865	2842
812.007	2944
812.148	2906
812.29	2876
812.431	2918
812.573	2956
812.714	2979
812.855	3051
812.997	3047
813.138	3150
813.279	3024
813.421	3005
813.562	3043
813.703	2887
813.845	2910
813.986	2823
814.127	2754
814.268	2861
814.41	2876
814.551	2830
814.692	2872
814.833	2834
814.974	2929
815.115	2994
815.256	2864
815.397	2838
815.539	2902
815.68	2792
815.821	2811
815.962	2960
816.103	2960
816.244	2895
816.385	2887
816.526	2982
816.666	2933
816.807	2785
816.948	2902
817.089	2933
817.23	2868
817.371	2804
817.512	2819
817.653	2876
817.793	2861
817.934	2895
818.075	2956
818.216	2948
818.356	3024
818.497	2922
818.638	2811
818.778	2819
818.919	2815
819.06	2746
819.2	2899
819.341	2830
819.481	2823
819.622	2960
819.762	3085
819.903	3028
820.043	2960
820.184	2914
820.324	2895
820.465	3028
820.605	3024
820.746	3074
820.886	2960
821.026	3108
821.167	3138
821.307	3283
821.447	3313
821.588	3287
821.728	3230
821.868	3192
822.008	3097
822.149	3233
822.289	3256
822.429	3123
822.569	3119
822.709	3154
822.849	3032
822.99	3081
823.13	3165
823.27	3211
823.41	3097
823.55	3176
823.69	3150
823.83	3211
823.97	3058
824.11	2986
824.25	2986
824.389	3081
824.529	3119
824.669	3066
824.809	3268
824.949	3275
825.089	3226
825.228	3161
825.368	3043
825.508	2971
825.648	2963
825.787	3001
825.927	3017
826.067	3013
826.206	2948
826.346	3055
826.485	3058
826.625	3112
826.765	3283
826.904	3237
827.044	3032
827.183	2941
827.323	2883
827.462	3005
827.601	2937
827.741	2952
827.88	3024
828.02	2842
828.159	3043
828.298	3047
828.437	3112
828.577	3081
828.716	3264
828.855	3055
828.994	2929
829.134	2948
829.273	2937
829.412	2891
829.551	2914
829.69	2937
829.829	2994
829.968	3142
830.107	3017
830.246	3032
830.385	2918
830.524	2929
830.663	2834
830.802	2735
830.941	2663
831.08	2674
831.219	2746
831.357	2758
831.496	2960
831.635	2762
831.774	2629
831.913	2644
832.051	2579
832.19	2610
832.329	2663
832.467	2552
832.606	2488
832.744	2568
832.883	2602
833.022	2579
833.16	2667
833.299	2693
833.437	2693
833.576	2720
833.714	2735
833.852	2750
833.991	2804
834.129	2845
834.267	2838
834.406	2845
834.544	2868
834.682	2918
834.821	2861
834.959	3043
835.097	2895
835.235	3051
835.373	3001
835.511	3036
835.65	2971
835.788	2956
835.926	2872
836.064	2811
836.202	2887
836.34	3116
836.478	3135
836.615	3100
836.753	3116
836.891	3233
837.029	3150
837.167	3116
837.305	3093
837.443	3077
837.58	2956
837.718	3157
837.856	3100
837.993	3043
838.131	3150
838.269	3097
838.406	3123
838.544	3081
838.681	2952
838.819	2902
838.956	2826
839.094	2823
839.231	2929
839.369	3047
839.506	3389
839.643	3226
839.781	3017
839.918	2986
840.055	3039
840.193	3077
840.33	3077
840.467	3085
840.604	3146
840.742	3401
840.879	3047
841.016	3070
841.153	3104
841.29	3329
841.427	3336
841.564	3260
841.701	3321
841.838	3268
841.975	3173
842.112	3203
842.249	3074
842.385	3074
842.522	3268
842.659	3070
842.796	3043
842.933	3131
843.069	3043
843.206	3062
843.343	3180
843.479	3135
843.616	3131
843.752	2925
843.889	2876
844.025	3100
844.162	2883
844.298	3039
844.435	2960
844.571	2933
844.708	3100
844.844	3192
844.98	3260
845.117	3192
845.253	3089
845.389	3047
845.525	3077
845.661	3100
845.798	3036
845.934	3131
846.07	3017
846.206	3222
846.342	3268
846.478	3294
846.614	3097
846.75	3093
846.886	3070
847.022	3264
847.158	3127
847.294	3184
847.429	3233
847.565	3192
847.701	3469
847.837	3043
847.972	2998
848.108	3165
848.244	3169
848.379	2975
848.515	2948
848.65	2956
848.786	2982
848.921	3001
849.057	3081
849.192	3131
849.328	3058
849.463	3119
849.598	3070
849.734	3062
849.869	2975
850.004	2895
850.14	2971
850.275	2895
850.41	2849
850.545	2861
850.68	2963
850.815	2982
850.95	2960
851.085	3207
851.22	3108
851.355	3032
851.49	2986
851.625	2971
851.76	2990
851.895	2922
852.03	2933
852.165	3047
852.299	3104
852.434	3211
852.569	3119
852.703	3199
852.838	3237
852.973	3355
853.107	3325
853.242	3173
853.376	3062
853.511	2956
853.645	3039
853.78	3256
853.914	3127
854.048	3100
854.183	3074
854.317	3138
854.451	3340
854.585	3131
854.72	3093
854.854	3214
854.988	3100
855.122	3127
855.256	2975
855.39	3138
855.524	3237
855.658	3230
855.792	3165
855.926	3195
856.06	3222
856.194	3306
856.327	3188
856.461	3104
856.595	3108
856.729	3108
856.862	3230
856.996	3184
857.13	3211
857.263	3264
857.397	3340
857.53	3154
857.664	3241
857.797	3253
857.931	3275
858.064	3188
858.197	3249
858.331	3176
858.464	3104
858.597	3036
858.731	3188
858.864	3180
858.997	3077
859.13	3192
859.263	3203
859.396	3264
859.529	3142
859.662	3112
859.795	3100
859.928	3165
860.061	3325
860.194	3325
860.327	3157
860.46	3142
860.592	3298
860.725	3306
860.858	3272
860.99	3146
861.123	3093
861.256	3097
861.388	3154
861.521	3934
861.653	3081
861.786	3013
861.918	3032
862.05	3097
862.183	3116
862.315	3176
862.447	3237
862.58	3127
862.712	2982
862.844	2933
862.976	3051
863.108	3074
863.24	3351
863.372	2895
863.504	3005
863.636	3013
863.768	3058
863.9	2963
864.032	2960
864.164	2975
864.296	3055
864.428	3116
864.559	3138
864.691	3131
864.823	3062
864.954	3055
865.086	3093
865.217	3058
865.349	3005
865.48	3020
865.612	3043
865.743	3169
865.875	3001
866.006	2986
866.137	3017
866.269	2963
866.4	2994
866.531	2925
866.662	2922
866.793	2929
866.924	2944
867.055	2994
867.186	2952
867.317	2948
867.448	2872
867.579	2883
867.71	2906
867.841	2868
867.972	2937
868.103	2937
868.233	2925
868.364	2899
868.495	2914
868.625	3112
868.756	3180
868.886	3020
869.017	3062
869.147	3214
869.278	3176
869.408	3077
869.539	3081
869.669	3116
869.799	3081
869.929	3180
870.06	3161
870.19	3363
870.32	3294
870.45	3355
870.58	3435
870.71	3492
870.84	3469
870.97	3332
871.1	3291
871.23	3519
871.36	3443
871.489	3370
871.619	3389
871.749	3416
871.879	3462
872.008	3515
872.138	3420
872.267	3321
872.397	3157
872.526	3116
872.656	3036
872.785	3161
872.915	3279
873.044	3374
873.173	3256
873.303	3264
873.432	3264
873.561	3230
873.69	3180
873.819	3180
873.948	3245
874.077	3104
874.206	3077
874.335	3123
874.464	3237
874.593	3363
874.722	3283
874.851	3424
874.979	3348
875.108	3340
875.237	3218
875.365	3199
875.494	3195
875.623	3291
875.751	3108
875.88	3127
876.008	3230
876.136	3275
876.265	3405
876.393	3576
876.521	3443
876.65	3435
876.778	3367
876.906	3272
877.034	3241
877.162	3321
877.29	3214
877.418	3275
877.546	3275
877.674	3264
877.802	3192
877.93	3241
878.058	3188
878.185	3131
878.313	3249
878.441	3268
878.568	3104
878.696	3157
878.824	3291
878.951	3279
879.079	3466
879.206	3648
879.333	3454
879.461	3389
879.588	3386
879.715	3515
879.842	3610
879.97	3393
880.097	3207
880.224	3161
880.351	3233
880.478	3253
880.605	3237
880.732	3233
880.859	3530
880.986	3351
881.112	3329
881.239	3249
881.366	3112
881.493	3097
881.619	3036
881.746	3081
881.872	3123
881.999	3146
882.125	3192
882.252	3298
882.378	3336
882.505	3443
882.631	3298
882.757	3169
882.883	3256
883.01	3245
883.136	3207
883.262	3138
883.388	3169
883.514	3359
883.64	3393
883.766	3355
883.892	3211
884.018	3291
884.143	3393
884.269	3564
884.395	3253
884.52	3161
884.646	3207
884.772	3173
884.897	3123
885.023	3211
885.148	3336
885.274	3458
885.399	3370
885.524	3272
885.65	3298
885.775	3355
885.9	3321
886.025	3454
886.15	3386
886.275	3298
886.4	3268
886.525	3317
886.65	3325
886.775	3256
886.9	3469
887.025	3667
887.149	3409
887.274	3283
887.399	3279
887.523	3230
887.648	3173
887.773	3211
887.897	3351
888.021	3458
888.146	3302
888.27	3504
888.395	3534
888.519	3435
888.643	3466
888.767	3473
888.891	3332
889.015	3268
889.139	3351
889.263	3294
889.387	3450
889.511	3507
889.635	3488
889.759	3275
889.883	3355
890.006	3401
890.13	3496
890.254	3325
890.377	3416
890.501	3195
890.624	3176
890.748	3306
890.871	3214
890.995	3127
891.118	3032
891.241	3207
891.364	3226
891.488	3332
891.611	3165
891.734	3272
891.857	3264
891.98	3260
892.103	3382
892.226	3287
892.349	3237
892.471	3135
892.594	3256
892.717	3313
892.839	3298
892.962	3317
893.085	3336
893.207	3313
893.33	3150
893.452	3233
893.575	3355
893.697	3291
893.819	3485
893.941	3488
894.064	3447
894.186	3313
894.308	3313
894.43	3458
894.552	3545
894.674	3485
894.796	3321
894.918	3340
895.04	3317
895.161	3504
895.283	3409
895.405	3325
895.526	3382
895.648	3420
895.769	3443
895.891	3485
896.012	3481
896.134	3519
896.255	3447
896.376	3389
896.498	3401
896.619	3416
896.74	3397
896.861	3397
896.982	3698
897.103	3907
897.224	3618
897.345	3515
897.466	3462
897.587	3515
897.708	3641
897.828	3587
897.949	3450
898.07	3355
898.19	3431
898.311	3614
898.431	3443
898.552	3549
898.672	3599
898.792	3603
898.913	3523
899.033	3409
899.153	3306
899.273	3272
899.393	3283
899.513	3351
899.633	3332
899.753	3382
899.873	3332
899.993	3359
900.113	3370
900.232	3409
900.352	3389
900.472	3332
900.591	3233
900.711	3325
900.83	3260
900.95	3424
901.069	3534
901.189	3397
901.308	3214
901.427	3142
901.546	3245
901.665	3329
901.784	3382
901.904	3241
902.023	3195
902.141	3028
902.26	3051
902.379	3173
902.498	3085
902.617	3081
902.735	3207
902.854	3233
902.973	3253
903.091	3055
903.21	3089
903.328	3161
903.446	3108
903.565	3104
903.683	3230
903.801	3142
903.919	3256
904.038	3325
904.156	3154
904.274	3302
904.392	3268
904.51	3283
904.627	3351
904.745	3443
904.863	3542
904.981	3275
905.098	3207
905.216	3211
905.334	3294
905.451	3302
905.569	3298
905.686	3485
905.803	3504
905.921	3359
906.038	3450
906.155	3355
906.272	3275
906.389	3374
906.506	3233
906.623	3275
906.74	3275
906.857	3214
906.974	3272
907.091	3447
907.208	3568
907.324	3466
907.441	3412
907.557	3256
907.674	3264
907.79	3260
907.907	3279
908.023	3378
908.139	3386
908.256	3359
908.372	3378
908.488	3363
908.604	3264
908.72	3245
908.836	3298
908.952	3332
909.068	3351
909.184	3526
909.3	3412
909.415	3515
909.531	3507
909.647	3233
909.762	3298
909.878	3272
909.993	3367
910.108	3344
910.224	3355
910.339	3458
910.454	3386
910.57	3306
910.685	3253
910.8	3538
910.915	3561
911.03	3447
911.145	3256
911.259	3291
911.374	3317
911.489	3237
911.604	3230
911.718	3135
911.833	3199
911.947	3055
912.062	2998
912.176	3176
912.291	3230
912.405	3268
912.519	3439
912.633	3450
912.748	3363
912.862	3294
912.976	3169
913.09	3097
913.204	3184
913.318	3260
913.431	3389
913.545	3370
913.659	3412
913.772	3405
913.886	3241
914	3203
914.113	3363
914.226	3450
914.34	3363
914.453	3218
914.566	3405
914.68	3298
914.793	3302
914.906	3154
915.019	3123
915.132	3116
915.245	3165
915.358	3207
915.47	3241
915.583	3275
915.696	3310
915.809	3409
915.921	3443
916.034	3272
916.146	3279
916.259	3237
916.371	3401
916.483	3420
916.595	3325
916.708	3321
916.82	3382
916.932	3370
917.044	3401
917.156	3370
917.268	3283
917.38	3306
917.491	3310
917.603	3409
917.715	3409
917.826	3481
917.938	3397
918.049	3298
918.161	3412
918.272	3603
918.384	3553
918.495	3519
918.606	3317
918.717	3249
918.828	3401
918.939	3412
919.05	3329
919.161	3386
919.272	3199
919.383	3294
919.494	3507
919.604	3740
919.715	3496
919.826	3424
919.936	3507
920.047	3610
920.157	3557
920.267	3778
920.378	3606
920.488	3584
920.598	3804
920.708	3972
920.818	3812
920.928	3789
921.038	4044
921.148	4013
921.258	3740
921.368	3648
921.477	3564
921.587	3519
921.697	3435
921.806	3618
921.916	3511
922.025	3351
922.134	3351
922.244	3310
922.353	3450
922.462	3310
922.571	3207
922.68	3085
922.789	3093
922.898	3138
923.007	3108
923.116	3222
923.224	3195
923.333	3192
923.442	3116
923.55	3112
923.659	3161
923.767	3226
923.876	3104
923.984	3237
924.092	3062
924.201	3199
924.309	3253
924.417	3249
924.525	3222
924.633	3253
924.741	4188
924.849	3062
924.956	3279
925.064	3108
925.172	3081
925.279	3097
925.387	3195
925.494	3222
925.602	3386
925.709	3359
925.816	3192
925.924	3287
926.031	3367
926.138	3313
926.245	3351
926.352	3268
926.459	3405
926.566	3488
926.673	3310
926.779	3272
926.886	3249
926.993	3127
927.099	3112
927.206	3104
927.312	3138
927.419	3245
927.525	3207
927.631	3279
927.737	3199
927.843	3138
927.95	3020
928.056	3184
928.162	3192
928.267	3260
928.373	3755
928.479	3310
928.585	3043
928.69	3245
928.796	3283
928.901	3199
929.007	3062
929.112	3226
929.218	3195
929.323	3154
929.428	3165
929.533	3310
929.638	3157
929.743	3161
929.848	3249
929.953	3260
930.058	3131
930.163	3024
930.267	3043
930.372	3241
930.477	3036
930.581	3336
930.685	3195
930.79	3074
930.894	3104
930.998	3097
931.103	3275
931.207	2948
931.311	2952
931.415	2922
931.519	2781
931.623	2826
