Data from test_V78500241_1056.txt Node
Date: Fri Mar 25 16:22:31 CST 2022
User: usil
Spectrometer: V785-0024
Trigger mode: 0
Integration Time (sec): 4.000000E-1
Scans to average: 1
Nonlinearity correction enabled: false
Boxcar width: 0
Storing dark spectrum: false
XAxis mode: Wavelengths
Number of Pixels in Spectrum: 1024
>>>>>Begin Spectral Data<<<<<
801.071	2910
801.214	2910
801.356	2868
801.499	2880
801.641	2876
801.783	2910
801.926	3039
802.068	2982
802.211	3013
802.353	3028
802.496	2925
802.638	3005
802.78	3039
802.923	3081
803.065	2982
803.208	2845
803.35	2887
803.492	2895
803.635	2922
803.777	2750
803.919	2838
804.061	3176
804.204	2941
804.346	2929
804.488	2861
804.63	3005
804.773	2845
804.915	2876
805.057	3074
805.199	2910
805.341	2956
805.483	3036
805.626	2979
805.768	2979
805.91	3093
806.052	3100
806.194	3058
806.336	3211
806.478	3036
806.62	2971
806.762	2990
806.904	3058
807.046	3184
807.188	2975
807.33	2895
807.472	3020
807.614	2880
807.756	2967
807.898	2922
808.04	2887
808.182	2960
808.324	2929
808.465	2864
808.607	2861
808.749	2811
808.891	2830
809.033	2944
809.174	2994
809.316	2861
809.458	2849
809.6	2762
809.741	2788
809.883	2762
810.025	2834
810.166	2842
810.308	2845
810.45	2842
810.591	2777
810.733	2754
810.875	2845
811.016	2788
811.158	2762
811.299	2777
811.441	2925
811.582	2933
811.724	2815
811.865	2804
812.007	2906
812.148	2883
812.29	2842
812.431	2918
812.573	2918
812.714	2979
812.855	3036
812.997	3062
813.138	3093
813.279	3024
813.421	2960
813.562	2944
813.703	2842
813.845	2872
813.986	2796
814.127	2754
814.268	2788
814.41	2891
814.551	2811
814.692	2845
814.833	2830
814.974	2861
815.115	2929
815.256	2853
815.397	2861
815.539	2861
815.68	2800
815.821	2819
815.962	2948
816.103	2887
816.244	2861
816.385	2842
816.526	2971
816.666	2937
816.807	2750
816.948	2918
817.089	2895
817.23	2853
817.371	2796
817.512	2826
817.653	2826
817.793	2785
817.934	2864
818.075	2986
818.216	2944
818.356	3028
818.497	2883
818.638	2796
818.778	2853
818.919	2788
819.06	2785
819.2	2872
819.341	2800
819.481	2807
819.622	2933
819.762	3081
819.903	3039
820.043	2925
820.184	2864
820.324	2880
820.465	2963
820.605	3028
820.746	3028
820.886	2902
821.026	3093
821.167	3154
821.307	3245
821.447	3264
821.588	3222
821.728	3127
821.868	3184
822.008	3047
822.149	3180
822.289	3218
822.429	3135
822.569	3089
822.709	3203
822.849	3039
822.99	3051
823.13	3154
823.27	3195
823.41	3135
823.55	3131
823.69	3150
823.83	3211
823.97	3123
824.11	2986
824.25	2971
824.389	3036
824.529	3112
824.669	3070
824.809	3180
824.949	3195
825.089	3199
825.228	3169
825.368	2975
825.508	2975
825.648	2929
825.787	2994
825.927	3039
826.067	3005
826.206	2944
826.346	3028
826.485	3047
826.625	3089
826.765	3241
826.904	3176
827.044	2967
827.183	2902
827.323	2842
827.462	2948
827.601	2876
827.741	2941
827.88	2956
828.02	2838
828.159	2948
828.298	3001
828.437	3089
828.577	3036
828.716	3241
828.855	3051
828.994	2918
829.134	2842
829.273	2922
829.412	2861
829.551	2868
829.69	2910
829.829	2975
829.968	3127
830.107	2990
830.246	3032
830.385	2929
830.524	2857
830.663	2792
830.802	2758
830.941	2640
831.08	2644
831.219	2735
831.357	2724
831.496	2986
831.635	2716
831.774	2632
831.913	2621
832.051	2537
832.19	2590
832.329	2697
832.467	2556
832.606	2473
832.744	2602
832.883	2575
833.022	2571
833.16	2636
833.299	2655
833.437	2689
833.576	2659
833.714	2716
833.852	2697
833.991	2781
834.129	2819
834.267	2826
834.406	2750
834.544	2864
834.682	2891
834.821	2880
834.959	3070
835.097	2845
835.235	3043
835.373	2986
835.511	2971
835.65	2971
835.788	2963
835.926	2842
836.064	2823
836.202	2842
836.34	3108
836.478	3089
836.615	3066
836.753	3150
836.891	3207
837.029	3161
837.167	3104
837.305	3089
837.443	2994
837.58	2975
837.718	3093
837.856	3047
837.993	3020
838.131	3081
838.269	3116
838.406	3066
838.544	3085
838.681	2937
838.819	2929
838.956	2781
839.094	2838
839.231	2922
839.369	2982
839.506	3389
839.643	3218
839.781	3001
839.918	2948
840.055	3039
840.193	3039
840.33	3066
840.467	3058
840.604	3173
840.742	3355
840.879	3020
841.016	3085
841.153	3089
841.29	3306
841.427	3279
841.564	3294
841.701	3306
841.838	3214
841.975	3173
842.112	3169
842.249	3085
842.385	3020
842.522	3241
842.659	3074
842.796	3028
842.933	3108
843.069	3047
843.206	3028
843.343	3165
843.479	3104
843.616	3108
843.752	2872
843.889	2853
844.025	3020
844.162	2842
844.298	3077
844.435	2944
844.571	2902
844.708	3100
844.844	3184
844.98	3241
845.117	3192
845.253	2998
845.389	3024
845.525	3097
845.661	3108
845.798	2982
845.934	3112
846.07	3039
846.206	3214
846.342	3355
846.478	3226
846.614	3116
846.75	3028
846.886	3020
847.022	3249
847.158	3100
847.294	3192
847.429	3237
847.565	3188
847.701	3424
847.837	3036
847.972	3017
848.108	3173
848.244	3116
848.379	2971
848.515	2925
848.65	2952
848.786	2967
848.921	3017
849.057	3116
849.192	3127
849.328	3074
849.463	3097
849.598	3058
849.734	3020
849.869	2963
850.004	2891
850.14	2963
850.275	2902
850.41	2834
850.545	2872
850.68	2967
850.815	2975
850.95	2963
851.085	3176
851.22	3112
851.355	3024
851.49	2952
851.625	3001
851.76	2998
851.895	2933
852.03	2910
852.165	3066
852.299	3100
852.434	3176
852.569	3169
852.703	3119
852.838	3199
852.973	3291
853.107	3340
853.242	3176
853.376	3089
853.511	2952
853.645	3043
853.78	3218
853.914	3104
854.048	3077
854.183	3089
854.317	3154
854.451	3287
854.585	3127
854.72	3074
854.854	3237
854.988	3070
855.122	3085
855.256	2986
855.39	3112
855.524	3249
855.658	3146
855.792	3169
855.926	3176
856.06	3169
856.194	3279
856.327	3142
856.461	3043
856.595	3066
856.729	3097
856.862	3203
856.996	3161
857.13	3169
857.263	3222
857.397	3275
857.53	3100
857.664	3161
857.797	3237
857.931	3249
858.064	3165
858.197	3207
858.331	3131
858.464	3058
858.597	3032
858.731	3081
858.864	3150
858.997	3066
859.13	3157
859.263	3195
859.396	3203
859.529	3081
859.662	3093
859.795	3028
859.928	3112
860.061	3245
860.194	3256
860.327	3093
860.46	3085
860.592	3180
860.725	3249
860.858	3214
860.99	3077
861.123	3047
861.256	3070
861.388	3169
861.521	3785
861.653	2990
861.786	2982
861.918	2982
862.05	3020
862.183	3074
862.315	3131
862.447	3203
862.58	3112
862.712	2963
862.844	2876
862.976	2998
863.108	2975
863.24	3393
863.372	2895
863.504	2941
863.636	2952
863.768	2998
863.9	2967
864.032	2925
864.164	2952
864.296	3013
864.428	3066
864.559	3081
864.691	3085
864.823	3066
864.954	3036
865.086	3020
865.217	2963
865.349	2960
865.48	2975
865.612	3024
865.743	3131
865.875	2986
866.006	2960
866.137	3005
866.269	2925
866.4	2925
866.531	2929
866.662	2899
866.793	2876
866.924	2918
867.055	2956
867.186	2899
867.317	2868
867.448	2823
867.579	2838
867.71	2864
867.841	2807
867.972	2902
868.103	2895
868.233	2899
868.364	2838
868.495	2925
868.625	3051
868.756	3169
868.886	2979
869.017	3036
869.147	3138
869.278	3184
869.408	3009
869.539	3009
869.669	3100
869.799	3024
869.929	3146
870.06	3066
870.19	3306
870.32	3306
870.45	3310
870.58	3367
870.71	3416
870.84	3435
870.97	3317
871.1	3272
871.23	3492
871.36	3416
871.489	3382
871.619	3431
871.749	3397
871.879	3401
872.008	3477
872.138	3367
872.267	3256
872.397	3119
872.526	3070
872.656	3005
872.785	3119
872.915	3230
873.044	3321
873.173	3230
873.303	3260
873.432	3237
873.561	3188
873.69	3135
873.819	3165
873.948	3233
874.077	3085
874.206	3058
874.335	3081
874.464	3195
874.593	3306
874.722	3233
874.851	3359
874.979	3363
875.108	3344
875.237	3199
875.365	3112
875.494	3165
875.623	3241
875.751	3077
875.88	3138
876.008	3165
876.136	3176
876.265	3367
876.393	3545
876.521	3397
876.65	3405
876.778	3302
876.906	3294
877.034	3146
877.162	3245
877.29	3173
877.418	3275
877.546	3264
877.674	3233
877.802	3249
877.93	3264
878.058	3131
878.185	3089
878.313	3184
878.441	3195
878.568	3116
878.696	3142
878.824	3241
878.951	3302
879.079	3435
879.206	3580
879.333	3435
879.461	3302
879.588	3359
879.715	3504
879.842	3564
879.97	3340
880.097	3165
880.224	3100
880.351	3169
880.478	3184
880.605	3180
880.732	3214
880.859	3507
880.986	3302
881.112	3340
881.239	3230
881.366	3074
881.493	3017
881.619	3028
881.746	3058
881.872	3077
881.999	3070
882.125	3135
882.252	3211
882.378	3279
882.505	3439
882.631	3332
882.757	3112
882.883	3211
883.01	3226
883.136	3161
883.262	3089
883.388	3089
883.514	3340
883.64	3355
883.766	3283
883.892	3176
884.018	3237
884.143	3401
884.269	3545
884.395	3226
884.52	3173
884.646	3188
884.772	3119
884.897	3112
885.023	3222
885.148	3291
885.274	3355
885.399	3370
885.524	3283
885.65	3222
885.775	3294
885.9	3275
886.025	3420
886.15	3329
886.275	3287
886.4	3253
886.525	3302
886.65	3268
886.775	3260
886.9	3481
887.025	3637
887.149	3401
887.274	3249
887.399	3165
887.523	3230
887.648	3195
887.773	3165
887.897	3351
888.021	3378
888.146	3317
888.27	3428
888.395	3553
888.519	3370
888.643	3469
888.767	3431
888.891	3298
889.015	3230
889.139	3253
889.263	3253
889.387	3401
889.511	3519
889.635	3412
889.759	3287
889.883	3291
890.006	3359
890.13	3492
890.254	3291
890.377	3272
890.501	3199
890.624	3184
890.748	3249
890.871	3154
890.995	3097
891.118	3070
891.241	3154
891.364	3245
891.488	3340
891.611	3154
891.734	3195
891.857	3260
891.98	3211
892.103	3340
892.226	3264
892.349	3195
892.471	3116
892.594	3253
892.717	3272
892.839	3249
892.962	3317
893.085	3321
893.207	3294
893.33	3138
893.452	3211
893.575	3329
893.697	3268
893.819	3458
893.941	3435
894.064	3439
894.186	3237
894.308	3272
894.43	3401
894.552	3519
894.674	3447
894.796	3302
894.918	3306
895.04	3321
895.161	3435
895.283	3397
895.405	3321
895.526	3336
895.648	3397
895.769	3389
895.891	3424
896.012	3485
896.134	3481
896.255	3382
896.376	3370
896.498	3344
896.619	3443
896.74	3355
896.861	3397
896.982	3667
897.103	3808
897.224	3549
897.345	3477
897.466	3431
897.587	3450
897.708	3614
897.828	3549
897.949	3428
898.07	3344
898.19	3382
898.311	3584
898.431	3454
898.552	3534
898.672	3599
898.792	3584
898.913	3519
899.033	3386
899.153	3291
899.273	3218
899.393	3272
899.513	3340
899.633	3317
899.753	3332
899.873	3313
899.993	3397
900.113	3313
900.232	3382
900.352	3294
900.472	3287
900.591	3188
900.711	3329
900.83	3233
900.95	3420
901.069	3481
901.189	3313
901.308	3165
901.427	3127
901.546	3218
901.665	3306
901.784	3306
901.904	3230
902.023	3131
902.141	3032
902.26	2990
902.379	3085
902.498	3024
902.617	3043
902.735	3199
902.854	3245
902.973	3188
903.091	3028
903.21	3070
903.328	3142
903.446	3157
903.565	3097
903.683	3157
903.801	3093
903.919	3233
904.038	3294
904.156	3173
904.274	3298
904.392	3260
904.51	3310
904.627	3306
904.745	3447
904.863	3462
904.981	3260
905.098	3161
905.216	3249
905.334	3298
905.451	3298
905.569	3310
905.686	3431
905.803	3477
905.921	3268
906.038	3435
906.155	3329
906.272	3279
906.389	3348
906.506	3207
906.623	3249
906.74	3287
906.857	3222
906.974	3222
907.091	3481
907.208	3564
907.324	3454
907.441	3344
907.557	3233
907.674	3226
907.79	3211
907.907	3272
908.023	3389
908.139	3397
908.256	3348
908.372	3370
908.488	3344
908.604	3199
908.72	3233
908.836	3294
908.952	3302
909.068	3329
909.184	3466
909.3	3420
909.415	3496
909.531	3477
909.647	3264
909.762	3245
909.878	3211
909.993	3340
910.108	3313
910.224	3344
910.339	3397
910.454	3325
910.57	3302
910.685	3275
910.8	3584
910.915	3538
911.03	3428
911.145	3272
911.259	3245
911.374	3302
911.489	3253
911.604	3256
911.718	3116
911.833	3169
911.947	3020
912.062	2937
912.176	3154
912.291	3203
912.405	3195
912.519	3439
912.633	3485
912.748	3340
912.862	3287
912.976	3131
913.09	3047
913.204	3138
913.318	3199
913.431	3272
913.545	3329
913.659	3405
913.772	3336
913.886	3226
914	3203
914.113	3351
914.226	3367
914.34	3359
914.453	3203
914.566	3412
914.68	3291
914.793	3298
914.906	3154
915.019	3104
915.132	3058
915.245	3161
915.358	3207
915.47	3203
915.583	3272
915.696	3268
915.809	3367
915.921	3389
916.034	3249
916.146	3245
916.259	3222
916.371	3359
916.483	3351
916.595	3245
916.708	3367
916.82	3351
916.932	3348
917.044	3351
917.156	3329
917.268	3180
917.38	3291
917.491	3253
917.603	3348
917.715	3469
917.826	3454
917.938	3370
918.049	3275
918.161	3447
918.272	3557
918.384	3572
918.495	3485
918.606	3370
918.717	3249
918.828	3386
918.939	3443
919.05	3321
919.161	3405
919.272	3241
919.383	3294
919.494	3500
919.604	3675
919.715	3462
919.826	3462
919.936	3469
920.047	3591
920.157	3553
920.267	3793
920.378	3599
920.488	3591
920.598	3797
920.708	3991
920.818	3865
920.928	3888
921.038	4044
921.148	3987
921.258	3698
921.368	3660
921.477	3625
921.587	3603
921.697	3477
921.806	3698
921.916	3576
922.025	3374
922.134	3393
922.244	3389
922.353	3454
922.462	3302
922.571	3245
922.68	3154
922.789	3112
922.898	3161
923.007	3154
923.116	3241
923.224	3249
923.333	3211
923.442	3203
923.55	3138
923.659	3192
923.767	3245
923.876	3150
923.984	3287
924.092	3119
924.201	3222
924.309	3245
924.417	3283
924.525	3245
924.633	3279
924.741	4238
924.849	3085
924.956	3310
925.064	3135
925.172	3108
925.279	3176
925.387	3226
925.494	3203
925.602	3397
925.709	3397
925.816	3233
925.924	3306
926.031	3435
926.138	3409
926.245	3382
926.352	3317
926.459	3431
926.566	3492
926.673	3401
926.779	3298
926.886	3249
926.993	3161
927.099	3176
927.206	3173
927.312	3184
927.419	3272
927.525	3230
927.631	3291
927.737	3180
927.843	3173
927.95	3066
928.056	3157
928.162	3199
928.267	3294
928.373	3922
928.479	3344
928.585	3108
928.69	3218
928.796	3336
928.901	3154
929.007	3123
929.112	3237
929.218	3188
929.323	3169
929.428	3165
929.533	3351
929.638	3169
929.743	3211
929.848	3268
929.953	3272
930.058	3161
930.163	3074
930.267	3093
930.372	3203
930.477	3070
930.581	3374
930.685	3207
930.79	3085
930.894	3176
930.998	3131
931.103	3306
931.207	2986
931.311	2971
931.415	2963
931.519	2781
931.623	2861
