Data from test_V78500241_1036.txt Node
Date: Fri Mar 25 16:22:22 CST 2022
User: usil
Spectrometer: V785-0024
Trigger mode: 0
Integration Time (sec): 4.000000E-1
Scans to average: 1
Nonlinearity correction enabled: false
Boxcar width: 0
Storing dark spectrum: false
XAxis mode: Wavelengths
Number of Pixels in Spectrum: 1024
>>>>>Begin Spectral Data<<<<<
801.071	2963
801.214	2994
801.356	2918
801.499	2922
801.641	2906
801.783	2933
801.926	3077
802.068	2990
802.211	3051
802.353	3066
802.496	2998
802.638	3032
802.78	3085
802.923	3089
803.065	2998
803.208	2883
803.35	2944
803.492	2967
803.635	2937
803.777	2746
803.919	2857
804.061	3203
804.204	2944
804.346	2899
804.488	2880
804.63	2994
804.773	2883
804.915	2899
805.057	3112
805.199	2944
805.341	2994
805.483	3066
805.626	3005
805.768	2971
805.91	3074
806.052	3112
806.194	3081
806.336	3272
806.478	3066
806.62	2971
806.762	3005
806.904	3066
807.046	3180
807.188	3005
807.33	2910
807.472	3009
807.614	2937
807.756	3020
807.898	2941
808.04	2876
808.182	3009
808.324	2971
808.465	2861
808.607	2849
808.749	2853
808.891	2864
809.033	2998
809.174	2960
809.316	2902
809.458	2902
809.6	2807
809.741	2766
809.883	2777
810.025	2826
810.166	2861
810.308	2876
810.45	2876
810.591	2769
810.733	2739
810.875	2842
811.016	2777
811.158	2739
811.299	2842
811.441	2933
811.582	2891
811.724	2830
811.865	2880
812.007	2918
812.148	2887
812.29	2861
812.431	2887
812.573	2975
812.714	3017
812.855	3051
812.997	3066
813.138	3127
813.279	3028
813.421	2994
813.562	2971
813.703	2849
813.845	2922
813.986	2788
814.127	2743
814.268	2815
814.41	2880
814.551	2811
814.692	2826
814.833	2849
814.974	2868
815.115	2967
815.256	2853
815.397	2849
815.539	2876
815.68	2773
815.821	2781
815.962	2952
816.103	2952
816.244	2895
816.385	2906
816.526	2982
816.666	2937
816.807	2788
816.948	2929
817.089	2925
817.23	2880
817.371	2815
817.512	2804
817.653	2834
817.793	2804
817.934	2941
818.075	2956
818.216	3001
818.356	3036
818.497	2883
818.638	2834
818.778	2834
818.919	2792
819.06	2777
819.2	2891
819.341	2849
819.481	2830
819.622	2918
819.762	3108
819.903	3062
820.043	2929
820.184	2918
820.324	2944
820.465	3009
820.605	3055
820.746	3036
820.886	2929
821.026	3089
821.167	3176
821.307	3253
821.447	3294
821.588	3256
821.728	3207
821.868	3233
822.008	3093
822.149	3138
822.289	3237
822.429	3112
822.569	3093
822.709	3188
822.849	3055
822.99	3081
823.13	3157
823.27	3188
823.41	3112
823.55	3131
823.69	3154
823.83	3211
823.97	3116
824.11	3001
824.25	3005
824.389	3093
824.529	3100
824.669	3138
824.809	3192
824.949	3260
825.089	3207
825.228	3176
825.368	3036
825.508	2956
825.648	2963
825.787	3017
825.927	3039
826.067	2975
826.206	2982
826.346	3005
826.485	3066
826.625	3100
826.765	3268
826.904	3233
827.044	3032
827.183	2948
827.323	2872
827.462	3017
827.601	2937
827.741	2967
827.88	2979
828.02	2872
828.159	2986
828.298	3009
828.437	3138
828.577	3070
828.716	3237
828.855	3074
828.994	2925
829.134	2918
829.273	2929
829.412	2883
829.551	2868
829.69	2910
829.829	2998
829.968	3161
830.107	3032
830.246	3017
830.385	2941
830.524	2899
830.663	2800
830.802	2754
830.941	2655
831.08	2667
831.219	2766
831.357	2781
831.496	2963
831.635	2758
831.774	2678
831.913	2678
832.051	2545
832.19	2644
832.329	2678
832.467	2549
832.606	2507
832.744	2564
832.883	2606
833.022	2583
833.16	2640
833.299	2697
833.437	2708
833.576	2731
833.714	2724
833.852	2743
833.991	2739
834.129	2838
834.267	2857
834.406	2785
834.544	2902
834.682	2906
834.821	2872
834.959	3077
835.097	2902
835.235	3081
835.373	3020
835.511	3047
835.65	2975
835.788	2982
835.926	2868
836.064	2800
836.202	2876
836.34	3093
836.478	3161
836.615	3058
836.753	3184
836.891	3245
837.029	3184
837.167	3157
837.305	3081
837.443	3055
837.58	2990
837.718	3135
837.856	3085
837.993	3055
838.131	3180
838.269	3093
838.406	3066
838.544	3077
838.681	2933
838.819	2956
838.956	2823
839.094	2861
839.231	2922
839.369	3047
839.506	3382
839.643	3207
839.781	3009
839.918	2967
840.055	3097
840.193	3028
840.33	3081
840.467	3081
840.604	3184
840.742	3439
840.879	3093
841.016	3020
841.153	3142
841.29	3344
841.427	3287
841.564	3279
841.701	3348
841.838	3233
841.975	3173
842.112	3211
842.249	3077
842.385	3070
842.522	3249
842.659	3077
842.796	3070
842.933	3112
843.069	3112
843.206	3058
843.343	3188
843.479	3097
843.616	3150
843.752	2937
843.889	2887
844.025	3108
844.162	2853
844.298	3062
844.435	2952
844.571	2960
844.708	3055
844.844	3214
844.98	3249
845.117	3188
845.253	3085
845.389	3013
845.525	3077
845.661	3085
845.798	3032
845.934	3142
846.07	3062
846.206	3237
846.342	3294
846.478	3245
846.614	3127
846.75	3051
846.886	3017
847.022	3264
847.158	3112
847.294	3214
847.429	3294
847.565	3199
847.701	3481
847.837	3055
847.972	3028
848.108	3169
848.244	3154
848.379	2986
848.515	2971
848.65	2941
848.786	2944
848.921	3020
849.057	3104
849.192	3169
849.328	3077
849.463	3108
849.598	3055
849.734	3058
849.869	2948
850.004	2933
850.14	2982
850.275	2944
850.41	2834
850.545	2895
850.68	2956
850.815	2979
850.95	2948
851.085	3195
851.22	3097
851.355	3051
851.49	2990
851.625	2982
851.76	3005
851.895	2944
852.03	2925
852.165	3036
852.299	3097
852.434	3199
852.569	3138
852.703	3188
852.838	3245
852.973	3321
853.107	3344
853.242	3173
853.376	3089
853.511	2975
853.645	3066
853.78	3214
853.914	3154
854.048	3123
854.183	3108
854.317	3184
854.451	3298
854.585	3131
854.72	3108
854.854	3222
854.988	3066
855.122	3074
855.256	2990
855.39	3127
855.524	3249
855.658	3211
855.792	3154
855.926	3188
856.06	3203
856.194	3260
856.327	3142
856.461	3058
856.595	3112
856.729	3058
856.862	3218
856.996	3211
857.13	3157
857.263	3207
857.397	3329
857.53	3100
857.664	3203
857.797	3279
857.931	3230
858.064	3146
858.197	3256
858.331	3104
858.464	3104
858.597	3028
858.731	3123
858.864	3100
858.997	3047
859.13	3138
859.263	3165
859.396	3192
859.529	3116
859.662	3047
859.795	3032
859.928	3169
860.061	3279
860.194	3260
860.327	3112
860.46	3119
860.592	3192
860.725	3249
860.858	3249
860.99	3097
861.123	3089
861.256	3062
861.388	3131
861.521	3827
861.653	3028
861.786	2986
861.918	3005
862.05	3062
862.183	3066
862.315	3161
862.447	3184
862.58	3089
862.712	2941
862.844	2880
862.976	3051
863.108	3039
863.24	3393
863.372	2880
863.504	2967
863.636	2948
863.768	3024
863.9	2971
864.032	2960
864.164	2925
864.296	2994
864.428	3100
864.559	3123
864.691	3066
864.823	3043
864.954	3058
865.086	3051
865.217	2971
865.349	2925
865.48	2986
865.612	3009
865.743	3150
865.875	2975
866.006	2933
866.137	2963
866.269	2967
866.4	2899
866.531	2895
866.662	2910
866.793	2857
866.924	2883
867.055	2963
867.186	2948
867.317	2864
867.448	2842
867.579	2872
867.71	2842
867.841	2830
867.972	2937
868.103	2910
868.233	2910
868.364	2868
868.495	2899
868.625	3058
868.756	3154
868.886	2971
869.017	3039
869.147	3195
869.278	3176
869.408	3062
869.539	3013
869.669	3093
869.799	3055
869.929	3112
870.06	3108
870.19	3302
870.32	3272
870.45	3310
870.58	3359
870.71	3469
870.84	3481
870.97	3287
871.1	3241
871.23	3507
871.36	3443
871.489	3359
871.619	3405
871.749	3389
871.879	3443
872.008	3477
872.138	3351
872.267	3279
872.397	3161
872.526	3100
872.656	3001
872.785	3070
872.915	3260
873.044	3355
873.173	3253
873.303	3241
873.432	3256
873.561	3256
873.69	3184
873.819	3142
873.948	3230
874.077	3097
874.206	3009
874.335	3093
874.464	3207
874.593	3374
874.722	3226
874.851	3359
874.979	3374
875.108	3367
875.237	3203
875.365	3173
875.494	3161
875.623	3222
875.751	3074
875.88	3100
876.008	3176
876.136	3226
876.265	3355
876.393	3507
876.521	3378
876.65	3393
876.778	3321
876.906	3222
877.034	3195
877.162	3264
877.29	3165
877.418	3260
877.546	3268
877.674	3256
877.802	3268
877.93	3184
878.058	3165
878.185	3112
878.313	3188
878.441	3218
878.568	3070
878.696	3146
878.824	3249
878.951	3329
879.079	3420
879.206	3599
879.333	3416
879.461	3329
879.588	3367
879.715	3462
879.842	3644
879.97	3367
880.097	3161
880.224	3142
880.351	3184
880.478	3214
880.605	3180
880.732	3207
880.859	3488
880.986	3317
881.112	3344
881.239	3195
881.366	3108
881.493	3066
881.619	3039
881.746	3074
881.872	3089
881.999	3116
882.125	3123
882.252	3237
882.378	3283
882.505	3386
882.631	3279
882.757	3116
882.883	3207
883.01	3222
883.136	3154
883.262	3074
883.388	3104
883.514	3298
883.64	3382
883.766	3321
883.892	3211
884.018	3241
884.143	3431
884.269	3561
884.395	3195
884.52	3173
884.646	3150
884.772	3119
884.897	3081
885.023	3253
885.148	3313
885.274	3431
885.399	3374
885.524	3272
885.65	3249
885.775	3325
885.9	3260
886.025	3462
886.15	3332
886.275	3256
886.4	3222
886.525	3317
886.65	3279
886.775	3272
886.9	3496
887.025	3633
887.149	3416
887.274	3237
887.399	3230
887.523	3169
887.648	3165
887.773	3211
887.897	3397
888.021	3397
888.146	3291
888.27	3496
888.395	3572
888.519	3435
888.643	3401
888.767	3450
888.891	3253
889.015	3256
889.139	3283
889.263	3264
889.387	3420
889.511	3515
889.635	3462
889.759	3268
889.883	3279
890.006	3378
890.13	3473
890.254	3298
890.377	3302
890.501	3203
890.624	3207
890.748	3317
890.871	3184
890.995	3097
891.118	3032
891.241	3211
891.364	3214
891.488	3279
891.611	3211
891.734	3249
891.857	3287
891.98	3207
892.103	3310
892.226	3291
892.349	3211
892.471	3104
892.594	3253
892.717	3302
892.839	3294
892.962	3283
893.085	3302
893.207	3287
893.33	3157
893.452	3233
893.575	3374
893.697	3268
893.819	3488
893.941	3492
894.064	3428
894.186	3237
894.308	3237
894.43	3397
894.552	3568
894.674	3500
894.796	3253
894.918	3291
895.04	3283
895.161	3454
895.283	3382
895.405	3325
895.526	3367
895.648	3405
895.769	3439
895.891	3439
896.012	3488
896.134	3485
896.255	3428
896.376	3386
896.498	3348
896.619	3405
896.74	3386
896.861	3378
896.982	3663
897.103	3827
897.224	3599
897.345	3500
897.466	3412
897.587	3492
897.708	3614
897.828	3500
897.949	3454
898.07	3344
898.19	3401
898.311	3622
898.431	3416
898.552	3488
898.672	3580
898.792	3606
898.913	3507
899.033	3397
899.153	3302
899.273	3218
899.393	3332
899.513	3310
899.633	3340
899.753	3340
899.873	3298
899.993	3374
900.113	3321
900.232	3405
900.352	3344
900.472	3283
900.591	3214
900.711	3268
900.83	3207
900.95	3374
901.069	3485
901.189	3336
901.308	3165
901.427	3108
901.546	3203
901.665	3306
901.784	3317
901.904	3218
902.023	3192
902.141	3032
902.26	2960
902.379	3123
902.498	3123
902.617	3051
902.735	3226
902.854	3230
902.973	3173
903.091	3047
903.21	3085
903.328	3146
903.446	3112
903.565	3116
903.683	3192
903.801	3116
903.919	3230
904.038	3260
904.156	3112
904.274	3302
904.392	3241
904.51	3294
904.627	3329
904.745	3450
904.863	3504
904.981	3245
905.098	3173
905.216	3237
905.334	3298
905.451	3291
905.569	3306
905.686	3439
905.803	3439
905.921	3287
906.038	3401
906.155	3336
906.272	3268
906.389	3291
906.506	3279
906.623	3245
906.74	3256
906.857	3207
906.974	3253
907.091	3473
907.208	3549
907.324	3477
907.441	3393
907.557	3241
907.674	3275
907.79	3214
907.907	3253
908.023	3374
908.139	3363
908.256	3283
908.372	3367
908.488	3378
908.604	3272
908.72	3245
908.836	3294
908.952	3283
909.068	3332
909.184	3458
909.3	3389
909.415	3519
909.531	3435
909.647	3291
909.762	3306
909.878	3275
909.993	3340
910.108	3348
910.224	3397
910.339	3454
910.454	3355
910.57	3283
910.685	3226
910.8	3606
910.915	3538
911.03	3416
911.145	3241
911.259	3264
911.374	3321
911.489	3226
911.604	3233
911.718	3119
911.833	3180
911.947	3058
912.062	2956
912.176	3138
912.291	3165
912.405	3233
912.519	3466
912.633	3443
912.748	3359
912.862	3256
912.976	3150
913.09	3036
913.204	3142
913.318	3222
913.431	3348
913.545	3336
913.659	3416
913.772	3325
913.886	3268
914	3195
914.113	3367
914.226	3428
914.34	3370
914.453	3203
914.566	3405
914.68	3283
914.793	3283
914.906	3116
915.019	3138
915.132	3055
915.245	3176
915.358	3180
915.47	3195
915.583	3253
915.696	3264
915.809	3370
915.921	3447
916.034	3245
916.146	3226
916.259	3203
916.371	3397
916.483	3378
916.595	3253
916.708	3321
916.82	3321
916.932	3321
917.044	3317
917.156	3340
917.268	3249
917.38	3298
917.491	3325
917.603	3370
917.715	3420
917.826	3469
917.938	3393
918.049	3279
918.161	3424
918.272	3599
918.384	3572
918.495	3511
918.606	3336
918.717	3218
918.828	3393
918.939	3393
919.05	3325
919.161	3370
919.272	3180
919.383	3294
919.494	3485
919.604	3701
919.715	3504
919.826	3386
919.936	3443
920.047	3606
920.157	3492
920.267	3774
920.378	3614
920.488	3568
920.598	3747
920.708	3960
920.818	3835
920.928	3838
921.038	3994
921.148	3975
921.258	3720
921.368	3606
921.477	3641
921.587	3572
921.697	3481
921.806	3656
921.916	3523
922.025	3382
922.134	3355
922.244	3279
922.353	3374
922.462	3249
922.571	3253
922.68	3097
922.789	3093
922.898	3119
923.007	3097
923.116	3218
923.224	3180
923.333	3180
923.442	3097
923.55	3085
923.659	3127
923.767	3157
923.876	3085
923.984	3218
924.092	3123
924.201	3176
924.309	3214
924.417	3256
924.525	3150
924.633	3237
924.741	4223
924.849	3074
924.956	3260
925.064	3104
925.172	3024
925.279	3066
925.387	3165
925.494	3195
925.602	3363
925.709	3359
925.816	3157
925.924	3283
926.031	3397
926.138	3351
926.245	3325
926.352	3218
926.459	3416
926.566	3477
926.673	3279
926.779	3302
926.886	3268
926.993	3161
927.099	3047
927.206	3108
927.312	3146
927.419	3283
927.525	3161
927.631	3230
927.737	3146
927.843	3089
927.95	3017
928.056	3146
928.162	3157
928.267	3245
928.373	3861
928.479	3310
928.585	3051
928.69	3222
928.796	3279
928.901	3146
929.007	3013
929.112	3214
929.218	3169
929.323	3150
929.428	3146
929.533	3287
929.638	3119
929.743	3146
929.848	3237
929.953	3218
930.058	3150
930.163	2990
930.267	3066
930.372	3195
930.477	3028
930.581	3336
930.685	3203
930.79	3077
930.894	3085
930.998	3077
931.103	3340
931.207	2952
931.311	2944
931.415	2941
931.519	2781
931.623	2830
