Data from test_V78500241_1501.txt Node
Date: Fri Mar 25 16:25:36 CST 2022
User: usil
Spectrometer: V785-0024
Trigger mode: 0
Integration Time (sec): 4.000000E-1
Scans to average: 1
Nonlinearity correction enabled: false
Boxcar width: 0
Storing dark spectrum: false
XAxis mode: Wavelengths
Number of Pixels in Spectrum: 1024
>>>>>Begin Spectral Data<<<<<
801.071	2910
801.214	2910
801.356	2861
801.499	2895
801.641	2891
801.783	2914
801.926	3039
802.068	2982
802.211	3032
802.353	3020
802.496	2967
802.638	3024
802.78	3097
802.923	3119
803.065	3005
803.208	2887
803.35	2914
803.492	2952
803.635	2925
803.777	2724
803.919	2876
804.061	3214
804.204	2979
804.346	2929
804.488	2853
804.63	3005
804.773	2876
804.915	2960
805.057	3070
805.199	2933
805.341	2979
805.483	3024
805.626	3005
805.768	2952
805.91	3074
806.052	3116
806.194	3005
806.336	3214
806.478	3066
806.62	2956
806.762	2971
806.904	3051
807.046	3150
807.188	2967
807.33	2906
807.472	2994
807.614	2895
807.756	2990
807.898	2933
808.04	2883
808.182	2986
808.324	2967
808.465	2933
808.607	2857
808.749	2823
808.891	2857
809.033	2960
809.174	2948
809.316	2902
809.458	2895
809.6	2746
809.741	2766
809.883	2781
810.025	2845
810.166	2891
810.308	2834
810.45	2857
810.591	2781
810.733	2773
810.875	2864
811.016	2800
811.158	2788
811.299	2834
811.441	2895
811.582	2914
811.724	2819
811.865	2838
812.007	2906
812.148	2842
812.29	2876
812.431	2845
812.573	2933
812.714	2971
812.855	3028
812.997	3028
813.138	3100
813.279	2967
813.421	2967
813.562	2944
813.703	2838
813.845	2857
813.986	2750
814.127	2739
814.268	2826
814.41	2815
814.551	2811
814.692	2849
814.833	2807
814.974	2872
815.115	2933
815.256	2849
815.397	2800
815.539	2853
815.68	2804
815.821	2811
815.962	2925
816.103	2914
816.244	2876
816.385	2876
816.526	2975
816.666	2887
816.807	2758
816.948	2857
817.089	2925
817.23	2842
817.371	2743
817.512	2823
817.653	2792
817.793	2826
817.934	2891
818.075	2948
818.216	2979
818.356	2998
818.497	2891
818.638	2785
818.778	2815
818.919	2766
819.06	2766
819.2	2891
819.341	2811
819.481	2823
819.622	2975
819.762	3127
819.903	3051
820.043	2918
820.184	2891
820.324	2876
820.465	3009
820.605	3043
820.746	3055
820.886	2933
821.026	3127
821.167	3203
821.307	3279
821.447	3275
821.588	3260
821.728	3222
821.868	3214
822.008	3070
822.149	3214
822.289	3268
822.429	3085
822.569	3100
822.709	3203
822.849	3062
822.99	3074
823.13	3211
823.27	3230
823.41	3131
823.55	3154
823.69	3165
823.83	3237
823.97	3074
824.11	3093
824.25	3032
824.389	3093
824.529	3127
824.669	3108
824.809	3237
824.949	3260
825.089	3241
825.228	3195
825.368	3036
825.508	3001
825.648	3036
825.787	3036
825.927	3009
826.067	2986
826.206	3047
826.346	3055
826.485	3138
826.625	3135
826.765	3310
826.904	3253
827.044	3009
827.183	2960
827.323	2891
827.462	3005
827.601	2963
827.741	2979
827.88	3013
828.02	2925
828.159	3009
828.298	3070
828.437	3173
828.577	3081
828.716	3294
828.855	3138
828.994	2922
829.134	2922
829.273	2971
829.412	2925
829.551	2895
829.69	2944
829.829	3036
829.968	3154
830.107	3066
830.246	3058
830.385	2982
830.524	2937
830.663	2861
830.802	2766
830.941	2720
831.08	2682
831.219	2842
831.357	2800
831.496	2952
831.635	2743
831.774	2659
831.913	2686
832.051	2621
832.19	2625
832.329	2720
832.467	2545
832.606	2545
832.744	2594
832.883	2613
833.022	2644
833.16	2678
833.299	2708
833.437	2731
833.576	2735
833.714	2743
833.852	2773
833.991	2823
834.129	2823
834.267	2868
834.406	2834
834.544	2910
834.682	2914
834.821	2899
834.959	3085
835.097	2925
835.235	3085
835.373	3009
835.511	3070
835.65	2986
835.788	2960
835.926	2883
836.064	2849
836.202	2864
836.34	3127
836.478	3180
836.615	3074
836.753	3173
836.891	3226
837.029	3207
837.167	3123
837.305	3123
837.443	3081
837.58	3005
837.718	3169
837.856	3066
837.993	3043
838.131	3184
838.269	3154
838.406	3135
838.544	3097
838.681	2956
838.819	2963
838.956	2849
839.094	2864
839.231	2979
839.369	3039
839.506	3409
839.643	3272
839.781	3043
839.918	3001
840.055	3085
840.193	3062
840.33	3085
840.467	3119
840.604	3157
840.742	3454
840.879	3100
841.016	3093
841.153	3135
841.29	3374
841.427	3302
841.564	3310
841.701	3329
841.838	3260
841.975	3222
842.112	3249
842.249	3119
842.385	3058
842.522	3313
842.659	3108
842.796	3081
842.933	3157
843.069	3100
843.206	3104
843.343	3279
843.479	3154
843.616	3142
843.752	2922
843.889	2902
844.025	3123
844.162	2906
844.298	3116
844.435	2952
844.571	2937
844.708	3089
844.844	3199
844.98	3230
845.117	3241
845.253	3036
845.389	2998
845.525	3150
845.661	3135
845.798	3013
845.934	3108
846.07	3051
846.206	3245
846.342	3367
846.478	3237
846.614	3077
846.75	3093
846.886	3024
847.022	3264
847.158	3142
847.294	3253
847.429	3272
847.565	3249
847.701	3523
847.837	3039
847.972	2994
848.108	3169
848.244	3180
848.379	3043
848.515	2960
848.65	2963
848.786	2986
848.921	2998
849.057	3085
849.192	3161
849.328	3108
849.463	3119
849.598	3093
849.734	3043
849.869	2990
850.004	2941
850.14	2967
850.275	2922
850.41	2845
850.545	2914
850.68	2975
850.815	2986
850.95	2990
851.085	3211
851.22	3146
851.355	3074
851.49	3017
851.625	3005
851.76	3032
851.895	3005
852.03	2906
852.165	3055
852.299	3131
852.434	3176
852.569	3184
852.703	3192
852.838	3275
852.973	3340
853.107	3355
853.242	3199
853.376	3119
853.511	2998
853.645	3058
853.78	3256
853.914	3173
854.048	3127
854.183	3066
854.317	3188
854.451	3294
854.585	3161
854.72	3112
854.854	3222
854.988	3058
855.122	3100
855.256	3005
855.39	3116
855.524	3241
855.658	3237
855.792	3192
855.926	3188
856.06	3203
856.194	3298
856.327	3154
856.461	3112
856.595	3108
856.729	3108
856.862	3253
856.996	3180
857.13	3199
857.263	3253
857.397	3279
857.53	3157
857.664	3241
857.797	3268
857.931	3321
858.064	3199
858.197	3214
858.331	3176
858.464	3108
858.597	3043
858.731	3157
858.864	3146
858.997	3108
859.13	3192
859.263	3214
859.396	3180
859.529	3123
859.662	3100
859.795	3089
859.928	3173
860.061	3287
860.194	3313
860.327	3165
860.46	3135
860.592	3264
860.725	3279
860.858	3260
860.99	3123
861.123	3024
861.256	3085
861.388	3142
861.521	3846
861.653	3032
861.786	2982
861.918	3036
862.05	3062
862.183	3119
862.315	3154
862.447	3253
862.58	3097
862.712	2960
862.844	2880
862.976	3047
863.108	3032
863.24	3332
863.372	2910
863.504	2967
863.636	2990
863.768	3017
863.9	2998
864.032	2910
864.164	2971
864.296	3036
864.428	3089
864.559	3112
864.691	3108
864.823	3131
864.954	3039
865.086	3036
865.217	3013
865.349	2922
865.48	3013
865.612	3039
865.743	3176
865.875	3020
866.006	2933
866.137	2960
866.269	2971
866.4	2960
866.531	2922
866.662	2922
866.793	2941
866.924	2922
867.055	3009
867.186	2952
867.317	2906
867.448	2853
867.579	2872
867.71	2887
867.841	2823
867.972	2922
868.103	2960
868.233	2887
868.364	2933
868.495	2925
868.625	3131
868.756	3180
868.886	2998
869.017	3009
869.147	3180
869.278	3157
869.408	3032
869.539	3058
869.669	3108
869.799	3020
869.929	3119
870.06	3154
870.19	3336
870.32	3321
870.45	3287
870.58	3367
870.71	3462
870.84	3473
870.97	3321
871.1	3291
871.23	3492
871.36	3416
871.489	3389
871.619	3435
871.749	3405
871.879	3439
872.008	3485
872.138	3405
872.267	3298
872.397	3180
872.526	3146
872.656	3032
872.785	3089
872.915	3233
873.044	3348
873.173	3222
873.303	3272
873.432	3268
873.561	3249
873.69	3176
873.819	3146
873.948	3222
874.077	3123
874.206	3093
874.335	3058
874.464	3214
874.593	3374
874.722	3256
874.851	3393
874.979	3389
875.108	3325
875.237	3207
875.365	3188
875.494	3199
875.623	3279
875.751	3123
875.88	3135
876.008	3222
876.136	3226
876.265	3370
876.393	3530
876.521	3405
876.65	3397
876.778	3355
876.906	3237
877.034	3222
877.162	3218
877.29	3230
877.418	3275
877.546	3279
877.674	3272
877.802	3260
877.93	3203
878.058	3165
878.185	3119
878.313	3237
878.441	3218
878.568	3097
878.696	3176
878.824	3245
878.951	3317
879.079	3454
879.206	3652
879.333	3447
879.461	3348
879.588	3332
879.715	3526
879.842	3614
879.97	3405
880.097	3192
880.224	3142
880.351	3195
880.478	3226
880.605	3184
880.732	3203
880.859	3473
880.986	3325
881.112	3329
881.239	3207
881.366	3077
881.493	3070
881.619	3058
881.746	3055
881.872	3135
881.999	3108
882.125	3192
882.252	3287
882.378	3294
882.505	3431
882.631	3294
882.757	3176
882.883	3218
883.01	3260
883.136	3184
883.262	3100
883.388	3150
883.514	3374
883.64	3363
883.766	3329
883.892	3222
884.018	3253
884.143	3439
884.269	3526
884.395	3298
884.52	3161
884.646	3211
884.772	3169
884.897	3119
885.023	3230
885.148	3340
885.274	3397
885.399	3378
885.524	3313
885.65	3256
885.775	3340
885.9	3291
886.025	3447
886.15	3374
886.275	3317
886.4	3272
886.525	3306
886.65	3264
886.775	3298
886.9	3515
887.025	3648
887.149	3447
887.274	3340
887.399	3192
887.523	3214
887.648	3165
887.773	3203
887.897	3363
888.021	3412
888.146	3291
888.27	3447
888.395	3523
888.519	3439
888.643	3447
888.767	3454
888.891	3363
889.015	3260
889.139	3302
889.263	3253
889.387	3405
889.511	3519
889.635	3477
889.759	3340
889.883	3275
890.006	3363
890.13	3473
890.254	3279
890.377	3321
890.501	3237
890.624	3180
890.748	3298
890.871	3176
890.995	3112
891.118	3062
891.241	3211
891.364	3222
891.488	3310
891.611	3176
891.734	3256
891.857	3329
891.98	3241
892.103	3351
892.226	3294
892.349	3233
892.471	3104
892.594	3222
892.717	3317
892.839	3268
892.962	3283
893.085	3325
893.207	3317
893.33	3138
893.452	3199
893.575	3359
893.697	3245
893.819	3443
893.941	3488
894.064	3454
894.186	3264
894.308	3275
894.43	3477
894.552	3515
894.674	3420
894.796	3268
894.918	3325
895.04	3321
895.161	3424
895.283	3420
895.405	3283
895.526	3367
895.648	3431
895.769	3416
895.891	3519
896.012	3504
896.134	3477
896.255	3431
896.376	3409
896.498	3405
896.619	3424
896.74	3374
896.861	3443
896.982	3690
897.103	3838
897.224	3576
897.345	3492
897.466	3469
897.587	3504
897.708	3648
897.828	3523
897.949	3443
898.07	3363
898.19	3420
898.311	3587
898.431	3454
898.552	3492
898.672	3595
898.792	3606
898.913	3507
899.033	3401
899.153	3291
899.273	3249
899.393	3306
899.513	3317
899.633	3344
899.753	3329
899.873	3272
899.993	3386
900.113	3355
900.232	3382
900.352	3382
900.472	3264
900.591	3214
900.711	3298
900.83	3245
900.95	3397
901.069	3511
901.189	3367
901.308	3165
901.427	3154
901.546	3188
901.665	3329
901.784	3310
901.904	3169
902.023	3157
902.141	3036
902.26	2990
902.379	3146
902.498	3077
902.617	3047
902.735	3146
902.854	3214
902.973	3230
903.091	3055
903.21	3051
903.328	3138
903.446	3184
903.565	3108
903.683	3195
903.801	3138
903.919	3260
904.038	3306
904.156	3146
904.274	3291
904.392	3272
904.51	3287
904.627	3310
904.745	3439
904.863	3504
904.981	3249
905.098	3180
905.216	3241
905.334	3287
905.451	3275
905.569	3279
905.686	3367
905.803	3462
905.921	3291
906.038	3447
906.155	3332
906.272	3260
906.389	3367
906.506	3283
906.623	3287
906.74	3249
906.857	3211
906.974	3233
907.091	3454
907.208	3545
907.324	3507
907.441	3382
907.557	3203
907.674	3245
907.79	3218
907.907	3283
908.023	3409
908.139	3409
908.256	3344
908.372	3389
908.488	3397
908.604	3275
908.72	3275
908.836	3287
908.952	3294
909.068	3363
909.184	3504
909.3	3351
909.415	3504
909.531	3477
909.647	3272
909.762	3283
909.878	3275
909.993	3359
910.108	3336
910.224	3348
910.339	3416
910.454	3351
910.57	3329
910.685	3253
910.8	3606
910.915	3519
911.03	3428
911.145	3256
911.259	3332
911.374	3332
911.489	3272
911.604	3230
911.718	3131
911.833	3131
911.947	3039
912.062	2990
912.176	3161
912.291	3203
912.405	3195
912.519	3466
912.633	3481
912.748	3325
912.862	3275
912.976	3150
913.09	3085
913.204	3131
913.318	3237
913.431	3367
913.545	3344
913.659	3424
913.772	3298
913.886	3249
914	3199
914.113	3374
914.226	3450
914.34	3348
914.453	3188
914.566	3420
914.68	3279
914.793	3310
914.906	3116
915.019	3112
915.132	3058
915.245	3161
915.358	3226
915.47	3291
915.583	3283
915.696	3279
915.809	3454
915.921	3409
916.034	3222
916.146	3211
916.259	3237
916.371	3401
916.483	3405
916.595	3253
916.708	3329
916.82	3367
916.932	3332
917.044	3329
917.156	3370
917.268	3233
917.38	3310
917.491	3325
917.603	3393
917.715	3462
917.826	3439
917.938	3409
918.049	3279
918.161	3420
918.272	3568
918.384	3557
918.495	3500
918.606	3332
918.717	3272
918.828	3397
918.939	3435
919.05	3325
919.161	3389
919.272	3207
919.383	3233
919.494	3507
919.604	3671
919.715	3458
919.826	3397
919.936	3485
920.047	3564
920.157	3561
920.267	3766
920.378	3618
920.488	3549
920.598	3762
920.708	3975
920.818	3808
920.928	3812
921.038	4071
921.148	4059
921.258	3717
921.368	3667
921.477	3603
921.587	3538
921.697	3458
921.806	3622
921.916	3507
922.025	3351
922.134	3344
922.244	3317
922.353	3447
922.462	3291
922.571	3245
922.68	3116
922.789	3077
922.898	3150
923.007	3089
923.116	3230
923.224	3176
923.333	3195
923.442	3108
923.55	3077
923.659	3127
923.767	3211
923.876	3093
923.984	3268
924.092	3108
924.201	3230
924.309	3249
924.417	3264
924.525	3188
924.633	3241
924.741	4044
924.849	3097
924.956	3233
925.064	3131
925.172	3066
925.279	3127
925.387	3211
925.494	3214
925.602	3370
925.709	3302
925.816	3203
925.924	3268
926.031	3397
926.138	3367
926.245	3367
926.352	3272
926.459	3450
926.566	3485
926.673	3348
926.779	3283
926.886	3256
926.993	3131
927.099	3127
927.206	3154
927.312	3116
927.419	3233
927.525	3230
927.631	3245
927.737	3135
927.843	3150
927.95	3024
928.056	3146
928.162	3192
928.267	3256
928.373	3762
928.479	3313
928.585	3039
928.69	3195
928.796	3241
928.901	3165
929.007	3062
929.112	3188
929.218	3207
929.323	3184
929.428	3157
929.533	3329
929.638	3157
929.743	3150
929.848	3260
929.953	3230
930.058	3150
930.163	3017
930.267	3081
930.372	3218
930.477	3062
930.581	3317
930.685	3176
930.79	3028
930.894	3112
930.998	3119
931.103	3275
931.207	2986
931.311	2948
931.415	2914
931.519	2781
931.623	2781
