Data from test_V78500241_1854.txt Node
Date: Fri Mar 25 16:28:02 CST 2022
User: usil
Spectrometer: V785-0024
Trigger mode: 0
Integration Time (sec): 4.000000E-1
Scans to average: 1
Nonlinearity correction enabled: false
Boxcar width: 0
Storing dark spectrum: false
XAxis mode: Wavelengths
Number of Pixels in Spectrum: 1024
>>>>>Begin Spectral Data<<<<<
801.071	2910
801.214	2975
801.356	2864
801.499	2925
801.641	2880
801.783	2929
801.926	3077
802.068	2975
802.211	2990
802.353	3058
802.496	2975
802.638	2994
802.78	3043
802.923	3051
803.065	3036
803.208	2872
803.35	2872
803.492	2925
803.635	2941
803.777	2739
803.919	2845
804.061	3146
804.204	2971
804.346	2918
804.488	2845
804.63	3009
804.773	2872
804.915	2918
805.057	3104
805.199	2952
805.341	2994
805.483	3051
805.626	3036
805.768	3009
805.91	3089
806.052	3100
806.194	3036
806.336	3176
806.478	3032
806.62	2963
806.762	2986
806.904	3051
807.046	3195
807.188	3047
807.33	2937
807.472	3017
807.614	2883
807.756	2971
807.898	2941
808.04	2872
808.182	2994
808.324	2941
808.465	2922
808.607	2887
808.749	2788
808.891	2857
809.033	2982
809.174	2982
809.316	2887
809.458	2899
809.6	2804
809.741	2788
809.883	2788
810.025	2876
810.166	2853
810.308	2834
810.45	2834
810.591	2788
810.733	2727
810.875	2838
811.016	2796
811.158	2781
811.299	2815
811.441	2941
811.582	2918
811.724	2834
811.865	2853
812.007	2922
812.148	2883
812.29	2849
812.431	2895
812.573	2956
812.714	2963
812.855	3055
812.997	3070
813.138	3150
813.279	3020
813.421	2994
813.562	2960
813.703	2887
813.845	2925
813.986	2750
814.127	2743
814.268	2838
814.41	2838
814.551	2800
814.692	2880
814.833	2842
814.974	2906
815.115	2941
815.256	2864
815.397	2807
815.539	2857
815.68	2792
815.821	2796
815.962	2922
816.103	2937
816.244	2891
816.385	2883
816.526	2956
816.666	2933
816.807	2773
816.948	2902
817.089	2899
817.23	2872
817.371	2781
817.512	2804
817.653	2823
817.793	2842
817.934	2891
818.075	2971
818.216	2975
818.356	3036
818.497	2891
818.638	2762
818.778	2830
818.919	2792
819.06	2762
819.2	2864
819.341	2823
819.481	2804
819.622	2910
819.762	3074
819.903	3043
820.043	2922
820.184	2929
820.324	2902
820.465	3039
820.605	3058
820.746	3039
820.886	2963
821.026	3100
821.167	3154
821.307	3268
821.447	3291
821.588	3237
821.728	3226
821.868	3180
822.008	3070
822.149	3268
822.289	3233
822.429	3097
822.569	3074
822.709	3207
822.849	3028
822.99	3097
823.13	3150
823.27	3199
823.41	3097
823.55	3165
823.69	3142
823.83	3184
823.97	3093
824.11	2986
824.25	2998
824.389	3100
824.529	3123
824.669	3055
824.809	3203
824.949	3249
825.089	3245
825.228	3123
825.368	3001
825.508	2918
825.648	3001
825.787	3013
825.927	3051
826.067	2967
826.206	2963
826.346	3028
826.485	3100
826.625	3097
826.765	3256
826.904	3214
827.044	3009
827.183	2963
827.323	2857
827.462	2979
827.601	2910
827.741	2922
827.88	2967
828.02	2834
828.159	2956
828.298	3058
828.437	3123
828.577	3051
828.716	3249
828.855	3043
828.994	2883
829.134	2887
829.273	2922
829.412	2853
829.551	2826
829.69	2922
829.829	2982
829.968	3135
830.107	2998
830.246	3009
830.385	2933
830.524	2883
830.663	2800
830.802	2735
830.941	2644
831.08	2651
831.219	2754
831.357	2750
831.496	2941
831.635	2750
831.774	2689
831.913	2663
832.051	2571
832.19	2579
832.329	2663
832.467	2541
832.606	2476
832.744	2594
832.883	2587
833.022	2579
833.16	2629
833.299	2712
833.437	2731
833.576	2708
833.714	2705
833.852	2739
833.991	2762
834.129	2823
834.267	2811
834.406	2792
834.544	2872
834.682	2864
834.821	2880
834.959	3047
835.097	2883
835.235	3058
835.373	2994
835.511	2998
835.65	2933
835.788	2960
835.926	2830
836.064	2811
836.202	2838
836.34	3066
836.478	3123
836.615	3020
836.753	3127
836.891	3230
837.029	3195
837.167	3135
837.305	3074
837.443	3039
837.58	2948
837.718	3142
837.856	3055
837.993	2994
838.131	3108
838.269	3119
838.406	3089
838.544	3036
838.681	2941
838.819	2899
838.956	2800
839.094	2819
839.231	2925
839.369	3017
839.506	3367
839.643	3211
839.781	2982
839.918	2952
840.055	3036
840.193	3055
840.33	3074
840.467	3123
840.604	3104
840.742	3348
840.879	3028
841.016	3005
841.153	3135
841.29	3287
841.427	3291
841.564	3260
841.701	3253
841.838	3226
841.975	3135
842.112	3226
842.249	3085
842.385	3055
842.522	3260
842.659	3055
842.796	3055
842.933	3150
843.069	3043
843.206	3036
843.343	3173
843.479	3112
843.616	3154
843.752	2872
843.889	2872
844.025	3116
844.162	2891
844.298	3047
844.435	2933
844.571	2910
844.708	3055
844.844	3233
844.98	3256
845.117	3211
845.253	3024
845.389	3005
845.525	3104
845.661	3127
845.798	3036
845.934	3142
846.07	3051
846.206	3199
846.342	3329
846.478	3188
846.614	3077
846.75	3036
846.886	3017
847.022	3207
847.158	3154
847.294	3207
847.429	3233
847.565	3214
847.701	3477
847.837	3013
847.972	2998
848.108	3173
848.244	3165
848.379	2998
848.515	2941
848.65	2933
848.786	2960
848.921	3028
849.057	3112
849.192	3104
849.328	3066
849.463	3154
849.598	3020
849.734	3028
849.869	2986
850.004	2861
850.14	2922
850.275	2948
850.41	2823
850.545	2880
850.68	2922
850.815	2967
850.95	2963
851.085	3138
851.22	3100
851.355	3028
851.49	2975
851.625	3005
851.76	2998
851.895	2914
852.03	2842
852.165	3024
852.299	3123
852.434	3180
852.569	3100
852.703	3138
852.838	3226
852.973	3291
853.107	3363
853.242	3131
853.376	3104
853.511	2922
853.645	3055
853.78	3237
853.914	3169
854.048	3116
854.183	3043
854.317	3135
854.451	3279
854.585	3108
854.72	3074
854.854	3203
854.988	3097
855.122	3074
855.256	2952
855.39	3093
855.524	3230
855.658	3180
855.792	3119
855.926	3157
856.06	3184
856.194	3211
856.327	3154
856.461	3070
856.595	3116
856.729	3058
856.862	3226
856.996	3142
857.13	3176
857.263	3226
857.397	3294
857.53	3119
857.664	3157
857.797	3249
857.931	3249
858.064	3192
858.197	3176
858.331	3123
858.464	3047
858.597	3020
858.731	3097
858.864	3127
858.997	3074
859.13	3154
859.263	3188
859.396	3184
859.529	3093
859.662	3070
859.795	3005
859.928	3131
860.061	3241
860.194	3275
860.327	3112
860.46	3085
860.592	3203
860.725	3203
860.858	3241
860.99	3051
861.123	2994
861.256	3024
861.388	3108
861.521	3827
861.653	3017
861.786	2937
861.918	2971
862.05	3051
862.183	3062
862.315	3138
862.447	3207
862.58	3089
862.712	2941
862.844	2842
862.976	2994
863.108	3017
863.24	3401
863.372	2868
863.504	2963
863.636	2933
863.768	3017
863.9	2979
864.032	2883
864.164	2918
864.296	3005
864.428	3070
864.559	3093
864.691	3070
864.823	3043
864.954	3039
865.086	3043
865.217	2994
865.349	2982
865.48	2979
865.612	2979
865.743	3154
865.875	2963
866.006	2933
866.137	2941
866.269	2929
866.4	2857
866.531	2925
866.662	2857
866.793	2880
866.924	2876
867.055	2967
867.186	2914
867.317	2868
867.448	2823
867.579	2864
867.71	2891
867.841	2842
867.972	2899
868.103	2929
868.233	2883
868.364	2895
868.495	2902
868.625	3062
868.756	3165
868.886	2948
869.017	2963
869.147	3192
869.278	3165
869.408	3036
869.539	3017
869.669	3123
869.799	3024
869.929	3112
870.06	3066
870.19	3332
870.32	3298
870.45	3298
870.58	3363
870.71	3431
870.84	3397
870.97	3260
871.1	3230
871.23	3443
871.36	3439
871.489	3340
871.619	3416
871.749	3397
871.879	3466
872.008	3469
872.138	3378
872.267	3218
872.397	3131
872.526	3070
872.656	2979
872.785	3104
872.915	3226
873.044	3268
873.173	3245
873.303	3253
873.432	3222
873.561	3222
873.69	3180
873.819	3146
873.948	3199
874.077	3077
874.206	3001
874.335	3081
874.464	3188
874.593	3344
874.722	3241
874.851	3405
874.979	3344
875.108	3264
875.237	3211
875.365	3131
875.494	3176
875.623	3268
875.751	3093
875.88	3135
876.008	3192
876.136	3233
876.265	3370
876.393	3511
876.521	3435
876.65	3378
876.778	3325
876.906	3253
877.034	3230
877.162	3218
877.29	3207
877.418	3226
877.546	3230
877.674	3272
877.802	3192
877.93	3199
878.058	3131
878.185	3074
878.313	3180
878.441	3230
878.568	3062
878.696	3138
878.824	3256
878.951	3302
879.079	3454
879.206	3599
879.333	3439
879.461	3291
879.588	3332
879.715	3500
879.842	3595
879.97	3401
880.097	3154
880.224	3112
880.351	3199
880.478	3222
880.605	3207
880.732	3169
880.859	3473
880.986	3298
881.112	3332
881.239	3173
881.366	3085
881.493	3009
881.619	2963
881.746	3058
881.872	3077
881.999	3112
882.125	3089
882.252	3199
882.378	3302
882.505	3409
882.631	3256
882.757	3142
882.883	3245
883.01	3173
883.136	3161
883.262	3127
883.388	3089
883.514	3344
883.64	3351
883.766	3275
883.892	3165
884.018	3214
884.143	3389
884.269	3523
884.395	3237
884.52	3173
884.646	3161
884.772	3142
884.897	3100
885.023	3192
885.148	3344
885.274	3416
885.399	3348
885.524	3294
885.65	3233
885.775	3351
885.9	3249
886.025	3405
886.15	3378
886.275	3294
886.4	3207
886.525	3332
886.65	3287
886.775	3264
886.9	3492
887.025	3663
887.149	3416
887.274	3268
887.399	3157
887.523	3188
887.648	3180
887.773	3188
887.897	3351
888.021	3397
888.146	3310
888.27	3450
888.395	3515
888.519	3428
888.643	3424
888.767	3443
888.891	3294
889.015	3237
889.139	3298
889.263	3249
889.387	3370
889.511	3492
889.635	3443
889.759	3291
889.883	3321
890.006	3393
890.13	3477
890.254	3268
890.377	3355
890.501	3192
890.624	3207
890.748	3325
890.871	3192
890.995	3119
891.118	3039
891.241	3207
891.364	3230
891.488	3355
891.611	3203
891.734	3218
891.857	3268
891.98	3233
892.103	3374
892.226	3279
892.349	3233
892.471	3138
892.594	3253
892.717	3279
892.839	3237
892.962	3287
893.085	3374
893.207	3332
893.33	3173
893.452	3188
893.575	3340
893.697	3237
893.819	3450
893.941	3572
894.064	3458
894.186	3222
894.308	3264
894.43	3488
894.552	3564
894.674	3439
894.796	3249
894.918	3340
895.04	3294
895.161	3412
895.283	3359
895.405	3329
895.526	3351
895.648	3412
895.769	3420
895.891	3428
896.012	3458
896.134	3469
896.255	3378
896.376	3359
896.498	3386
896.619	3431
896.74	3363
896.861	3466
896.982	3648
897.103	3831
897.224	3584
897.345	3492
897.466	3393
897.587	3477
897.708	3584
897.828	3534
897.949	3431
898.07	3340
898.19	3389
898.311	3576
898.431	3447
898.552	3515
898.672	3603
898.792	3572
898.913	3519
899.033	3412
899.153	3272
899.273	3203
899.393	3283
899.513	3348
899.633	3272
899.753	3351
899.873	3325
899.993	3386
900.113	3340
900.232	3382
900.352	3367
900.472	3249
900.591	3192
900.711	3249
900.83	3226
900.95	3378
901.069	3458
901.189	3359
901.308	3165
901.427	3089
901.546	3161
901.665	3283
901.784	3340
901.904	3214
902.023	3146
902.141	3005
902.26	3013
902.379	3127
902.498	3055
902.617	3074
902.735	3226
902.854	3237
902.973	3138
903.091	3039
903.21	3100
903.328	3165
903.446	3169
903.565	3085
903.683	3188
903.801	3119
903.919	3230
904.038	3283
904.156	3173
904.274	3291
904.392	3241
904.51	3279
904.627	3378
904.745	3439
904.863	3462
904.981	3283
905.098	3199
905.216	3195
905.334	3313
905.451	3325
905.569	3294
905.686	3435
905.803	3424
905.921	3260
906.038	3409
906.155	3370
906.272	3237
906.389	3370
906.506	3230
906.623	3264
906.74	3283
906.857	3184
906.974	3264
907.091	3450
907.208	3549
907.324	3458
907.441	3447
907.557	3253
907.674	3184
907.79	3188
907.907	3294
908.023	3405
908.139	3340
908.256	3348
908.372	3374
908.488	3401
908.604	3264
908.72	3264
908.836	3272
908.952	3241
909.068	3294
909.184	3477
909.3	3378
909.415	3538
909.531	3492
909.647	3302
909.762	3264
909.878	3260
909.993	3336
910.108	3355
910.224	3321
910.339	3397
910.454	3336
910.57	3275
910.685	3184
910.8	3557
910.915	3542
911.03	3431
911.145	3287
911.259	3256
911.374	3291
911.489	3237
911.604	3211
911.718	3100
911.833	3165
911.947	3039
912.062	2967
912.176	3146
912.291	3203
912.405	3237
912.519	3401
912.633	3450
912.748	3310
912.862	3275
912.976	3165
913.09	3058
913.204	3131
913.318	3218
913.431	3306
913.545	3310
913.659	3382
913.772	3321
913.886	3195
914	3176
914.113	3344
914.226	3397
914.34	3363
914.453	3211
914.566	3370
914.68	3302
914.793	3283
914.906	3119
915.019	3116
915.132	3062
915.245	3165
915.358	3161
915.47	3203
915.583	3272
915.696	3313
915.809	3409
915.921	3450
916.034	3245
916.146	3283
916.259	3203
916.371	3389
916.483	3336
916.595	3256
916.708	3321
916.82	3317
916.932	3332
917.044	3317
917.156	3340
917.268	3275
917.38	3321
917.491	3272
917.603	3393
917.715	3439
917.826	3458
917.938	3355
918.049	3279
918.161	3450
918.272	3557
918.384	3584
918.495	3496
918.606	3351
918.717	3260
918.828	3389
918.939	3405
919.05	3336
919.161	3382
919.272	3176
919.383	3306
919.494	3530
919.604	3663
919.715	3507
919.826	3431
919.936	3412
920.047	3595
920.157	3576
920.267	3808
920.378	3587
920.488	3584
920.598	3823
920.708	3979
920.818	3808
920.928	3842
921.038	4006
921.148	3983
921.258	3709
921.368	3637
921.477	3561
921.587	3545
921.697	3473
921.806	3625
921.916	3515
922.025	3340
922.134	3355
922.244	3329
922.353	3428
922.462	3336
922.571	3226
922.68	3104
922.789	3062
922.898	3142
923.007	3104
923.116	3176
923.224	3157
923.333	3176
923.442	3100
923.55	3085
923.659	3154
923.767	3211
923.876	3116
923.984	3207
924.092	3085
924.201	3176
924.309	3214
924.417	3241
924.525	3199
924.633	3256
924.741	3964
924.849	3055
924.956	3260
925.064	3081
925.172	3039
925.279	3043
925.387	3203
925.494	3230
925.602	3348
925.709	3332
925.816	3180
925.924	3275
926.031	3363
926.138	3340
926.245	3363
926.352	3260
926.459	3416
926.566	3477
926.673	3325
926.779	3249
926.886	3249
926.993	3154
927.099	3150
927.206	3112
927.312	3097
927.419	3203
927.525	3226
927.631	3279
927.737	3131
927.843	3112
927.95	3020
928.056	3157
928.162	3131
928.267	3253
928.373	3778
928.479	3275
928.585	3074
928.69	3203
928.796	3279
928.901	3161
929.007	3058
929.112	3184
929.218	3161
929.323	3150
929.428	3112
929.533	3321
929.638	3104
929.743	3176
929.848	3272
929.953	3184
930.058	3104
930.163	2990
930.267	3047
930.372	3199
930.477	3081
930.581	3313
930.685	3199
930.79	3077
930.894	3138
930.998	3074
931.103	3291
931.207	2956
931.311	2929
931.415	2937
931.519	2777
931.623	2796
