Data from test_V78500241_440.txt Node
Date: Fri Mar 25 16:18:15 CST 2022
User: usil
Spectrometer: V785-0024
Trigger mode: 0
Integration Time (sec): 4.000000E-1
Scans to average: 1
Nonlinearity correction enabled: false
Boxcar width: 0
Storing dark spectrum: false
XAxis mode: Wavelengths
Number of Pixels in Spectrum: 1024
>>>>>Begin Spectral Data<<<<<
801.071	2906
801.214	2925
801.356	2868
801.499	2902
801.641	2872
801.783	2941
801.926	3032
802.068	2998
802.211	2971
802.353	3017
802.496	2960
802.638	3017
802.78	3024
802.923	3062
803.065	3001
803.208	2902
803.35	2887
803.492	2910
803.635	2941
803.777	2777
803.919	2853
804.061	3146
804.204	2933
804.346	2880
804.488	2815
804.63	2982
804.773	2883
804.915	2944
805.057	3089
805.199	2933
805.341	2937
805.483	3081
805.626	2994
805.768	2944
805.91	3074
806.052	3123
806.194	3032
806.336	3207
806.478	3039
806.62	2986
806.762	2979
806.904	3066
807.046	3116
807.188	2944
807.33	2906
807.472	3013
807.614	2910
807.756	2967
807.898	2925
808.04	2876
808.182	2979
808.324	2956
808.465	2891
808.607	2838
808.749	2781
808.891	2823
809.033	2998
809.174	2979
809.316	2880
809.458	2864
809.6	2750
809.741	2804
809.883	2781
810.025	2830
810.166	2845
810.308	2811
810.45	2811
810.591	2781
810.733	2773
810.875	2815
811.016	2758
811.158	2777
811.299	2811
811.441	2918
811.582	2914
811.724	2785
811.865	2861
812.007	2887
812.148	2899
812.29	2864
812.431	2887
812.573	2918
812.714	3001
812.855	3043
812.997	3039
813.138	3131
813.279	2994
813.421	2971
813.562	2998
813.703	2872
813.845	2910
813.986	2746
814.127	2739
814.268	2804
814.41	2853
814.551	2785
814.692	2899
814.833	2804
814.974	2868
815.115	2929
815.256	2849
815.397	2792
815.539	2887
815.68	2762
815.821	2781
815.962	2971
816.103	2918
816.244	2880
816.385	2872
816.526	2941
816.666	2880
816.807	2735
816.948	2910
817.089	2906
817.23	2826
817.371	2773
817.512	2800
817.653	2853
817.793	2864
817.934	2880
818.075	2971
818.216	2982
818.356	3036
818.497	2883
818.638	2804
818.778	2819
818.919	2781
819.06	2788
819.2	2880
819.341	2796
819.481	2800
819.622	2937
819.762	3116
819.903	3058
820.043	2925
820.184	2861
820.324	2880
820.465	3024
820.605	3013
820.746	3055
820.886	2918
821.026	3100
821.167	3165
821.307	3207
821.447	3253
821.588	3222
821.728	3211
821.868	3188
822.008	3085
822.149	3207
822.289	3214
822.429	3081
822.569	3097
822.709	3157
822.849	3005
822.99	3070
823.13	3104
823.27	3211
823.41	3097
823.55	3161
823.69	3154
823.83	3173
823.97	3108
824.11	3009
824.25	2982
824.389	3062
824.529	3058
824.669	3024
824.809	3169
824.949	3253
825.089	3214
825.228	3150
825.368	3020
825.508	2929
825.648	2979
825.787	3013
825.927	2979
826.067	2963
826.206	2963
826.346	3047
826.485	3058
826.625	3093
826.765	3272
826.904	3203
827.044	2998
827.183	2941
827.323	2887
827.462	2944
827.601	2914
827.741	2937
827.88	2952
828.02	2842
828.159	2948
828.298	3017
828.437	3093
828.577	3039
828.716	3230
828.855	3043
828.994	2872
829.134	2830
829.273	2902
829.412	2880
829.551	2895
829.69	2891
829.829	3005
829.968	3123
830.107	2979
830.246	2982
830.385	2914
830.524	2887
830.663	2811
830.802	2743
830.941	2636
831.08	2663
831.219	2746
831.357	2735
831.496	2910
831.635	2724
831.774	2697
831.913	2644
832.051	2530
832.19	2575
832.329	2667
832.467	2545
832.606	2473
832.744	2587
832.883	2594
833.022	2621
833.16	2644
833.299	2693
833.437	2667
833.576	2712
833.714	2720
833.852	2735
833.991	2762
834.129	2811
834.267	2804
834.406	2800
834.544	2880
834.682	2864
834.821	2883
834.959	3039
835.097	2887
835.235	3039
835.373	2960
835.511	3017
835.65	2952
835.788	2952
835.926	2800
836.064	2788
836.202	2834
836.34	3085
836.478	3104
836.615	3032
836.753	3131
836.891	3180
837.029	3146
837.167	3104
837.305	3062
837.443	3070
837.58	2994
837.718	3138
837.856	3032
837.993	2998
838.131	3074
838.269	3100
838.406	3119
838.544	3058
838.681	2956
838.819	2902
838.956	2788
839.094	2769
839.231	2899
839.369	3036
839.506	3401
839.643	3214
839.781	3024
839.918	2960
840.055	3058
840.193	3036
840.33	3047
840.467	3074
840.604	3165
840.742	3393
840.879	3058
841.016	3047
841.153	3131
841.29	3317
841.427	3260
841.564	3279
841.701	3275
841.838	3211
841.975	3180
842.112	3203
842.249	3085
842.385	3017
842.522	3249
842.659	3066
842.796	3074
842.933	3093
843.069	3055
843.206	3039
843.343	3180
843.479	3074
843.616	3112
843.752	2910
843.889	2815
844.025	3070
844.162	2872
844.298	3047
844.435	2925
844.571	2914
844.708	3051
844.844	3176
844.98	3249
845.117	3214
845.253	3066
845.389	3001
845.525	3070
845.661	3097
845.798	3024
845.934	3112
846.07	3036
846.206	3214
846.342	3332
846.478	3260
846.614	3104
846.75	3039
846.886	3043
847.022	3264
847.158	3138
847.294	3195
847.429	3226
847.565	3214
847.701	3481
847.837	3051
847.972	2963
848.108	3150
848.244	3116
848.379	2971
848.515	2922
848.65	2929
848.786	2967
848.921	3013
849.057	3104
849.192	3138
849.328	3024
849.463	3112
849.598	3047
849.734	3032
849.869	2979
850.004	2933
850.14	2963
850.275	2895
850.41	2849
850.545	2876
850.68	2929
850.815	2967
850.95	2979
851.085	3188
851.22	3100
851.355	3043
851.49	2994
851.625	2986
851.76	3005
851.895	2941
852.03	2918
852.165	3020
852.299	3108
852.434	3157
852.569	3154
852.703	3180
852.838	3230
852.973	3291
853.107	3306
853.242	3150
853.376	3058
853.511	2960
853.645	3009
853.78	3226
853.914	3093
854.048	3116
854.183	3051
854.317	3112
854.451	3287
854.585	3112
854.72	3097
854.854	3245
854.988	3058
855.122	3089
855.256	2963
855.39	3100
855.524	3218
855.658	3169
855.792	3150
855.926	3184
856.06	3203
856.194	3230
856.327	3150
856.461	3036
856.595	3070
856.729	3077
856.862	3165
856.996	3157
857.13	3184
857.263	3241
857.397	3249
857.53	3123
857.664	3211
857.797	3199
857.931	3218
858.064	3150
858.197	3192
858.331	3116
858.464	3127
858.597	2994
858.731	3127
858.864	3146
858.997	3093
859.13	3123
859.263	3142
859.396	3188
859.529	3055
859.662	3058
859.795	3039
859.928	3108
860.061	3260
860.194	3233
860.327	3131
860.46	3089
860.592	3230
860.725	3241
860.858	3237
860.99	3077
861.123	3047
861.256	3020
861.388	3176
861.521	3983
861.653	3017
861.786	2975
861.918	2998
862.05	3070
862.183	3070
862.315	3154
862.447	3173
862.58	3047
862.712	2944
862.844	2853
862.976	3024
863.108	2952
863.24	3412
863.372	2883
863.504	3001
863.636	2929
863.768	3001
863.9	2982
864.032	2944
864.164	2944
864.296	2986
864.428	3081
864.559	3089
864.691	3074
864.823	3043
864.954	3024
865.086	3062
865.217	2998
865.349	2952
865.48	2925
865.612	2979
865.743	3138
865.875	2963
866.006	2922
866.137	2956
866.269	2941
866.4	2922
866.531	2918
866.662	2883
866.793	2876
866.924	2887
867.055	2956
867.186	2899
867.317	2895
867.448	2834
867.579	2861
867.71	2861
867.841	2819
867.972	2872
868.103	2880
868.233	2906
868.364	2895
868.495	2906
868.625	3077
868.756	3154
868.886	2960
869.017	3005
869.147	3161
869.278	3169
869.408	3047
869.539	2979
869.669	3077
869.799	3032
869.929	3135
870.06	3127
870.19	3313
870.32	3260
870.45	3298
870.58	3321
870.71	3462
870.84	3409
870.97	3264
871.1	3233
871.23	3485
871.36	3454
871.489	3348
871.619	3397
871.749	3359
871.879	3454
872.008	3435
872.138	3386
872.267	3268
872.397	3150
872.526	3074
872.656	2990
872.785	3089
872.915	3230
873.044	3287
873.173	3218
873.303	3211
873.432	3218
873.561	3211
873.69	3154
873.819	3127
873.948	3176
874.077	3093
874.206	3051
874.335	3089
874.464	3176
874.593	3348
874.722	3226
874.851	3412
874.979	3321
875.108	3283
875.237	3184
875.365	3142
875.494	3138
875.623	3233
875.751	3066
875.88	3108
876.008	3199
876.136	3222
876.265	3405
876.393	3530
876.521	3367
876.65	3397
876.778	3325
876.906	3233
877.034	3169
877.162	3237
877.29	3180
877.418	3306
877.546	3222
877.674	3249
877.802	3222
877.93	3230
878.058	3135
878.185	3070
878.313	3195
878.441	3214
878.568	3077
878.696	3154
878.824	3230
878.951	3302
879.079	3435
879.206	3591
879.333	3458
879.461	3313
879.588	3332
879.715	3443
879.842	3568
879.97	3378
880.097	3157
880.224	3116
880.351	3184
880.478	3230
880.605	3214
880.732	3131
880.859	3443
880.986	3302
881.112	3302
881.239	3207
881.366	3085
881.493	3020
881.619	3051
881.746	3089
881.872	3081
881.999	3097
882.125	3161
882.252	3214
882.378	3302
882.505	3420
882.631	3302
882.757	3150
882.883	3211
883.01	3226
883.136	3157
883.262	3097
883.388	3077
883.514	3291
883.64	3317
883.766	3329
883.892	3169
884.018	3207
884.143	3389
884.269	3511
884.395	3203
884.52	3180
884.646	3214
884.772	3119
884.897	3097
885.023	3226
885.148	3306
885.274	3428
885.399	3359
885.524	3237
885.65	3253
885.775	3287
885.9	3291
886.025	3424
886.15	3378
886.275	3256
886.4	3230
886.525	3291
886.65	3256
886.775	3272
886.9	3496
887.025	3656
887.149	3435
887.274	3283
887.399	3207
887.523	3161
887.648	3154
887.773	3222
887.897	3374
888.021	3397
888.146	3306
888.27	3450
888.395	3500
888.519	3435
888.643	3435
888.767	3488
888.891	3332
889.015	3222
889.139	3313
889.263	3272
889.387	3378
889.511	3507
889.635	3466
889.759	3260
889.883	3256
890.006	3355
890.13	3462
890.254	3260
890.377	3317
890.501	3188
890.624	3169
890.748	3245
890.871	3161
890.995	3119
891.118	3089
891.241	3169
891.364	3192
891.488	3310
891.611	3154
891.734	3184
891.857	3256
891.98	3230
892.103	3355
892.226	3256
892.349	3192
892.471	3066
892.594	3218
892.717	3253
892.839	3260
892.962	3332
893.085	3374
893.207	3317
893.33	3154
893.452	3230
893.575	3310
893.697	3249
893.819	3477
893.941	3485
894.064	3401
894.186	3195
894.308	3230
894.43	3466
894.552	3538
894.674	3454
894.796	3268
894.918	3321
895.04	3287
895.161	3409
895.283	3363
895.405	3313
895.526	3367
895.648	3431
895.769	3409
895.891	3416
896.012	3462
896.134	3435
896.255	3397
896.376	3340
896.498	3370
896.619	3393
896.74	3370
896.861	3393
896.982	3679
897.103	3808
897.224	3595
897.345	3469
897.466	3401
897.587	3496
897.708	3644
897.828	3549
897.949	3393
898.07	3298
898.19	3405
898.311	3625
898.431	3431
898.552	3473
898.672	3572
898.792	3580
898.913	3504
899.033	3397
899.153	3298
899.273	3211
899.393	3321
899.513	3272
899.633	3287
899.753	3302
899.873	3317
899.993	3374
900.113	3313
900.232	3389
900.352	3325
900.472	3268
900.591	3218
900.711	3294
900.83	3253
900.95	3443
901.069	3477
901.189	3355
901.308	3169
901.427	3127
901.546	3188
901.665	3291
901.784	3302
901.904	3161
902.023	3135
902.141	2994
902.26	2979
902.379	3123
902.498	3093
902.617	3013
902.735	3192
902.854	3214
902.973	3214
903.091	3043
903.21	3036
903.328	3138
903.446	3119
903.565	3085
903.683	3214
903.801	3146
903.919	3237
904.038	3249
904.156	3169
904.274	3279
904.392	3226
904.51	3287
904.627	3298
904.745	3420
904.863	3496
904.981	3264
905.098	3142
905.216	3173
905.334	3294
905.451	3336
905.569	3317
905.686	3405
905.803	3428
905.921	3268
906.038	3389
906.155	3370
906.272	3275
906.389	3325
906.506	3230
906.623	3233
906.74	3302
906.857	3154
906.974	3192
907.091	3431
907.208	3549
907.324	3466
907.441	3344
907.557	3226
907.674	3237
907.79	3195
907.907	3279
908.023	3397
908.139	3325
908.256	3340
908.372	3351
908.488	3329
908.604	3268
908.72	3192
908.836	3298
908.952	3268
909.068	3306
909.184	3477
909.3	3397
909.415	3469
909.531	3424
909.647	3245
909.762	3264
909.878	3279
909.993	3363
910.108	3313
910.224	3306
910.339	3386
910.454	3310
910.57	3287
910.685	3188
910.8	3610
910.915	3458
911.03	3439
911.145	3253
911.259	3279
911.374	3310
911.489	3264
911.604	3211
911.718	3142
911.833	3169
911.947	3036
912.062	3009
912.176	3138
912.291	3176
912.405	3241
912.519	3420
912.633	3473
912.748	3348
912.862	3283
912.976	3161
913.09	3093
913.204	3157
913.318	3264
913.431	3344
913.545	3378
913.659	3435
913.772	3332
913.886	3222
914	3222
914.113	3348
914.226	3420
914.34	3370
914.453	3245
914.566	3439
914.68	3317
914.793	3348
914.906	3184
915.019	3184
915.132	3131
915.245	3180
915.358	3249
915.47	3233
915.583	3275
915.696	3329
915.809	3401
915.921	3462
916.034	3317
916.146	3291
916.259	3249
916.371	3374
916.483	3405
916.595	3287
916.708	3386
916.82	3370
916.932	3389
917.044	3359
917.156	3355
917.268	3287
917.38	3306
917.491	3344
917.603	3363
917.715	3511
917.826	3496
917.938	3431
918.049	3329
918.161	3469
918.272	3652
918.384	3576
918.495	3564
918.606	3401
918.717	3306
918.828	3412
918.939	3439
919.05	3393
919.161	3435
919.272	3245
919.383	3332
919.494	3572
919.604	3709
919.715	3515
919.826	3477
919.936	3523
920.047	3599
920.157	3595
920.267	3732
920.378	3656
920.488	3614
920.598	3781
920.708	3972
920.818	3865
920.928	3884
921.038	4044
921.148	4055
921.258	3724
921.368	3675
921.477	3599
921.587	3557
921.697	3515
921.806	3667
921.916	3576
922.025	3393
922.134	3382
922.244	3332
922.353	3443
922.462	3344
922.571	3272
922.68	3150
922.789	3142
922.898	3218
923.007	3135
923.116	3279
923.224	3188
923.333	3214
923.442	3135
923.55	3100
923.659	3192
923.767	3230
923.876	3173
923.984	3279
924.092	3116
924.201	3245
924.309	3192
924.417	3306
924.525	3260
924.633	3272
924.741	4219
924.849	3070
924.956	3279
925.064	3097
925.172	3024
925.279	3097
925.387	3283
925.494	3222
925.602	3393
925.709	3367
925.816	3214
925.924	3260
926.031	3409
926.138	3378
926.245	3397
926.352	3268
926.459	3458
926.566	3492
926.673	3374
926.779	3283
926.886	3275
926.993	3135
927.099	3138
927.206	3097
927.312	3154
927.419	3275
927.525	3256
927.631	3268
927.737	3150
927.843	3154
927.95	3058
928.056	3165
928.162	3207
928.267	3241
928.373	3838
928.479	3313
928.585	3104
928.69	3226
928.796	3287
928.901	3237
929.007	3119
929.112	3222
929.218	3203
929.323	3173
929.428	3169
929.533	3359
929.638	3119
929.743	3195
929.848	3268
929.953	3207
930.058	3146
930.163	3043
930.267	3074
930.372	3233
930.477	3093
930.581	3313
930.685	3184
930.79	3100
930.894	3165
930.998	3100
931.103	3321
931.207	2994
931.311	2963
931.415	2914
931.519	2853
931.623	2849
