Data from test_V78500241_1461.txt Node
Date: Fri Mar 25 16:25:19 CST 2022
User: usil
Spectrometer: V785-0024
Trigger mode: 0
Integration Time (sec): 4.000000E-1
Scans to average: 1
Nonlinearity correction enabled: false
Boxcar width: 0
Storing dark spectrum: false
XAxis mode: Wavelengths
Number of Pixels in Spectrum: 1024
>>>>>Begin Spectral Data<<<<<
801.071	2944
801.214	2971
801.356	2895
801.499	2952
801.641	2899
801.783	2929
801.926	3077
802.068	3017
802.211	2990
802.353	3070
802.496	3013
802.638	3032
802.78	3066
802.923	3108
803.065	3036
803.208	2948
803.35	2967
803.492	2914
803.635	2941
803.777	2811
803.919	2906
804.061	3222
804.204	2952
804.346	2933
804.488	2880
804.63	2967
804.773	2891
804.915	2952
805.057	3112
805.199	2952
805.341	3001
805.483	3058
805.626	3036
805.768	2971
805.91	3119
806.052	3138
806.194	2998
806.336	3253
806.478	3032
806.62	2952
806.762	3013
806.904	3062
807.046	3188
807.188	2994
807.33	2948
807.472	2998
807.614	2910
807.756	3013
807.898	2929
808.04	2929
808.182	2994
808.324	2975
808.465	2933
808.607	2872
808.749	2826
808.891	2864
809.033	3024
809.174	2971
809.316	2899
809.458	2883
809.6	2781
809.741	2792
809.883	2796
810.025	2883
810.166	2887
810.308	2849
810.45	2899
810.591	2804
810.733	2788
810.875	2891
811.016	2811
811.158	2785
811.299	2819
811.441	2967
811.582	2902
811.724	2819
811.865	2819
812.007	2925
812.148	2864
812.29	2853
812.431	2929
812.573	2975
812.714	2990
812.855	3089
812.997	3036
813.138	3123
813.279	3013
813.421	3028
813.562	2979
813.703	2864
813.845	2906
813.986	2766
814.127	2754
814.268	2845
814.41	2845
814.551	2800
814.692	2887
814.833	2826
814.974	2887
815.115	2948
815.256	2895
815.397	2838
815.539	2891
815.68	2807
815.821	2796
815.962	2925
816.103	2925
816.244	2925
816.385	2887
816.526	2963
816.666	2963
816.807	2769
816.948	2880
817.089	2914
817.23	2872
817.371	2804
817.512	2804
817.653	2834
817.793	2872
817.934	2895
818.075	2982
818.216	2986
818.356	3051
818.497	2914
818.638	2777
818.778	2861
818.919	2769
819.06	2834
819.2	2906
819.341	2868
819.481	2834
819.622	2975
819.762	3112
819.903	3081
820.043	2929
820.184	2887
820.324	2933
820.465	3051
820.605	3017
820.746	2994
820.886	2979
821.026	3085
821.167	3199
821.307	3275
821.447	3317
821.588	3253
821.728	3237
821.868	3176
822.008	3070
822.149	3184
822.289	3275
822.429	3138
822.569	3104
822.709	3188
822.849	3028
822.99	3093
823.13	3150
823.27	3203
823.41	3119
823.55	3154
823.69	3207
823.83	3203
823.97	3116
824.11	3013
824.25	3013
824.389	3043
824.529	3138
824.669	3089
824.809	3165
824.949	3260
825.089	3249
825.228	3180
825.368	2990
825.508	2982
825.648	3009
825.787	3028
825.927	3013
826.067	2956
826.206	2982
826.346	3047
826.485	3112
826.625	3142
826.765	3283
826.904	3180
827.044	3032
827.183	2979
827.323	2891
827.462	2998
827.601	2971
827.741	2925
827.88	2990
828.02	2891
828.159	2990
828.298	3062
828.437	3081
828.577	3039
828.716	3230
828.855	3104
828.994	2929
829.134	2933
829.273	2971
829.412	2910
829.551	2845
829.69	2914
829.829	3001
829.968	3123
830.107	3024
830.246	3077
830.385	2922
830.524	2891
830.663	2834
830.802	2754
830.941	2648
831.08	2674
831.219	2766
831.357	2766
831.496	2956
831.635	2735
831.774	2663
831.913	2678
832.051	2568
832.19	2552
832.329	2708
832.467	2556
832.606	2533
832.744	2575
832.883	2590
833.022	2598
833.16	2644
833.299	2693
833.437	2705
833.576	2731
833.714	2720
833.852	2758
833.991	2819
834.129	2853
834.267	2838
834.406	2811
834.544	2887
834.682	2872
834.821	2853
834.959	3062
835.097	2960
835.235	3097
835.373	2979
835.511	3047
835.65	2963
835.788	2971
835.926	2811
836.064	2845
836.202	2823
836.34	3104
836.478	3165
836.615	3047
836.753	3165
836.891	3222
837.029	3199
837.167	3119
837.305	3085
837.443	3024
837.58	2967
837.718	3104
837.856	3055
837.993	3055
838.131	3138
838.269	3116
838.406	3112
838.544	3093
838.681	2922
838.819	2902
838.956	2830
839.094	2864
839.231	2971
839.369	3055
839.506	3420
839.643	3233
839.781	3013
839.918	2941
840.055	3066
840.193	3093
840.33	3055
840.467	3108
840.604	3135
840.742	3439
840.879	3055
841.016	3070
841.153	3093
841.29	3348
841.427	3256
841.564	3256
841.701	3294
841.838	3233
841.975	3184
842.112	3226
842.249	3058
842.385	3013
842.522	3275
842.659	3093
842.796	3100
842.933	3116
843.069	3043
843.206	3043
843.343	3207
843.479	3112
843.616	3142
843.752	2914
843.889	2849
844.025	3123
844.162	2868
844.298	3089
844.435	2925
844.571	2960
844.708	3058
844.844	3192
844.98	3233
845.117	3169
845.253	3070
845.389	2994
845.525	3104
845.661	3131
845.798	3005
845.934	3119
846.07	3077
846.206	3207
846.342	3336
846.478	3222
846.614	3085
846.75	3085
846.886	3001
847.022	3203
847.158	3127
847.294	3188
847.429	3192
847.565	3184
847.701	3500
847.837	3028
847.972	2982
848.108	3150
848.244	3116
848.379	2963
848.515	2929
848.65	2960
848.786	2998
848.921	3032
849.057	3097
849.192	3173
849.328	3066
849.463	3119
849.598	3097
849.734	3043
849.869	2967
850.004	2914
850.14	2998
850.275	2933
850.41	2868
850.545	2925
850.68	2982
850.815	3005
850.95	2975
851.085	3211
851.22	3131
851.355	3051
851.49	3020
851.625	3051
851.76	2990
851.895	2948
852.03	2910
852.165	3074
852.299	3150
852.434	3199
852.569	3157
852.703	3211
852.838	3291
852.973	3367
853.107	3355
853.242	3161
853.376	3116
853.511	3009
853.645	3039
853.78	3279
853.914	3146
854.048	3146
854.183	3097
854.317	3173
854.451	3306
854.585	3195
854.72	3142
854.854	3222
854.988	3089
855.122	3123
855.256	3043
855.39	3154
855.524	3291
855.658	3214
855.792	3199
855.926	3241
856.06	3249
856.194	3306
856.327	3184
856.461	3123
856.595	3146
856.729	3108
856.862	3233
856.996	3184
857.13	3211
857.263	3256
857.397	3291
857.53	3161
857.664	3256
857.797	3264
857.931	3291
858.064	3214
858.197	3237
858.331	3203
858.464	3119
858.597	3062
858.731	3135
858.864	3123
858.997	3135
859.13	3211
859.263	3237
859.396	3226
859.529	3154
859.662	3100
859.795	3070
859.928	3180
860.061	3306
860.194	3325
860.327	3180
860.46	3100
860.592	3275
860.725	3298
860.858	3264
860.99	3123
861.123	3074
861.256	3100
861.388	3211
861.521	3918
861.653	3077
861.786	3070
861.918	3036
862.05	3081
862.183	3093
862.315	3203
862.447	3241
862.58	3108
862.712	2971
862.844	2941
862.976	3089
863.108	3066
863.24	3363
863.372	2922
863.504	2994
863.636	2960
863.768	3070
863.9	3020
864.032	2929
864.164	2994
864.296	3036
864.428	3108
864.559	3131
864.691	3127
864.823	3097
864.954	3047
865.086	3066
865.217	3009
865.349	2990
865.48	3028
865.612	3081
865.743	3169
865.875	3001
866.006	2979
866.137	3005
866.269	2967
866.4	2967
866.531	2948
866.662	2906
866.793	2910
866.924	2937
867.055	3005
867.186	2937
867.317	2899
867.448	2876
867.579	2902
867.71	2872
867.841	2849
867.972	2956
868.103	2956
868.233	2902
868.364	2922
868.495	2933
868.625	3097
868.756	3203
868.886	3005
869.017	3017
869.147	3207
869.278	3188
869.408	3100
869.539	3104
869.669	3116
869.799	3047
869.929	3157
870.06	3135
870.19	3329
870.32	3302
870.45	3332
870.58	3374
870.71	3504
870.84	3466
870.97	3306
871.1	3294
871.23	3515
871.36	3504
871.489	3428
871.619	3462
871.749	3412
871.879	3454
872.008	3542
872.138	3378
872.267	3310
872.397	3184
872.526	3089
872.656	3036
872.785	3112
872.915	3260
873.044	3370
873.173	3249
873.303	3260
873.432	3230
873.561	3222
873.69	3188
873.819	3157
873.948	3176
874.077	3100
874.206	3051
874.335	3119
874.464	3287
874.593	3382
874.722	3272
874.851	3412
874.979	3405
875.108	3336
875.237	3222
875.365	3203
875.494	3188
875.623	3306
875.751	3119
875.88	3097
876.008	3214
876.136	3241
876.265	3428
876.393	3545
876.521	3416
876.65	3393
876.778	3355
876.906	3272
877.034	3256
877.162	3264
877.29	3218
877.418	3233
877.546	3294
877.674	3256
877.802	3275
877.93	3253
878.058	3188
878.185	3161
878.313	3268
878.441	3279
878.568	3085
878.696	3169
878.824	3268
878.951	3336
879.079	3443
879.206	3663
879.333	3462
879.461	3310
879.588	3386
879.715	3534
879.842	3629
879.97	3416
880.097	3207
880.224	3150
880.351	3211
880.478	3256
880.605	3264
880.732	3203
880.859	3519
880.986	3340
881.112	3363
881.239	3211
881.366	3104
881.493	3039
881.619	3039
881.746	3085
881.872	3100
881.999	3142
882.125	3142
882.252	3298
882.378	3313
882.505	3454
882.631	3306
882.757	3157
882.883	3184
883.01	3283
883.136	3169
883.262	3131
883.388	3138
883.514	3344
883.64	3389
883.766	3378
883.892	3214
884.018	3253
884.143	3435
884.269	3542
884.395	3218
884.52	3157
884.646	3176
884.772	3150
884.897	3123
885.023	3233
885.148	3378
885.274	3409
885.399	3424
885.524	3317
885.65	3264
885.775	3344
885.9	3302
886.025	3439
886.15	3397
886.275	3291
886.4	3302
886.525	3344
886.65	3283
886.775	3332
886.9	3450
887.025	3652
887.149	3409
887.274	3287
887.399	3211
887.523	3226
887.648	3218
887.773	3211
887.897	3397
888.021	3439
888.146	3306
888.27	3447
888.395	3580
888.519	3450
888.643	3481
888.767	3500
888.891	3310
889.015	3275
889.139	3317
889.263	3294
889.387	3435
889.511	3504
889.635	3435
889.759	3275
889.883	3310
890.006	3386
890.13	3477
890.254	3302
890.377	3355
890.501	3222
890.624	3230
890.748	3321
890.871	3180
890.995	3081
891.118	3074
891.241	3207
891.364	3283
891.488	3344
891.611	3188
891.734	3241
891.857	3306
891.98	3268
892.103	3351
892.226	3313
892.349	3199
892.471	3150
892.594	3283
892.717	3329
892.839	3260
892.962	3340
893.085	3382
893.207	3291
893.33	3180
893.452	3249
893.575	3389
893.697	3291
893.819	3485
893.941	3511
894.064	3447
894.186	3260
894.308	3264
894.43	3496
894.552	3564
894.674	3523
894.796	3260
894.918	3317
895.04	3317
895.161	3428
895.283	3439
895.405	3344
895.526	3378
895.648	3435
895.769	3435
895.891	3473
896.012	3492
896.134	3462
896.255	3447
896.376	3363
896.498	3374
896.619	3439
896.74	3374
896.861	3401
896.982	3675
897.103	3854
897.224	3557
897.345	3534
897.466	3477
897.587	3507
897.708	3629
897.828	3564
897.949	3439
898.07	3378
898.19	3435
898.311	3614
898.431	3469
898.552	3530
898.672	3599
898.792	3568
898.913	3534
899.033	3439
899.153	3310
899.273	3233
899.393	3298
899.513	3306
899.633	3351
899.753	3329
899.873	3325
899.993	3409
900.113	3340
900.232	3428
900.352	3351
900.472	3332
900.591	3222
900.711	3279
900.83	3310
900.95	3443
901.069	3534
901.189	3378
901.308	3192
901.427	3146
901.546	3192
901.665	3302
901.784	3359
901.904	3203
902.023	3165
902.141	2963
902.26	3043
902.379	3173
902.498	3062
902.617	3074
902.735	3226
902.854	3233
902.973	3214
903.091	3062
903.21	3089
903.328	3142
903.446	3135
903.565	3154
903.683	3226
903.801	3161
903.919	3237
904.038	3253
904.156	3161
904.274	3306
904.392	3275
904.51	3275
904.627	3363
904.745	3439
904.863	3496
904.981	3256
905.098	3195
905.216	3230
905.334	3321
905.451	3317
905.569	3325
905.686	3466
905.803	3431
905.921	3329
906.038	3435
906.155	3329
906.272	3275
906.389	3340
906.506	3199
906.623	3256
906.74	3321
906.857	3237
906.974	3268
907.091	3469
907.208	3553
907.324	3488
907.441	3435
907.557	3237
907.674	3237
907.79	3249
907.907	3287
908.023	3374
908.139	3344
908.256	3340
908.372	3401
908.488	3344
908.604	3245
908.72	3245
908.836	3332
908.952	3283
909.068	3344
909.184	3511
909.3	3447
909.415	3473
909.531	3473
909.647	3298
909.762	3306
909.878	3279
909.993	3382
910.108	3389
910.224	3344
910.339	3389
910.454	3329
910.57	3306
910.685	3260
910.8	3599
910.915	3504
911.03	3435
911.145	3249
911.259	3264
911.374	3321
911.489	3233
911.604	3253
911.718	3097
911.833	3138
911.947	3017
912.062	2956
912.176	3157
912.291	3218
912.405	3207
912.519	3420
912.633	3454
912.748	3336
912.862	3302
912.976	3237
913.09	3081
913.204	3142
913.318	3260
913.431	3332
913.545	3344
913.659	3397
913.772	3359
913.886	3260
914	3233
914.113	3389
914.226	3431
914.34	3386
914.453	3211
914.566	3409
914.68	3313
914.793	3325
914.906	3173
915.019	3127
915.132	3070
915.245	3195
915.358	3184
915.47	3241
915.583	3260
915.696	3294
915.809	3435
915.921	3416
916.034	3237
916.146	3237
916.259	3249
916.371	3393
916.483	3386
916.595	3291
916.708	3363
916.82	3325
916.932	3313
917.044	3348
917.156	3363
917.268	3253
917.38	3317
917.491	3302
917.603	3325
917.715	3443
917.826	3469
917.938	3386
918.049	3298
918.161	3431
918.272	3572
918.384	3587
918.495	3523
918.606	3332
918.717	3272
918.828	3355
918.939	3416
919.05	3313
919.161	3351
919.272	3192
919.383	3298
919.494	3496
919.604	3679
919.715	3511
919.826	3401
919.936	3477
920.047	3572
920.157	3580
920.267	3762
920.378	3599
920.488	3591
920.598	3800
920.708	3968
920.818	3827
920.928	3816
921.038	4006
921.148	3941
921.258	3698
921.368	3641
921.477	3622
921.587	3545
921.697	3439
921.806	3641
921.916	3523
922.025	3401
922.134	3401
922.244	3332
922.353	3428
922.462	3245
922.571	3176
922.68	3116
922.789	3081
922.898	3138
923.007	3135
923.116	3195
923.224	3180
923.333	3195
923.442	3085
923.55	3116
923.659	3127
923.767	3211
923.876	3112
923.984	3264
924.092	3127
924.201	3173
924.309	3245
924.417	3275
924.525	3169
924.633	3256
924.741	4166
924.849	3043
924.956	3260
925.064	3116
925.172	3036
925.279	3093
925.387	3180
925.494	3195
925.602	3378
925.709	3317
925.816	3173
925.924	3294
926.031	3370
926.138	3329
926.245	3359
926.352	3230
926.459	3428
926.566	3447
926.673	3283
926.779	3245
926.886	3264
926.993	3146
927.099	3161
927.206	3150
927.312	3112
927.419	3230
927.525	3165
927.631	3253
927.737	3195
927.843	3089
927.95	3020
928.056	3154
928.162	3142
928.267	3249
928.373	3736
928.479	3348
928.585	3081
928.69	3195
928.796	3321
928.901	3176
929.007	3074
929.112	3180
929.218	3157
929.323	3138
929.428	3154
929.533	3302
929.638	3127
929.743	3188
929.848	3249
929.953	3207
930.058	3154
930.163	3005
930.267	3039
930.372	3199
930.477	3013
930.581	3313
930.685	3165
930.79	3058
930.894	3108
930.998	3077
931.103	3294
931.207	2929
931.311	2956
931.415	2941
931.519	2788
931.623	2792
