Data from test_V78500241_959.txt Node
Date: Fri Mar 25 16:21:50 CST 2022
User: usil
Spectrometer: V785-0024
Trigger mode: 0
Integration Time (sec): 4.000000E-1
Scans to average: 1
Nonlinearity correction enabled: false
Boxcar width: 0
Storing dark spectrum: false
XAxis mode: Wavelengths
Number of Pixels in Spectrum: 1024
>>>>>Begin Spectral Data<<<<<
801.071	2887
801.214	2960
801.356	2876
801.499	2895
801.641	2872
801.783	2937
801.926	3058
802.068	2956
802.211	2979
802.353	3036
802.496	2937
802.638	3005
802.78	3024
802.923	3089
803.065	3009
803.208	2887
803.35	2922
803.492	2937
803.635	2899
803.777	2769
803.919	2864
804.061	3165
804.204	2933
804.346	2906
804.488	2853
804.63	3017
804.773	2883
804.915	2899
805.057	3081
805.199	2914
805.341	2982
805.483	3032
805.626	3009
805.768	2967
805.91	3089
806.052	3100
806.194	3066
806.336	3214
806.478	3062
806.62	2982
806.762	3005
806.904	3062
807.046	3173
807.188	2967
807.33	2937
807.472	2990
807.614	2941
807.756	2979
807.898	2918
808.04	2906
808.182	2952
808.324	2944
808.465	2887
808.607	2883
808.749	2762
808.891	2830
809.033	3009
809.174	2971
809.316	2872
809.458	2922
809.6	2769
809.741	2762
809.883	2796
810.025	2838
810.166	2883
810.308	2845
810.45	2861
810.591	2766
810.733	2777
810.875	2823
811.016	2762
811.158	2766
811.299	2811
811.441	2922
811.582	2925
811.724	2842
811.865	2857
812.007	2899
812.148	2868
812.29	2849
812.431	2861
812.573	2937
812.714	2982
812.855	3028
812.997	3062
813.138	3142
813.279	2990
813.421	2967
813.562	2967
813.703	2857
813.845	2872
813.986	2766
814.127	2727
814.268	2823
814.41	2849
814.551	2796
814.692	2895
814.833	2830
814.974	2902
815.115	2952
815.256	2819
815.397	2815
815.539	2826
815.68	2762
815.821	2811
815.962	2952
816.103	2902
816.244	2906
816.385	2902
816.526	2956
816.666	2944
816.807	2762
816.948	2918
817.089	2906
817.23	2853
817.371	2731
817.512	2834
817.653	2800
817.793	2834
817.934	2887
818.075	2971
818.216	2986
818.356	3055
818.497	2872
818.638	2792
818.778	2819
818.919	2800
819.06	2758
819.2	2899
819.341	2807
819.481	2823
819.622	2899
819.762	3104
819.903	3058
820.043	2933
820.184	2895
820.324	2891
820.465	3043
820.605	3009
820.746	3013
820.886	2922
821.026	3100
821.167	3188
821.307	3245
821.447	3279
821.588	3233
821.728	3188
821.868	3188
822.008	3085
822.149	3173
822.289	3256
822.429	3081
822.569	3108
822.709	3146
822.849	3028
822.99	3070
823.13	3176
823.27	3180
823.41	3108
823.55	3142
823.69	3127
823.83	3214
823.97	3097
824.11	3020
824.25	2990
824.389	3066
824.529	3127
824.669	3077
824.809	3176
824.949	3222
825.089	3218
825.228	3176
825.368	3001
825.508	2944
825.648	2994
825.787	2960
825.927	3024
826.067	2960
826.206	2944
826.346	3005
826.485	3066
826.625	3093
826.765	3253
826.904	3207
827.044	2982
827.183	2933
827.323	2872
827.462	3009
827.601	2918
827.741	2895
827.88	2925
828.02	2872
828.159	2960
828.298	3051
828.437	3100
828.577	3039
828.716	3256
828.855	3097
828.994	2918
829.134	2887
829.273	2906
829.412	2899
829.551	2918
829.69	2880
829.829	2975
829.968	3093
830.107	2979
830.246	2998
830.385	2929
830.524	2864
830.663	2826
830.802	2743
830.941	2667
831.08	2644
831.219	2773
831.357	2750
831.496	2914
831.635	2712
831.774	2648
831.913	2655
832.051	2533
832.19	2587
832.329	2708
832.467	2545
832.606	2488
832.744	2556
832.883	2587
833.022	2613
833.16	2667
833.299	2712
833.437	2697
833.576	2712
833.714	2693
833.852	2735
833.991	2777
834.129	2838
834.267	2834
834.406	2762
834.544	2834
834.682	2868
834.821	2872
834.959	3062
835.097	2914
835.235	3039
835.373	2956
835.511	3005
835.65	2948
835.788	2925
835.926	2853
836.064	2834
836.202	2842
836.34	3108
836.478	3146
836.615	3032
836.753	3104
836.891	3188
837.029	3150
837.167	3112
837.305	3062
837.443	2982
837.58	2956
837.718	3093
837.856	3039
837.993	3032
838.131	3081
838.269	3116
838.406	3055
838.544	3062
838.681	2906
838.819	2948
838.956	2788
839.094	2842
839.231	2899
839.369	3047
839.506	3367
839.643	3218
839.781	3043
839.918	2941
840.055	3032
840.193	3013
840.33	3047
840.467	3089
840.604	3104
840.742	3367
840.879	3036
841.016	3074
841.153	3089
841.29	3325
841.427	3291
841.564	3245
841.701	3268
841.838	3268
841.975	3173
842.112	3226
842.249	3085
842.385	3058
842.522	3275
842.659	3047
842.796	3020
842.933	3116
843.069	3039
843.206	3047
843.343	3214
843.479	3108
843.616	3150
843.752	2906
843.889	2902
844.025	3074
844.162	2861
844.298	3047
844.435	2933
844.571	2933
844.708	3047
844.844	3176
844.98	3264
845.117	3188
845.253	3058
845.389	3028
845.525	3108
845.661	3093
845.798	3013
845.934	3131
846.07	3032
846.206	3195
846.342	3325
846.478	3207
846.614	3089
846.75	3032
846.886	3013
847.022	3214
847.158	3131
847.294	3218
847.429	3218
847.565	3249
847.701	3488
847.837	3036
847.972	2998
848.108	3157
848.244	3150
848.379	2956
848.515	2929
848.65	2937
848.786	2971
848.921	3005
849.057	3077
849.192	3161
849.328	3070
849.463	3097
849.598	3043
849.734	3089
849.869	2952
850.004	2891
850.14	2944
850.275	2929
850.41	2830
850.545	2868
850.68	2967
850.815	2937
850.95	2941
851.085	3211
851.22	3131
851.355	3028
851.49	2971
851.625	2998
851.76	3032
851.895	2929
852.03	2895
852.165	3013
852.299	3112
852.434	3138
852.569	3138
852.703	3165
852.838	3245
852.973	3348
853.107	3310
853.242	3154
853.376	3089
853.511	2979
853.645	3047
853.78	3226
853.914	3127
854.048	3108
854.183	3066
854.317	3146
854.451	3283
854.585	3119
854.72	3089
854.854	3184
854.988	3051
855.122	3100
855.256	3001
855.39	3089
855.524	3226
855.658	3184
855.792	3135
855.926	3176
856.06	3192
856.194	3260
856.327	3161
856.461	3077
856.595	3074
856.729	3089
856.862	3207
856.996	3112
857.13	3192
857.263	3233
857.397	3237
857.53	3081
857.664	3203
857.797	3237
857.931	3264
858.064	3138
858.197	3199
858.331	3100
858.464	3104
858.597	3013
858.731	3089
858.864	3135
858.997	3138
859.13	3131
859.263	3142
859.396	3218
859.529	3085
859.662	3089
859.795	3047
859.928	3123
860.061	3245
860.194	3264
860.327	3123
860.46	3066
860.592	3222
860.725	3226
860.858	3253
860.99	3097
861.123	3039
861.256	3100
861.388	3154
861.521	3823
861.653	3020
861.786	2990
861.918	2994
862.05	3070
862.183	3100
862.315	3119
862.447	3207
862.58	3093
862.712	2979
862.844	2914
862.976	3013
863.108	2971
863.24	3428
863.372	2899
863.504	2975
863.636	2944
863.768	3017
863.9	2990
864.032	2918
864.164	2925
864.296	2960
864.428	3070
864.559	3089
864.691	3017
864.823	3051
864.954	3055
865.086	3055
865.217	2975
865.349	2960
865.48	2971
865.612	2994
865.743	3157
865.875	2963
866.006	2929
866.137	2971
866.269	2960
866.4	2944
866.531	2948
866.662	2880
866.793	2906
866.924	2914
867.055	2922
867.186	2895
867.317	2918
867.448	2838
867.579	2792
867.71	2861
867.841	2826
867.972	2887
868.103	2941
868.233	2899
868.364	2864
868.495	2902
868.625	3089
868.756	3169
868.886	2956
869.017	2998
869.147	3180
869.278	3142
869.408	3058
869.539	2998
869.669	3112
869.799	3020
869.929	3135
870.06	3097
870.19	3317
870.32	3291
870.45	3283
870.58	3351
870.71	3443
870.84	3416
870.97	3298
871.1	3264
871.23	3534
871.36	3485
871.489	3382
871.619	3424
871.749	3401
871.879	3405
872.008	3431
872.138	3397
872.267	3260
872.397	3127
872.526	3116
872.656	2982
872.785	3077
872.915	3214
873.044	3329
873.173	3207
873.303	3214
873.432	3222
873.561	3245
873.69	3138
873.819	3150
873.948	3180
874.077	3093
874.206	3043
874.335	3058
874.464	3203
874.593	3359
874.722	3218
874.851	3412
874.979	3344
875.108	3294
875.237	3218
875.365	3195
875.494	3135
875.623	3253
875.751	3074
875.88	3085
876.008	3199
876.136	3218
876.265	3393
876.393	3504
876.521	3397
876.65	3363
876.778	3310
876.906	3233
877.034	3188
877.162	3184
877.29	3169
877.418	3272
877.546	3245
877.674	3256
877.802	3268
877.93	3226
878.058	3146
878.185	3062
878.313	3188
878.441	3211
878.568	3070
878.696	3154
878.824	3230
878.951	3321
879.079	3462
879.206	3614
879.333	3424
879.461	3283
879.588	3348
879.715	3469
879.842	3576
879.97	3363
880.097	3188
880.224	3093
880.351	3226
880.478	3253
880.605	3192
880.732	3211
880.859	3485
880.986	3336
881.112	3283
881.239	3195
881.366	3077
881.493	3013
881.619	3005
881.746	3081
881.872	3062
881.999	3085
882.125	3138
882.252	3211
882.378	3264
882.505	3424
882.631	3230
882.757	3161
882.883	3195
883.01	3199
883.136	3184
883.262	3104
883.388	3100
883.514	3336
883.64	3313
883.766	3336
883.892	3192
884.018	3222
884.143	3397
884.269	3584
884.395	3165
884.52	3119
884.646	3192
884.772	3146
884.897	3085
885.023	3176
885.148	3325
885.274	3435
885.399	3359
885.524	3294
885.65	3256
885.775	3351
885.9	3268
886.025	3439
886.15	3359
886.275	3302
886.4	3226
886.525	3275
886.65	3264
886.775	3253
886.9	3477
887.025	3637
887.149	3389
887.274	3260
887.399	3173
887.523	3195
887.648	3176
887.773	3173
887.897	3367
888.021	3382
888.146	3283
888.27	3416
888.395	3507
888.519	3409
888.643	3439
888.767	3458
888.891	3302
889.015	3268
889.139	3275
889.263	3272
889.387	3386
889.511	3496
889.635	3439
889.759	3283
889.883	3306
890.006	3450
890.13	3447
890.254	3287
890.377	3344
890.501	3169
890.624	3199
890.748	3249
890.871	3157
890.995	3058
891.118	3051
891.241	3165
891.364	3203
891.488	3302
891.611	3165
891.734	3241
891.857	3298
891.98	3203
892.103	3325
892.226	3272
892.349	3207
892.471	3104
892.594	3222
892.717	3283
892.839	3275
892.962	3272
893.085	3355
893.207	3287
893.33	3138
893.452	3184
893.575	3344
893.697	3237
893.819	3477
893.941	3473
894.064	3450
894.186	3260
894.308	3245
894.43	3458
894.552	3469
894.674	3469
894.796	3260
894.918	3340
895.04	3283
895.161	3469
895.283	3370
895.405	3329
895.526	3382
895.648	3458
895.769	3424
895.891	3443
896.012	3481
896.134	3469
896.255	3378
896.376	3378
896.498	3340
896.619	3454
896.74	3363
896.861	3389
896.982	3660
897.103	3812
897.224	3652
897.345	3515
897.466	3401
897.587	3504
897.708	3622
897.828	3534
897.949	3401
898.07	3329
898.19	3401
898.311	3595
898.431	3439
898.552	3485
898.672	3584
898.792	3534
898.913	3504
899.033	3405
899.153	3275
899.273	3226
899.393	3279
899.513	3321
899.633	3302
899.753	3340
899.873	3253
899.993	3401
900.113	3321
900.232	3389
900.352	3363
900.472	3260
900.591	3203
900.711	3298
900.83	3241
900.95	3431
901.069	3500
901.189	3336
901.308	3104
901.427	3119
901.546	3195
901.665	3272
901.784	3287
901.904	3203
902.023	3131
902.141	3032
902.26	3024
902.379	3146
902.498	3047
902.617	3017
902.735	3241
902.854	3272
902.973	3157
903.091	3017
903.21	3074
903.328	3127
903.446	3100
903.565	3043
903.683	3214
903.801	3112
903.919	3283
904.038	3275
904.156	3146
904.274	3260
904.392	3226
904.51	3287
904.627	3306
904.745	3435
904.863	3523
904.981	3256
905.098	3112
905.216	3195
905.334	3245
905.451	3279
905.569	3294
905.686	3409
905.803	3420
905.921	3336
906.038	3382
906.155	3351
906.272	3283
906.389	3313
906.506	3237
906.623	3214
906.74	3241
906.857	3214
906.974	3294
907.091	3450
907.208	3526
907.324	3488
907.441	3401
907.557	3195
907.674	3211
907.79	3169
907.907	3275
908.023	3367
908.139	3351
908.256	3336
908.372	3370
908.488	3359
908.604	3222
908.72	3222
908.836	3294
908.952	3256
909.068	3348
909.184	3481
909.3	3401
909.415	3500
909.531	3454
909.647	3260
909.762	3287
909.878	3245
909.993	3340
910.108	3374
910.224	3317
910.339	3428
910.454	3317
910.57	3260
910.685	3249
910.8	3572
910.915	3523
911.03	3424
911.145	3260
911.259	3253
911.374	3310
911.489	3253
911.604	3218
911.718	3135
911.833	3157
911.947	3047
912.062	2986
912.176	3165
912.291	3218
912.405	3218
912.519	3416
912.633	3477
912.748	3340
912.862	3268
912.976	3142
913.09	3051
913.204	3131
913.318	3154
913.431	3344
913.545	3351
913.659	3393
913.772	3321
913.886	3226
914	3199
914.113	3378
914.226	3424
914.34	3367
914.453	3226
914.566	3431
914.68	3298
914.793	3332
914.906	3154
915.019	3100
915.132	3058
915.245	3131
915.358	3173
915.47	3230
915.583	3241
915.696	3306
915.809	3393
915.921	3409
916.034	3260
916.146	3260
916.259	3192
916.371	3393
916.483	3363
916.595	3237
916.708	3321
916.82	3329
916.932	3332
917.044	3374
917.156	3363
917.268	3283
917.38	3283
917.491	3302
917.603	3367
917.715	3435
917.826	3439
917.938	3393
918.049	3306
918.161	3439
918.272	3576
918.384	3568
918.495	3526
918.606	3355
918.717	3279
918.828	3359
918.939	3397
919.05	3321
919.161	3409
919.272	3119
919.383	3253
919.494	3504
919.604	3675
919.715	3488
919.826	3378
919.936	3424
920.047	3561
920.157	3515
920.267	3755
920.378	3606
920.488	3511
920.598	3766
920.708	3968
920.818	3804
920.928	3789
921.038	4006
921.148	3964
921.258	3682
921.368	3637
921.477	3523
921.587	3511
921.697	3420
921.806	3648
921.916	3526
922.025	3325
922.134	3359
922.244	3298
922.353	3428
922.462	3287
922.571	3249
922.68	3085
922.789	3070
922.898	3150
923.007	3074
923.116	3165
923.224	3154
923.333	3226
923.442	3097
923.55	3097
923.659	3116
923.767	3192
923.876	3142
923.984	3260
924.092	3097
924.201	3188
924.309	3176
924.417	3245
924.525	3138
924.633	3184
924.741	4185
924.849	3036
924.956	3287
925.064	3135
925.172	3020
925.279	3097
925.387	3226
925.494	3214
925.602	3313
925.709	3302
925.816	3199
925.924	3287
926.031	3363
926.138	3317
926.245	3348
926.352	3211
926.459	3393
926.566	3447
926.673	3298
926.779	3260
926.886	3237
926.993	3127
927.099	3135
927.206	3097
927.312	3108
927.419	3226
927.525	3188
927.631	3302
927.737	3154
927.843	3104
927.95	3017
928.056	3165
928.162	3180
928.267	3218
928.373	3850
928.479	3245
928.585	3055
928.69	3272
928.796	3199
928.901	3135
929.007	3058
929.112	3211
929.218	3188
929.323	3146
929.428	3119
929.533	3310
929.638	3100
929.743	3142
929.848	3256
929.953	3203
930.058	3108
930.163	2975
930.267	3089
930.372	3176
930.477	3036
930.581	3291
930.685	3157
930.79	3039
930.894	3119
930.998	3089
931.103	3260
931.207	2971
931.311	2944
931.415	2929
931.519	2781
931.623	2800
