Data from test_V78500241_1804.txt Node
Date: Fri Mar 25 16:27:42 CST 2022
User: usil
Spectrometer: V785-0024
Trigger mode: 0
Integration Time (sec): 4.000000E-1
Scans to average: 1
Nonlinearity correction enabled: false
Boxcar width: 0
Storing dark spectrum: false
XAxis mode: Wavelengths
Number of Pixels in Spectrum: 1024
>>>>>Begin Spectral Data<<<<<
801.071	2925
801.214	2929
801.356	2845
801.499	2925
801.641	2906
801.783	2902
801.926	3017
802.068	2967
802.211	3001
802.353	3032
802.496	2990
802.638	2979
802.78	3028
802.923	3089
803.065	2998
803.208	2902
803.35	2906
803.492	2944
803.635	2937
803.777	2777
803.919	2876
804.061	3195
804.204	2922
804.346	2914
804.488	2823
804.63	2979
804.773	2872
804.915	2887
805.057	3074
805.199	2948
805.341	2952
805.483	3017
805.626	2963
805.768	2952
805.91	3089
806.052	3097
806.194	3051
806.336	3207
806.478	3062
806.62	2956
806.762	2986
806.904	3047
807.046	3157
807.188	2967
807.33	2933
807.472	2990
807.614	2868
807.756	3009
807.898	2933
808.04	2910
808.182	2990
808.324	2910
808.465	2918
808.607	2880
808.749	2842
808.891	2845
809.033	2982
809.174	2963
809.316	2899
809.458	2906
809.6	2777
809.741	2804
809.883	2754
810.025	2864
810.166	2887
810.308	2834
810.45	2804
810.591	2781
810.733	2758
810.875	2842
811.016	2754
811.158	2792
811.299	2815
811.441	2963
811.582	2899
811.724	2845
811.865	2853
812.007	2918
812.148	2868
812.29	2838
812.431	2876
812.573	2929
812.714	2975
812.855	3047
812.997	3051
813.138	3112
813.279	2971
813.421	2941
813.562	2979
813.703	2880
813.845	2933
813.986	2777
814.127	2735
814.268	2792
814.41	2834
814.551	2815
814.692	2887
814.833	2830
814.974	2868
815.115	2971
815.256	2823
815.397	2792
815.539	2857
815.68	2769
815.821	2800
815.962	2944
816.103	2941
816.244	2857
816.385	2880
816.526	2982
816.666	2941
816.807	2735
816.948	2872
817.089	2887
817.23	2853
817.371	2804
817.512	2762
817.653	2804
817.793	2811
817.934	2857
818.075	2971
818.216	3005
818.356	3036
818.497	2868
818.638	2811
818.778	2804
818.919	2785
819.06	2766
819.2	2857
819.341	2811
819.481	2792
819.622	2956
819.762	3097
819.903	3032
820.043	2899
820.184	2914
820.324	2895
820.465	2986
820.605	3020
820.746	3020
820.886	2914
821.026	3116
821.167	3154
821.307	3237
821.447	3283
821.588	3207
821.728	3207
821.868	3161
822.008	3066
822.149	3188
822.289	3226
822.429	3058
822.569	3066
822.709	3169
822.849	3001
822.99	3055
823.13	3135
823.27	3203
823.41	3089
823.55	3154
823.69	3131
823.83	3180
823.97	3085
824.11	2998
824.25	2982
824.389	3047
824.529	3093
824.669	3032
824.809	3150
824.949	3287
825.089	3222
825.228	3135
825.368	3043
825.508	2922
825.648	2948
825.787	2998
825.927	2994
826.067	2914
826.206	3001
826.346	3043
826.485	3039
826.625	3100
826.765	3253
826.904	3222
827.044	3024
827.183	2929
827.323	2864
827.462	2986
827.601	2918
827.741	2948
827.88	2918
828.02	2845
828.159	2967
828.298	3032
828.437	3100
828.577	3036
828.716	3226
828.855	3097
828.994	2876
829.134	2906
829.273	2933
829.412	2857
829.551	2864
829.69	2853
829.829	2994
829.968	3138
830.107	3020
830.246	3032
830.385	2895
830.524	2849
830.663	2819
830.802	2716
830.941	2640
831.08	2640
831.219	2781
831.357	2773
831.496	2937
831.635	2693
831.774	2594
831.913	2621
832.051	2511
832.19	2552
832.329	2678
832.467	2541
832.606	2492
832.744	2583
832.883	2598
833.022	2587
833.16	2644
833.299	2682
833.437	2670
833.576	2712
833.714	2727
833.852	2712
833.991	2746
834.129	2823
834.267	2823
834.406	2792
834.544	2864
834.682	2868
834.821	2868
834.959	3032
835.097	2918
835.235	3032
835.373	2982
835.511	3001
835.65	2956
835.788	2922
835.926	2853
836.064	2773
836.202	2830
836.34	3116
836.478	3131
836.615	3043
836.753	3108
836.891	3180
837.029	3157
837.167	3089
837.305	3074
837.443	3047
837.58	2933
837.718	3131
837.856	3055
837.993	3001
838.131	3097
838.269	3104
838.406	3077
838.544	3055
838.681	2944
838.819	2929
838.956	2800
839.094	2826
839.231	2883
839.369	2975
839.506	3370
839.643	3184
839.781	3005
839.918	2963
840.055	3047
840.193	3024
840.33	3093
840.467	3104
840.604	3154
840.742	3409
840.879	3062
841.016	3055
841.153	3123
841.29	3283
841.427	3287
841.564	3249
841.701	3279
841.838	3222
841.975	3150
842.112	3214
842.249	3077
842.385	3039
842.522	3245
842.659	3077
842.796	3058
842.933	3089
843.069	3020
843.206	3009
843.343	3173
843.479	3097
843.616	3146
843.752	2887
843.889	2849
844.025	3051
844.162	2849
844.298	3074
844.435	2952
844.571	2861
844.708	3066
844.844	3150
844.98	3237
845.117	3173
845.253	3024
845.389	3017
845.525	3085
845.661	3097
845.798	2979
845.934	3123
846.07	3032
846.206	3207
846.342	3298
846.478	3199
846.614	3089
846.75	3024
846.886	2998
847.022	3211
847.158	3135
847.294	3195
847.429	3214
847.565	3184
847.701	3523
847.837	3036
847.972	2998
848.108	3199
848.244	3123
848.379	2979
848.515	2948
848.65	2895
848.786	2952
848.921	3001
849.057	3066
849.192	3112
849.328	3058
849.463	3127
849.598	3081
849.734	3043
849.869	2960
850.004	2918
850.14	2963
850.275	2918
850.41	2849
850.545	2880
850.68	2910
850.815	2944
850.95	2944
851.085	3157
851.22	3123
851.355	3055
851.49	2975
851.625	2982
851.76	2998
851.895	2933
852.03	2910
852.165	3036
852.299	3119
852.434	3214
852.569	3135
852.703	3097
852.838	3264
852.973	3291
853.107	3306
853.242	3127
853.376	3066
853.511	2960
853.645	3058
853.78	3222
853.914	3081
854.048	3100
854.183	3081
854.317	3150
854.451	3256
854.585	3127
854.72	3074
854.854	3199
854.988	3066
855.122	3051
855.256	3005
855.39	3108
855.524	3218
855.658	3138
855.792	3142
855.926	3188
856.06	3207
856.194	3279
856.327	3135
856.461	3081
856.595	3077
856.729	3119
856.862	3211
856.996	3157
857.13	3188
857.263	3222
857.397	3249
857.53	3097
857.664	3203
857.797	3249
857.931	3241
858.064	3154
858.197	3195
858.331	3116
858.464	3066
858.597	3005
858.731	3135
858.864	3127
858.997	3089
859.13	3154
859.263	3135
859.396	3169
859.529	3058
859.662	3074
859.795	3039
859.928	3131
860.061	3291
860.194	3256
860.327	3180
860.46	3077
860.592	3214
860.725	3249
860.858	3195
860.99	3119
861.123	3024
861.256	3036
861.388	3123
861.521	3854
861.653	3009
861.786	2994
861.918	2963
862.05	3058
862.183	3077
862.315	3131
862.447	3203
862.58	3085
862.712	2914
862.844	2864
862.976	3028
863.108	2986
863.24	3329
863.372	2899
863.504	2971
863.636	2941
863.768	3047
863.9	2952
864.032	2910
864.164	2975
864.296	3028
864.428	3066
864.559	3127
864.691	3055
864.823	3051
864.954	3024
865.086	3013
865.217	3005
865.349	2902
865.48	2998
865.612	3036
865.743	3097
865.875	2963
866.006	2933
866.137	3013
866.269	2937
866.4	2929
866.531	2887
866.662	2891
866.793	2925
866.924	2872
867.055	2956
867.186	2956
867.317	2895
867.448	2815
867.579	2857
867.71	2823
867.841	2792
867.972	2872
868.103	2868
868.233	2876
868.364	2876
868.495	2861
868.625	3066
868.756	3173
868.886	2910
869.017	2998
869.147	3131
869.278	3169
869.408	3017
869.539	3039
869.669	3085
869.799	3032
869.929	3150
870.06	3097
870.19	3313
870.32	3241
870.45	3249
870.58	3340
870.71	3435
870.84	3431
870.97	3253
871.1	3233
871.23	3485
871.36	3507
871.489	3374
871.619	3370
871.749	3409
871.879	3447
872.008	3473
872.138	3348
872.267	3275
872.397	3112
872.526	3127
872.656	3032
872.785	3077
872.915	3226
873.044	3306
873.173	3230
873.303	3249
873.432	3222
873.561	3253
873.69	3135
873.819	3138
873.948	3199
874.077	3093
874.206	3017
874.335	3077
874.464	3253
874.593	3363
874.722	3230
874.851	3374
874.979	3340
875.108	3287
875.237	3195
875.365	3154
875.494	3195
875.623	3226
875.751	3058
875.88	3089
876.008	3184
876.136	3245
876.265	3355
876.393	3515
876.521	3428
876.65	3393
876.778	3351
876.906	3214
877.034	3199
877.162	3237
877.29	3169
877.418	3256
877.546	3249
877.674	3241
877.802	3233
877.93	3195
878.058	3108
878.185	3100
878.313	3211
878.441	3192
878.568	3062
878.696	3157
878.824	3249
878.951	3275
879.079	3424
879.206	3625
879.333	3397
879.461	3336
879.588	3367
879.715	3481
879.842	3629
879.97	3370
880.097	3150
880.224	3146
880.351	3180
880.478	3237
880.605	3161
880.732	3192
880.859	3485
880.986	3298
881.112	3321
881.239	3233
881.366	3093
881.493	3051
881.619	3055
881.746	3074
881.872	3089
881.999	3089
882.125	3127
882.252	3233
882.378	3291
882.505	3469
882.631	3268
882.757	3161
882.883	3203
883.01	3226
883.136	3169
883.262	3055
883.388	3097
883.514	3313
883.64	3329
883.766	3325
883.892	3180
884.018	3260
884.143	3439
884.269	3519
884.395	3184
884.52	3138
884.646	3199
884.772	3135
884.897	3116
885.023	3211
885.148	3344
885.274	3424
885.399	3351
885.524	3253
885.65	3237
885.775	3291
885.9	3268
886.025	3424
886.15	3329
886.275	3302
886.4	3249
886.525	3294
886.65	3287
886.775	3275
886.9	3477
887.025	3625
887.149	3378
887.274	3211
887.399	3222
887.523	3146
887.648	3199
887.773	3184
887.897	3359
888.021	3416
888.146	3264
888.27	3443
888.395	3534
888.519	3435
888.643	3443
888.767	3435
888.891	3298
889.015	3226
889.139	3237
889.263	3211
889.387	3397
889.511	3523
889.635	3454
889.759	3287
889.883	3253
890.006	3393
890.13	3519
890.254	3291
890.377	3348
890.501	3211
890.624	3157
890.748	3298
890.871	3176
890.995	3097
891.118	3062
891.241	3211
891.364	3195
891.488	3313
891.611	3184
891.734	3195
891.857	3283
891.98	3253
892.103	3374
892.226	3275
892.349	3207
892.471	3119
892.594	3272
892.717	3275
892.839	3283
892.962	3302
893.085	3351
893.207	3245
893.33	3123
893.452	3199
893.575	3317
893.697	3249
893.819	3481
893.941	3485
894.064	3443
894.186	3283
894.308	3268
894.43	3401
894.552	3511
894.674	3458
894.796	3264
894.918	3283
895.04	3256
895.161	3447
895.283	3355
895.405	3272
895.526	3378
895.648	3405
895.769	3428
895.891	3412
896.012	3481
896.134	3443
896.255	3378
896.376	3336
896.498	3317
896.619	3393
896.74	3332
896.861	3420
896.982	3694
897.103	3816
897.224	3580
897.345	3500
897.466	3435
897.587	3466
897.708	3606
897.828	3542
897.949	3424
898.07	3355
898.19	3367
898.311	3587
898.431	3416
898.552	3538
898.672	3568
898.792	3549
898.913	3504
899.033	3355
899.153	3275
899.273	3245
899.393	3298
899.513	3336
899.633	3298
899.753	3332
899.873	3294
899.993	3329
900.113	3332
900.232	3378
900.352	3332
900.472	3264
900.591	3207
900.711	3291
900.83	3230
900.95	3428
901.069	3511
901.189	3344
901.308	3180
901.427	3138
901.546	3180
901.665	3283
901.784	3294
901.904	3161
902.023	3176
902.141	3005
902.26	2967
902.379	3138
902.498	3089
902.617	3055
902.735	3195
902.854	3268
902.973	3169
903.091	3028
903.21	3032
903.328	3127
903.446	3135
903.565	3085
903.683	3180
903.801	3131
903.919	3245
904.038	3237
904.156	3207
904.274	3287
904.392	3203
904.51	3272
904.627	3302
904.745	3435
904.863	3481
904.981	3245
905.098	3199
905.216	3226
905.334	3275
905.451	3294
905.569	3310
905.686	3412
905.803	3447
905.921	3287
906.038	3397
906.155	3348
906.272	3260
906.389	3359
906.506	3207
906.623	3253
906.74	3279
906.857	3188
906.974	3230
907.091	3466
907.208	3545
907.324	3481
907.441	3370
907.557	3233
907.674	3218
907.79	3195
907.907	3279
908.023	3344
908.139	3340
908.256	3348
908.372	3382
908.488	3313
908.604	3230
908.72	3169
908.836	3272
908.952	3291
909.068	3351
909.184	3485
909.3	3412
909.415	3485
909.531	3466
909.647	3260
909.762	3302
909.878	3275
909.993	3348
910.108	3310
910.224	3283
910.339	3416
910.454	3313
910.57	3260
910.685	3218
910.8	3557
910.915	3534
911.03	3420
911.145	3294
911.259	3268
911.374	3302
911.489	3233
911.604	3241
911.718	3097
911.833	3150
911.947	3001
912.062	2975
912.176	3146
912.291	3176
912.405	3192
912.519	3435
912.633	3466
912.748	3310
912.862	3253
912.976	3119
913.09	3062
913.204	3131
913.318	3165
913.431	3294
913.545	3340
913.659	3409
913.772	3336
913.886	3245
914	3176
914.113	3382
914.226	3420
914.34	3397
914.453	3207
914.566	3412
914.68	3272
914.793	3310
914.906	3123
915.019	3131
915.132	3066
915.245	3176
915.358	3188
915.47	3211
915.583	3260
915.696	3302
915.809	3389
915.921	3355
916.034	3211
916.146	3222
916.259	3199
916.371	3348
916.483	3370
916.595	3260
916.708	3310
916.82	3306
916.932	3298
917.044	3275
917.156	3325
917.268	3260
917.38	3298
917.491	3294
917.603	3344
917.715	3412
917.826	3469
917.938	3348
918.049	3264
918.161	3412
918.272	3557
918.384	3542
918.495	3454
918.606	3294
918.717	3306
918.828	3355
918.939	3386
919.05	3264
919.161	3359
919.272	3192
919.383	3291
919.494	3511
919.604	3648
919.715	3481
919.826	3397
919.936	3424
920.047	3595
920.157	3557
920.267	3785
920.378	3606
920.488	3549
920.598	3800
920.708	3964
920.818	3819
920.928	3846
921.038	4025
921.148	4044
921.258	3686
921.368	3629
921.477	3606
921.587	3561
921.697	3458
921.806	3603
921.916	3557
922.025	3374
922.134	3359
922.244	3340
922.353	3428
922.462	3256
922.571	3294
922.68	3127
922.789	3116
922.898	3161
923.007	3161
923.116	3245
923.224	3233
923.333	3207
923.442	3135
923.55	3104
923.659	3188
923.767	3230
923.876	3127
923.984	3294
924.092	3146
924.201	3253
924.309	3275
924.417	3279
924.525	3233
924.633	3279
924.741	4032
924.849	3058
924.956	3317
925.064	3135
925.172	3066
925.279	3119
925.387	3237
925.494	3253
925.602	3409
925.709	3359
925.816	3237
925.924	3359
926.031	3397
926.138	3344
926.245	3397
926.352	3294
926.459	3450
926.566	3492
926.673	3348
926.779	3287
926.886	3283
926.993	3184
927.099	3157
927.206	3150
927.312	3157
927.419	3218
927.525	3260
927.631	3325
927.737	3199
927.843	3192
927.95	3097
928.056	3161
928.162	3192
928.267	3287
928.373	3778
928.479	3321
928.585	3093
928.69	3294
928.796	3336
928.901	3218
929.007	3055
929.112	3268
929.218	3218
929.323	3211
929.428	3195
929.533	3336
929.638	3135
929.743	3241
929.848	3294
929.953	3275
930.058	3195
930.163	2998
930.267	3097
930.372	3237
930.477	3089
930.581	3374
930.685	3199
930.79	3089
930.894	3157
930.998	3108
931.103	3302
931.207	3005
931.311	2967
931.415	2948
931.519	2823
931.623	2857
