Data from test_V78500241_1390.txt Node
Date: Fri Mar 25 16:24:49 CST 2022
User: usil
Spectrometer: V785-0024
Trigger mode: 0
Integration Time (sec): 4.000000E-1
Scans to average: 1
Nonlinearity correction enabled: false
Boxcar width: 0
Storing dark spectrum: false
XAxis mode: Wavelengths
Number of Pixels in Spectrum: 1024
>>>>>Begin Spectral Data<<<<<
801.071	2895
801.214	2929
801.356	2842
801.499	2929
801.641	2857
801.783	2956
801.926	3055
802.068	2967
802.211	2960
802.353	3032
802.496	2967
802.638	3005
802.78	3020
802.923	3081
803.065	2971
803.208	2906
803.35	2937
803.492	2937
803.635	2902
803.777	2777
803.919	2842
804.061	3192
804.204	2929
804.346	2922
804.488	2811
804.63	3024
804.773	2887
804.915	2937
805.057	3062
805.199	2895
805.341	2956
805.483	3051
805.626	3001
805.768	2960
805.91	3131
806.052	3108
806.194	3039
806.336	3237
806.478	3051
806.62	2986
806.762	2998
806.904	3032
807.046	3173
807.188	2994
807.33	2914
807.472	2975
807.614	2914
807.756	2960
807.898	2933
808.04	2918
808.182	2971
808.324	2929
808.465	2906
808.607	2925
808.749	2796
808.891	2815
809.033	2975
809.174	2963
809.316	2880
809.458	2906
809.6	2766
809.741	2785
809.883	2754
810.025	2834
810.166	2842
810.308	2842
810.45	2864
810.591	2781
810.733	2781
810.875	2826
811.016	2788
811.158	2739
811.299	2766
811.441	2929
811.582	2883
811.724	2823
811.865	2830
812.007	2937
812.148	2906
812.29	2864
812.431	2849
812.573	2952
812.714	2922
812.855	3028
812.997	3104
813.138	3157
813.279	3005
813.421	2925
813.562	2944
813.703	2910
813.845	2925
813.986	2743
814.127	2739
814.268	2826
814.41	2876
814.551	2788
814.692	2857
814.833	2792
814.974	2906
815.115	2925
815.256	2830
815.397	2785
815.539	2800
815.68	2781
815.821	2773
815.962	2929
816.103	2899
816.244	2853
816.385	2864
816.526	2937
816.666	2914
816.807	2731
816.948	2872
817.089	2902
817.23	2800
817.371	2769
817.512	2758
817.653	2811
817.793	2807
817.934	2861
818.075	2956
818.216	3009
818.356	3020
818.497	2834
818.638	2781
818.778	2807
818.919	2781
819.06	2735
819.2	2845
819.341	2823
819.481	2785
819.622	2902
819.762	3093
819.903	3039
820.043	2910
820.184	2880
820.324	2887
820.465	3020
820.605	3001
820.746	3017
820.886	2895
821.026	3081
821.167	3135
821.307	3264
821.447	3264
821.588	3222
821.728	3207
821.868	3157
822.008	3074
822.149	3157
822.289	3211
822.429	3081
822.569	3097
822.709	3154
822.849	3047
822.99	3116
823.13	3150
823.27	3154
823.41	3131
823.55	3123
823.69	3142
823.83	3195
823.97	3066
824.11	2986
824.25	2963
824.389	3028
824.529	3112
824.669	3043
824.809	3180
824.949	3165
825.089	3264
825.228	3127
825.368	3009
825.508	2929
825.648	2982
825.787	2982
825.927	3020
826.067	2982
826.206	2941
826.346	3028
826.485	3066
826.625	3100
826.765	3268
826.904	3233
827.044	2990
827.183	2933
827.323	2842
827.462	3001
827.601	2883
827.741	2925
827.88	2937
828.02	2891
828.159	2975
828.298	3036
828.437	3123
828.577	3062
828.716	3230
828.855	3062
828.994	2864
829.134	2872
829.273	2910
829.412	2876
829.551	2849
829.69	2872
829.829	2967
829.968	3108
830.107	3009
830.246	3047
830.385	2872
830.524	2872
830.663	2796
830.802	2735
830.941	2617
831.08	2651
831.219	2705
831.357	2743
831.496	2971
831.635	2727
831.774	2655
831.913	2670
832.051	2545
832.19	2587
832.329	2701
832.467	2522
832.606	2473
832.744	2560
832.883	2568
833.022	2575
833.16	2602
833.299	2693
833.437	2670
833.576	2701
833.714	2708
833.852	2746
833.991	2735
834.129	2819
834.267	2830
834.406	2800
834.544	2925
834.682	2887
834.821	2868
834.959	3043
835.097	2872
835.235	3055
835.373	2952
835.511	3009
835.65	2937
835.788	2944
835.926	2838
836.064	2800
836.202	2834
836.34	3070
836.478	3116
836.615	3051
836.753	3112
836.891	3180
837.029	3176
837.167	3077
837.305	3062
837.443	3058
837.58	2933
837.718	3108
837.856	3020
837.993	3024
838.131	3127
838.269	3108
838.406	3100
838.544	3097
838.681	2925
838.819	2910
838.956	2804
839.094	2834
839.231	2887
839.369	3009
839.506	3370
839.643	3180
839.781	3013
839.918	2918
840.055	3017
840.193	2998
840.33	3036
840.467	3089
840.604	3161
840.742	3409
840.879	3039
841.016	3051
841.153	3116
841.29	3325
841.427	3298
841.564	3272
841.701	3294
841.838	3218
841.975	3188
842.112	3230
842.249	3104
842.385	3051
842.522	3218
842.659	3062
842.796	3013
842.933	3135
843.069	3051
843.206	3047
843.343	3180
843.479	3066
843.616	3142
843.752	2887
843.889	2883
844.025	3058
844.162	2857
844.298	3062
844.435	2948
844.571	2868
844.708	3066
844.844	3169
844.98	3214
845.117	3195
845.253	3005
845.389	2986
845.525	3066
845.661	3108
845.798	3036
845.934	3138
846.07	3043
846.206	3253
846.342	3317
846.478	3237
846.614	3108
846.75	3036
846.886	3055
847.022	3230
847.158	3131
847.294	3188
847.429	3275
847.565	3188
847.701	3545
847.837	3005
847.972	2986
848.108	3150
848.244	3104
848.379	3001
848.515	2956
848.65	2918
848.786	2963
848.921	2990
849.057	3062
849.192	3169
849.328	3070
849.463	3127
849.598	3028
849.734	3043
849.869	2990
850.004	2929
850.14	2960
850.275	2902
850.41	2830
850.545	2857
850.68	2910
850.815	2948
850.95	2986
851.085	3173
851.22	3085
851.355	3020
851.49	2975
851.625	2952
851.76	3055
851.895	2910
852.03	2887
852.165	3036
852.299	3097
852.434	3195
852.569	3123
852.703	3176
852.838	3237
852.973	3355
853.107	3302
853.242	3131
853.376	3070
853.511	2979
853.645	3032
853.78	3287
853.914	3108
854.048	3085
854.183	3066
854.317	3131
854.451	3283
854.585	3093
854.72	3066
854.854	3188
854.988	3077
855.122	3058
855.256	2975
855.39	3127
855.524	3260
855.658	3180
855.792	3165
855.926	3180
856.06	3180
856.194	3222
856.327	3154
856.461	3074
856.595	3058
856.729	3051
856.862	3214
856.996	3161
857.13	3195
857.263	3207
857.397	3272
857.53	3127
857.664	3192
857.797	3207
857.931	3287
858.064	3176
858.197	3207
858.331	3119
858.464	3104
858.597	3017
858.731	3146
858.864	3131
858.997	3074
859.13	3123
859.263	3173
859.396	3207
859.529	3085
859.662	3062
859.795	3024
859.928	3119
860.061	3260
860.194	3272
860.327	3123
860.46	3081
860.592	3207
860.725	3245
860.858	3302
860.99	3093
861.123	3066
861.256	3036
861.388	3108
861.521	3740
861.653	3001
861.786	2982
861.918	3028
862.05	3066
862.183	3116
862.315	3146
862.447	3188
862.58	3062
862.712	2971
862.844	2876
862.976	2994
863.108	3017
863.24	3294
863.372	2845
863.504	2960
863.636	2963
863.768	3001
863.9	2975
864.032	2906
864.164	2944
864.296	3028
864.428	3062
864.559	3074
864.691	3024
864.823	3047
864.954	3024
865.086	2979
865.217	2979
865.349	2990
865.48	2963
865.612	2982
865.743	3123
865.875	2990
866.006	2979
866.137	2975
866.269	2982
866.4	2937
866.531	2960
866.662	2906
866.793	2902
866.924	2868
867.055	2967
867.186	2941
867.317	2899
867.448	2838
867.579	2830
867.71	2804
867.841	2804
867.972	2902
868.103	2902
868.233	2872
868.364	2872
868.495	2899
868.625	3066
868.756	3131
868.886	2960
869.017	3024
869.147	3146
869.278	3146
869.408	3058
869.539	2998
869.669	3051
869.799	2982
869.929	3135
870.06	3085
870.19	3344
870.32	3264
870.45	3317
870.58	3344
870.71	3458
870.84	3450
870.97	3264
871.1	3237
871.23	3450
871.36	3454
871.489	3370
871.619	3397
871.749	3397
871.879	3439
872.008	3416
872.138	3321
872.267	3260
872.397	3104
872.526	3104
872.656	3039
872.785	3055
872.915	3207
873.044	3306
873.173	3226
873.303	3233
873.432	3218
873.561	3222
873.69	3142
873.819	3131
873.948	3142
874.077	3100
874.206	3036
874.335	3024
874.464	3241
874.593	3351
874.722	3253
874.851	3363
874.979	3344
875.108	3291
875.237	3218
875.365	3135
875.494	3161
875.623	3233
875.751	3104
875.88	3081
876.008	3165
876.136	3211
876.265	3325
876.393	3526
876.521	3405
876.65	3424
876.778	3348
876.906	3253
877.034	3211
877.162	3237
877.29	3184
877.418	3253
877.546	3264
877.674	3192
877.802	3222
877.93	3245
878.058	3142
878.185	3116
878.313	3218
878.441	3233
878.568	3070
878.696	3135
878.824	3256
878.951	3268
879.079	3439
879.206	3663
879.333	3420
879.461	3336
879.588	3370
879.715	3469
879.842	3561
879.97	3420
880.097	3188
880.224	3138
880.351	3169
880.478	3237
880.605	3192
880.732	3154
880.859	3500
880.986	3272
881.112	3344
881.239	3249
881.366	3108
881.493	3028
881.619	2986
881.746	3074
881.872	3100
881.999	3074
882.125	3154
882.252	3249
882.378	3283
882.505	3458
882.631	3256
882.757	3108
882.883	3207
883.01	3173
883.136	3154
883.262	3097
883.388	3097
883.514	3329
883.64	3370
883.766	3294
883.892	3184
884.018	3253
884.143	3416
884.269	3507
884.395	3199
884.52	3157
884.646	3184
884.772	3127
884.897	3108
885.023	3188
885.148	3332
885.274	3382
885.399	3329
885.524	3272
885.65	3241
885.775	3291
885.9	3279
886.025	3428
886.15	3370
886.275	3298
886.4	3260
886.525	3306
886.65	3260
886.775	3279
886.9	3519
887.025	3637
887.149	3416
887.274	3249
887.399	3180
887.523	3230
887.648	3199
887.773	3184
887.897	3355
888.021	3374
888.146	3294
888.27	3405
888.395	3538
888.519	3454
888.643	3428
888.767	3454
888.891	3298
889.015	3253
889.139	3260
889.263	3222
889.387	3370
889.511	3492
889.635	3435
889.759	3287
889.883	3306
890.006	3374
890.13	3481
890.254	3279
890.377	3359
890.501	3188
890.624	3192
890.748	3306
890.871	3176
890.995	3085
891.118	3058
891.241	3161
891.364	3211
891.488	3317
891.611	3157
891.734	3165
891.857	3279
891.98	3241
892.103	3325
892.226	3268
892.349	3176
892.471	3116
892.594	3214
892.717	3272
892.839	3233
892.962	3230
893.085	3340
893.207	3279
893.33	3161
893.452	3180
893.575	3336
893.697	3237
893.819	3462
893.941	3519
894.064	3458
894.186	3268
894.308	3268
894.43	3466
894.552	3530
894.674	3462
894.796	3249
894.918	3279
895.04	3256
895.161	3420
895.283	3370
895.405	3291
895.526	3382
895.648	3382
895.769	3469
895.891	3435
896.012	3428
896.134	3481
896.255	3431
896.376	3344
896.498	3374
896.619	3409
896.74	3336
896.861	3416
896.982	3686
897.103	3797
897.224	3564
897.345	3481
897.466	3401
897.587	3488
897.708	3603
897.828	3511
897.949	3409
898.07	3332
898.19	3401
898.311	3610
898.431	3424
898.552	3492
898.672	3591
898.792	3561
898.913	3504
899.033	3386
899.153	3283
899.273	3203
899.393	3253
899.513	3287
899.633	3317
899.753	3321
899.873	3294
899.993	3348
900.113	3359
900.232	3370
900.352	3340
900.472	3306
900.591	3222
900.711	3279
900.83	3253
900.95	3409
901.069	3450
901.189	3355
901.308	3176
901.427	3116
901.546	3184
901.665	3260
901.784	3321
901.904	3207
902.023	3138
902.141	2998
902.26	2963
902.379	3169
902.498	3066
902.617	3024
902.735	3192
902.854	3245
902.973	3192
903.091	3055
903.21	3070
903.328	3100
903.446	3089
903.565	3119
903.683	3211
903.801	3131
903.919	3249
904.038	3275
904.156	3169
904.274	3279
904.392	3253
904.51	3287
904.627	3344
904.745	3428
904.863	3504
904.981	3264
905.098	3142
905.216	3207
905.334	3272
905.451	3291
905.569	3268
905.686	3428
905.803	3454
905.921	3272
906.038	3397
906.155	3351
906.272	3279
906.389	3321
906.506	3192
906.623	3214
906.74	3264
906.857	3199
906.974	3275
907.091	3443
907.208	3549
907.324	3488
907.441	3355
907.557	3207
907.674	3233
907.79	3214
907.907	3253
908.023	3370
908.139	3348
908.256	3332
908.372	3382
908.488	3378
908.604	3256
908.72	3211
908.836	3291
908.952	3283
909.068	3313
909.184	3511
909.3	3351
909.415	3504
909.531	3477
909.647	3264
909.762	3249
909.878	3203
909.993	3367
910.108	3329
910.224	3336
910.339	3359
910.454	3321
910.57	3313
910.685	3253
910.8	3576
910.915	3511
911.03	3412
911.145	3279
911.259	3275
911.374	3332
911.489	3249
911.604	3230
911.718	3127
911.833	3173
911.947	3009
912.062	3005
912.176	3173
912.291	3165
912.405	3203
912.519	3397
912.633	3504
912.748	3340
912.862	3268
912.976	3146
913.09	3062
913.204	3123
913.318	3192
913.431	3359
913.545	3310
913.659	3428
913.772	3291
913.886	3233
914	3176
914.113	3325
914.226	3363
914.34	3405
914.453	3199
914.566	3412
914.68	3302
914.793	3294
914.906	3135
915.019	3142
915.132	3097
915.245	3188
915.358	3188
915.47	3241
915.583	3291
915.696	3272
915.809	3359
915.921	3397
916.034	3195
916.146	3264
916.259	3195
916.371	3397
916.483	3359
916.595	3249
916.708	3332
916.82	3313
916.932	3317
917.044	3340
917.156	3317
917.268	3222
917.38	3302
917.491	3283
917.603	3370
917.715	3469
917.826	3428
917.938	3367
918.049	3230
918.161	3420
918.272	3587
918.384	3568
918.495	3473
918.606	3344
918.717	3287
918.828	3348
918.939	3439
919.05	3287
919.161	3374
919.272	3180
919.383	3268
919.494	3511
919.604	3682
919.715	3454
919.826	3401
919.936	3443
920.047	3568
920.157	3538
920.267	3743
920.378	3603
920.488	3557
920.598	3740
920.708	3956
920.818	3804
920.928	3781
921.038	4025
921.148	3975
921.258	3713
921.368	3614
921.477	3610
921.587	3576
921.697	3443
921.806	3603
921.916	3504
922.025	3313
922.134	3382
922.244	3306
922.353	3424
922.462	3203
922.571	3233
922.68	3123
922.789	3119
922.898	3138
923.007	3146
923.116	3192
923.224	3161
923.333	3154
923.442	3119
923.55	3100
923.659	3108
923.767	3214
923.876	3085
923.984	3245
924.092	3112
924.201	3203
924.309	3226
924.417	3275
924.525	3169
924.633	3222
924.741	4032
924.849	3058
924.956	3253
925.064	3097
925.172	3005
925.279	3066
925.387	3176
925.494	3184
925.602	3355
925.709	3294
925.816	3214
925.924	3260
926.031	3363
926.138	3306
926.245	3340
926.352	3222
926.459	3458
926.566	3462
926.673	3325
926.779	3245
926.886	3218
926.993	3154
927.099	3112
927.206	3097
927.312	3097
927.419	3256
927.525	3195
927.631	3256
927.737	3131
927.843	3089
927.95	3013
928.056	3138
928.162	3157
928.267	3237
928.373	3850
928.479	3317
928.585	3062
928.69	3192
928.796	3245
928.901	3142
929.007	3058
929.112	3199
929.218	3176
929.323	3142
929.428	3108
929.533	3302
929.638	3131
929.743	3180
929.848	3283
929.953	3207
930.058	3138
930.163	2990
930.267	3028
930.372	3207
930.477	3020
930.581	3275
930.685	3157
930.79	3051
930.894	3089
930.998	3089
931.103	3283
931.207	2960
931.311	2929
931.415	2918
931.519	2754
931.623	2785
