Data from test_V78500241_2022.txt Node
Date: Fri Mar 25 16:29:12 CST 2022
User: usil
Spectrometer: V785-0024
Trigger mode: 0
Integration Time (sec): 4.000000E-1
Scans to average: 1
Nonlinearity correction enabled: false
Boxcar width: 0
Storing dark spectrum: false
XAxis mode: Wavelengths
Number of Pixels in Spectrum: 1024
>>>>>Begin Spectral Data<<<<<
801.071	2914
801.214	2963
801.356	2902
801.499	2902
801.641	2918
801.783	2937
801.926	3108
802.068	3017
802.211	3020
802.353	3070
802.496	2986
802.638	3055
802.78	3070
802.923	3089
803.065	3055
803.208	2929
803.35	2910
803.492	2906
803.635	2960
803.777	2750
803.919	2918
804.061	3230
804.204	2948
804.346	2914
804.488	2910
804.63	3024
804.773	2845
804.915	2948
805.057	3070
805.199	2952
805.341	2986
805.483	3055
805.626	3043
805.768	2956
805.91	3081
806.052	3131
806.194	3047
806.336	3294
806.478	3020
806.62	2948
806.762	2994
806.904	3085
807.046	3195
807.188	2967
807.33	2963
807.472	3017
807.614	2956
807.756	3001
807.898	2937
808.04	2933
808.182	2994
808.324	2967
808.465	2899
808.607	2899
808.749	2811
808.891	2864
809.033	2994
809.174	2982
809.316	2910
809.458	2891
809.6	2800
809.741	2781
809.883	2792
810.025	2857
810.166	2891
810.308	2864
810.45	2872
810.591	2792
810.733	2804
810.875	2842
811.016	2800
811.158	2773
811.299	2830
811.441	2956
811.582	2929
811.724	2819
811.865	2880
812.007	2918
812.148	2883
812.29	2868
812.431	2872
812.573	2933
812.714	2990
812.855	3089
812.997	3116
813.138	3135
813.279	3055
813.421	2990
813.562	2982
813.703	2876
813.845	2910
813.986	2800
814.127	2773
814.268	2842
814.41	2834
814.551	2845
814.692	2895
814.833	2830
814.974	2910
815.115	2963
815.256	2830
815.397	2834
815.539	2872
815.68	2792
815.821	2811
815.962	2967
816.103	2982
816.244	2899
816.385	2880
816.526	2963
816.666	2906
816.807	2777
816.948	2914
817.089	2914
817.23	2922
817.371	2811
817.512	2781
817.653	2861
817.793	2857
817.934	2887
818.075	2998
818.216	3013
818.356	3028
818.497	2906
818.638	2830
818.778	2861
818.919	2826
819.06	2777
819.2	2906
819.341	2838
819.481	2830
819.622	2929
819.762	3146
819.903	3051
820.043	2963
820.184	2944
820.324	2937
820.465	3032
820.605	3070
820.746	3070
820.886	2990
821.026	3161
821.167	3188
821.307	3302
821.447	3287
821.588	3268
821.728	3237
821.868	3211
822.008	3112
822.149	3241
822.289	3287
822.429	3131
822.569	3100
822.709	3218
822.849	3047
822.99	3123
823.13	3161
823.27	3211
823.41	3097
823.55	3131
823.69	3199
823.83	3211
823.97	3127
824.11	3013
824.25	3039
824.389	3119
824.529	3150
824.669	3138
824.809	3241
824.949	3272
825.089	3214
825.228	3135
825.368	3024
825.508	2963
825.648	2994
825.787	3020
825.927	3013
826.067	2975
826.206	2979
826.346	3062
826.485	3119
826.625	3154
826.765	3260
826.904	3256
827.044	3020
827.183	2933
827.323	2929
827.462	3001
827.601	2914
827.741	2937
827.88	3017
828.02	2868
828.159	3009
828.298	3043
828.437	3173
828.577	3074
828.716	3245
828.855	3116
828.994	2944
829.134	2883
829.273	2956
829.412	2883
829.551	2849
829.69	2925
829.829	2986
829.968	3214
830.107	3039
830.246	3013
830.385	2933
830.524	2883
830.663	2853
830.802	2746
830.941	2655
831.08	2663
831.219	2781
831.357	2777
831.496	2994
831.635	2720
831.774	2651
831.913	2689
832.051	2537
832.19	2606
832.329	2697
832.467	2552
832.606	2488
832.744	2606
832.883	2617
833.022	2583
833.16	2640
833.299	2708
833.437	2716
833.576	2720
833.714	2705
833.852	2731
833.991	2781
834.129	2823
834.267	2845
834.406	2800
834.544	2811
834.682	2925
834.821	2849
834.959	3077
835.097	2922
835.235	3070
835.373	3017
835.511	3039
835.65	2986
835.788	2975
835.926	2819
836.064	2804
836.202	2872
836.34	3085
836.478	3138
836.615	3085
836.753	3119
836.891	3214
837.029	3169
837.167	3127
837.305	3062
837.443	3020
837.58	2982
837.718	3146
837.856	3058
837.993	3032
838.131	3154
838.269	3112
838.406	3085
838.544	3093
838.681	2960
838.819	2929
838.956	2838
839.094	2830
839.231	2883
839.369	3032
839.506	3363
839.643	3226
839.781	3039
839.918	2948
840.055	3051
840.193	3062
840.33	3070
840.467	3097
840.604	3157
840.742	3405
840.879	3070
841.016	3039
841.153	3146
841.29	3332
841.427	3275
841.564	3291
841.701	3279
841.838	3222
841.975	3176
842.112	3211
842.249	3097
842.385	3077
842.522	3249
842.659	3093
842.796	3043
842.933	3165
843.069	3028
843.206	3047
843.343	3188
843.479	3119
843.616	3154
843.752	2918
843.889	2849
844.025	3097
844.162	2883
844.298	3074
844.435	2933
844.571	2899
844.708	3074
844.844	3180
844.98	3287
845.117	3230
845.253	3074
845.389	3009
845.525	3119
845.661	3089
845.798	2990
845.934	3089
846.07	3024
846.206	3241
846.342	3310
846.478	3222
846.614	3074
846.75	3058
846.886	3001
847.022	3245
847.158	3154
847.294	3237
847.429	3211
847.565	3207
847.701	3496
847.837	3032
847.972	3020
848.108	3176
848.244	3169
848.379	2982
848.515	2963
848.65	2914
848.786	2956
848.921	3020
849.057	3100
849.192	3150
849.328	3093
849.463	3146
849.598	3066
849.734	3051
849.869	2982
850.004	2967
850.14	2971
850.275	2944
850.41	2853
850.545	2914
850.68	2948
850.815	2994
850.95	3005
851.085	3207
851.22	3135
851.355	3066
851.49	3020
851.625	3024
851.76	3074
851.895	2929
852.03	2956
852.165	3104
852.299	3131
852.434	3226
852.569	3169
852.703	3207
852.838	3245
852.973	3397
853.107	3374
853.242	3161
853.376	3123
853.511	3005
853.645	3089
853.78	3260
853.914	3173
854.048	3127
854.183	3119
854.317	3169
854.451	3348
854.585	3131
854.72	3112
854.854	3264
854.988	3108
855.122	3157
855.256	3032
855.39	3150
855.524	3306
855.658	3207
855.792	3176
855.926	3245
856.06	3272
856.194	3283
856.327	3211
856.461	3123
856.595	3138
856.729	3108
856.862	3249
856.996	3214
857.13	3233
857.263	3275
857.397	3329
857.53	3165
857.664	3230
857.797	3294
857.931	3287
858.064	3207
858.197	3272
858.331	3195
858.464	3146
858.597	3055
858.731	3127
858.864	3188
858.997	3081
859.13	3169
859.263	3237
859.396	3275
859.529	3131
859.662	3097
859.795	3066
859.928	3138
860.061	3321
860.194	3355
860.327	3150
860.46	3135
860.592	3279
860.725	3291
860.858	3291
860.99	3150
861.123	3077
861.256	3127
861.388	3184
861.521	3831
861.653	3051
861.786	3028
861.918	3001
862.05	3119
862.183	3119
862.315	3154
862.447	3199
862.58	3146
862.712	2967
862.844	2918
862.976	3066
863.108	3070
863.24	3344
863.372	2929
863.504	2990
863.636	2967
863.768	3036
863.9	2998
864.032	2929
864.164	2960
864.296	3058
864.428	3116
864.559	3123
864.691	3112
864.823	3093
864.954	3066
865.086	3108
865.217	3047
865.349	2960
865.48	3024
865.612	3032
865.743	3173
865.875	2979
866.006	3009
866.137	3013
866.269	2956
866.4	2948
866.531	2971
866.662	2956
866.793	2906
866.924	2941
867.055	3028
867.186	2971
867.317	2941
867.448	2872
867.579	2941
867.71	2868
867.841	2887
867.972	2941
868.103	2925
868.233	2937
868.364	2880
868.495	2963
868.625	3085
868.756	3195
868.886	3005
869.017	3032
869.147	3169
869.278	3214
869.408	3070
869.539	3070
869.669	3146
869.799	3081
869.929	3135
870.06	3146
870.19	3397
870.32	3306
870.45	3355
870.58	3420
870.71	3473
870.84	3496
870.97	3291
871.1	3260
871.23	3515
871.36	3466
871.489	3405
871.619	3401
871.749	3424
871.879	3431
872.008	3466
872.138	3393
872.267	3279
872.397	3173
872.526	3154
872.656	3047
872.785	3081
872.915	3264
873.044	3378
873.173	3218
873.303	3291
873.432	3272
873.561	3287
873.69	3176
873.819	3176
873.948	3233
874.077	3127
874.206	3097
874.335	3123
874.464	3241
874.593	3382
874.722	3245
874.851	3416
874.979	3363
875.108	3355
875.237	3253
875.365	3211
875.494	3199
875.623	3272
875.751	3119
875.88	3142
876.008	3203
876.136	3275
876.265	3405
876.393	3561
876.521	3473
876.65	3424
876.778	3370
876.906	3306
877.034	3199
877.162	3222
877.29	3199
877.418	3279
877.546	3264
877.674	3245
877.802	3291
877.93	3264
878.058	3180
878.185	3161
878.313	3237
878.441	3199
878.568	3100
878.696	3165
878.824	3260
878.951	3302
879.079	3458
879.206	3679
879.333	3424
879.461	3367
879.588	3401
879.715	3496
879.842	3614
879.97	3416
880.097	3184
880.224	3146
880.351	3233
880.478	3260
880.605	3203
880.732	3260
880.859	3530
880.986	3302
881.112	3359
881.239	3222
881.366	3123
881.493	3066
881.619	3043
881.746	3093
881.872	3131
881.999	3135
882.125	3154
882.252	3291
882.378	3336
882.505	3481
882.631	3294
882.757	3146
882.883	3249
883.01	3272
883.136	3203
883.262	3146
883.388	3135
883.514	3359
883.64	3355
883.766	3298
883.892	3218
884.018	3279
884.143	3443
884.269	3568
884.395	3199
884.52	3138
884.646	3241
884.772	3119
884.897	3135
885.023	3207
885.148	3374
885.274	3412
885.399	3393
885.524	3313
885.65	3260
885.775	3344
885.9	3302
886.025	3488
886.15	3393
886.275	3272
886.4	3298
886.525	3336
886.65	3298
886.775	3241
886.9	3511
887.025	3648
887.149	3424
887.274	3291
887.399	3211
887.523	3241
887.648	3203
887.773	3211
887.897	3382
888.021	3416
888.146	3348
888.27	3473
888.395	3572
888.519	3477
888.643	3431
888.767	3507
888.891	3313
889.015	3279
889.139	3325
889.263	3272
889.387	3428
889.511	3515
889.635	3466
889.759	3317
889.883	3283
890.006	3389
890.13	3542
890.254	3283
890.377	3401
890.501	3211
890.624	3233
890.748	3348
890.871	3199
890.995	3123
891.118	3131
891.241	3260
891.364	3222
891.488	3355
891.611	3214
891.734	3226
891.857	3294
891.98	3256
892.103	3313
892.226	3313
892.349	3249
892.471	3142
892.594	3260
892.717	3287
892.839	3298
892.962	3310
893.085	3329
893.207	3310
893.33	3173
893.452	3211
893.575	3359
893.697	3291
893.819	3485
893.941	3515
894.064	3443
894.186	3283
894.308	3264
894.43	3454
894.552	3610
894.674	3492
894.796	3310
894.918	3321
895.04	3302
895.161	3481
895.283	3405
895.405	3321
895.526	3359
895.648	3447
895.769	3435
895.891	3447
896.012	3488
896.134	3496
896.255	3469
896.376	3435
896.498	3401
896.619	3431
896.74	3370
896.861	3458
896.982	3682
897.103	3873
897.224	3599
897.345	3557
897.466	3488
897.587	3530
897.708	3637
897.828	3542
897.949	3424
898.07	3386
898.19	3428
898.311	3629
898.431	3454
898.552	3523
898.672	3618
898.792	3591
898.913	3530
899.033	3401
899.153	3321
899.273	3241
899.393	3310
899.513	3340
899.633	3355
899.753	3325
899.873	3344
899.993	3416
900.113	3313
900.232	3431
900.352	3389
900.472	3298
900.591	3245
900.711	3302
900.83	3249
900.95	3409
901.069	3500
901.189	3336
901.308	3188
901.427	3116
901.546	3207
901.665	3310
901.784	3321
901.904	3173
902.023	3184
902.141	3013
902.26	2998
902.379	3150
902.498	3108
902.617	3081
902.735	3245
902.854	3214
902.973	3249
903.091	3055
903.21	3097
903.328	3138
903.446	3150
903.565	3138
903.683	3199
903.801	3157
903.919	3264
904.038	3291
904.156	3203
904.274	3298
904.392	3245
904.51	3313
904.627	3363
904.745	3428
904.863	3530
904.981	3298
905.098	3161
905.216	3226
905.334	3306
905.451	3325
905.569	3344
905.686	3431
905.803	3450
905.921	3321
906.038	3412
906.155	3367
906.272	3298
906.389	3336
906.506	3253
906.623	3291
906.74	3275
906.857	3222
906.974	3249
907.091	3481
907.208	3625
907.324	3496
907.441	3424
907.557	3264
907.674	3222
907.79	3188
907.907	3313
908.023	3397
908.139	3397
908.256	3367
908.372	3351
908.488	3367
908.604	3256
908.72	3256
908.836	3294
908.952	3264
909.068	3389
909.184	3534
909.3	3401
909.415	3526
909.531	3496
909.647	3268
909.762	3329
909.878	3294
909.993	3397
910.108	3374
910.224	3317
910.339	3412
910.454	3363
910.57	3306
910.685	3253
910.8	3625
910.915	3561
911.03	3450
911.145	3306
911.259	3302
911.374	3321
911.489	3260
911.604	3233
911.718	3131
911.833	3184
911.947	3066
912.062	2963
912.176	3199
912.291	3199
912.405	3245
912.519	3447
912.633	3492
912.748	3351
912.862	3275
912.976	3226
913.09	3074
913.204	3176
913.318	3203
913.431	3348
913.545	3344
913.659	3428
913.772	3336
913.886	3249
914	3214
914.113	3397
914.226	3397
914.34	3409
914.453	3275
914.566	3409
914.68	3287
914.793	3340
914.906	3135
915.019	3142
915.132	3017
915.245	3180
915.358	3195
915.47	3253
915.583	3275
915.696	3317
915.809	3420
915.921	3462
916.034	3264
916.146	3275
916.259	3203
916.371	3412
916.483	3344
916.595	3233
916.708	3340
916.82	3355
916.932	3378
917.044	3348
917.156	3386
917.268	3233
917.38	3317
917.491	3260
917.603	3359
917.715	3439
917.826	3477
917.938	3389
918.049	3237
918.161	3443
918.272	3549
918.384	3545
918.495	3481
918.606	3355
918.717	3321
918.828	3382
918.939	3424
919.05	3332
919.161	3363
919.272	3161
919.383	3298
919.494	3534
919.604	3682
919.715	3488
919.826	3428
919.936	3488
920.047	3591
920.157	3538
920.267	3770
920.378	3606
920.488	3591
920.598	3804
920.708	3972
920.818	3865
920.928	3816
921.038	4032
921.148	4025
921.258	3736
921.368	3663
921.477	3576
921.587	3576
921.697	3458
921.806	3671
921.916	3519
922.025	3340
922.134	3363
922.244	3287
922.353	3492
922.462	3302
922.571	3222
922.68	3089
922.789	3062
922.898	3157
923.007	3104
923.116	3230
923.224	3188
923.333	3146
923.442	3100
923.55	3138
923.659	3154
923.767	3226
923.876	3116
923.984	3245
924.092	3097
924.201	3214
924.309	3226
924.417	3245
924.525	3176
924.633	3230
924.741	4181
924.849	3085
924.956	3275
925.064	3097
925.172	3009
925.279	3081
925.387	3188
925.494	3180
925.602	3340
925.709	3363
925.816	3199
925.924	3302
926.031	3367
926.138	3336
926.245	3386
926.352	3226
926.459	3435
926.566	3519
926.673	3317
926.779	3245
926.886	3260
926.993	3150
927.099	3142
927.206	3150
927.312	3108
927.419	3245
927.525	3173
927.631	3283
927.737	3165
927.843	3138
927.95	3024
928.056	3135
928.162	3138
928.267	3245
928.373	3857
928.479	3317
928.585	3066
928.69	3222
928.796	3256
928.901	3184
929.007	3047
929.112	3199
929.218	3222
929.323	3131
929.428	3127
929.533	3310
929.638	3154
929.743	3207
929.848	3245
929.953	3211
930.058	3176
930.163	2990
930.267	3047
930.372	3199
930.477	3085
930.581	3310
930.685	3192
930.79	3051
930.894	3142
930.998	3074
931.103	3306
931.207	2956
931.311	2914
931.415	2902
931.519	2769
931.623	2834
