Data from test_V78500241_252.txt Node
Date: Fri Mar 25 16:16:57 CST 2022
User: usil
Spectrometer: V785-0024
Trigger mode: 0
Integration Time (sec): 4.000000E-1
Scans to average: 1
Nonlinearity correction enabled: false
Boxcar width: 0
Storing dark spectrum: false
XAxis mode: Wavelengths
Number of Pixels in Spectrum: 1024
>>>>>Begin Spectral Data<<<<<
801.071	2952
801.214	2990
801.356	2872
801.499	2941
801.641	2876
801.783	2941
801.926	3066
802.068	2979
802.211	3005
802.353	3055
802.496	2979
802.638	3036
802.78	3070
802.923	3074
803.065	2982
803.208	2910
803.35	2944
803.492	2922
803.635	2910
803.777	2735
803.919	2895
804.061	3226
804.204	2967
804.346	2944
804.488	2830
804.63	3013
804.773	2857
804.915	2925
805.057	3070
805.199	2937
805.341	2982
805.483	3055
805.626	3032
805.768	2990
805.91	3100
806.052	3108
806.194	3009
806.336	3287
806.478	3013
806.62	2937
806.762	2994
806.904	3081
807.046	3165
807.188	3001
807.33	2925
807.472	2986
807.614	2941
807.756	3009
807.898	2963
808.04	2880
808.182	3020
808.324	2937
808.465	2891
808.607	2891
808.749	2766
808.891	2857
809.033	3024
809.174	2975
809.316	2891
809.458	2899
809.6	2785
809.741	2788
809.883	2811
810.025	2880
810.166	2880
810.308	2842
810.45	2868
810.591	2815
810.733	2788
810.875	2861
811.016	2819
811.158	2788
811.299	2815
811.441	2944
811.582	2872
811.724	2804
811.865	2807
812.007	2899
812.148	2876
812.29	2857
812.431	2895
812.573	2944
812.714	2975
812.855	3062
812.997	3058
813.138	3127
813.279	3024
813.421	2994
813.562	2937
813.703	2864
813.845	2914
813.986	2777
814.127	2743
814.268	2842
814.41	2834
814.551	2811
814.692	2902
814.833	2792
814.974	2880
815.115	2963
815.256	2830
815.397	2815
815.539	2861
815.68	2762
815.821	2785
815.962	2937
816.103	2918
816.244	2857
816.385	2853
816.526	2990
816.666	2922
816.807	2724
816.948	2895
817.089	2891
817.23	2872
817.371	2785
817.512	2785
817.653	2861
817.793	2826
817.934	2899
818.075	2944
818.216	2994
818.356	3032
818.497	2845
818.638	2781
818.778	2834
818.919	2773
819.06	2788
819.2	2902
819.341	2826
819.481	2834
819.622	2880
819.762	3097
819.903	3051
820.043	2925
820.184	2895
820.324	2910
820.465	3047
820.605	3055
820.746	3036
820.886	2956
821.026	3119
821.167	3230
821.307	3275
821.447	3302
821.588	3272
821.728	3222
821.868	3195
822.008	3074
822.149	3222
822.289	3249
822.429	3119
822.569	3131
822.709	3146
822.849	3066
822.99	3097
823.13	3195
823.27	3207
823.41	3146
823.55	3165
823.69	3188
823.83	3214
823.97	3150
824.11	3070
824.25	3039
824.389	3100
824.529	3157
824.669	3131
824.809	3218
824.949	3291
825.089	3245
825.228	3203
825.368	3058
825.508	3017
825.648	3024
825.787	3074
825.927	3081
826.067	3013
826.206	3005
826.346	3062
826.485	3138
826.625	3142
826.765	3329
826.904	3260
827.044	3039
827.183	2986
827.323	2925
827.462	3009
827.601	2933
827.741	2979
827.88	3020
828.02	2899
828.159	3013
828.298	3097
828.437	3165
828.577	3085
828.716	3279
828.855	3112
828.994	2979
829.134	2937
829.273	2963
829.412	2918
829.551	2918
829.69	2941
829.829	3058
829.968	3154
830.107	3070
830.246	3100
830.385	2963
830.524	2902
830.663	2849
830.802	2746
830.941	2667
831.08	2689
831.219	2804
831.357	2807
831.496	2971
831.635	2739
831.774	2773
831.913	2701
832.051	2590
832.19	2629
832.329	2731
832.467	2590
832.606	2503
832.744	2602
832.883	2636
833.022	2651
833.16	2727
833.299	2724
833.437	2705
833.576	2731
833.714	2750
833.852	2777
833.991	2826
834.129	2895
834.267	2868
834.406	2826
834.544	2906
834.682	2922
834.821	2895
834.959	3100
835.097	2937
835.235	3074
835.373	3005
835.511	3043
835.65	2986
835.788	3001
835.926	2842
836.064	2815
836.202	2899
836.34	3089
836.478	3165
836.615	3142
836.753	3184
836.891	3233
837.029	3237
837.167	3157
837.305	3123
837.443	3100
837.58	3020
837.718	3150
837.856	3138
837.993	3070
838.131	3165
838.269	3150
838.406	3150
838.544	3135
838.681	2986
838.819	2937
838.956	2834
839.094	2880
839.231	2941
839.369	3058
839.506	3401
839.643	3283
839.781	3039
839.918	3001
840.055	3085
840.193	3127
840.33	3077
840.467	3116
840.604	3176
840.742	3424
840.879	3100
841.016	3119
841.153	3127
841.29	3382
841.427	3313
841.564	3298
841.701	3332
841.838	3264
841.975	3222
842.112	3233
842.249	3108
842.385	3116
842.522	3306
842.659	3100
842.796	3138
842.933	3135
843.069	3097
843.206	3074
843.343	3249
843.479	3150
843.616	3154
843.752	2937
843.889	2883
844.025	3100
844.162	2941
844.298	3108
844.435	2994
844.571	2948
844.708	3100
844.844	3218
844.98	3294
845.117	3249
845.253	3104
845.389	3066
845.525	3173
845.661	3146
845.798	3055
845.934	3119
846.07	3089
846.206	3253
846.342	3355
846.478	3325
846.614	3108
846.75	3085
846.886	3024
847.022	3275
847.158	3150
847.294	3283
847.429	3279
847.565	3268
847.701	3526
847.837	3058
847.972	2998
848.108	3207
848.244	3176
848.379	3001
848.515	2982
848.65	2944
848.786	2990
848.921	3028
849.057	3142
849.192	3199
849.328	3089
849.463	3154
849.598	3108
849.734	3119
849.869	2998
850.004	2952
850.14	3020
850.275	2956
850.41	2918
850.545	2902
850.68	3005
850.815	3005
850.95	3013
851.085	3199
851.22	3150
851.355	3051
851.49	3020
851.625	2998
851.76	3051
851.895	2944
852.03	2944
852.165	3051
852.299	3138
852.434	3230
852.569	3195
852.703	3173
852.838	3302
852.973	3363
853.107	3359
853.242	3180
853.376	3093
853.511	2990
853.645	3028
853.78	3241
853.914	3188
854.048	3157
854.183	3116
854.317	3173
854.451	3317
854.585	3161
854.72	3127
854.854	3226
854.988	3074
855.122	3112
855.256	3001
855.39	3116
855.524	3283
855.658	3230
855.792	3176
855.926	3211
856.06	3260
856.194	3253
856.327	3188
856.461	3108
856.595	3150
856.729	3104
856.862	3253
856.996	3184
857.13	3226
857.263	3253
857.397	3287
857.53	3150
857.664	3199
857.797	3237
857.931	3275
858.064	3203
858.197	3272
858.331	3165
858.464	3135
858.597	3062
858.731	3119
858.864	3180
858.997	3108
859.13	3195
859.263	3218
859.396	3222
859.529	3112
859.662	3131
859.795	3085
859.928	3142
860.061	3275
860.194	3310
860.327	3161
860.46	3131
860.592	3291
860.725	3283
860.858	3230
860.99	3180
861.123	3081
861.256	3108
861.388	3180
861.521	3892
861.653	3062
861.786	3001
861.918	3036
862.05	3070
862.183	3085
862.315	3142
862.447	3199
862.58	3119
862.712	2960
862.844	2872
862.976	3017
863.108	3058
863.24	3336
863.372	2906
863.504	2990
863.636	2960
863.768	3070
863.9	3024
864.032	2929
864.164	2952
864.296	3058
864.428	3116
864.559	3138
864.691	3051
864.823	3108
864.954	3032
865.086	3077
865.217	3058
865.349	2998
865.48	3013
865.612	3039
865.743	3131
865.875	3024
866.006	2963
866.137	2994
866.269	2994
866.4	2971
866.531	2922
866.662	2910
866.793	2956
866.924	2929
867.055	2994
867.186	2956
867.317	2906
867.448	2864
867.579	2861
867.71	2883
867.841	2834
867.972	2944
868.103	2967
868.233	2941
868.364	2918
868.495	2944
868.625	3089
868.756	3207
868.886	2990
869.017	3055
869.147	3222
869.278	3214
869.408	3100
869.539	3051
869.669	3112
869.799	3070
869.929	3169
870.06	3123
870.19	3325
870.32	3294
870.45	3317
870.58	3397
870.71	3447
870.84	3466
870.97	3298
871.1	3249
871.23	3519
871.36	3485
871.489	3367
871.619	3397
871.749	3405
871.879	3450
872.008	3511
872.138	3363
872.267	3317
872.397	3157
872.526	3108
872.656	3077
872.785	3138
872.915	3306
873.044	3340
873.173	3249
873.303	3294
873.432	3279
873.561	3249
873.69	3207
873.819	3169
873.948	3195
874.077	3112
874.206	3104
874.335	3116
874.464	3222
874.593	3367
874.722	3268
874.851	3393
874.979	3370
875.108	3355
875.237	3207
875.365	3195
875.494	3211
875.623	3298
875.751	3116
875.88	3131
876.008	3199
876.136	3268
876.265	3405
876.393	3564
876.521	3431
876.65	3439
876.778	3340
876.906	3253
877.034	3214
877.162	3253
877.29	3195
877.418	3310
877.546	3256
877.674	3287
877.802	3268
877.93	3245
878.058	3116
878.185	3097
878.313	3249
878.441	3203
878.568	3051
878.696	3150
878.824	3302
878.951	3344
879.079	3462
879.206	3629
879.333	3500
879.461	3370
879.588	3389
879.715	3519
879.842	3644
879.97	3397
880.097	3207
880.224	3157
880.351	3222
880.478	3264
880.605	3192
880.732	3214
880.859	3523
880.986	3306
881.112	3344
881.239	3214
881.366	3093
881.493	3055
881.619	3077
881.746	3100
881.872	3074
881.999	3116
882.125	3176
882.252	3294
882.378	3344
882.505	3469
882.631	3287
882.757	3150
882.883	3222
883.01	3241
883.136	3192
883.262	3138
883.388	3131
883.514	3386
883.64	3397
883.766	3283
883.892	3169
884.018	3241
884.143	3435
884.269	3557
884.395	3256
884.52	3161
884.646	3176
884.772	3146
884.897	3123
885.023	3256
885.148	3378
885.274	3473
885.399	3340
885.524	3287
885.65	3260
885.775	3378
885.9	3306
886.025	3431
886.15	3344
886.275	3310
886.4	3241
886.525	3329
886.65	3283
886.775	3325
886.9	3542
887.025	3671
887.149	3450
887.274	3302
887.399	3188
887.523	3233
887.648	3199
887.773	3237
887.897	3367
888.021	3389
888.146	3291
888.27	3431
888.395	3584
888.519	3458
888.643	3488
888.767	3435
888.891	3310
889.015	3279
889.139	3332
889.263	3275
889.387	3428
889.511	3549
889.635	3443
889.759	3306
889.883	3294
890.006	3389
890.13	3496
890.254	3313
890.377	3348
890.501	3199
890.624	3195
890.748	3298
890.871	3211
890.995	3119
891.118	3020
891.241	3188
891.364	3260
891.488	3332
891.611	3184
891.734	3260
891.857	3275
891.98	3272
892.103	3374
892.226	3317
892.349	3199
892.471	3150
892.594	3233
892.717	3340
892.839	3298
892.962	3256
893.085	3382
893.207	3283
893.33	3188
893.452	3253
893.575	3374
893.697	3275
893.819	3462
893.941	3530
894.064	3485
894.186	3279
894.308	3279
894.43	3412
894.552	3572
894.674	3481
894.796	3294
894.918	3344
895.04	3291
895.161	3443
895.283	3386
895.405	3332
895.526	3374
895.648	3420
895.769	3412
895.891	3496
896.012	3507
896.134	3466
896.255	3454
896.376	3420
896.498	3359
896.619	3488
896.74	3405
896.861	3389
896.982	3709
897.103	3880
897.224	3633
897.345	3523
897.466	3416
897.587	3545
897.708	3644
897.828	3599
897.949	3428
898.07	3378
898.19	3477
898.311	3606
898.431	3473
898.552	3526
898.672	3580
898.792	3599
898.913	3553
899.033	3466
899.153	3298
899.273	3256
899.393	3294
899.513	3336
899.633	3332
899.753	3332
899.873	3329
899.993	3378
900.113	3310
900.232	3363
900.352	3351
900.472	3283
900.591	3214
900.711	3264
900.83	3275
900.95	3439
901.069	3557
901.189	3340
901.308	3203
901.427	3100
901.546	3211
901.665	3245
901.784	3367
901.904	3195
902.023	3150
902.141	3017
902.26	3032
902.379	3135
902.498	3116
902.617	3062
902.735	3203
902.854	3275
902.973	3230
903.091	3055
903.21	3108
903.328	3127
903.446	3135
903.565	3100
903.683	3222
903.801	3138
903.919	3264
904.038	3325
904.156	3207
904.274	3283
904.392	3245
904.51	3321
904.627	3363
904.745	3473
904.863	3504
904.981	3279
905.098	3218
905.216	3241
905.334	3332
905.451	3329
905.569	3291
905.686	3447
905.803	3443
905.921	3283
906.038	3443
906.155	3367
906.272	3283
906.389	3359
906.506	3275
906.623	3253
906.74	3317
906.857	3203
906.974	3264
907.091	3473
907.208	3568
907.324	3492
907.441	3401
907.557	3211
907.674	3226
907.79	3226
907.907	3272
908.023	3420
908.139	3393
908.256	3306
908.372	3382
908.488	3351
908.604	3268
908.72	3264
908.836	3272
908.952	3298
909.068	3363
909.184	3538
909.3	3389
909.415	3515
909.531	3507
909.647	3283
909.762	3253
909.878	3260
909.993	3363
910.108	3325
910.224	3336
910.339	3416
910.454	3374
910.57	3321
910.685	3245
910.8	3576
910.915	3538
911.03	3439
911.145	3313
911.259	3298
911.374	3336
911.489	3253
911.604	3218
911.718	3154
911.833	3142
911.947	3051
912.062	2990
912.176	3161
912.291	3230
912.405	3237
912.519	3424
912.633	3462
912.748	3363
912.862	3260
912.976	3184
913.09	3081
913.204	3176
913.318	3207
913.431	3329
913.545	3344
913.659	3412
913.772	3355
913.886	3245
914	3180
914.113	3348
914.226	3401
914.34	3412
914.453	3192
914.566	3447
914.68	3302
914.793	3348
914.906	3157
915.019	3165
915.132	3066
915.245	3184
915.358	3192
915.47	3264
915.583	3256
915.696	3283
915.809	3386
915.921	3431
916.034	3310
916.146	3264
916.259	3264
916.371	3409
916.483	3374
916.595	3264
916.708	3389
916.82	3348
916.932	3363
917.044	3332
917.156	3355
917.268	3268
917.38	3321
917.491	3298
917.603	3389
917.715	3443
917.826	3492
917.938	3370
918.049	3253
918.161	3435
918.272	3591
918.384	3580
918.495	3462
918.606	3313
918.717	3325
918.828	3416
918.939	3405
919.05	3275
919.161	3367
919.272	3161
919.383	3298
919.494	3530
919.604	3717
919.715	3488
919.826	3416
919.936	3519
920.047	3610
920.157	3534
920.267	3781
920.378	3625
920.488	3526
920.598	3797
920.708	3964
920.818	3819
920.928	3850
921.038	3998
921.148	3983
921.258	3686
921.368	3644
921.477	3584
921.587	3557
921.697	3466
921.806	3637
921.916	3534
922.025	3374
922.134	3405
922.244	3298
922.353	3397
922.462	3275
922.571	3199
922.68	3138
922.789	3085
922.898	3150
923.007	3081
923.116	3226
923.224	3169
923.333	3188
923.442	3108
923.55	3074
923.659	3161
923.767	3226
923.876	3119
923.984	3241
924.092	3157
924.201	3184
924.309	3207
924.417	3237
924.525	3169
924.633	3233
924.741	4204
924.849	3051
924.956	3275
925.064	3097
925.172	3047
925.279	3123
925.387	3199
925.494	3195
925.602	3340
925.709	3325
925.816	3195
925.924	3306
926.031	3412
926.138	3332
926.245	3378
926.352	3279
926.459	3431
926.566	3462
926.673	3321
926.779	3275
926.886	3283
926.993	3131
927.099	3116
927.206	3123
927.312	3142
927.419	3260
927.525	3211
927.631	3245
927.737	3180
927.843	3131
927.95	3051
928.056	3135
928.162	3184
928.267	3237
928.373	3911
928.479	3302
928.585	3058
928.69	3233
928.796	3298
928.901	3157
929.007	3055
929.112	3199
929.218	3184
929.323	3176
929.428	3169
929.533	3310
929.638	3116
929.743	3180
929.848	3249
929.953	3161
930.058	3180
930.163	2979
930.267	3089
930.372	3203
930.477	3013
930.581	3291
930.685	3214
930.79	3081
930.894	3138
930.998	3119
931.103	3344
931.207	2967
931.311	2986
931.415	2925
931.519	2781
931.623	2842
