Data from test_V78500241_599.txt Node
Date: Fri Mar 25 16:19:21 CST 2022
User: usil
Spectrometer: V785-0024
Trigger mode: 0
Integration Time (sec): 4.000000E-1
Scans to average: 1
Nonlinearity correction enabled: false
Boxcar width: 0
Storing dark spectrum: false
XAxis mode: Wavelengths
Number of Pixels in Spectrum: 1024
>>>>>Begin Spectral Data<<<<<
801.071	2937
801.214	2925
801.356	2849
801.499	2906
801.641	2891
801.783	2910
801.926	3058
802.068	3024
802.211	3005
802.353	3032
802.496	2948
802.638	2994
802.78	3039
802.923	3085
803.065	3020
803.208	2880
803.35	2918
803.492	2975
803.635	2922
803.777	2762
803.919	2864
804.061	3218
804.204	2944
804.346	2899
804.488	2823
804.63	2971
804.773	2849
804.915	2899
805.057	3070
805.199	2895
805.341	2956
805.483	3013
805.626	3017
805.768	2937
805.91	3032
806.052	3062
806.194	3066
806.336	3199
806.478	3005
806.62	2967
806.762	2975
806.904	3032
807.046	3119
807.188	2971
807.33	2902
807.472	2990
807.614	2902
807.756	2986
807.898	2899
808.04	2887
808.182	2982
808.324	2960
808.465	2906
808.607	2887
808.749	2792
808.891	2815
809.033	2948
809.174	2998
809.316	2872
809.458	2838
809.6	2773
809.741	2746
809.883	2712
810.025	2861
810.166	2826
810.308	2834
810.45	2864
810.591	2807
810.733	2804
810.875	2849
811.016	2815
811.158	2762
811.299	2788
811.441	2906
811.582	2861
811.724	2830
811.865	2815
812.007	2918
812.148	2853
812.29	2842
812.431	2910
812.573	2922
812.714	2956
812.855	3066
812.997	3051
813.138	3097
813.279	3005
813.421	2956
813.562	2986
813.703	2876
813.845	2899
813.986	2788
814.127	2720
814.268	2838
814.41	2853
814.551	2781
814.692	2868
814.833	2792
814.974	2895
815.115	2982
815.256	2800
815.397	2842
815.539	2845
815.68	2739
815.821	2796
815.962	2937
816.103	2914
816.244	2883
816.385	2876
816.526	2975
816.666	2906
816.807	2739
816.948	2887
817.089	2922
817.23	2853
817.371	2788
817.512	2796
817.653	2876
817.793	2830
817.934	2914
818.075	2967
818.216	3009
818.356	3032
818.497	2883
818.638	2781
818.778	2845
818.919	2773
819.06	2743
819.2	2883
819.341	2826
819.481	2796
819.622	2918
819.762	3070
819.903	3043
820.043	2914
820.184	2883
820.324	2922
820.465	2998
820.605	3013
820.746	3036
820.886	2952
821.026	3100
821.167	3150
821.307	3237
821.447	3241
821.588	3230
821.728	3207
821.868	3184
822.008	3055
822.149	3173
822.289	3226
822.429	3108
822.569	3093
822.709	3192
822.849	3020
822.99	3051
823.13	3119
823.27	3211
823.41	3062
823.55	3157
823.69	3154
823.83	3195
823.97	3146
824.11	3017
824.25	2982
824.389	3058
824.529	3131
824.669	3058
824.809	3207
824.949	3264
825.089	3237
825.228	3150
825.368	2960
825.508	2979
825.648	2963
825.787	3013
825.927	3020
826.067	2956
826.206	2952
826.346	3043
826.485	3070
826.625	3074
826.765	3260
826.904	3207
827.044	2990
827.183	2960
827.323	2876
827.462	2956
827.601	2910
827.741	2925
827.88	2956
828.02	2853
828.159	2948
828.298	3051
828.437	3108
828.577	3032
828.716	3218
828.855	3097
828.994	2914
829.134	2910
829.273	2952
829.412	2864
829.551	2853
829.69	2906
829.829	2967
829.968	3146
830.107	3028
830.246	3066
830.385	2906
830.524	2895
830.663	2804
830.802	2705
830.941	2625
831.08	2644
831.219	2743
831.357	2724
831.496	2944
831.635	2720
831.774	2667
831.913	2659
832.051	2556
832.19	2571
832.329	2674
832.467	2530
832.606	2461
832.744	2575
832.883	2587
833.022	2571
833.16	2655
833.299	2678
833.437	2735
833.576	2701
833.714	2697
833.852	2724
833.991	2766
834.129	2815
834.267	2826
834.406	2777
834.544	2838
834.682	2872
834.821	2845
834.959	3066
835.097	2883
835.235	3066
835.373	2998
835.511	2994
835.65	2918
835.788	2967
835.926	2823
836.064	2807
836.202	2830
836.34	3077
836.478	3135
836.615	3074
836.753	3127
836.891	3207
837.029	3165
837.167	3085
837.305	3013
837.443	2998
837.58	2975
837.718	3116
837.856	3062
837.993	3039
838.131	3108
838.269	3070
838.406	3070
838.544	3123
838.681	2941
838.819	2922
838.956	2777
839.094	2781
839.231	2876
839.369	3017
839.506	3382
839.643	3233
839.781	3005
839.918	2975
840.055	3039
840.193	3036
840.33	3058
840.467	3058
840.604	3203
840.742	3412
840.879	3077
841.016	3001
841.153	3154
841.29	3298
841.427	3294
841.564	3260
841.701	3294
841.838	3192
841.975	3154
842.112	3199
842.249	3077
842.385	3020
842.522	3264
842.659	3077
842.796	3028
842.933	3085
843.069	3058
843.206	3051
843.343	3226
843.479	3097
843.616	3119
843.752	2914
843.889	2876
844.025	3058
844.162	2857
844.298	3112
844.435	2994
844.571	2906
844.708	3074
844.844	3165
844.98	3233
845.117	3192
845.253	3017
845.389	3051
845.525	3104
845.661	3081
845.798	3013
845.934	3131
846.07	3032
846.206	3237
846.342	3355
846.478	3207
846.614	3116
846.75	3062
846.886	3028
847.022	3256
847.158	3131
847.294	3211
847.429	3211
847.565	3176
847.701	3462
847.837	3036
847.972	2982
848.108	3157
848.244	3135
848.379	2956
848.515	2982
848.65	2895
848.786	2967
848.921	3013
849.057	3100
849.192	3184
849.328	3051
849.463	3097
849.598	3047
849.734	3047
849.869	2979
850.004	2910
850.14	2937
850.275	2899
850.41	2807
850.545	2849
850.68	2906
850.815	2971
850.95	2986
851.085	3161
851.22	3039
851.355	3036
851.49	3013
851.625	2960
851.76	3028
851.895	2925
852.03	2922
852.165	3066
852.299	3131
852.434	3169
852.569	3093
852.703	3184
852.838	3237
852.973	3329
853.107	3336
853.242	3154
853.376	3093
853.511	2971
853.645	3009
853.78	3237
853.914	3100
854.048	3104
854.183	3070
854.317	3127
854.451	3306
854.585	3119
854.72	3047
854.854	3188
854.988	3017
855.122	3104
855.256	2971
855.39	3108
855.524	3253
855.658	3184
855.792	3154
855.926	3146
856.06	3207
856.194	3268
856.327	3123
856.461	3074
856.595	3085
856.729	3089
856.862	3203
856.996	3161
857.13	3207
857.263	3214
857.397	3260
857.53	3157
857.664	3138
857.797	3214
857.931	3222
858.064	3138
858.197	3222
858.331	3154
858.464	3131
858.597	2998
858.731	3108
858.864	3127
858.997	3077
859.13	3154
859.263	3203
859.396	3188
859.529	3089
859.662	3077
859.795	3013
859.928	3176
860.061	3245
860.194	3279
860.327	3119
860.46	3108
860.592	3264
860.725	3237
860.858	3249
860.99	3093
861.123	3039
861.256	3051
861.388	3138
861.521	3778
861.653	2979
861.786	2971
861.918	2971
862.05	3081
862.183	3055
862.315	3154
862.447	3176
862.58	3089
862.712	2933
862.844	2845
862.976	3020
863.108	2963
863.24	3439
863.372	2880
863.504	2948
863.636	2944
863.768	3017
863.9	2990
864.032	2887
864.164	2937
864.296	2986
864.428	3058
864.559	3112
864.691	3081
864.823	3062
864.954	3051
865.086	3058
865.217	3009
865.349	2941
865.48	3020
865.612	3032
865.743	3157
865.875	2986
866.006	2944
866.137	2979
866.269	2948
866.4	2933
866.531	2948
866.662	2891
866.793	2883
866.924	2891
867.055	2933
867.186	2941
867.317	2876
867.448	2830
867.579	2861
867.71	2811
867.841	2785
867.972	2899
868.103	2899
868.233	2914
868.364	2880
868.495	2902
868.625	3081
868.756	3157
868.886	2979
869.017	3005
869.147	3131
869.278	3135
869.408	3028
869.539	3009
869.669	3093
869.799	3047
869.929	3142
870.06	3074
870.19	3317
870.32	3264
870.45	3275
870.58	3367
870.71	3462
870.84	3405
870.97	3275
871.1	3272
871.23	3500
871.36	3466
871.489	3344
871.619	3389
871.749	3359
871.879	3481
872.008	3492
872.138	3340
872.267	3237
872.397	3169
872.526	3077
872.656	3013
872.785	3108
872.915	3245
873.044	3294
873.173	3214
873.303	3207
873.432	3245
873.561	3218
873.69	3146
873.819	3157
873.948	3195
874.077	3112
874.206	3028
874.335	3066
874.464	3237
874.593	3363
874.722	3253
874.851	3378
874.979	3325
875.108	3321
875.237	3214
875.365	3157
875.494	3154
875.623	3180
875.751	3074
875.88	3104
876.008	3188
876.136	3226
876.265	3401
876.393	3515
876.521	3386
876.65	3405
876.778	3363
876.906	3237
877.034	3203
877.162	3264
877.29	3180
877.418	3230
877.546	3230
877.674	3245
877.802	3207
877.93	3195
878.058	3135
878.185	3116
878.313	3176
878.441	3173
878.568	3070
878.696	3112
878.824	3268
878.951	3298
879.079	3469
879.206	3622
879.333	3397
879.461	3329
879.588	3378
879.715	3511
879.842	3568
879.97	3382
880.097	3188
880.224	3112
880.351	3199
880.478	3199
880.605	3218
880.732	3211
880.859	3485
880.986	3317
881.112	3321
881.239	3176
881.366	3077
881.493	3058
881.619	3005
881.746	3043
881.872	3070
881.999	3135
882.125	3150
882.252	3233
882.378	3279
882.505	3435
882.631	3317
882.757	3154
882.883	3203
883.01	3218
883.136	3138
883.262	3047
883.388	3104
883.514	3291
883.64	3378
883.766	3344
883.892	3169
884.018	3245
884.143	3401
884.269	3545
884.395	3203
884.52	3119
884.646	3176
884.772	3127
884.897	3074
885.023	3195
885.148	3294
885.274	3424
885.399	3363
885.524	3321
885.65	3245
885.775	3332
885.9	3279
886.025	3450
886.15	3359
886.275	3291
886.4	3211
886.525	3317
886.65	3264
886.775	3233
886.9	3515
887.025	3576
887.149	3443
887.274	3245
887.399	3195
887.523	3218
887.648	3173
887.773	3211
887.897	3348
888.021	3389
888.146	3291
888.27	3378
888.395	3526
888.519	3447
888.643	3443
888.767	3431
888.891	3310
889.015	3245
889.139	3260
889.263	3291
889.387	3431
889.511	3504
889.635	3401
889.759	3294
889.883	3275
890.006	3397
890.13	3477
890.254	3268
890.377	3325
890.501	3165
890.624	3154
890.748	3264
890.871	3165
890.995	3119
891.118	3058
891.241	3150
891.364	3222
891.488	3268
891.611	3157
891.734	3260
891.857	3279
891.98	3249
892.103	3291
892.226	3260
892.349	3226
892.471	3116
892.594	3256
892.717	3241
892.839	3253
892.962	3272
893.085	3386
893.207	3291
893.33	3138
893.452	3237
893.575	3336
893.697	3237
893.819	3504
893.941	3500
894.064	3488
894.186	3253
894.308	3287
894.43	3454
894.552	3538
894.674	3450
894.796	3237
894.918	3344
895.04	3294
895.161	3431
895.283	3405
895.405	3298
895.526	3405
895.648	3424
895.769	3409
895.891	3477
896.012	3492
896.134	3447
896.255	3416
896.376	3355
896.498	3378
896.619	3420
896.74	3348
896.861	3397
896.982	3663
897.103	3842
897.224	3561
897.345	3519
897.466	3420
897.587	3534
897.708	3618
897.828	3557
897.949	3424
898.07	3336
898.19	3382
898.311	3625
898.431	3416
898.552	3496
898.672	3595
898.792	3572
898.913	3473
899.033	3386
899.153	3313
899.273	3195
899.393	3298
899.513	3275
899.633	3321
899.753	3321
899.873	3275
899.993	3401
900.113	3306
900.232	3374
900.352	3332
900.472	3325
900.591	3180
900.711	3302
900.83	3287
900.95	3405
901.069	3481
901.189	3382
901.308	3161
901.427	3104
901.546	3241
901.665	3279
901.784	3332
901.904	3192
902.023	3123
902.141	3032
902.26	3001
902.379	3138
902.498	3097
902.617	3020
902.735	3192
902.854	3184
902.973	3188
903.091	3077
903.21	3032
903.328	3131
903.446	3135
903.565	3085
903.683	3199
903.801	3119
903.919	3211
904.038	3283
904.156	3176
904.274	3264
904.392	3241
904.51	3291
904.627	3344
904.745	3405
904.863	3462
904.981	3245
905.098	3176
905.216	3245
905.334	3302
905.451	3275
905.569	3287
905.686	3420
905.803	3424
905.921	3245
906.038	3443
906.155	3332
906.272	3306
906.389	3363
906.506	3256
906.623	3237
906.74	3275
906.857	3146
906.974	3283
907.091	3492
907.208	3538
907.324	3435
907.441	3348
907.557	3241
907.674	3260
907.79	3207
907.907	3233
908.023	3386
908.139	3405
908.256	3348
908.372	3386
908.488	3378
908.604	3268
908.72	3233
908.836	3321
908.952	3306
909.068	3306
909.184	3481
909.3	3340
909.415	3504
909.531	3466
909.647	3272
909.762	3298
909.878	3264
909.993	3389
910.108	3336
910.224	3363
910.339	3370
910.454	3317
910.57	3310
910.685	3253
910.8	3610
910.915	3542
911.03	3435
911.145	3237
911.259	3291
911.374	3332
911.489	3230
911.604	3211
911.718	3085
911.833	3165
911.947	2998
912.062	2948
912.176	3154
912.291	3207
912.405	3192
912.519	3458
912.633	3481
912.748	3340
912.862	3264
912.976	3131
913.09	3028
913.204	3146
913.318	3241
913.431	3325
913.545	3317
913.659	3389
913.772	3359
913.886	3173
914	3154
914.113	3310
914.226	3439
914.34	3351
914.453	3218
914.566	3386
914.68	3272
914.793	3313
914.906	3146
915.019	3100
915.132	3074
915.245	3176
915.358	3169
915.47	3222
915.583	3283
915.696	3302
915.809	3389
915.921	3435
916.034	3218
916.146	3249
916.259	3233
916.371	3416
916.483	3359
916.595	3272
916.708	3325
916.82	3359
916.932	3355
917.044	3340
917.156	3325
917.268	3233
917.38	3302
917.491	3291
917.603	3359
917.715	3469
917.826	3515
917.938	3351
918.049	3264
918.161	3416
918.272	3542
918.384	3584
918.495	3507
918.606	3313
918.717	3291
918.828	3382
918.939	3389
919.05	3268
919.161	3359
919.272	3165
919.383	3283
919.494	3481
919.604	3667
919.715	3466
919.826	3386
919.936	3523
920.047	3622
920.157	3523
920.267	3724
920.378	3553
920.488	3542
920.598	3785
920.708	3956
920.818	3861
920.928	3804
921.038	3994
921.148	3979
921.258	3690
921.368	3682
921.477	3576
921.587	3557
921.697	3469
921.806	3591
921.916	3473
922.025	3359
922.134	3344
922.244	3294
922.353	3447
922.462	3264
922.571	3207
922.68	3093
922.789	3085
922.898	3131
923.007	3062
923.116	3214
923.224	3180
923.333	3184
923.442	3081
923.55	3097
923.659	3176
923.767	3226
923.876	3116
923.984	3264
924.092	3104
924.201	3157
924.309	3237
924.417	3260
924.525	3222
924.633	3237
924.741	3991
924.849	3020
924.956	3302
925.064	3085
925.172	3028
925.279	3089
925.387	3214
925.494	3214
925.602	3359
925.709	3302
925.816	3214
925.924	3294
926.031	3367
926.138	3317
926.245	3321
926.352	3245
926.459	3409
926.566	3507
926.673	3348
926.779	3203
926.886	3260
926.993	3157
927.099	3127
927.206	3081
927.312	3104
927.419	3199
927.525	3154
927.631	3268
927.737	3131
927.843	3123
927.95	3028
928.056	3146
928.162	3157
928.267	3226
928.373	3747
928.479	3291
928.585	3089
928.69	3173
928.796	3302
928.901	3180
929.007	3066
929.112	3207
929.218	3157
929.323	3161
929.428	3154
929.533	3332
929.638	3150
929.743	3173
929.848	3237
929.953	3195
930.058	3112
930.163	3005
930.267	3043
930.372	3195
930.477	3039
930.581	3332
930.685	3173
930.79	3051
930.894	3142
930.998	3077
931.103	3275
931.207	2952
931.311	2933
931.415	2906
931.519	2758
931.623	2819
