Data from test_V78500241_1927.txt Node
Date: Fri Mar 25 16:28:33 CST 2022
User: usil
Spectrometer: V785-0024
Trigger mode: 0
Integration Time (sec): 4.000000E-1
Scans to average: 1
Nonlinearity correction enabled: false
Boxcar width: 0
Storing dark spectrum: false
XAxis mode: Wavelengths
Number of Pixels in Spectrum: 1024
>>>>>Begin Spectral Data<<<<<
801.071	2910
801.214	2902
801.356	2811
801.499	2887
801.641	2838
801.783	2906
801.926	3039
802.068	2929
802.211	2933
802.353	3005
802.496	2937
802.638	2975
802.78	2994
802.923	3028
803.065	2979
803.208	2868
803.35	2864
803.492	2922
803.635	2929
803.777	2727
803.919	2838
804.061	3195
804.204	2922
804.346	2929
804.488	2826
804.63	2944
804.773	2872
804.915	2883
805.057	3055
805.199	2914
805.341	2952
805.483	3055
805.626	2971
805.768	2960
805.91	3085
806.052	3127
806.194	3036
806.336	3237
806.478	3024
806.62	2925
806.762	2944
806.904	3055
807.046	3169
807.188	2929
807.33	2902
807.472	2979
807.614	2929
807.756	3043
807.898	2941
808.04	2910
808.182	2979
808.324	2963
808.465	2880
808.607	2876
808.749	2819
808.891	2864
809.033	3001
809.174	2982
809.316	2910
809.458	2902
809.6	2796
809.741	2804
809.883	2781
810.025	2845
810.166	2872
810.308	2838
810.45	2880
810.591	2769
810.733	2800
810.875	2853
811.016	2834
811.158	2777
811.299	2872
811.441	2971
811.582	2948
811.724	2872
811.865	2883
812.007	2952
812.148	2872
812.29	2883
812.431	2929
812.573	2956
812.714	2990
812.855	3104
812.997	3077
813.138	3161
813.279	3055
813.421	3020
813.562	2986
813.703	2914
813.845	2918
813.986	2815
814.127	2743
814.268	2868
814.41	2887
814.551	2864
814.692	2868
814.833	2826
814.974	2914
815.115	2994
815.256	2845
815.397	2868
815.539	2872
815.68	2781
815.821	2804
815.962	2971
816.103	2944
816.244	2876
816.385	2906
816.526	3005
816.666	2963
816.807	2781
816.948	2922
817.089	2922
817.23	2853
817.371	2781
817.512	2842
817.653	2887
817.793	2830
817.934	2914
818.075	2948
818.216	3013
818.356	3100
818.497	2933
818.638	2815
818.778	2864
818.919	2830
819.06	2766
819.2	2941
819.341	2823
819.481	2800
819.622	2971
819.762	3119
819.903	3097
820.043	2918
820.184	2933
820.324	2910
820.465	3013
820.605	3070
820.746	3039
820.886	2944
821.026	3127
821.167	3188
821.307	3264
821.447	3310
821.588	3253
821.728	3218
821.868	3218
822.008	3108
822.149	3226
822.289	3245
822.429	3097
822.569	3066
822.709	3241
822.849	3070
822.99	3127
823.13	3184
823.27	3222
823.41	3119
823.55	3157
823.69	3150
823.83	3233
823.97	3100
824.11	2979
824.25	2998
824.389	3097
824.529	3138
824.669	3081
824.809	3245
824.949	3260
825.089	3253
825.228	3154
825.368	3013
825.508	2952
825.648	2948
825.787	3009
825.927	3047
826.067	2986
826.206	2986
826.346	3028
826.485	3074
826.625	3131
826.765	3272
826.904	3222
827.044	3028
827.183	2948
827.323	2857
827.462	2994
827.601	2937
827.741	2914
827.88	2956
828.02	2876
828.159	2979
828.298	3062
828.437	3138
828.577	3051
828.716	3268
828.855	3104
828.994	2979
829.134	2929
829.273	2910
829.412	2880
829.551	2845
829.69	2929
829.829	2994
829.968	3161
830.107	3024
830.246	3055
830.385	2914
830.524	2895
830.663	2834
830.802	2731
830.941	2697
831.08	2678
831.219	2807
831.357	2781
831.496	2952
831.635	2754
831.774	2716
831.913	2655
832.051	2564
832.19	2590
832.329	2693
832.467	2579
832.606	2522
832.744	2621
832.883	2610
833.022	2606
833.16	2663
833.299	2727
833.437	2689
833.576	2705
833.714	2743
833.852	2777
833.991	2785
834.129	2826
834.267	2845
834.406	2830
834.544	2861
834.682	2899
834.821	2922
834.959	3112
835.097	2944
835.235	3077
835.373	3039
835.511	3051
835.65	2990
835.788	2998
835.926	2864
836.064	2826
836.202	2868
836.34	3119
836.478	3218
836.615	3081
836.753	3203
836.891	3230
837.029	3203
837.167	3116
837.305	3104
837.443	3070
837.58	3001
837.718	3146
837.856	3097
837.993	3093
838.131	3138
838.269	3157
838.406	3150
838.544	3070
838.681	2963
838.819	2944
838.956	2845
839.094	2845
839.231	2952
839.369	3062
839.506	3393
839.643	3245
839.781	3043
839.918	3043
840.055	3028
840.193	3085
840.33	3081
840.467	3081
840.604	3157
840.742	3409
840.879	3097
841.016	3074
841.153	3131
841.29	3424
841.427	3367
841.564	3268
841.701	3363
841.838	3249
841.975	3218
842.112	3256
842.249	3089
842.385	3066
842.522	3233
842.659	3108
842.796	3085
842.933	3138
843.069	3077
843.206	3077
843.343	3195
843.479	3173
843.616	3119
843.752	2929
843.889	2864
844.025	3142
844.162	2899
844.298	3100
844.435	2975
844.571	2948
844.708	3093
844.844	3222
844.98	3272
845.117	3203
845.253	3013
845.389	3039
845.525	3127
845.661	3135
845.798	2998
845.934	3138
846.07	3066
846.206	3207
846.342	3321
846.478	3253
846.614	3142
846.75	3097
846.886	3036
847.022	3233
847.158	3180
847.294	3180
847.429	3287
847.565	3203
847.701	3504
847.837	3097
847.972	3055
848.108	3218
848.244	3146
848.379	3005
848.515	2956
848.65	2948
848.786	3024
848.921	3043
849.057	3116
849.192	3173
849.328	3093
849.463	3093
849.598	3097
849.734	3066
849.869	2971
850.004	2956
850.14	2963
850.275	2960
850.41	2883
850.545	2914
850.68	2971
850.815	2986
850.95	2982
851.085	3203
851.22	3146
851.355	3051
851.49	3017
851.625	2994
851.76	3077
851.895	2956
852.03	2933
852.165	3009
852.299	3138
852.434	3241
852.569	3169
852.703	3184
852.838	3268
852.973	3344
853.107	3344
853.242	3207
853.376	3135
853.511	3001
853.645	3039
853.78	3272
853.914	3127
854.048	3119
854.183	3062
854.317	3173
854.451	3340
854.585	3131
854.72	3047
854.854	3199
854.988	3055
855.122	3146
855.256	2982
855.39	3146
855.524	3249
855.658	3184
855.792	3165
855.926	3203
856.06	3195
856.194	3249
856.327	3150
856.461	3127
856.595	3104
856.729	3131
856.862	3233
856.996	3184
857.13	3199
857.263	3260
857.397	3279
857.53	3135
857.664	3203
857.797	3241
857.931	3233
858.064	3199
858.197	3230
858.331	3176
858.464	3108
858.597	3013
858.731	3119
858.864	3157
858.997	3093
859.13	3142
859.263	3188
859.396	3184
859.529	3116
859.662	3062
859.795	3051
859.928	3165
860.061	3302
860.194	3298
860.327	3146
860.46	3100
860.592	3283
860.725	3291
860.858	3260
860.99	3093
861.123	3058
861.256	3085
861.388	3131
861.521	3846
861.653	3017
861.786	3028
861.918	3013
862.05	3077
862.183	3077
862.315	3142
862.447	3256
862.58	3093
862.712	2979
862.844	2861
862.976	3020
863.108	3039
863.24	3302
863.372	2880
863.504	2963
863.636	2998
863.768	3051
863.9	3017
864.032	2914
864.164	3017
864.296	3058
864.428	3074
864.559	3127
864.691	3093
864.823	3100
864.954	3055
865.086	3036
865.217	3001
865.349	2948
865.48	2998
865.612	3032
865.743	3146
865.875	2998
866.006	2963
866.137	2975
866.269	2952
866.4	2944
866.531	2914
866.662	2872
866.793	2891
866.924	2914
867.055	2986
867.186	2982
867.317	2864
867.448	2830
867.579	2883
867.71	2864
867.841	2872
867.972	2918
868.103	2922
868.233	2883
868.364	2883
868.495	2899
868.625	3089
868.756	3188
868.886	2994
869.017	3013
869.147	3195
869.278	3165
869.408	3051
869.539	3024
869.669	3097
869.799	3047
869.929	3165
870.06	3100
870.19	3359
870.32	3287
870.45	3294
870.58	3386
870.71	3523
870.84	3500
870.97	3321
871.1	3249
871.23	3496
871.36	3485
871.489	3389
871.619	3401
871.749	3473
871.879	3416
872.008	3466
872.138	3370
872.267	3298
872.397	3119
872.526	3097
872.656	3017
872.785	3112
872.915	3272
873.044	3325
873.173	3226
873.303	3283
873.432	3195
873.561	3279
873.69	3138
873.819	3169
873.948	3222
874.077	3127
874.206	3104
874.335	3081
874.464	3230
874.593	3344
874.722	3230
874.851	3409
874.979	3329
875.108	3367
875.237	3214
875.365	3138
875.494	3165
875.623	3260
875.751	3100
875.88	3116
876.008	3222
876.136	3218
876.265	3378
876.393	3477
876.521	3447
876.65	3431
876.778	3348
876.906	3249
877.034	3230
877.162	3249
877.29	3230
877.418	3272
877.546	3279
877.674	3264
877.802	3260
877.93	3211
878.058	3173
878.185	3097
878.313	3203
878.441	3264
878.568	3097
878.696	3154
878.824	3249
878.951	3283
879.079	3431
879.206	3667
879.333	3481
879.461	3363
879.588	3431
879.715	3492
879.842	3610
879.97	3393
880.097	3195
880.224	3176
880.351	3222
880.478	3233
880.605	3268
880.732	3233
880.859	3545
880.986	3355
881.112	3329
881.239	3249
881.366	3150
881.493	3070
881.619	3043
881.746	3138
881.872	3150
881.999	3104
882.125	3214
882.252	3283
882.378	3321
882.505	3473
882.631	3283
882.757	3226
882.883	3222
883.01	3298
883.136	3176
883.262	3169
883.388	3142
883.514	3336
883.64	3409
883.766	3355
883.892	3226
884.018	3317
884.143	3435
884.269	3576
884.395	3287
884.52	3241
884.646	3211
884.772	3169
884.897	3138
885.023	3245
885.148	3378
885.274	3454
885.399	3443
885.524	3310
885.65	3313
885.775	3340
885.9	3313
886.025	3511
886.15	3386
886.275	3378
886.4	3264
886.525	3321
886.65	3302
886.775	3332
886.9	3515
887.025	3667
887.149	3412
887.274	3275
887.399	3199
887.523	3233
887.648	3233
887.773	3203
887.897	3401
888.021	3450
888.146	3344
888.27	3454
888.395	3568
888.519	3462
888.643	3481
888.767	3519
888.891	3355
889.015	3249
889.139	3325
889.263	3294
889.387	3469
889.511	3549
889.635	3511
889.759	3329
889.883	3317
890.006	3386
890.13	3500
890.254	3332
890.377	3340
890.501	3264
890.624	3211
890.748	3348
890.871	3253
890.995	3176
891.118	3100
891.241	3211
891.364	3245
891.488	3317
891.611	3226
891.734	3275
891.857	3317
891.98	3317
892.103	3374
892.226	3294
892.349	3256
892.471	3127
892.594	3302
892.717	3310
892.839	3291
892.962	3306
893.085	3397
893.207	3329
893.33	3207
893.452	3287
893.575	3378
893.697	3222
893.819	3545
893.941	3545
894.064	3431
894.186	3340
894.308	3317
894.43	3496
894.552	3587
894.674	3530
894.796	3310
894.918	3325
895.04	3321
895.161	3439
895.283	3458
895.405	3382
895.526	3397
895.648	3481
895.769	3416
895.891	3469
896.012	3492
896.134	3523
896.255	3466
896.376	3401
896.498	3431
896.619	3500
896.74	3409
896.861	3431
896.982	3717
897.103	3854
897.224	3595
897.345	3496
897.466	3435
897.587	3515
897.708	3652
897.828	3576
897.949	3458
898.07	3359
898.19	3466
898.311	3637
898.431	3488
898.552	3511
898.672	3606
898.792	3625
898.913	3538
899.033	3439
899.153	3264
899.273	3233
899.393	3310
899.513	3351
899.633	3351
899.753	3370
899.873	3363
899.993	3420
900.113	3393
900.232	3393
900.352	3374
900.472	3321
900.591	3245
900.711	3332
900.83	3283
900.95	3420
901.069	3530
901.189	3386
901.308	3180
901.427	3150
901.546	3241
901.665	3313
901.784	3336
901.904	3241
902.023	3184
902.141	3039
902.26	3028
902.379	3169
902.498	3100
902.617	3081
902.735	3226
902.854	3279
902.973	3222
903.091	3066
903.21	3081
903.328	3203
903.446	3127
903.565	3093
903.683	3245
903.801	3184
903.919	3302
904.038	3310
904.156	3211
904.274	3325
904.392	3298
904.51	3325
904.627	3386
904.745	3469
904.863	3481
904.981	3313
905.098	3188
905.216	3279
905.334	3321
905.451	3344
905.569	3291
905.686	3450
905.803	3481
905.921	3310
906.038	3462
906.155	3428
906.272	3294
906.389	3386
906.506	3256
906.623	3287
906.74	3336
906.857	3207
906.974	3302
907.091	3443
907.208	3618
907.324	3534
907.441	3409
907.557	3264
907.674	3260
907.79	3226
907.907	3294
908.023	3389
908.139	3405
908.256	3355
908.372	3435
908.488	3401
908.604	3275
908.72	3279
908.836	3298
908.952	3302
909.068	3389
909.184	3519
909.3	3386
909.415	3561
909.531	3469
909.647	3294
909.762	3306
909.878	3329
909.993	3367
910.108	3325
910.224	3382
910.339	3424
910.454	3348
910.57	3306
910.685	3260
910.8	3629
910.915	3534
911.03	3488
911.145	3287
911.259	3294
911.374	3344
911.489	3298
911.604	3268
911.718	3150
911.833	3226
911.947	3074
912.062	3062
912.176	3211
912.291	3245
912.405	3169
912.519	3450
912.633	3500
912.748	3409
912.862	3302
912.976	3161
913.09	3081
913.204	3176
913.318	3264
913.431	3367
913.545	3351
913.659	3420
913.772	3378
913.886	3260
914	3211
914.113	3405
914.226	3462
914.34	3348
914.453	3199
914.566	3416
914.68	3298
914.793	3313
914.906	3169
915.019	3108
915.132	3104
915.245	3211
915.358	3226
915.47	3211
915.583	3287
915.696	3329
915.809	3397
915.921	3466
916.034	3249
916.146	3279
916.259	3272
916.371	3405
916.483	3359
916.595	3283
916.708	3344
916.82	3363
916.932	3370
917.044	3367
917.156	3386
917.268	3287
917.38	3325
917.491	3344
917.603	3409
917.715	3450
917.826	3519
917.938	3409
918.049	3264
918.161	3439
918.272	3610
918.384	3622
918.495	3500
918.606	3359
918.717	3283
918.828	3405
918.939	3439
919.05	3317
919.161	3382
919.272	3199
919.383	3283
919.494	3526
919.604	3667
919.715	3538
919.826	3443
919.936	3439
920.047	3633
920.157	3584
920.267	3762
920.378	3641
920.488	3644
920.598	3785
920.708	3991
920.818	3838
920.928	3850
921.038	4021
921.148	4059
921.258	3732
921.368	3682
921.477	3614
921.587	3553
921.697	3447
921.806	3641
921.916	3580
922.025	3348
922.134	3386
922.244	3336
922.353	3447
922.462	3302
922.571	3253
922.68	3108
922.789	3055
922.898	3176
923.007	3108
923.116	3222
923.224	3211
923.333	3211
923.442	3157
923.55	3062
923.659	3150
923.767	3211
923.876	3188
923.984	3264
924.092	3104
924.201	3211
924.309	3249
924.417	3329
924.525	3214
924.633	3283
924.741	4200
924.849	3058
924.956	3310
925.064	3131
925.172	3032
925.279	3135
925.387	3203
925.494	3176
925.602	3340
925.709	3344
925.816	3203
925.924	3275
926.031	3405
926.138	3332
926.245	3363
926.352	3283
926.459	3466
926.566	3500
926.673	3317
926.779	3241
926.886	3268
926.993	3180
927.099	3161
927.206	3150
927.312	3127
927.419	3226
927.525	3173
927.631	3294
927.737	3176
927.843	3184
927.95	3032
928.056	3165
928.162	3161
928.267	3264
928.373	3903
928.479	3332
928.585	3058
928.69	3256
928.796	3291
928.901	3241
929.007	3074
929.112	3214
929.218	3203
929.323	3165
929.428	3157
929.533	3344
929.638	3131
929.743	3165
929.848	3268
929.953	3260
930.058	3142
930.163	3024
930.267	3074
930.372	3233
930.477	3058
930.581	3298
930.685	3214
930.79	3077
930.894	3165
930.998	3108
931.103	3260
931.207	2960
931.311	2929
931.415	2918
931.519	2811
931.623	2819
