Data from test_V78500241_1080.txt Node
Date: Fri Mar 25 16:22:41 CST 2022
User: usil
Spectrometer: V785-0024
Trigger mode: 0
Integration Time (sec): 4.000000E-1
Scans to average: 1
Nonlinearity correction enabled: false
Boxcar width: 0
Storing dark spectrum: false
XAxis mode: Wavelengths
Number of Pixels in Spectrum: 1024
>>>>>Begin Spectral Data<<<<<
801.071	2918
801.214	2998
801.356	2922
801.499	2883
801.641	2842
801.783	2937
801.926	3058
802.068	3001
802.211	2998
802.353	3036
802.496	2975
802.638	2998
802.78	3013
802.923	3093
803.065	2998
803.208	2872
803.35	2914
803.492	2937
803.635	2937
803.777	2762
803.919	2857
804.061	3222
804.204	2944
804.346	2952
804.488	2868
804.63	3024
804.773	2899
804.915	2906
805.057	3089
805.199	2925
805.341	2979
805.483	3077
805.626	3001
805.768	3009
805.91	3066
806.052	3142
806.194	3005
806.336	3241
806.478	3032
806.62	2971
806.762	3028
806.904	3055
807.046	3180
807.188	3013
807.33	2937
807.472	2998
807.614	2918
807.756	3001
807.898	2952
808.04	2967
808.182	2967
808.324	2963
808.465	2880
808.607	2914
808.749	2842
808.891	2861
809.033	2941
809.174	3009
809.316	2929
809.458	2887
809.6	2823
809.741	2758
809.883	2762
810.025	2872
810.166	2830
810.308	2868
810.45	2849
810.591	2792
810.733	2785
810.875	2845
811.016	2823
811.158	2777
811.299	2834
811.441	2933
811.582	2925
811.724	2819
811.865	2876
812.007	2933
812.148	2910
812.29	2902
812.431	2880
812.573	2944
812.714	2971
812.855	3058
812.997	3062
813.138	3127
813.279	3005
813.421	3024
813.562	2948
813.703	2887
813.845	2902
813.986	2796
814.127	2720
814.268	2811
814.41	2838
814.551	2800
814.692	2902
814.833	2842
814.974	2933
815.115	2960
815.256	2826
815.397	2845
815.539	2906
815.68	2758
815.821	2853
815.962	2952
816.103	2963
816.244	2864
816.385	2910
816.526	2960
816.666	2937
816.807	2727
816.948	2906
817.089	2922
817.23	2853
817.371	2804
817.512	2807
817.653	2853
817.793	2861
817.934	2902
818.075	3020
818.216	3005
818.356	3020
818.497	2887
818.638	2773
818.778	2853
818.919	2788
819.06	2762
819.2	2887
819.341	2838
819.481	2815
819.622	2918
819.762	3100
819.903	3074
820.043	2922
820.184	2895
820.324	2902
820.465	3013
820.605	3001
820.746	3043
820.886	2906
821.026	3104
821.167	3161
821.307	3287
821.447	3298
821.588	3226
821.728	3203
821.868	3199
822.008	3085
822.149	3157
822.289	3226
822.429	3108
822.569	3100
822.709	3188
822.849	3066
822.99	3036
823.13	3180
823.27	3214
823.41	3112
823.55	3123
823.69	3116
823.83	3188
823.97	3127
824.11	3024
824.25	3055
824.389	3062
824.529	3116
824.669	3066
824.809	3207
824.949	3211
825.089	3294
825.228	3131
825.368	3013
825.508	2967
825.648	2979
825.787	3013
825.927	3043
826.067	2998
826.206	2944
826.346	3017
826.485	3100
826.625	3119
826.765	3291
826.904	3192
827.044	3028
827.183	2948
827.323	2891
827.462	3001
827.601	2922
827.741	2941
827.88	2979
828.02	2902
828.159	2975
828.298	3062
828.437	3104
828.577	3077
828.716	3241
828.855	3097
828.994	2956
829.134	2910
829.273	2914
829.412	2887
829.551	2899
829.69	2899
829.829	2975
829.968	3108
830.107	3020
830.246	2998
830.385	2937
830.524	2899
830.663	2807
830.802	2731
830.941	2670
831.08	2667
831.219	2777
831.357	2754
831.496	2971
831.635	2743
831.774	2712
831.913	2670
832.051	2568
832.19	2568
832.329	2682
832.467	2549
832.606	2495
832.744	2598
832.883	2617
833.022	2587
833.16	2640
833.299	2701
833.437	2712
833.576	2689
833.714	2750
833.852	2750
833.991	2769
834.129	2864
834.267	2796
834.406	2773
834.544	2891
834.682	2887
834.821	2910
834.959	3089
835.097	2906
835.235	3070
835.373	3013
835.511	3009
835.65	2963
835.788	2944
835.926	2849
836.064	2807
836.202	2823
836.34	3108
836.478	3146
836.615	3089
836.753	3188
836.891	3241
837.029	3161
837.167	3119
837.305	3097
837.443	3020
837.58	3001
837.718	3142
837.856	3097
837.993	3024
838.131	3135
838.269	3146
838.406	3077
838.544	3116
838.681	2952
838.819	2925
838.956	2853
839.094	2819
839.231	2906
839.369	2979
839.506	3386
839.643	3245
839.781	3047
839.918	2979
840.055	3009
840.193	3032
840.33	3058
840.467	3089
840.604	3138
840.742	3405
840.879	3070
841.016	3058
841.153	3131
841.29	3336
841.427	3283
841.564	3291
841.701	3329
841.838	3230
841.975	3161
842.112	3192
842.249	3074
842.385	3039
842.522	3233
842.659	3104
842.796	3062
842.933	3062
843.069	3070
843.206	3047
843.343	3169
843.479	3123
843.616	3138
843.752	2876
843.889	2895
844.025	3085
844.162	2910
844.298	3100
844.435	2941
844.571	2918
844.708	3066
844.844	3165
844.98	3199
845.117	3161
845.253	3070
845.389	3028
845.525	3119
845.661	3074
845.798	3020
845.934	3150
846.07	3028
846.206	3188
846.342	3340
846.478	3222
846.614	3093
846.75	3047
846.886	3062
847.022	3199
847.158	3138
847.294	3192
847.429	3237
847.565	3203
847.701	3496
847.837	3047
847.972	3020
848.108	3131
848.244	3146
848.379	2971
848.515	2922
848.65	2925
848.786	2990
848.921	2998
849.057	3119
849.192	3150
849.328	3066
849.463	3135
849.598	3097
849.734	3017
849.869	2986
850.004	2937
850.14	2975
850.275	2937
850.41	2830
850.545	2864
850.68	2895
850.815	2975
850.95	2929
851.085	3184
851.22	3085
851.355	2979
851.49	2994
851.625	3028
851.76	3028
851.895	2944
852.03	2937
852.165	3051
852.299	3108
852.434	3180
852.569	3173
852.703	3154
852.838	3241
852.973	3351
853.107	3302
853.242	3176
853.376	3119
853.511	2952
853.645	3074
853.78	3230
853.914	3127
854.048	3108
854.183	3104
854.317	3085
854.451	3268
854.585	3116
854.72	3127
854.854	3203
854.988	3032
855.122	3112
855.256	2960
855.39	3085
855.524	3245
855.658	3180
855.792	3135
855.926	3161
856.06	3230
856.194	3256
856.327	3150
856.461	3077
856.595	3097
856.729	3112
856.862	3203
856.996	3146
857.13	3203
857.263	3207
857.397	3298
857.53	3161
857.664	3241
857.797	3253
857.931	3294
858.064	3142
858.197	3207
858.331	3154
858.464	3138
858.597	2982
858.731	3089
858.864	3131
858.997	3108
859.13	3119
859.263	3195
859.396	3222
859.529	3104
859.662	3085
859.795	3036
859.928	3154
860.061	3272
860.194	3298
860.327	3131
860.46	3085
860.592	3268
860.725	3241
860.858	3237
860.99	3119
861.123	3043
861.256	3074
861.388	3104
861.521	3797
861.653	3009
861.786	2994
861.918	3032
862.05	3032
862.183	3142
862.315	3154
862.447	3176
862.58	3097
862.712	2952
862.844	2895
862.976	2990
863.108	3009
863.24	3310
863.372	2857
863.504	2948
863.636	2994
863.768	3028
863.9	2975
864.032	2876
864.164	2937
864.296	3017
864.428	3097
864.559	3135
864.691	3081
864.823	3085
864.954	3055
865.086	3032
865.217	2971
865.349	2956
865.48	2979
865.612	3001
865.743	3146
865.875	2975
866.006	2975
866.137	2967
866.269	2971
866.4	2902
866.531	2952
866.662	2880
866.793	2899
866.924	2895
867.055	2956
867.186	2918
867.317	2864
867.448	2864
867.579	2838
867.71	2849
867.841	2819
867.972	2906
868.103	2899
868.233	2883
868.364	2857
868.495	2868
868.625	3051
868.756	3173
868.886	2986
869.017	3009
869.147	3176
869.278	3176
869.408	3039
869.539	3028
869.669	3119
869.799	3032
869.929	3154
870.06	3074
870.19	3325
870.32	3260
870.45	3256
870.58	3332
870.71	3431
870.84	3435
870.97	3291
871.1	3264
871.23	3507
871.36	3454
871.489	3344
871.619	3355
871.749	3412
871.879	3458
872.008	3488
872.138	3321
872.267	3241
872.397	3108
872.526	3119
872.656	3051
872.785	3055
872.915	3211
873.044	3310
873.173	3199
873.303	3249
873.432	3245
873.561	3245
873.69	3165
873.819	3157
873.948	3222
874.077	3112
874.206	3062
874.335	3104
874.464	3207
874.593	3336
874.722	3218
874.851	3409
874.979	3363
875.108	3294
875.237	3173
875.365	3173
875.494	3142
875.623	3249
875.751	3070
875.88	3112
876.008	3184
876.136	3218
876.265	3363
876.393	3469
876.521	3374
876.65	3401
876.778	3332
876.906	3226
877.034	3195
877.162	3230
877.29	3195
877.418	3241
877.546	3253
877.674	3214
877.802	3192
877.93	3226
878.058	3138
878.185	3097
878.313	3195
878.441	3188
878.568	3043
878.696	3195
878.824	3275
878.951	3310
879.079	3481
879.206	3648
879.333	3409
879.461	3325
879.588	3348
879.715	3450
879.842	3584
879.97	3386
880.097	3161
880.224	3135
880.351	3146
880.478	3195
880.605	3199
880.732	3142
880.859	3469
880.986	3287
881.112	3291
881.239	3184
881.366	3093
881.493	3039
881.619	3001
881.746	3066
881.872	3074
881.999	3081
882.125	3131
882.252	3214
882.378	3283
882.505	3443
882.631	3302
882.757	3150
882.883	3222
883.01	3214
883.136	3150
883.262	3108
883.388	3138
883.514	3310
883.64	3363
883.766	3291
883.892	3165
884.018	3214
884.143	3447
884.269	3530
884.395	3195
884.52	3119
884.646	3192
884.772	3081
884.897	3100
885.023	3146
885.148	3329
885.274	3420
885.399	3378
885.524	3283
885.65	3268
885.775	3310
885.9	3260
886.025	3431
886.15	3401
886.275	3332
886.4	3214
886.525	3291
886.65	3237
886.775	3279
886.9	3534
887.025	3663
887.149	3420
887.274	3256
887.399	3176
887.523	3214
887.648	3138
887.773	3176
887.897	3389
888.021	3386
888.146	3275
888.27	3439
888.395	3481
888.519	3435
888.643	3458
888.767	3405
888.891	3332
889.015	3218
889.139	3264
889.263	3264
889.387	3412
889.511	3481
889.635	3443
889.759	3287
889.883	3302
890.006	3382
890.13	3496
890.254	3256
890.377	3313
890.501	3211
890.624	3199
890.748	3310
890.871	3169
890.995	3119
891.118	3077
891.241	3192
891.364	3237
891.488	3321
891.611	3192
891.734	3241
891.857	3306
891.98	3268
892.103	3363
892.226	3260
892.349	3203
892.471	3108
892.594	3195
892.717	3298
892.839	3264
892.962	3302
893.085	3332
893.207	3287
893.33	3138
893.452	3195
893.575	3336
893.697	3233
893.819	3504
893.941	3473
894.064	3412
894.186	3260
894.308	3249
894.43	3443
894.552	3511
894.674	3492
894.796	3264
894.918	3306
895.04	3283
895.161	3397
895.283	3397
895.405	3325
895.526	3355
895.648	3397
895.769	3397
895.891	3469
896.012	3454
896.134	3500
896.255	3401
896.376	3370
896.498	3344
896.619	3416
896.74	3401
896.861	3405
896.982	3690
897.103	3812
897.224	3587
897.345	3515
897.466	3477
897.587	3469
897.708	3576
897.828	3557
897.949	3424
898.07	3355
898.19	3389
898.311	3580
898.431	3428
898.552	3526
898.672	3587
898.792	3553
898.913	3481
899.033	3389
899.153	3287
899.273	3188
899.393	3291
899.513	3264
899.633	3306
899.753	3344
899.873	3313
899.993	3344
900.113	3374
900.232	3363
900.352	3329
900.472	3268
900.591	3184
900.711	3310
900.83	3192
900.95	3382
901.069	3504
901.189	3355
901.308	3146
901.427	3119
901.546	3195
901.665	3287
901.784	3344
901.904	3165
902.023	3127
902.141	3005
902.26	2994
902.379	3119
902.498	3043
902.617	3077
902.735	3245
902.854	3245
902.973	3199
903.091	3043
903.21	3043
903.328	3127
903.446	3161
903.565	3112
903.683	3195
903.801	3127
903.919	3264
904.038	3268
904.156	3188
904.274	3302
904.392	3241
904.51	3260
904.627	3359
904.745	3405
904.863	3477
904.981	3222
905.098	3188
905.216	3218
905.334	3287
905.451	3294
905.569	3310
905.686	3378
905.803	3393
905.921	3279
906.038	3477
906.155	3374
906.272	3313
906.389	3313
906.506	3233
906.623	3253
906.74	3294
906.857	3142
906.974	3264
907.091	3450
907.208	3606
907.324	3458
907.441	3378
907.557	3165
907.674	3211
907.79	3195
907.907	3272
908.023	3367
908.139	3382
908.256	3313
908.372	3367
908.488	3351
908.604	3230
908.72	3226
908.836	3287
908.952	3272
909.068	3386
909.184	3473
909.3	3393
909.415	3545
909.531	3496
909.647	3283
909.762	3291
909.878	3237
909.993	3348
910.108	3355
910.224	3321
910.339	3431
910.454	3306
910.57	3287
910.685	3249
910.8	3561
910.915	3542
911.03	3389
911.145	3306
911.259	3294
911.374	3291
911.489	3264
911.604	3207
911.718	3100
911.833	3173
911.947	3005
912.062	2948
912.176	3165
912.291	3169
912.405	3188
912.519	3397
912.633	3462
912.748	3313
912.862	3260
912.976	3169
913.09	3074
913.204	3100
913.318	3214
913.431	3344
913.545	3340
913.659	3378
913.772	3363
913.886	3230
914	3165
914.113	3340
914.226	3374
914.34	3344
914.453	3199
914.566	3386
914.68	3306
914.793	3298
914.906	3169
915.019	3138
915.132	3077
915.245	3173
915.358	3188
915.47	3230
915.583	3291
915.696	3313
915.809	3412
915.921	3412
916.034	3264
916.146	3249
916.259	3195
916.371	3378
916.483	3382
916.595	3253
916.708	3336
916.82	3313
916.932	3321
917.044	3351
917.156	3363
917.268	3283
917.38	3268
917.491	3298
917.603	3367
917.715	3431
917.826	3477
917.938	3401
918.049	3283
918.161	3416
918.272	3595
918.384	3618
918.495	3477
918.606	3351
918.717	3272
918.828	3367
918.939	3447
919.05	3264
919.161	3310
919.272	3192
919.383	3287
919.494	3507
919.604	3652
919.715	3462
919.826	3409
919.936	3447
920.047	3618
920.157	3515
920.267	3778
920.378	3603
920.488	3545
920.598	3812
920.708	3960
920.818	3797
920.928	3876
921.038	4006
921.148	3983
921.258	3717
921.368	3625
921.477	3580
921.587	3530
921.697	3466
921.806	3660
921.916	3511
922.025	3355
922.134	3340
922.244	3336
922.353	3420
922.462	3272
922.571	3218
922.68	3116
922.789	3097
922.898	3108
923.007	3116
923.116	3203
923.224	3161
923.333	3192
923.442	3123
923.55	3066
923.659	3142
923.767	3207
923.876	3104
923.984	3256
924.092	3081
924.201	3180
924.309	3226
924.417	3256
924.525	3180
924.633	3218
924.741	3994
924.849	3047
924.956	3268
925.064	3093
925.172	3062
925.279	3146
925.387	3199
925.494	3218
925.602	3355
925.709	3325
925.816	3184
925.924	3287
926.031	3389
926.138	3348
926.245	3355
926.352	3283
926.459	3409
926.566	3439
926.673	3359
926.779	3195
926.886	3256
926.993	3146
927.099	3097
927.206	3138
927.312	3131
927.419	3195
927.525	3218
927.631	3287
927.737	3135
927.843	3074
927.95	2998
928.056	3146
928.162	3199
928.267	3237
928.373	3911
928.479	3325
928.585	3097
928.69	3180
928.796	3291
928.901	3135
929.007	3051
929.112	3199
929.218	3222
929.323	3104
929.428	3180
929.533	3329
929.638	3112
929.743	3180
929.848	3253
929.953	3207
930.058	3180
930.163	2960
930.267	3089
930.372	3207
930.477	3055
930.581	3260
930.685	3157
930.79	3047
930.894	3108
930.998	3150
931.103	3260
931.207	2971
931.311	2967
931.415	2910
931.519	2792
931.623	2838
