Data from test_V78500241_277.txt Node
Date: Fri Mar 25 16:17:07 CST 2022
User: usil
Spectrometer: V785-0024
Trigger mode: 0
Integration Time (sec): 4.000000E-1
Scans to average: 1
Nonlinearity correction enabled: false
Boxcar width: 0
Storing dark spectrum: false
XAxis mode: Wavelengths
Number of Pixels in Spectrum: 1024
>>>>>Begin Spectral Data<<<<<
801.071	2929
801.214	3017
801.356	2914
801.499	2948
801.641	2914
801.783	2952
801.926	3146
802.068	2998
802.211	3062
802.353	3085
802.496	2975
802.638	3032
802.78	3077
802.923	3089
803.065	3051
803.208	2933
803.35	2952
803.492	2975
803.635	2967
803.777	2804
803.919	2906
804.061	3226
804.204	3013
804.346	2944
804.488	2891
804.63	3039
804.773	2933
804.915	2941
805.057	3097
805.199	2967
805.341	3020
805.483	3089
805.626	3024
805.768	3032
805.91	3108
806.052	3188
806.194	3089
806.336	3294
806.478	3058
806.62	2994
806.762	3005
806.904	3097
807.046	3203
807.188	3043
807.33	2918
807.472	3020
807.614	2948
807.756	3013
807.898	2948
808.04	2963
808.182	3032
808.324	2967
808.465	2941
808.607	2941
808.749	2830
808.891	2868
809.033	3062
809.174	2979
809.316	2960
809.458	2914
809.6	2800
809.741	2838
809.883	2800
810.025	2910
810.166	2853
810.308	2864
810.45	2925
810.591	2830
810.733	2815
810.875	2853
811.016	2804
811.158	2815
811.299	2864
811.441	2952
811.582	2925
811.724	2807
811.865	2883
812.007	2922
812.148	2910
812.29	2902
812.431	2899
812.573	2948
812.714	3024
812.855	3089
812.997	3097
813.138	3169
813.279	3058
813.421	2994
813.562	2982
813.703	2895
813.845	2967
813.986	2807
814.127	2781
814.268	2891
814.41	2883
814.551	2880
814.692	2918
814.833	2861
814.974	2937
815.115	2960
815.256	2857
815.397	2834
815.539	2895
815.68	2834
815.821	2788
815.962	2998
816.103	2990
816.244	2948
816.385	2887
816.526	3001
816.666	2952
816.807	2762
816.948	2956
817.089	2960
817.23	2883
817.371	2800
817.512	2811
817.653	2880
817.793	2861
817.934	2906
818.075	3043
818.216	3032
818.356	3062
818.497	2918
818.638	2826
818.778	2876
818.919	2800
819.06	2800
819.2	2922
819.341	2868
819.481	2830
819.622	2979
819.762	3100
819.903	3104
820.043	2922
820.184	2948
820.324	2948
820.465	3058
820.605	3024
820.746	3013
820.886	2963
821.026	3116
821.167	3195
821.307	3291
821.447	3336
821.588	3287
821.728	3253
821.868	3233
822.008	3081
822.149	3195
822.289	3256
822.429	3150
822.569	3104
822.709	3207
822.849	3070
822.99	3135
823.13	3188
823.27	3218
823.41	3116
823.55	3146
823.69	3165
823.83	3218
823.97	3127
824.11	3055
824.25	2982
824.389	3108
824.529	3131
824.669	3131
824.809	3260
824.949	3298
825.089	3249
825.228	3203
825.368	3020
825.508	2967
825.648	3005
825.787	3058
825.927	3036
826.067	2990
826.206	2994
826.346	3108
826.485	3089
826.625	3176
826.765	3321
826.904	3256
827.044	3001
827.183	2929
827.323	2883
827.462	3036
827.601	2933
827.741	2982
827.88	2929
828.02	2891
828.159	3009
828.298	3066
828.437	3173
828.577	3100
828.716	3245
828.855	3093
828.994	2922
829.134	2929
829.273	2948
829.412	2918
829.551	2899
829.69	2910
829.829	2967
829.968	3176
830.107	3020
830.246	3058
830.385	2967
830.524	2880
830.663	2876
830.802	2743
830.941	2667
831.08	2667
831.219	2766
831.357	2800
831.496	2986
831.635	2766
831.774	2716
831.913	2693
832.051	2613
832.19	2606
832.329	2712
832.467	2549
832.606	2514
832.744	2640
832.883	2610
833.022	2606
833.16	2670
833.299	2701
833.437	2727
833.576	2697
833.714	2743
833.852	2769
833.991	2815
834.129	2838
834.267	2864
834.406	2773
834.544	2899
834.682	2910
834.821	2910
834.959	3077
835.097	2929
835.235	3127
835.373	3043
835.511	3039
835.65	2998
835.788	3028
835.926	2899
836.064	2815
836.202	2872
836.34	3093
836.478	3169
836.615	3089
836.753	3165
836.891	3230
837.029	3199
837.167	3131
837.305	3081
837.443	3093
837.58	2994
837.718	3150
837.856	3108
837.993	3062
838.131	3169
838.269	3131
838.406	3116
838.544	3097
838.681	2952
838.819	2975
838.956	2849
839.094	2845
839.231	2948
839.369	3043
839.506	3393
839.643	3203
839.781	3066
839.918	3009
840.055	3089
840.193	3062
840.33	3104
840.467	3146
840.604	3138
840.742	3443
840.879	3085
841.016	3093
841.153	3146
841.29	3351
841.427	3325
841.564	3306
841.701	3329
841.838	3218
841.975	3207
842.112	3214
842.249	3123
842.385	3097
842.522	3272
842.659	3127
842.796	3100
842.933	3119
843.069	3058
843.206	3089
843.343	3249
843.479	3123
843.616	3169
843.752	2963
843.889	2895
844.025	3119
844.162	2891
844.298	3093
844.435	2944
844.571	2933
844.708	3074
844.844	3211
844.98	3256
845.117	3237
845.253	3074
845.389	3062
845.525	3104
845.661	3146
845.798	3051
845.934	3161
846.07	3104
846.206	3237
846.342	3332
846.478	3233
846.614	3112
846.75	3081
846.886	3062
847.022	3287
847.158	3135
847.294	3222
847.429	3283
847.565	3222
847.701	3523
847.837	3081
847.972	3036
848.108	3188
848.244	3157
848.379	3020
848.515	2986
848.65	2948
848.786	3005
848.921	3051
849.057	3146
849.192	3180
849.328	3062
849.463	3154
849.598	3074
849.734	3036
849.869	3017
850.004	2922
850.14	2998
850.275	2929
850.41	2868
850.545	2925
850.68	2933
850.815	2956
850.95	2963
851.085	3173
851.22	3123
851.355	3039
851.49	3001
851.625	3001
851.76	3051
851.895	2948
852.03	2929
852.165	3036
852.299	3146
852.434	3180
852.569	3135
852.703	3211
852.838	3291
852.973	3340
853.107	3325
853.242	3169
853.376	3100
853.511	3005
853.645	3077
853.78	3245
853.914	3131
854.048	3108
854.183	3123
854.317	3161
854.451	3321
854.585	3146
854.72	3074
854.854	3237
854.988	3077
855.122	3142
855.256	3013
855.39	3157
855.524	3260
855.658	3173
855.792	3195
855.926	3218
856.06	3237
856.194	3268
856.327	3192
856.461	3093
856.595	3081
856.729	3119
856.862	3241
856.996	3173
857.13	3192
857.263	3226
857.397	3291
857.53	3180
857.664	3203
857.797	3230
857.931	3268
858.064	3180
858.197	3184
858.331	3146
858.464	3097
858.597	3005
858.731	3100
858.864	3135
858.997	3089
859.13	3188
859.263	3199
859.396	3218
859.529	3089
859.662	3112
859.795	3058
859.928	3173
860.061	3306
860.194	3287
860.327	3150
860.46	3123
860.592	3264
860.725	3245
860.858	3268
860.99	3123
861.123	3074
861.256	3070
861.388	3165
861.521	3911
861.653	3062
861.786	3005
861.918	3005
862.05	3104
862.183	3100
862.315	3127
862.447	3207
862.58	3112
862.712	2990
862.844	2895
862.976	3051
863.108	3009
863.24	3344
863.372	2895
863.504	2967
863.636	2963
863.768	3036
863.9	3024
864.032	2922
864.164	2975
864.296	3036
864.428	3104
864.559	3108
864.691	3089
864.823	3039
864.954	3062
865.086	3039
865.217	3017
865.349	2975
865.48	2967
865.612	3062
865.743	3154
865.875	2982
866.006	2975
866.137	2986
866.269	2967
866.4	2952
866.531	2902
866.662	2918
866.793	2895
866.924	2925
867.055	3013
867.186	2948
867.317	2895
867.448	2861
867.579	2883
867.71	2876
867.841	2838
867.972	2933
868.103	2922
868.233	2918
868.364	2914
868.495	2986
868.625	3104
868.756	3165
868.886	2971
869.017	3062
869.147	3214
869.278	3199
869.408	3036
869.539	3077
869.669	3146
869.799	3001
869.929	3169
870.06	3123
870.19	3321
870.32	3279
870.45	3329
870.58	3386
870.71	3488
870.84	3439
870.97	3340
871.1	3237
871.23	3511
871.36	3485
871.489	3378
871.619	3416
871.749	3420
871.879	3450
872.008	3504
872.138	3340
872.267	3336
872.397	3176
872.526	3100
872.656	3058
872.785	3077
872.915	3256
873.044	3329
873.173	3253
873.303	3279
873.432	3214
873.561	3233
873.69	3173
873.819	3195
873.948	3180
874.077	3131
874.206	3066
874.335	3066
874.464	3218
874.593	3325
874.722	3226
874.851	3439
874.979	3348
875.108	3279
875.237	3195
875.365	3192
875.494	3165
875.623	3253
875.751	3089
875.88	3112
876.008	3211
876.136	3264
876.265	3344
876.393	3519
876.521	3409
876.65	3428
876.778	3340
876.906	3245
877.034	3275
877.162	3233
877.29	3176
877.418	3218
877.546	3256
877.674	3268
877.802	3268
877.93	3233
878.058	3165
878.185	3119
878.313	3195
878.441	3207
878.568	3066
878.696	3180
878.824	3237
878.951	3351
879.079	3488
879.206	3667
879.333	3428
879.461	3325
879.588	3363
879.715	3500
879.842	3584
879.97	3386
880.097	3199
880.224	3146
880.351	3188
880.478	3256
880.605	3150
880.732	3230
880.859	3500
880.986	3310
881.112	3336
881.239	3169
881.366	3142
881.493	3036
881.619	3005
881.746	3070
881.872	3062
881.999	3119
882.125	3180
882.252	3283
882.378	3260
882.505	3428
882.631	3348
882.757	3176
882.883	3184
883.01	3268
883.136	3173
883.262	3104
883.388	3176
883.514	3363
883.64	3416
883.766	3317
883.892	3165
884.018	3253
884.143	3435
884.269	3553
884.395	3173
884.52	3157
884.646	3230
884.772	3135
884.897	3104
885.023	3230
885.148	3355
885.274	3401
885.399	3363
885.524	3283
885.65	3264
885.775	3325
885.9	3298
886.025	3412
886.15	3359
886.275	3287
886.4	3237
886.525	3291
886.65	3241
886.775	3294
886.9	3500
887.025	3652
887.149	3443
887.274	3283
887.399	3218
887.523	3222
887.648	3169
887.773	3214
887.897	3363
888.021	3412
888.146	3272
888.27	3466
888.395	3542
888.519	3431
888.643	3443
888.767	3431
888.891	3321
889.015	3233
889.139	3291
889.263	3199
889.387	3420
889.511	3507
889.635	3454
889.759	3287
889.883	3268
890.006	3424
890.13	3466
890.254	3268
890.377	3355
890.501	3199
890.624	3188
890.748	3291
890.871	3207
890.995	3135
891.118	3081
891.241	3169
891.364	3211
891.488	3291
891.611	3173
891.734	3192
891.857	3275
891.98	3237
892.103	3389
892.226	3294
892.349	3230
892.471	3138
892.594	3256
892.717	3275
892.839	3279
892.962	3264
893.085	3370
893.207	3355
893.33	3180
893.452	3195
893.575	3370
893.697	3272
893.819	3488
893.941	3504
894.064	3447
894.186	3317
894.308	3272
894.43	3431
894.552	3534
894.674	3496
894.796	3306
894.918	3306
895.04	3260
895.161	3454
895.283	3378
895.405	3287
895.526	3424
895.648	3420
895.769	3420
895.891	3492
896.012	3454
896.134	3443
896.255	3405
896.376	3397
896.498	3340
896.619	3416
896.74	3332
896.861	3420
896.982	3671
897.103	3857
897.224	3545
897.345	3561
897.466	3428
897.587	3473
897.708	3614
897.828	3542
897.949	3405
898.07	3329
898.19	3439
898.311	3622
898.431	3428
898.552	3515
898.672	3625
898.792	3557
898.913	3519
899.033	3428
899.153	3272
899.273	3226
899.393	3264
899.513	3321
899.633	3313
899.753	3279
899.873	3302
899.993	3363
900.113	3344
900.232	3401
900.352	3332
900.472	3260
900.591	3211
900.711	3344
900.83	3264
900.95	3477
901.069	3481
901.189	3344
901.308	3199
901.427	3173
901.546	3195
901.665	3294
901.784	3340
901.904	3226
902.023	3150
902.141	3009
902.26	2986
902.379	3161
902.498	3097
902.617	3039
902.735	3222
902.854	3233
902.973	3195
903.091	3074
903.21	3081
903.328	3138
903.446	3116
903.565	3108
903.683	3195
903.801	3097
903.919	3268
904.038	3268
904.156	3173
904.274	3313
904.392	3268
904.51	3317
904.627	3332
904.745	3428
904.863	3481
904.981	3275
905.098	3154
905.216	3260
905.334	3268
905.451	3321
905.569	3321
905.686	3439
905.803	3473
905.921	3329
906.038	3443
906.155	3351
906.272	3268
906.389	3329
906.506	3230
906.623	3268
906.74	3279
906.857	3214
906.974	3230
907.091	3447
907.208	3606
907.324	3485
907.441	3382
907.557	3226
907.674	3237
907.79	3253
907.907	3306
908.023	3359
908.139	3382
908.256	3329
908.372	3405
908.488	3382
908.604	3237
908.72	3241
908.836	3310
908.952	3294
909.068	3355
909.184	3496
909.3	3420
909.415	3504
909.531	3485
909.647	3306
909.762	3272
909.878	3279
909.993	3359
910.108	3344
910.224	3348
910.339	3462
910.454	3321
910.57	3302
910.685	3230
910.8	3595
910.915	3542
911.03	3428
911.145	3256
911.259	3256
911.374	3329
911.489	3260
911.604	3241
911.718	3123
911.833	3173
911.947	3017
912.062	2971
912.176	3173
912.291	3226
912.405	3230
912.519	3439
912.633	3424
912.748	3313
912.862	3241
912.976	3142
913.09	3055
913.204	3154
913.318	3222
913.431	3344
913.545	3355
913.659	3405
913.772	3325
913.886	3249
914	3222
914.113	3363
914.226	3439
914.34	3355
914.453	3199
914.566	3409
914.68	3279
914.793	3298
914.906	3161
915.019	3070
915.132	3058
915.245	3180
915.358	3203
915.47	3245
915.583	3253
915.696	3291
915.809	3397
915.921	3412
916.034	3245
916.146	3218
916.259	3241
916.371	3386
916.483	3340
916.595	3268
916.708	3332
916.82	3298
916.932	3294
917.044	3340
917.156	3332
917.268	3260
917.38	3332
917.491	3321
917.603	3374
917.715	3447
917.826	3458
917.938	3409
918.049	3272
918.161	3469
918.272	3561
918.384	3595
918.495	3458
918.606	3359
918.717	3275
918.828	3389
918.939	3428
919.05	3317
919.161	3401
919.272	3173
919.383	3283
919.494	3500
919.604	3682
919.715	3477
919.826	3435
919.936	3485
920.047	3587
920.157	3545
920.267	3759
920.378	3606
920.488	3614
920.598	3797
920.708	3953
920.818	3842
920.928	3850
921.038	3994
921.148	4013
921.258	3694
921.368	3686
921.477	3584
921.587	3561
921.697	3481
921.806	3660
921.916	3530
922.025	3340
922.134	3401
922.244	3306
922.353	3439
922.462	3275
922.571	3230
922.68	3146
922.789	3081
922.898	3150
923.007	3089
923.116	3192
923.224	3176
923.333	3165
923.442	3104
923.55	3097
923.659	3154
923.767	3173
923.876	3150
923.984	3260
924.092	3097
924.201	3245
924.309	3256
924.417	3264
924.525	3192
924.633	3241
924.741	4169
924.849	3017
924.956	3306
925.064	3135
925.172	3043
925.279	3104
925.387	3176
925.494	3233
925.602	3359
925.709	3374
925.816	3192
925.924	3283
926.031	3374
926.138	3317
926.245	3344
926.352	3237
926.459	3424
926.566	3488
926.673	3336
926.779	3249
926.886	3245
926.993	3138
927.099	3161
927.206	3097
927.312	3108
927.419	3222
927.525	3211
927.631	3279
927.737	3146
927.843	3192
927.95	3017
928.056	3142
928.162	3176
928.267	3272
928.373	3857
928.479	3317
928.585	3097
928.69	3199
928.796	3283
928.901	3188
929.007	3020
929.112	3211
929.218	3180
929.323	3150
929.428	3135
929.533	3329
929.638	3131
929.743	3150
929.848	3245
929.953	3214
930.058	3116
930.163	3028
930.267	3047
930.372	3188
930.477	3062
930.581	3336
930.685	3184
930.79	3066
930.894	3104
930.998	3112
931.103	3317
931.207	2967
931.311	2967
931.415	2952
931.519	2762
931.623	2819
