Data from test_V78500241_660.txt Node
Date: Fri Mar 25 16:19:46 CST 2022
User: usil
Spectrometer: V785-0024
Trigger mode: 0
Integration Time (sec): 4.000000E-1
Scans to average: 1
Nonlinearity correction enabled: false
Boxcar width: 0
Storing dark spectrum: false
XAxis mode: Wavelengths
Number of Pixels in Spectrum: 1024
>>>>>Begin Spectral Data<<<<<
801.071	2910
801.214	2956
801.356	2868
801.499	2849
801.641	2902
801.783	2960
801.926	3089
802.068	3005
802.211	3032
802.353	3005
802.496	2948
802.638	3009
802.78	3074
802.923	3081
803.065	3009
803.208	2906
803.35	2941
803.492	2944
803.635	2929
803.777	2750
803.919	2868
804.061	3195
804.204	2963
804.346	2979
804.488	2853
804.63	3036
804.773	2891
804.915	2956
805.057	3131
805.199	2979
805.341	2994
805.483	3127
805.626	3013
805.768	3028
805.91	3097
806.052	3127
806.194	3009
806.336	3253
806.478	3081
806.62	3001
806.762	3009
806.904	3123
807.046	3188
807.188	3020
807.33	2963
807.472	3024
807.614	2956
807.756	3024
807.898	2937
808.04	2880
808.182	3013
808.324	2971
808.465	2929
808.607	2918
808.749	2838
808.891	2864
809.033	3020
809.174	3005
809.316	2929
809.458	2944
809.6	2792
809.741	2819
809.883	2746
810.025	2899
810.166	2902
810.308	2887
810.45	2895
810.591	2773
810.733	2796
810.875	2845
811.016	2819
811.158	2781
811.299	2895
811.441	2960
811.582	2944
811.724	2849
811.865	2876
812.007	2948
812.148	2906
812.29	2883
812.431	2899
812.573	2971
812.714	2994
812.855	3077
812.997	3070
813.138	3176
813.279	3077
813.421	2990
813.562	3005
813.703	2887
813.845	2891
813.986	2819
814.127	2746
814.268	2842
814.41	2883
814.551	2834
814.692	2906
814.833	2887
814.974	2925
815.115	2982
815.256	2887
815.397	2807
815.539	2853
815.68	2807
815.821	2826
815.962	2994
816.103	2963
816.244	2868
816.385	2918
816.526	2998
816.666	2918
816.807	2758
816.948	2944
817.089	2952
817.23	2891
817.371	2819
817.512	2823
817.653	2857
817.793	2845
817.934	2941
818.075	2998
818.216	3005
818.356	3028
818.497	2902
818.638	2861
818.778	2864
818.919	2796
819.06	2766
819.2	2914
819.341	2826
819.481	2849
819.622	2952
819.762	3108
819.903	3070
820.043	2952
820.184	2967
820.324	2910
820.465	3024
820.605	3005
820.746	3055
820.886	2986
821.026	3112
821.167	3192
821.307	3279
821.447	3317
821.588	3275
821.728	3195
821.868	3226
822.008	3089
822.149	3207
822.289	3260
822.429	3146
822.569	3119
822.709	3192
822.849	3001
822.99	3089
823.13	3180
823.27	3218
823.41	3154
823.55	3203
823.69	3207
823.83	3237
823.97	3123
824.11	3020
824.25	3005
824.389	3097
824.529	3104
824.669	3108
824.809	3256
824.949	3245
825.089	3222
825.228	3218
825.368	3077
825.508	3005
825.648	2952
825.787	3028
825.927	3028
826.067	2998
826.206	3005
826.346	3089
826.485	3085
826.625	3146
826.765	3279
826.904	3233
827.044	3039
827.183	2990
827.323	2853
827.462	3036
827.601	2960
827.741	2929
827.88	2990
828.02	2861
828.159	2982
828.298	3043
828.437	3127
828.577	3001
828.716	3294
828.855	3108
828.994	2925
829.134	2887
829.273	2922
829.412	2880
829.551	2918
829.69	2967
829.829	2971
829.968	3157
830.107	3028
830.246	3077
830.385	2994
830.524	2902
830.663	2823
830.802	2758
830.941	2667
831.08	2651
831.219	2777
831.357	2807
831.496	2971
831.635	2731
831.774	2663
831.913	2712
832.051	2579
832.19	2587
832.329	2724
832.467	2564
832.606	2503
832.744	2621
832.883	2621
833.022	2606
833.16	2648
833.299	2720
833.437	2689
833.576	2735
833.714	2746
833.852	2785
833.991	2773
834.129	2857
834.267	2857
834.406	2796
834.544	2902
834.682	2922
834.821	2887
834.959	3089
835.097	2918
835.235	3070
835.373	2998
835.511	3032
835.65	3020
835.788	2952
835.926	2864
836.064	2861
836.202	2872
836.34	3070
836.478	3173
836.615	3032
836.753	3161
836.891	3214
837.029	3188
837.167	3150
837.305	3043
837.443	3062
837.58	3005
837.718	3161
837.856	3104
837.993	3047
838.131	3157
838.269	3123
838.406	3142
838.544	3081
838.681	2960
838.819	2929
838.956	2868
839.094	2899
839.231	2948
839.369	3028
839.506	3401
839.643	3218
839.781	3020
839.918	3005
840.055	3089
840.193	3062
840.33	3066
840.467	3127
840.604	3188
840.742	3420
840.879	3066
841.016	3043
841.153	3154
841.29	3348
841.427	3294
841.564	3287
841.701	3332
841.838	3256
841.975	3150
842.112	3264
842.249	3119
842.385	3005
842.522	3268
842.659	3108
842.796	3055
842.933	3104
843.069	3047
843.206	3074
843.343	3199
843.479	3146
843.616	3176
843.752	2895
843.889	2883
844.025	3089
844.162	2902
844.298	3123
844.435	2975
844.571	2914
844.708	3116
844.844	3176
844.98	3237
845.117	3199
845.253	3085
845.389	3039
845.525	3112
845.661	3119
845.798	3047
845.934	3127
846.07	3066
846.206	3241
846.342	3332
846.478	3245
846.614	3119
846.75	3089
846.886	3036
847.022	3272
847.158	3173
847.294	3226
847.429	3272
847.565	3230
847.701	3515
847.837	3051
847.972	2998
848.108	3157
848.244	3165
848.379	2998
848.515	2971
848.65	2971
848.786	2994
848.921	3017
849.057	3119
849.192	3203
849.328	3081
849.463	3100
849.598	3077
849.734	3070
849.869	2971
850.004	2941
850.14	2975
850.275	2933
850.41	2834
850.545	2933
850.68	2937
850.815	2937
850.95	2971
851.085	3218
851.22	3100
851.355	3055
851.49	3005
851.625	3013
851.76	3066
851.895	2944
852.03	2929
852.165	3032
852.299	3127
852.434	3211
852.569	3169
852.703	3180
852.838	3233
852.973	3355
853.107	3363
853.242	3127
853.376	3093
853.511	2967
853.645	3036
853.78	3268
853.914	3154
854.048	3150
854.183	3104
854.317	3180
854.451	3283
854.585	3104
854.72	3127
854.854	3237
854.988	3051
855.122	3100
855.256	2998
855.39	3146
855.524	3237
855.658	3222
855.792	3207
855.926	3207
856.06	3214
856.194	3245
856.327	3165
856.461	3055
856.595	3112
856.729	3123
856.862	3272
856.996	3142
857.13	3188
857.263	3264
857.397	3321
857.53	3146
857.664	3211
857.797	3291
857.931	3283
858.064	3176
858.197	3237
858.331	3112
858.464	3077
858.597	3009
858.731	3146
858.864	3165
858.997	3085
859.13	3108
859.263	3203
859.396	3222
859.529	3108
859.662	3074
859.795	3055
859.928	3165
860.061	3287
860.194	3279
860.327	3161
860.46	3127
860.592	3260
860.725	3260
860.858	3264
860.99	3112
861.123	3058
861.256	3062
861.388	3157
861.521	3789
861.653	3043
861.786	2963
861.918	3024
862.05	3062
862.183	3108
862.315	3176
862.447	3214
862.58	3089
862.712	2994
862.844	2922
862.976	3009
863.108	3032
863.24	3462
863.372	2857
863.504	3009
863.636	2956
863.768	3043
863.9	3005
864.032	2941
864.164	2937
864.296	3013
864.428	3104
864.559	3135
864.691	3066
864.823	3055
864.954	3055
865.086	3058
865.217	2963
865.349	2948
865.48	2994
865.612	3028
865.743	3157
865.875	2986
866.006	2918
866.137	2986
866.269	2948
866.4	2956
866.531	2963
866.662	2891
866.793	2883
866.924	2899
867.055	2998
867.186	2952
867.317	2902
867.448	2864
867.579	2853
867.71	2868
867.841	2853
867.972	2956
868.103	2960
868.233	2910
868.364	2834
868.495	2891
868.625	3104
868.756	3146
868.886	2982
869.017	3051
869.147	3207
869.278	3161
869.408	3077
869.539	3066
869.669	3112
869.799	3001
869.929	3154
870.06	3138
870.19	3325
870.32	3294
870.45	3283
870.58	3393
870.71	3443
870.84	3454
870.97	3325
871.1	3233
871.23	3496
871.36	3492
871.489	3340
871.619	3393
871.749	3420
871.879	3424
872.008	3477
872.138	3378
872.267	3294
872.397	3157
872.526	3127
872.656	3051
872.785	3104
872.915	3264
873.044	3344
873.173	3230
873.303	3264
873.432	3268
873.561	3291
873.69	3180
873.819	3146
873.948	3199
874.077	3131
874.206	3039
874.335	3043
874.464	3245
874.593	3378
874.722	3253
874.851	3393
874.979	3367
875.108	3294
875.237	3207
875.365	3173
875.494	3180
875.623	3260
875.751	3085
875.88	3142
876.008	3218
876.136	3233
876.265	3359
876.393	3507
876.521	3412
876.65	3420
876.778	3310
876.906	3264
877.034	3195
877.162	3207
877.29	3207
877.418	3249
877.546	3264
877.674	3207
877.802	3211
877.93	3203
878.058	3127
878.185	3077
878.313	3192
878.441	3237
878.568	3039
878.696	3188
878.824	3268
878.951	3275
879.079	3454
879.206	3625
879.333	3431
879.461	3344
879.588	3351
879.715	3511
879.842	3606
879.97	3378
880.097	3161
880.224	3119
880.351	3199
880.478	3230
880.605	3226
880.732	3203
880.859	3481
880.986	3317
881.112	3336
881.239	3222
881.366	3074
881.493	3013
881.619	3085
881.746	3108
881.872	3077
881.999	3100
882.125	3116
882.252	3218
882.378	3313
882.505	3439
882.631	3294
882.757	3161
882.883	3211
883.01	3226
883.136	3169
883.262	3055
883.388	3100
883.514	3298
883.64	3367
883.766	3294
883.892	3161
884.018	3264
884.143	3443
884.269	3534
884.395	3214
884.52	3154
884.646	3173
884.772	3150
884.897	3085
885.023	3218
885.148	3332
885.274	3462
885.399	3355
885.524	3283
885.65	3249
885.775	3287
885.9	3245
886.025	3447
886.15	3344
886.275	3279
886.4	3211
886.525	3325
886.65	3268
886.775	3199
886.9	3561
887.025	3667
887.149	3420
887.274	3253
887.399	3184
887.523	3211
887.648	3180
887.773	3199
887.897	3382
888.021	3351
888.146	3272
888.27	3439
888.395	3549
888.519	3424
888.643	3424
888.767	3469
888.891	3302
889.015	3226
889.139	3310
889.263	3245
889.387	3435
889.511	3519
889.635	3435
889.759	3310
889.883	3340
890.006	3378
890.13	3492
890.254	3321
890.377	3325
890.501	3184
890.624	3173
890.748	3272
890.871	3203
890.995	3100
891.118	3074
891.241	3226
891.364	3268
891.488	3310
891.611	3188
891.734	3218
891.857	3279
891.98	3245
892.103	3344
892.226	3260
892.349	3188
892.471	3070
892.594	3222
892.717	3279
892.839	3264
892.962	3264
893.085	3355
893.207	3325
893.33	3157
893.452	3230
893.575	3348
893.697	3230
893.819	3485
893.941	3488
894.064	3439
894.186	3245
894.308	3272
894.43	3412
894.552	3519
894.674	3473
894.796	3264
894.918	3291
895.04	3287
895.161	3447
895.283	3367
895.405	3291
895.526	3359
895.648	3443
895.769	3420
895.891	3458
896.012	3424
896.134	3466
896.255	3416
896.376	3409
896.498	3405
896.619	3454
896.74	3336
896.861	3405
896.982	3694
897.103	3793
897.224	3622
897.345	3500
897.466	3420
897.587	3511
897.708	3622
897.828	3542
897.949	3450
898.07	3344
898.19	3420
898.311	3622
898.431	3428
898.552	3545
898.672	3633
898.792	3564
898.913	3507
899.033	3412
899.153	3279
899.273	3195
899.393	3287
899.513	3317
899.633	3306
899.753	3340
899.873	3302
899.993	3378
900.113	3329
900.232	3382
900.352	3340
900.472	3283
900.591	3199
900.711	3268
900.83	3218
900.95	3412
901.069	3488
901.189	3340
901.308	3161
901.427	3127
901.546	3192
901.665	3287
901.784	3306
901.904	3211
902.023	3211
902.141	3013
902.26	2986
902.379	3138
902.498	3066
902.617	3058
902.735	3180
902.854	3260
902.973	3188
903.091	3051
903.21	3085
903.328	3135
903.446	3123
903.565	3108
903.683	3211
903.801	3123
903.919	3222
904.038	3283
904.156	3169
904.274	3306
904.392	3245
904.51	3291
904.627	3340
904.745	3443
904.863	3488
904.981	3226
905.098	3195
905.216	3230
905.334	3287
905.451	3298
905.569	3279
905.686	3412
905.803	3424
905.921	3313
906.038	3473
906.155	3313
906.272	3264
906.389	3329
906.506	3218
906.623	3275
906.74	3256
906.857	3195
906.974	3211
907.091	3500
907.208	3580
907.324	3458
907.441	3393
907.557	3253
907.674	3256
907.79	3176
907.907	3264
908.023	3401
908.139	3401
908.256	3317
908.372	3344
908.488	3378
908.604	3279
908.72	3218
908.836	3283
908.952	3272
909.068	3336
909.184	3462
909.3	3386
909.415	3519
909.531	3473
909.647	3287
909.762	3298
909.878	3230
909.993	3370
910.108	3329
910.224	3325
910.339	3382
910.454	3298
910.57	3317
910.685	3253
910.8	3557
910.915	3526
911.03	3439
911.145	3233
911.259	3256
911.374	3313
911.489	3230
911.604	3218
911.718	3131
911.833	3138
911.947	3020
912.062	2967
912.176	3131
912.291	3203
912.405	3199
912.519	3424
912.633	3481
912.748	3351
912.862	3279
912.976	3138
913.09	3051
913.204	3135
913.318	3192
913.431	3325
913.545	3336
913.659	3409
913.772	3344
913.886	3218
914	3169
914.113	3367
914.226	3397
914.34	3397
914.453	3237
914.566	3409
914.68	3310
914.793	3317
914.906	3123
915.019	3097
915.132	3100
915.245	3184
915.358	3211
915.47	3249
915.583	3245
915.696	3275
915.809	3416
915.921	3405
916.034	3256
916.146	3249
916.259	3192
916.371	3336
916.483	3367
916.595	3302
916.708	3310
916.82	3317
916.932	3325
917.044	3340
917.156	3359
917.268	3249
917.38	3302
917.491	3287
917.603	3348
917.715	3431
917.826	3485
917.938	3332
918.049	3249
918.161	3409
918.272	3584
918.384	3534
918.495	3435
918.606	3355
918.717	3275
918.828	3363
918.939	3412
919.05	3249
919.161	3359
919.272	3192
919.383	3294
919.494	3473
919.604	3709
919.715	3485
919.826	3420
919.936	3458
920.047	3576
920.157	3534
920.267	3743
920.378	3568
920.488	3545
920.598	3759
920.708	3987
920.818	3835
920.928	3861
921.038	4002
921.148	4017
921.258	3705
921.368	3610
921.477	3603
921.587	3496
921.697	3469
921.806	3644
921.916	3507
922.025	3302
922.134	3370
922.244	3321
922.353	3409
922.462	3214
922.571	3192
922.68	3081
922.789	3070
922.898	3116
923.007	3119
923.116	3157
923.224	3135
923.333	3154
923.442	3104
923.55	3108
923.659	3154
923.767	3218
923.876	3100
923.984	3256
924.092	3089
924.201	3188
924.309	3199
924.417	3279
924.525	3184
924.633	3211
924.741	4010
924.849	3043
924.956	3283
925.064	3081
925.172	3047
925.279	3077
925.387	3184
925.494	3165
925.602	3344
925.709	3313
925.816	3203
925.924	3264
926.031	3389
926.138	3370
926.245	3359
926.352	3241
926.459	3443
926.566	3473
926.673	3321
926.779	3245
926.886	3260
926.993	3154
927.099	3169
927.206	3085
927.312	3116
927.419	3192
927.525	3146
927.631	3321
927.737	3161
927.843	3108
927.95	3017
928.056	3108
928.162	3157
928.267	3195
928.373	3804
928.479	3245
928.585	3074
928.69	3214
928.796	3260
928.901	3150
929.007	3089
929.112	3150
929.218	3161
929.323	3146
929.428	3119
929.533	3313
929.638	3131
929.743	3165
929.848	3264
929.953	3199
930.058	3188
930.163	2994
930.267	3028
930.372	3165
930.477	3024
930.581	3329
930.685	3203
930.79	3047
930.894	3097
930.998	3112
931.103	3253
931.207	2982
931.311	2948
931.415	2918
931.519	2777
931.623	2811
