Data from test_V78500241_224.txt Node
Date: Fri Mar 25 16:16:45 CST 2022
User: usil
Spectrometer: V785-0024
Trigger mode: 0
Integration Time (sec): 4.000000E-1
Scans to average: 1
Nonlinearity correction enabled: false
Boxcar width: 0
Storing dark spectrum: false
XAxis mode: Wavelengths
Number of Pixels in Spectrum: 1024
>>>>>Begin Spectral Data<<<<<
801.071	2933
801.214	2925
801.356	2902
801.499	2906
801.641	2872
801.783	2948
801.926	3055
802.068	3005
802.211	3017
802.353	3009
802.496	2948
802.638	2998
802.78	3077
802.923	3089
803.065	3020
803.208	2910
803.35	2948
803.492	2941
803.635	2960
803.777	2792
803.919	2830
804.061	3157
804.204	2956
804.346	2929
804.488	2804
804.63	3005
804.773	2895
804.915	2933
805.057	3089
805.199	2952
805.341	2986
805.483	3058
805.626	3032
805.768	2975
805.91	3116
806.052	3112
806.194	3047
806.336	3222
806.478	3036
806.62	2982
806.762	2986
806.904	3081
807.046	3173
807.188	2975
807.33	2910
807.472	2998
807.614	2937
807.756	3024
807.898	2937
808.04	2891
808.182	2971
808.324	2918
808.465	2910
808.607	2864
808.749	2781
808.891	2826
809.033	3001
809.174	2963
809.316	2891
809.458	2864
809.6	2785
809.741	2762
809.883	2762
810.025	2876
810.166	2861
810.308	2845
810.45	2876
810.591	2785
810.733	2758
810.875	2845
811.016	2788
811.158	2785
811.299	2811
811.441	2960
811.582	2872
811.724	2811
811.865	2834
812.007	2944
812.148	2861
812.29	2842
812.431	2899
812.573	2929
812.714	2956
812.855	3036
812.997	3081
813.138	3131
813.279	3028
813.421	2967
813.562	2982
813.703	2883
813.845	2902
813.986	2762
814.127	2735
814.268	2853
814.41	2880
814.551	2807
814.692	2861
814.833	2830
814.974	2883
815.115	2925
815.256	2834
815.397	2834
815.539	2891
815.68	2750
815.821	2815
815.962	2902
816.103	2944
816.244	2887
816.385	2842
816.526	2967
816.666	2899
816.807	2769
816.948	2895
817.089	2944
817.23	2887
817.371	2800
817.512	2815
817.653	2868
817.793	2838
817.934	2891
818.075	3001
818.216	3020
818.356	3055
818.497	2887
818.638	2762
818.778	2800
818.919	2811
819.06	2712
819.2	2895
819.341	2796
819.481	2845
819.622	2922
819.762	3100
819.903	3074
820.043	2944
820.184	2941
820.324	2902
820.465	2986
820.605	3024
820.746	3001
820.886	2925
821.026	3077
821.167	3165
821.307	3268
821.447	3306
821.588	3241
821.728	3241
821.868	3211
822.008	3123
822.149	3203
822.289	3249
822.429	3108
822.569	3104
822.709	3218
822.849	3013
822.99	3070
823.13	3146
823.27	3199
823.41	3108
823.55	3184
823.69	3165
823.83	3188
823.97	3123
824.11	2982
824.25	3009
824.389	3100
824.529	3135
824.669	3066
824.809	3214
824.949	3287
825.089	3222
825.228	3127
825.368	3017
825.508	3001
825.648	2998
825.787	3039
825.927	3020
826.067	2979
826.206	2967
826.346	3039
826.485	3058
826.625	3150
826.765	3279
826.904	3199
827.044	2963
827.183	2963
827.323	2872
827.462	2998
827.601	2922
827.741	2933
827.88	2937
828.02	2849
828.159	2948
828.298	3028
828.437	3116
828.577	3051
828.716	3230
828.855	3112
828.994	2906
829.134	2864
829.273	2899
829.412	2872
829.551	2853
829.69	2906
829.829	2990
829.968	3135
830.107	2986
830.246	3032
830.385	2941
830.524	2876
830.663	2826
830.802	2754
830.941	2636
831.08	2613
831.219	2762
831.357	2746
831.496	2933
831.635	2735
831.774	2686
831.913	2697
832.051	2545
832.19	2613
832.329	2670
832.467	2518
832.606	2495
832.744	2606
832.883	2613
833.022	2552
833.16	2644
833.299	2693
833.437	2697
833.576	2720
833.714	2708
833.852	2716
833.991	2796
834.129	2853
834.267	2796
834.406	2811
834.544	2845
834.682	2906
834.821	2906
834.959	3074
835.097	2895
835.235	3051
835.373	2998
835.511	3058
835.65	2971
835.788	2944
835.926	2857
836.064	2834
836.202	2819
836.34	3089
836.478	3119
836.615	3047
836.753	3157
836.891	3230
837.029	3173
837.167	3108
837.305	3089
837.443	3062
837.58	2982
837.718	3165
837.856	3100
837.993	3085
838.131	3100
838.269	3135
838.406	3085
838.544	3093
838.681	2944
838.819	2899
838.956	2815
839.094	2834
839.231	2922
839.369	3043
839.506	3397
839.643	3199
839.781	3020
839.918	2952
840.055	3062
840.193	3047
840.33	3066
840.467	3112
840.604	3146
840.742	3397
840.879	3001
841.016	3055
841.153	3123
841.29	3340
841.427	3294
841.564	3249
841.701	3332
841.838	3199
841.975	3169
842.112	3169
842.249	3070
842.385	3058
842.522	3256
842.659	3077
842.796	3085
842.933	3131
843.069	3066
843.206	3077
843.343	3169
843.479	3119
843.616	3169
843.752	2937
843.889	2895
844.025	3100
844.162	2906
844.298	3055
844.435	2937
844.571	2902
844.708	3085
844.844	3184
844.98	3260
845.117	3207
845.253	3028
845.389	3009
845.525	3081
845.661	3077
845.798	2986
845.934	3085
846.07	3066
846.206	3184
846.342	3294
846.478	3249
846.614	3077
846.75	3097
846.886	3032
847.022	3275
847.158	3138
847.294	3241
847.429	3268
847.565	3211
847.701	3492
847.837	3047
847.972	3020
848.108	3173
848.244	3150
848.379	3017
848.515	2918
848.65	2933
848.786	2971
848.921	3001
849.057	3119
849.192	3123
849.328	3036
849.463	3097
849.598	3074
849.734	3036
849.869	2982
850.004	2925
850.14	2952
850.275	2902
850.41	2842
850.545	2910
850.68	2948
850.815	2971
850.95	2998
851.085	3184
851.22	3097
851.355	3051
851.49	2956
851.625	3024
851.76	3013
851.895	2933
852.03	2914
852.165	3039
852.299	3112
852.434	3176
852.569	3131
852.703	3165
852.838	3249
852.973	3348
853.107	3332
853.242	3184
853.376	3112
853.511	2971
853.645	3020
853.78	3230
853.914	3100
854.048	3146
854.183	3127
854.317	3165
854.451	3310
854.585	3112
854.72	3104
854.854	3218
854.988	3020
855.122	3112
855.256	2994
855.39	3112
855.524	3256
855.658	3207
855.792	3127
855.926	3176
856.06	3214
856.194	3291
856.327	3116
856.461	3077
856.595	3119
856.729	3093
856.862	3184
856.996	3199
857.13	3222
857.263	3237
857.397	3298
857.53	3135
857.664	3226
857.797	3230
857.931	3272
858.064	3142
858.197	3211
858.331	3173
858.464	3074
858.597	3039
858.731	3093
858.864	3161
858.997	3066
859.13	3173
859.263	3169
859.396	3230
859.529	3085
859.662	3112
859.795	3032
859.928	3138
860.061	3287
860.194	3302
860.327	3146
860.46	3077
860.592	3203
860.725	3195
860.858	3264
860.99	3074
861.123	3051
861.256	3024
861.388	3112
861.521	3876
861.653	3058
861.786	2960
861.918	3020
862.05	3028
862.183	3116
862.315	3146
862.447	3226
862.58	3089
862.712	2952
862.844	2849
862.976	3043
863.108	2994
863.24	3336
863.372	2918
863.504	2982
863.636	2982
863.768	3066
863.9	3001
864.032	2899
864.164	2971
864.296	2994
864.428	3123
864.559	3100
864.691	3081
864.823	3058
864.954	3043
865.086	3043
865.217	2967
865.349	2952
865.48	2956
865.612	2967
865.743	3135
865.875	2975
866.006	2944
866.137	2956
866.269	2967
866.4	2956
866.531	2922
866.662	2883
866.793	2872
866.924	2876
867.055	2963
867.186	2941
867.317	2914
867.448	2857
867.579	2826
867.71	2880
867.841	2853
867.972	2902
868.103	2876
868.233	2895
868.364	2842
868.495	2891
868.625	3051
868.756	3203
868.886	2975
869.017	3036
869.147	3180
869.278	3154
869.408	3077
869.539	3051
869.669	3104
869.799	3024
869.929	3157
870.06	3081
870.19	3306
870.32	3298
870.45	3310
870.58	3367
870.71	3443
870.84	3500
870.97	3317
871.1	3260
871.23	3477
871.36	3488
871.489	3378
871.619	3409
871.749	3439
871.879	3405
872.008	3496
872.138	3367
872.267	3294
872.397	3135
872.526	3104
872.656	2963
872.785	3058
872.915	3279
873.044	3275
873.173	3226
873.303	3226
873.432	3226
873.561	3241
873.69	3135
873.819	3169
873.948	3222
874.077	3108
874.206	3055
874.335	3085
874.464	3230
874.593	3298
874.722	3211
874.851	3447
874.979	3382
875.108	3321
875.237	3195
875.365	3184
875.494	3150
875.623	3249
875.751	3074
875.88	3077
876.008	3165
876.136	3233
876.265	3386
876.393	3504
876.521	3443
876.65	3409
876.778	3275
876.906	3256
877.034	3237
877.162	3264
877.29	3173
877.418	3264
877.546	3283
877.674	3226
877.802	3241
877.93	3233
878.058	3119
878.185	3104
878.313	3211
878.441	3184
878.568	3043
878.696	3173
878.824	3253
878.951	3313
879.079	3447
879.206	3637
879.333	3454
879.461	3329
879.588	3348
879.715	3511
879.842	3599
879.97	3393
880.097	3184
880.224	3138
880.351	3211
880.478	3218
880.605	3176
880.732	3218
880.859	3507
880.986	3310
881.112	3317
881.239	3207
881.366	3119
881.493	3032
881.619	3036
881.746	3089
881.872	3104
881.999	3123
882.125	3146
882.252	3268
882.378	3313
882.505	3405
882.631	3298
882.757	3154
882.883	3222
883.01	3241
883.136	3199
883.262	3138
883.388	3116
883.514	3302
883.64	3435
883.766	3306
883.892	3169
884.018	3237
884.143	3450
884.269	3511
884.395	3218
884.52	3138
884.646	3218
884.772	3146
884.897	3108
885.023	3203
885.148	3310
885.274	3462
885.399	3367
885.524	3218
885.65	3249
885.775	3340
885.9	3287
886.025	3431
886.15	3378
886.275	3313
886.4	3230
886.525	3279
886.65	3256
886.775	3256
886.9	3519
887.025	3641
887.149	3401
887.274	3294
887.399	3188
887.523	3207
887.648	3154
887.773	3226
887.897	3367
888.021	3389
888.146	3275
888.27	3473
888.395	3511
888.519	3469
888.643	3462
888.767	3466
888.891	3325
889.015	3253
889.139	3260
889.263	3245
889.387	3431
889.511	3504
889.635	3443
889.759	3291
889.883	3298
890.006	3389
890.13	3488
890.254	3245
890.377	3340
890.501	3218
890.624	3195
890.748	3302
890.871	3154
890.995	3066
891.118	3055
891.241	3188
891.364	3203
891.488	3317
891.611	3195
891.734	3233
891.857	3325
891.98	3214
892.103	3340
892.226	3291
892.349	3226
892.471	3135
892.594	3245
892.717	3279
892.839	3264
892.962	3287
893.085	3332
893.207	3329
893.33	3230
893.452	3283
893.575	3355
893.697	3237
893.819	3477
893.941	3530
894.064	3454
894.186	3272
894.308	3294
894.43	3462
894.552	3538
894.674	3458
894.796	3325
894.918	3344
895.04	3336
895.161	3412
895.283	3389
895.405	3298
895.526	3405
895.648	3397
895.769	3435
895.891	3443
896.012	3504
896.134	3481
896.255	3447
896.376	3367
896.498	3367
896.619	3435
896.74	3439
896.861	3409
896.982	3720
897.103	3850
897.224	3622
897.345	3496
897.466	3439
897.587	3530
897.708	3610
897.828	3542
897.949	3409
898.07	3313
898.19	3420
898.311	3584
898.431	3424
898.552	3549
898.672	3557
898.792	3587
898.913	3523
899.033	3428
899.153	3313
899.273	3207
899.393	3310
899.513	3310
899.633	3344
899.753	3340
899.873	3294
899.993	3401
900.113	3332
900.232	3397
900.352	3336
900.472	3310
900.591	3211
900.711	3298
900.83	3287
900.95	3405
901.069	3523
901.189	3367
901.308	3165
901.427	3135
901.546	3161
901.665	3272
901.784	3340
901.904	3203
902.023	3089
902.141	3036
902.26	2994
902.379	3161
902.498	3119
902.617	3058
902.735	3222
902.854	3256
902.973	3230
903.091	3005
903.21	3077
903.328	3157
903.446	3100
903.565	3123
903.683	3188
903.801	3108
903.919	3275
904.038	3325
904.156	3127
904.274	3298
904.392	3279
904.51	3283
904.627	3336
904.745	3462
904.863	3481
904.981	3264
905.098	3211
905.216	3237
905.334	3321
905.451	3298
905.569	3325
905.686	3454
905.803	3473
905.921	3283
906.038	3389
906.155	3340
906.272	3291
906.389	3378
906.506	3203
906.623	3241
906.74	3313
906.857	3161
906.974	3272
907.091	3496
907.208	3553
907.324	3488
907.441	3416
907.557	3199
907.674	3245
907.79	3241
907.907	3279
908.023	3393
908.139	3412
908.256	3336
908.372	3378
908.488	3336
908.604	3294
908.72	3207
908.836	3287
908.952	3253
909.068	3348
909.184	3485
909.3	3363
909.415	3450
909.531	3492
909.647	3264
909.762	3275
909.878	3253
909.993	3431
910.108	3370
910.224	3313
910.339	3428
910.454	3351
910.57	3332
910.685	3253
910.8	3614
910.915	3519
911.03	3447
911.145	3279
911.259	3275
911.374	3294
911.489	3264
911.604	3230
911.718	3100
911.833	3161
911.947	3051
912.062	2963
912.176	3157
912.291	3218
912.405	3207
912.519	3405
912.633	3511
912.748	3351
912.862	3241
912.976	3142
913.09	3043
913.204	3184
913.318	3226
913.431	3355
913.545	3332
913.659	3401
913.772	3298
913.886	3222
914	3207
914.113	3405
914.226	3405
914.34	3412
914.453	3237
914.566	3428
914.68	3275
914.793	3321
914.906	3154
915.019	3085
915.132	3081
915.245	3184
915.358	3233
915.47	3253
915.583	3317
915.696	3310
915.809	3409
915.921	3462
916.034	3222
916.146	3245
916.259	3249
916.371	3401
916.483	3386
916.595	3272
916.708	3306
916.82	3340
916.932	3351
917.044	3355
917.156	3351
917.268	3253
917.38	3340
917.491	3302
917.603	3378
917.715	3428
917.826	3477
917.938	3382
918.049	3298
918.161	3409
918.272	3561
918.384	3580
918.495	3523
918.606	3306
918.717	3275
918.828	3355
918.939	3431
919.05	3329
919.161	3363
919.272	3199
919.383	3245
919.494	3523
919.604	3679
919.715	3492
919.826	3431
919.936	3485
920.047	3606
920.157	3534
920.267	3808
920.378	3603
920.488	3576
920.598	3785
920.708	3949
920.818	3838
920.928	3831
921.038	4013
921.148	4002
921.258	3679
921.368	3622
921.477	3584
921.587	3545
921.697	3454
921.806	3625
921.916	3507
922.025	3332
922.134	3374
922.244	3306
922.353	3409
922.462	3287
922.571	3233
922.68	3142
922.789	3100
922.898	3161
923.007	3112
923.116	3211
923.224	3180
923.333	3188
923.442	3116
923.55	3097
923.659	3192
923.767	3275
923.876	3119
923.984	3245
924.092	3108
924.201	3203
924.309	3241
924.417	3287
924.525	3203
924.633	3291
924.741	4192
924.849	3081
924.956	3275
925.064	3066
925.172	3043
925.279	3135
925.387	3214
925.494	3195
925.602	3382
925.709	3355
925.816	3195
925.924	3298
926.031	3393
926.138	3332
926.245	3401
926.352	3260
926.459	3412
926.566	3504
926.673	3355
926.779	3260
926.886	3237
926.993	3157
927.099	3192
927.206	3161
927.312	3104
927.419	3237
927.525	3237
927.631	3253
927.737	3138
927.843	3131
927.95	3043
928.056	3104
928.162	3192
928.267	3260
928.373	3880
928.479	3321
928.585	3100
928.69	3222
928.796	3275
928.901	3154
929.007	3055
929.112	3211
929.218	3180
929.323	3195
929.428	3176
929.533	3363
929.638	3100
929.743	3192
929.848	3241
929.953	3218
930.058	3138
930.163	3028
930.267	3055
930.372	3222
930.477	3032
930.581	3313
930.685	3146
930.79	3051
930.894	3108
930.998	3123
931.103	3279
931.207	2963
931.311	2944
931.415	2937
931.519	2796
931.623	2785
