Data from test_V78500241_57.txt Node
Date: Fri Mar 25 16:15:35 CST 2022
User: usil
Spectrometer: V785-0024
Trigger mode: 0
Integration Time (sec): 4.000000E-1
Scans to average: 1
Nonlinearity correction enabled: false
Boxcar width: 0
Storing dark spectrum: false
XAxis mode: Wavelengths
Number of Pixels in Spectrum: 1024
>>>>>Begin Spectral Data<<<<<
801.071	2979
801.214	2975
801.356	2887
801.499	2941
801.641	2929
801.783	2910
801.926	3062
802.068	2986
802.211	3001
802.353	3039
802.496	2967
802.638	3047
802.78	3066
802.923	3108
803.065	3028
803.208	2887
803.35	2929
803.492	2963
803.635	2963
803.777	2788
803.919	2861
804.061	3268
804.204	2990
804.346	2922
804.488	2845
804.63	3013
804.773	2864
804.915	2948
805.057	3097
805.199	2986
805.341	3013
805.483	3074
805.626	3005
805.768	3001
805.91	3135
806.052	3123
806.194	3039
806.336	3245
806.478	3062
806.62	2982
806.762	3047
806.904	3062
807.046	3188
807.188	3039
807.33	2937
807.472	3009
807.614	2956
807.756	2998
807.898	2906
808.04	2922
808.182	2975
808.324	2975
808.465	2906
808.607	2880
808.749	2830
808.891	2868
809.033	3013
809.174	2967
809.316	2925
809.458	2948
809.6	2800
809.741	2807
809.883	2807
810.025	2887
810.166	2868
810.308	2872
810.45	2895
810.591	2785
810.733	2826
810.875	2880
811.016	2788
811.158	2773
811.299	2842
811.441	2967
811.582	2914
811.724	2857
811.865	2861
812.007	2933
812.148	2925
812.29	2853
812.431	2899
812.573	3013
812.714	2963
812.855	3047
812.997	3104
813.138	3154
813.279	3036
813.421	3013
813.562	2967
813.703	2895
813.845	2914
813.986	2811
814.127	2758
814.268	2842
814.41	2887
814.551	2845
814.692	2910
814.833	2849
814.974	2899
815.115	2925
815.256	2826
815.397	2845
815.539	2876
815.68	2807
815.821	2819
815.962	2952
816.103	2986
816.244	2914
816.385	2887
816.526	3036
816.666	2990
816.807	2754
816.948	2918
817.089	2918
817.23	2906
817.371	2792
817.512	2800
817.653	2857
817.793	2868
817.934	2922
818.075	2982
818.216	2990
818.356	3024
818.497	2929
818.638	2834
818.778	2830
818.919	2815
819.06	2811
819.2	2929
819.341	2830
819.481	2785
819.622	2941
819.762	3123
819.903	3085
820.043	2941
820.184	2941
820.324	2925
820.465	3062
820.605	3013
820.746	3036
820.886	2982
821.026	3142
821.167	3188
821.307	3279
821.447	3302
821.588	3287
821.728	3214
821.868	3256
822.008	3127
822.149	3230
822.289	3287
822.429	3112
822.569	3127
822.709	3256
822.849	3036
822.99	3112
823.13	3173
823.27	3256
823.41	3146
823.55	3176
823.69	3195
823.83	3218
823.97	3119
824.11	3043
824.25	3039
824.389	3119
824.529	3116
824.669	3108
824.809	3226
824.949	3287
825.089	3260
825.228	3199
825.368	2990
825.508	2967
825.648	2998
825.787	3024
825.927	3020
826.067	3009
826.206	2975
826.346	3047
826.485	3116
826.625	3157
826.765	3302
826.904	3241
827.044	3051
827.183	2944
827.323	2883
827.462	3036
827.601	2925
827.741	2975
827.88	2986
828.02	2902
828.159	2994
828.298	3047
828.437	3150
828.577	3085
828.716	3283
828.855	3100
828.994	2918
829.134	2937
829.273	2952
829.412	2861
829.551	2895
829.69	2887
829.829	3020
829.968	3165
830.107	3032
830.246	3058
830.385	2933
830.524	2899
830.663	2883
830.802	2746
830.941	2670
831.08	2697
831.219	2800
831.357	2758
831.496	2990
831.635	2727
831.774	2659
831.913	2689
832.051	2541
832.19	2617
832.329	2667
832.467	2590
832.606	2492
832.744	2571
832.883	2606
833.022	2598
833.16	2651
833.299	2705
833.437	2731
833.576	2735
833.714	2773
833.852	2769
833.991	2834
834.129	2872
834.267	2815
834.406	2823
834.544	2891
834.682	2922
834.821	2906
834.959	3058
835.097	2910
835.235	3100
835.373	3024
835.511	3047
835.65	2967
835.788	2986
835.926	2845
836.064	2811
836.202	2864
836.34	3142
836.478	3203
836.615	3062
836.753	3157
836.891	3275
837.029	3176
837.167	3165
837.305	3077
837.443	3081
837.58	2975
837.718	3203
837.856	3108
837.993	3055
838.131	3161
838.269	3135
838.406	3104
838.544	3116
838.681	2979
838.819	2948
838.956	2830
839.094	2868
839.231	2944
839.369	3036
839.506	3378
839.643	3226
839.781	3074
839.918	3036
840.055	3058
840.193	3051
840.33	3100
840.467	3108
840.604	3192
840.742	3443
840.879	3093
841.016	3062
841.153	3142
841.29	3355
841.427	3363
841.564	3291
841.701	3325
841.838	3249
841.975	3214
842.112	3214
842.249	3131
842.385	3066
842.522	3260
842.659	3127
842.796	3077
842.933	3093
843.069	3055
843.206	3028
843.343	3195
843.479	3108
843.616	3169
843.752	2929
843.889	2895
844.025	3093
844.162	2887
844.298	3108
844.435	2960
844.571	2975
844.708	3093
844.844	3233
844.98	3230
845.117	3207
845.253	3055
845.389	3024
845.525	3100
845.661	3108
845.798	3024
845.934	3150
846.07	3074
846.206	3264
846.342	3355
846.478	3272
846.614	3085
846.75	3081
846.886	3066
847.022	3260
847.158	3135
847.294	3233
847.429	3298
847.565	3214
847.701	3538
847.837	3062
847.972	3036
848.108	3176
848.244	3142
848.379	2994
848.515	2986
848.65	2990
848.786	2982
848.921	3032
849.057	3161
849.192	3203
849.328	3093
849.463	3161
849.598	3127
849.734	3089
849.869	3058
850.004	2967
850.14	3028
850.275	2937
850.41	2842
850.545	2937
850.68	2986
850.815	3001
850.95	3013
851.085	3253
851.22	3218
851.355	3081
851.49	3047
851.625	3081
851.76	3097
851.895	3017
852.03	2952
852.165	3081
852.299	3154
852.434	3256
852.569	3230
852.703	3264
852.838	3340
852.973	3412
853.107	3374
853.242	3222
853.376	3169
853.511	3066
853.645	3119
853.78	3332
853.914	3211
854.048	3188
854.183	3188
854.317	3218
854.451	3351
854.585	3188
854.72	3150
854.854	3249
854.988	3138
855.122	3207
855.256	3077
855.39	3211
855.524	3340
855.658	3245
855.792	3230
855.926	3218
856.06	3272
856.194	3298
856.327	3253
856.461	3146
856.595	3154
856.729	3154
856.862	3287
856.996	3214
857.13	3256
857.263	3268
857.397	3363
857.53	3188
857.664	3275
857.797	3317
857.931	3317
858.064	3230
858.197	3283
858.331	3226
858.464	3169
858.597	3066
858.731	3211
858.864	3233
858.997	3161
859.13	3195
859.263	3256
859.396	3306
859.529	3131
859.662	3154
859.795	3127
859.928	3211
860.061	3348
860.194	3378
860.327	3233
860.46	3154
860.592	3310
860.725	3294
860.858	3332
860.99	3104
861.123	3108
861.256	3138
861.388	3184
861.521	3907
861.653	3074
861.786	3039
861.918	3051
862.05	3119
862.183	3173
862.315	3211
862.447	3268
862.58	3131
862.712	3039
862.844	2933
862.976	3085
863.108	3097
863.24	3359
863.372	2975
863.504	3070
863.636	2990
863.768	3097
863.9	3051
864.032	2956
864.164	3017
864.296	3074
864.428	3150
864.559	3188
864.691	3188
864.823	3123
864.954	3066
865.086	3127
865.217	3089
865.349	3020
865.48	3047
865.612	3093
865.743	3256
865.875	3020
866.006	2967
866.137	3039
866.269	2982
866.4	2967
866.531	3001
866.662	2944
866.793	2937
866.924	2963
867.055	3051
867.186	3009
867.317	2918
867.448	2910
867.579	2887
867.71	2895
867.841	2887
867.972	2956
868.103	2998
868.233	2937
868.364	2922
868.495	2952
868.625	3119
868.756	3226
868.886	3032
869.017	3089
869.147	3211
869.278	3218
869.408	3093
869.539	3116
869.669	3199
869.799	3108
869.929	3180
870.06	3157
870.19	3367
870.32	3393
870.45	3359
870.58	3447
870.71	3542
870.84	3557
870.97	3359
871.1	3317
871.23	3561
871.36	3504
871.489	3409
871.619	3458
871.749	3507
871.879	3507
872.008	3534
872.138	3450
872.267	3359
872.397	3214
872.526	3184
872.656	3074
872.785	3142
872.915	3317
873.044	3416
873.173	3298
873.303	3329
873.432	3321
873.561	3291
873.69	3226
873.819	3203
873.948	3268
874.077	3161
874.206	3138
874.335	3195
874.464	3279
874.593	3412
874.722	3325
874.851	3492
874.979	3412
875.108	3401
875.237	3321
875.365	3245
875.494	3233
875.623	3317
875.751	3119
875.88	3176
876.008	3256
876.136	3283
876.265	3481
876.393	3625
876.521	3496
876.65	3496
876.778	3420
876.906	3291
877.034	3275
877.162	3298
877.29	3249
877.418	3310
877.546	3317
877.674	3287
877.802	3306
877.93	3310
878.058	3226
878.185	3195
878.313	3283
878.441	3283
878.568	3093
878.696	3241
878.824	3336
878.951	3317
879.079	3545
879.206	3709
879.333	3504
879.461	3386
879.588	3420
879.715	3553
879.842	3641
879.97	3462
880.097	3222
880.224	3188
880.351	3249
880.478	3279
880.605	3233
880.732	3264
880.859	3568
880.986	3405
881.112	3428
881.239	3256
881.366	3176
881.493	3100
881.619	3047
881.746	3161
881.872	3176
881.999	3150
882.125	3211
882.252	3298
882.378	3374
882.505	3488
882.631	3386
882.757	3192
882.883	3291
883.01	3302
883.136	3253
883.262	3157
883.388	3195
883.514	3397
883.64	3466
883.766	3332
883.892	3260
884.018	3329
884.143	3515
884.269	3610
884.395	3245
884.52	3207
884.646	3249
884.772	3203
884.897	3146
885.023	3237
885.148	3355
885.274	3500
885.399	3409
885.524	3348
885.65	3336
885.775	3409
885.9	3298
886.025	3466
886.15	3405
886.275	3370
886.4	3313
886.525	3374
886.65	3340
886.775	3332
886.9	3523
887.025	3720
887.149	3481
887.274	3325
887.399	3237
887.523	3287
887.648	3272
887.773	3287
887.897	3397
888.021	3477
888.146	3374
888.27	3477
888.395	3576
888.519	3462
888.643	3469
888.767	3603
888.891	3397
889.015	3321
889.139	3332
889.263	3298
889.387	3447
889.511	3614
889.635	3545
889.759	3355
889.883	3325
890.006	3481
890.13	3576
890.254	3332
890.377	3370
890.501	3218
890.624	3237
890.748	3348
890.871	3218
890.995	3180
891.118	3119
891.241	3260
891.364	3329
891.488	3370
891.611	3264
891.734	3302
891.857	3378
891.98	3306
892.103	3378
892.226	3355
892.349	3245
892.471	3173
892.594	3298
892.717	3370
892.839	3359
892.962	3355
893.085	3439
893.207	3374
893.33	3226
893.452	3268
893.575	3428
893.697	3294
893.819	3549
893.941	3568
894.064	3519
894.186	3359
894.308	3321
894.43	3485
894.552	3591
894.674	3538
894.796	3332
894.918	3389
895.04	3283
895.161	3488
895.283	3435
895.405	3393
895.526	3420
895.648	3447
895.769	3447
895.891	3534
896.012	3538
896.134	3542
896.255	3469
896.376	3462
896.498	3435
896.619	3485
896.74	3488
896.861	3519
896.982	3781
897.103	3937
897.224	3690
897.345	3561
897.466	3481
897.587	3576
897.708	3698
897.828	3610
897.949	3473
898.07	3401
898.19	3481
898.311	3641
898.431	3504
898.552	3610
898.672	3667
898.792	3648
898.913	3614
899.033	3477
899.153	3336
899.273	3279
899.393	3340
899.513	3367
899.633	3367
899.753	3409
899.873	3374
899.993	3443
900.113	3401
900.232	3496
900.352	3409
900.472	3329
900.591	3298
900.711	3367
900.83	3317
900.95	3488
901.069	3568
901.189	3435
901.308	3256
901.427	3195
901.546	3222
901.665	3332
901.784	3412
901.904	3287
902.023	3188
902.141	3074
902.26	3055
902.379	3173
902.498	3165
902.617	3131
902.735	3291
902.854	3272
902.973	3222
903.091	3146
903.21	3104
903.328	3195
903.446	3154
903.565	3127
903.683	3230
903.801	3211
903.919	3310
904.038	3340
904.156	3218
904.274	3367
904.392	3317
904.51	3355
904.627	3412
904.745	3458
904.863	3572
904.981	3294
905.098	3241
905.216	3298
905.334	3321
905.451	3344
905.569	3374
905.686	3511
905.803	3492
905.921	3325
906.038	3473
906.155	3424
906.272	3313
906.389	3386
906.506	3340
906.623	3321
906.74	3340
906.857	3218
906.974	3329
907.091	3530
907.208	3644
907.324	3500
907.441	3443
907.557	3302
907.674	3279
907.79	3264
907.907	3317
908.023	3424
908.139	3447
908.256	3332
908.372	3397
908.488	3412
908.604	3306
908.72	3256
908.836	3374
908.952	3351
909.068	3397
909.184	3534
909.3	3409
909.415	3587
909.531	3466
909.647	3298
909.762	3378
909.878	3310
909.993	3397
910.108	3367
910.224	3401
910.339	3462
910.454	3340
910.57	3355
910.685	3291
910.8	3675
910.915	3618
911.03	3466
911.145	3317
911.259	3336
911.374	3397
911.489	3302
911.604	3294
911.718	3157
911.833	3184
911.947	3074
912.062	3013
912.176	3233
912.291	3230
912.405	3226
912.519	3469
912.633	3534
912.748	3374
912.862	3386
912.976	3241
913.09	3100
913.204	3180
913.318	3237
913.431	3348
913.545	3374
913.659	3443
913.772	3351
913.886	3275
914	3245
914.113	3428
914.226	3462
914.34	3450
914.453	3272
914.566	3492
914.68	3351
914.793	3370
914.906	3176
915.019	3146
915.132	3131
915.245	3245
915.358	3279
915.47	3298
915.583	3348
915.696	3336
915.809	3477
915.921	3504
916.034	3351
916.146	3260
916.259	3272
916.371	3492
916.483	3431
916.595	3298
916.708	3370
916.82	3409
916.932	3401
917.044	3389
917.156	3412
917.268	3317
917.38	3355
917.491	3351
917.603	3485
917.715	3564
917.826	3580
917.938	3473
918.049	3355
918.161	3504
918.272	3637
918.384	3644
918.495	3538
918.606	3412
918.717	3344
918.828	3420
918.939	3507
919.05	3355
919.161	3439
919.272	3256
919.383	3363
919.494	3603
919.604	3778
919.715	3580
919.826	3519
919.936	3591
920.047	3698
920.157	3637
920.267	3857
920.378	3682
920.488	3637
920.598	3857
920.708	4093
920.818	3915
920.928	3922
921.038	4120
921.148	4112
921.258	3831
921.368	3724
921.477	3648
921.587	3614
921.697	3523
921.806	3740
921.916	3625
922.025	3439
922.134	3454
922.244	3424
922.353	3515
922.462	3329
922.571	3306
922.68	3241
922.789	3195
922.898	3226
923.007	3192
923.116	3317
923.224	3237
923.333	3279
923.442	3195
923.55	3142
923.659	3249
923.767	3310
923.876	3165
923.984	3283
924.092	3222
924.201	3260
924.309	3298
924.417	3336
924.525	3287
924.633	3317
924.741	4329
924.849	3184
924.956	3348
925.064	3176
925.172	3138
925.279	3218
925.387	3264
925.494	3264
925.602	3431
925.709	3401
925.816	3279
925.924	3370
926.031	3477
926.138	3416
926.245	3447
926.352	3287
926.459	3515
926.566	3530
926.673	3454
926.779	3344
926.886	3268
926.993	3237
927.099	3268
927.206	3203
927.312	3184
927.419	3306
927.525	3287
927.631	3344
927.737	3214
927.843	3154
927.95	3104
928.056	3230
928.162	3260
928.267	3351
928.373	3850
928.479	3348
928.585	3154
928.69	3291
928.796	3329
928.901	3256
929.007	3085
929.112	3256
929.218	3268
929.323	3218
929.428	3264
929.533	3370
929.638	3237
929.743	3230
929.848	3348
929.953	3325
930.058	3203
930.163	3093
930.267	3146
930.372	3272
930.477	3131
930.581	3397
930.685	3260
930.79	3100
930.894	3184
930.998	3165
931.103	3389
931.207	3032
931.311	2990
931.415	3032
931.519	2883
931.623	2895
