Data from test_V78500241_1527.txt Node
Date: Fri Mar 25 16:25:46 CST 2022
User: usil
Spectrometer: V785-0024
Trigger mode: 0
Integration Time (sec): 4.000000E-1
Scans to average: 1
Nonlinearity correction enabled: false
Boxcar width: 0
Storing dark spectrum: false
XAxis mode: Wavelengths
Number of Pixels in Spectrum: 1024
>>>>>Begin Spectral Data<<<<<
801.071	2922
801.214	2944
801.356	2842
801.499	2838
801.641	2880
801.783	2929
801.926	3039
802.068	2979
802.211	2982
802.353	2986
802.496	2948
802.638	3024
802.78	3009
802.923	3055
803.065	2971
803.208	2887
803.35	2895
803.492	2925
803.635	2906
803.777	2731
803.919	2811
804.061	3180
804.204	2925
804.346	2883
804.488	2838
804.63	2975
804.773	2845
804.915	2895
805.057	3100
805.199	2922
805.341	2967
805.483	2994
805.626	3020
805.768	2979
805.91	3081
806.052	3100
806.194	2971
806.336	3222
806.478	2998
806.62	2952
806.762	2960
806.904	3051
807.046	3131
807.188	2963
807.33	2895
807.472	2986
807.614	2925
807.756	3009
807.898	2925
808.04	2933
808.182	2960
808.324	2967
808.465	2891
808.607	2861
808.749	2796
808.891	2830
809.033	2967
809.174	3009
809.316	2891
809.458	2922
809.6	2769
809.741	2762
809.883	2739
810.025	2815
810.166	2857
810.308	2800
810.45	2819
810.591	2777
810.733	2792
810.875	2826
811.016	2773
811.158	2731
811.299	2800
811.441	2910
811.582	2891
811.724	2804
811.865	2807
812.007	2876
812.148	2853
812.29	2872
812.431	2868
812.573	2952
812.714	2956
812.855	3043
812.997	3036
813.138	3127
813.279	2998
813.421	2982
813.562	2971
813.703	2876
813.845	2857
813.986	2735
814.127	2754
814.268	2819
814.41	2815
814.551	2815
814.692	2887
814.833	2804
814.974	2883
815.115	2994
815.256	2807
815.397	2807
815.539	2876
815.68	2750
815.821	2788
815.962	2918
816.103	2910
816.244	2876
816.385	2887
816.526	2929
816.666	2929
816.807	2727
816.948	2891
817.089	2887
817.23	2864
817.371	2762
817.512	2838
817.653	2811
817.793	2811
817.934	2842
818.075	2956
818.216	2960
818.356	2994
818.497	2880
818.638	2781
818.778	2830
818.919	2769
819.06	2746
819.2	2864
819.341	2781
819.481	2800
819.622	2922
819.762	3093
819.903	3024
820.043	2918
820.184	2891
820.324	2918
820.465	3017
820.605	3032
820.746	2998
820.886	3005
821.026	3085
821.167	3127
821.307	3230
821.447	3253
821.588	3211
821.728	3199
821.868	3188
822.008	3077
822.149	3230
822.289	3211
822.429	3081
822.569	3085
822.709	3184
822.849	2998
822.99	3085
823.13	3135
823.27	3192
823.41	3081
823.55	3142
823.69	3100
823.83	3211
823.97	3051
824.11	3017
824.25	2990
824.389	3051
824.529	3089
824.669	3074
824.809	3195
824.949	3249
825.089	3207
825.228	3135
825.368	3013
825.508	2941
825.648	2963
825.787	3001
825.927	3020
826.067	2941
826.206	2929
826.346	3055
826.485	3070
826.625	3066
826.765	3237
826.904	3176
827.044	2990
827.183	2941
827.323	2864
827.462	2960
827.601	2899
827.741	2914
827.88	2948
828.02	2845
828.159	2944
828.298	3009
828.437	3085
828.577	3017
828.716	3230
828.855	3058
828.994	2933
829.134	2895
829.273	2902
829.412	2826
829.551	2845
829.69	2887
829.829	2963
829.968	3135
830.107	3013
830.246	3005
830.385	2883
830.524	2857
830.663	2804
830.802	2716
830.941	2648
831.08	2621
831.219	2766
831.357	2739
831.496	2944
831.635	2701
831.774	2674
831.913	2610
832.051	2537
832.19	2575
832.329	2708
832.467	2533
832.606	2492
832.744	2575
832.883	2590
833.022	2587
833.16	2606
833.299	2682
833.437	2693
833.576	2724
833.714	2659
833.852	2689
833.991	2731
834.129	2811
834.267	2830
834.406	2781
834.544	2853
834.682	2872
834.821	2868
834.959	2982
835.097	2876
835.235	3097
835.373	2952
835.511	3001
835.65	2967
835.788	2929
835.926	2830
836.064	2830
836.202	2849
836.34	3081
836.478	3154
836.615	3001
836.753	3127
836.891	3165
837.029	3142
837.167	3093
837.305	3062
837.443	3020
837.58	2944
837.718	3127
837.856	3058
837.993	3020
838.131	3112
838.269	3074
838.406	3077
838.544	3036
838.681	2906
838.819	2918
838.956	2792
839.094	2796
839.231	2922
839.369	2979
839.506	3332
839.643	3211
839.781	2982
839.918	2933
840.055	3039
840.193	3058
840.33	3039
840.467	3085
840.604	3161
840.742	3367
840.879	3043
841.016	3036
841.153	3097
841.29	3310
841.427	3283
841.564	3226
841.701	3291
841.838	3218
841.975	3165
842.112	3165
842.249	3058
842.385	3036
842.522	3222
842.659	3077
842.796	3028
842.933	3081
843.069	3017
843.206	3043
843.343	3173
843.479	3112
843.616	3104
843.752	2876
843.889	2845
844.025	3066
844.162	2842
844.298	3062
844.435	2929
844.571	2906
844.708	3077
844.844	3169
844.98	3214
845.117	3157
845.253	3028
845.389	3013
845.525	3104
845.661	3074
845.798	3062
845.934	3119
846.07	3058
846.206	3253
846.342	3275
846.478	3237
846.614	3116
846.75	3077
846.886	3001
847.022	3222
847.158	3112
847.294	3157
847.429	3230
847.565	3176
847.701	3481
847.837	2994
847.972	2975
848.108	3154
848.244	3150
848.379	2963
848.515	2876
848.65	2922
848.786	2960
848.921	2986
849.057	3108
849.192	3116
849.328	3043
849.463	3074
849.598	3036
849.734	3039
849.869	2990
850.004	2922
850.14	2975
850.275	2902
850.41	2853
850.545	2876
850.68	2948
850.815	2906
850.95	2979
851.085	3195
851.22	3074
851.355	2994
851.49	2960
851.625	2979
851.76	2998
851.895	2895
852.03	2883
852.165	3013
852.299	3108
852.434	3150
852.569	3108
852.703	3173
852.838	3233
852.973	3298
853.107	3344
853.242	3116
853.376	3112
853.511	2998
853.645	3024
853.78	3233
853.914	3123
854.048	3051
854.183	3085
854.317	3135
854.451	3294
854.585	3123
854.72	3093
854.854	3176
854.988	3043
855.122	3058
855.256	2960
855.39	3077
855.524	3222
855.658	3142
855.792	3142
855.926	3173
856.06	3207
856.194	3245
856.327	3127
856.461	3081
856.595	3066
856.729	3070
856.862	3199
856.996	3150
857.13	3154
857.263	3211
857.397	3275
857.53	3112
857.664	3226
857.797	3199
857.931	3241
858.064	3116
858.197	3180
858.331	3070
858.464	3070
858.597	2982
858.731	3077
858.864	3119
858.997	3085
859.13	3150
859.263	3154
859.396	3176
859.529	3051
859.662	3070
859.795	3085
859.928	3142
860.061	3291
860.194	3268
860.327	3104
860.46	3074
860.592	3256
860.725	3264
860.858	3241
860.99	3093
861.123	3074
861.256	3051
861.388	3150
861.521	3937
861.653	3024
861.786	2998
861.918	2998
862.05	3070
862.183	3089
862.315	3180
862.447	3199
862.58	3097
862.712	2952
862.844	2883
862.976	3028
863.108	3043
863.24	3317
863.372	2929
863.504	2982
863.636	2986
863.768	3097
863.9	2986
864.032	2948
864.164	2979
864.296	3058
864.428	3157
864.559	3119
864.691	3085
864.823	3051
864.954	3024
865.086	3089
865.217	3055
865.349	3009
865.48	3047
865.612	3028
865.743	3154
865.875	3001
866.006	2986
866.137	3017
866.269	2994
866.4	2971
866.531	3013
866.662	2922
866.793	2929
866.924	2929
867.055	2986
867.186	2975
867.317	2880
867.448	2849
867.579	2891
867.71	2895
867.841	2864
867.972	2986
868.103	2922
868.233	2906
868.364	2937
868.495	2948
868.625	3123
868.756	3207
868.886	3005
869.017	3032
869.147	3176
869.278	3180
869.408	3089
869.539	3074
869.669	3161
869.799	3077
869.929	3138
870.06	3161
870.19	3386
870.32	3310
870.45	3336
870.58	3409
870.71	3492
870.84	3500
870.97	3302
871.1	3256
871.23	3496
871.36	3477
871.489	3370
871.619	3435
871.749	3458
871.879	3424
872.008	3557
872.138	3340
872.267	3310
872.397	3173
872.526	3127
872.656	3043
872.785	3119
872.915	3253
873.044	3359
873.173	3233
873.303	3241
873.432	3287
873.561	3306
873.69	3192
873.819	3203
873.948	3203
874.077	3157
874.206	3081
874.335	3116
874.464	3211
874.593	3382
874.722	3279
874.851	3409
874.979	3370
875.108	3382
875.237	3199
875.365	3169
875.494	3207
875.623	3283
875.751	3123
875.88	3154
876.008	3241
876.136	3241
876.265	3397
876.393	3526
876.521	3454
876.65	3405
876.778	3355
876.906	3241
877.034	3233
877.162	3272
877.29	3192
877.418	3298
877.546	3325
877.674	3233
877.802	3260
877.93	3226
878.058	3157
878.185	3123
878.313	3233
878.441	3272
878.568	3104
878.696	3192
878.824	3283
878.951	3355
879.079	3462
879.206	3667
879.333	3473
879.461	3329
879.588	3367
879.715	3496
879.842	3614
879.97	3401
880.097	3203
880.224	3169
880.351	3233
880.478	3268
880.605	3180
880.732	3173
880.859	3534
880.986	3310
881.112	3351
881.239	3245
881.366	3108
881.493	3074
881.619	3066
881.746	3116
881.872	3123
881.999	3116
882.125	3176
882.252	3279
882.378	3359
882.505	3412
882.631	3321
882.757	3173
882.883	3268
883.01	3253
883.136	3192
883.262	3116
883.388	3188
883.514	3329
883.64	3466
883.766	3359
883.892	3222
884.018	3310
884.143	3466
884.269	3545
884.395	3256
884.52	3195
884.646	3218
884.772	3150
884.897	3127
885.023	3218
885.148	3393
885.274	3473
885.399	3367
885.524	3310
885.65	3291
885.775	3374
885.9	3302
886.025	3431
886.15	3382
886.275	3325
886.4	3264
886.525	3374
886.65	3298
886.775	3287
886.9	3523
887.025	3675
887.149	3435
887.274	3294
887.399	3218
887.523	3218
887.648	3207
887.773	3230
887.897	3348
888.021	3431
888.146	3264
888.27	3424
888.395	3595
888.519	3488
888.643	3481
888.767	3534
888.891	3332
889.015	3279
889.139	3336
889.263	3260
889.387	3428
889.511	3580
889.635	3481
889.759	3329
889.883	3355
890.006	3393
890.13	3496
890.254	3302
890.377	3340
890.501	3222
890.624	3199
890.748	3306
890.871	3222
890.995	3135
891.118	3051
891.241	3226
891.364	3241
891.488	3355
891.611	3203
891.734	3268
891.857	3306
891.98	3275
892.103	3397
892.226	3298
892.349	3233
892.471	3123
892.594	3275
892.717	3306
892.839	3298
892.962	3332
893.085	3401
893.207	3310
893.33	3176
893.452	3214
893.575	3382
893.697	3272
893.819	3492
893.941	3557
894.064	3519
894.186	3287
894.308	3302
894.43	3466
894.552	3538
894.674	3496
894.796	3306
894.918	3325
895.04	3302
895.161	3439
895.283	3412
895.405	3344
895.526	3405
895.648	3443
895.769	3481
895.891	3458
896.012	3523
896.134	3519
896.255	3439
896.376	3382
896.498	3389
896.619	3428
896.74	3382
896.861	3439
896.982	3675
897.103	3861
897.224	3633
897.345	3545
897.466	3447
897.587	3530
897.708	3641
897.828	3606
897.949	3450
898.07	3336
898.19	3466
898.311	3648
898.431	3450
898.552	3557
898.672	3622
898.792	3595
898.913	3561
899.033	3428
899.153	3310
899.273	3230
899.393	3294
899.513	3325
899.633	3351
899.753	3351
899.873	3329
899.993	3386
900.113	3348
900.232	3450
900.352	3348
900.472	3283
900.591	3233
900.711	3302
900.83	3241
900.95	3424
901.069	3500
901.189	3393
901.308	3195
901.427	3116
901.546	3214
901.665	3329
901.784	3363
901.904	3241
902.023	3138
902.141	3085
902.26	3024
902.379	3157
902.498	3081
902.617	3093
902.735	3241
902.854	3283
902.973	3226
903.091	3066
903.21	3062
903.328	3127
903.446	3131
903.565	3119
903.683	3188
903.801	3169
903.919	3294
904.038	3313
904.156	3184
904.274	3287
904.392	3279
904.51	3329
904.627	3348
904.745	3492
904.863	3515
904.981	3253
905.098	3180
905.216	3283
905.334	3294
905.451	3329
905.569	3348
905.686	3469
905.803	3462
905.921	3287
906.038	3454
906.155	3409
906.272	3287
906.389	3370
906.506	3218
906.623	3279
906.74	3237
906.857	3226
906.974	3283
907.091	3473
907.208	3603
907.324	3507
907.441	3420
907.557	3268
907.674	3233
907.79	3233
907.907	3249
908.023	3416
908.139	3397
908.256	3321
908.372	3378
908.488	3340
908.604	3279
908.72	3249
908.836	3302
908.952	3313
909.068	3325
909.184	3492
909.3	3405
909.415	3515
909.531	3485
909.647	3355
909.762	3310
909.878	3306
909.993	3405
910.108	3359
910.224	3336
910.339	3428
910.454	3317
910.57	3310
910.685	3253
910.8	3610
910.915	3599
911.03	3428
911.145	3279
911.259	3237
911.374	3313
911.489	3222
911.604	3230
911.718	3169
911.833	3184
911.947	3055
912.062	2975
912.176	3188
912.291	3195
912.405	3211
912.519	3458
912.633	3488
912.748	3363
912.862	3321
912.976	3180
913.09	3062
913.204	3119
913.318	3211
913.431	3363
913.545	3355
913.659	3450
913.772	3344
913.886	3230
914	3195
914.113	3386
914.226	3409
914.34	3367
914.453	3226
914.566	3382
914.68	3306
914.793	3348
914.906	3173
915.019	3131
915.132	3058
915.245	3203
915.358	3199
915.47	3218
915.583	3310
915.696	3272
915.809	3378
915.921	3450
916.034	3233
916.146	3268
916.259	3260
916.371	3416
916.483	3386
916.595	3302
916.708	3321
916.82	3317
916.932	3355
917.044	3386
917.156	3355
917.268	3275
917.38	3306
917.491	3329
917.603	3389
917.715	3431
917.826	3473
917.938	3393
918.049	3298
918.161	3435
918.272	3629
918.384	3603
918.495	3481
918.606	3344
918.717	3272
918.828	3386
918.939	3428
919.05	3325
919.161	3397
919.272	3207
919.383	3279
919.494	3500
919.604	3698
919.715	3473
919.826	3401
919.936	3454
920.047	3606
920.157	3515
920.267	3774
920.378	3633
920.488	3614
920.598	3762
920.708	3968
920.818	3838
920.928	3827
921.038	4048
921.148	4010
921.258	3701
921.368	3652
921.477	3595
921.587	3576
921.697	3504
921.806	3644
921.916	3534
922.025	3359
922.134	3382
922.244	3351
922.353	3397
922.462	3283
922.571	3214
922.68	3127
922.789	3089
922.898	3150
923.007	3093
923.116	3279
923.224	3146
923.333	3180
923.442	3104
923.55	3097
923.659	3135
923.767	3195
923.876	3123
923.984	3256
924.092	3127
924.201	3218
924.309	3245
924.417	3275
924.525	3245
924.633	3249
924.741	4173
924.849	3066
924.956	3249
925.064	3104
925.172	3032
925.279	3081
925.387	3207
925.494	3203
925.602	3355
925.709	3325
925.816	3173
925.924	3272
926.031	3401
926.138	3310
926.245	3355
926.352	3249
926.459	3386
926.566	3454
926.673	3344
926.779	3233
926.886	3287
926.993	3119
927.099	3165
927.206	3150
927.312	3131
927.419	3237
927.525	3207
927.631	3237
927.737	3165
927.843	3146
927.95	3028
928.056	3119
928.162	3165
928.267	3272
928.373	3797
928.479	3340
928.585	3058
928.69	3218
928.796	3268
928.901	3211
929.007	3085
929.112	3195
929.218	3195
929.323	3176
929.428	3173
929.533	3310
929.638	3165
929.743	3237
929.848	3317
929.953	3218
930.058	3169
930.163	3013
930.267	3066
930.372	3245
930.477	3097
930.581	3340
930.685	3241
930.79	3074
930.894	3150
930.998	3169
931.103	3348
931.207	3001
931.311	2971
931.415	2975
931.519	2826
931.623	2838
