Data from test_V78500241_507.txt Node
Date: Fri Mar 25 16:18:42 CST 2022
User: usil
Spectrometer: V785-0024
Trigger mode: 0
Integration Time (sec): 4.000000E-1
Scans to average: 1
Nonlinearity correction enabled: false
Boxcar width: 0
Storing dark spectrum: false
XAxis mode: Wavelengths
Number of Pixels in Spectrum: 1024
>>>>>Begin Spectral Data<<<<<
801.071	2925
801.214	2960
801.356	2899
801.499	2948
801.641	2941
801.783	2933
801.926	3093
802.068	3001
802.211	2986
802.353	3051
802.496	2956
802.638	3028
802.78	3039
802.923	3097
803.065	3013
803.208	2902
803.35	2906
803.492	2941
803.635	2929
803.777	2804
803.919	2849
804.061	3211
804.204	2941
804.346	2861
804.488	2880
804.63	2967
804.773	2861
804.915	2883
805.057	3055
805.199	2948
805.341	2975
805.483	3013
805.626	2982
805.768	2952
805.91	3089
806.052	3104
806.194	3070
806.336	3203
806.478	3039
806.62	2925
806.762	2990
806.904	3089
807.046	3154
807.188	2967
807.33	2891
807.472	2971
807.614	2895
807.756	3009
807.898	2929
808.04	2922
808.182	2975
808.324	2948
808.465	2887
808.607	2853
808.749	2823
808.891	2819
809.033	2967
809.174	2952
809.316	2891
809.458	2887
809.6	2796
809.741	2758
809.883	2743
810.025	2864
810.166	2868
810.308	2823
810.45	2834
810.591	2777
810.733	2769
810.875	2857
811.016	2781
811.158	2743
811.299	2811
811.441	2937
811.582	2876
811.724	2777
811.865	2815
812.007	2906
812.148	2857
812.29	2857
812.431	2883
812.573	2929
812.714	2952
812.855	3047
812.997	2998
813.138	3093
813.279	3020
813.421	2998
813.562	2986
813.703	2845
813.845	2895
813.986	2773
814.127	2754
814.268	2838
814.41	2830
814.551	2796
814.692	2849
814.833	2788
814.974	2872
815.115	2952
815.256	2819
815.397	2849
815.539	2868
815.68	2773
815.821	2788
815.962	2933
816.103	2910
816.244	2853
816.385	2864
816.526	2948
816.666	2876
816.807	2773
816.948	2899
817.089	2906
817.23	2864
817.371	2781
817.512	2792
817.653	2800
817.793	2807
817.934	2887
818.075	2982
818.216	2963
818.356	3013
818.497	2864
818.638	2754
818.778	2819
818.919	2769
819.06	2785
819.2	2880
819.341	2819
819.481	2785
819.622	2910
819.762	3108
819.903	3036
820.043	2914
820.184	2891
820.324	2899
820.465	2998
820.605	3024
820.746	3005
820.886	2922
821.026	3085
821.167	3146
821.307	3233
821.447	3336
821.588	3211
821.728	3218
821.868	3199
822.008	3028
822.149	3184
822.289	3260
822.429	3077
822.569	3104
822.709	3207
822.849	3036
822.99	3085
823.13	3188
823.27	3180
823.41	3116
823.55	3169
823.69	3157
823.83	3214
823.97	3131
824.11	3005
824.25	3017
824.389	3104
824.529	3112
824.669	3077
824.809	3188
824.949	3245
825.089	3230
825.228	3157
825.368	3058
825.508	2975
825.648	3055
825.787	3055
825.927	3055
826.067	2975
826.206	2994
826.346	3070
826.485	3131
826.625	3123
826.765	3306
826.904	3195
827.044	3024
827.183	2971
827.323	2883
827.462	3043
827.601	2944
827.741	2944
827.88	2990
828.02	2883
828.159	2971
828.298	3055
828.437	3150
828.577	3066
828.716	3306
828.855	3112
828.994	2925
829.134	2933
829.273	2952
829.412	2937
829.551	2906
829.69	2902
829.829	2975
829.968	3157
830.107	3051
830.246	3047
830.385	2998
830.524	2880
830.663	2868
830.802	2762
830.941	2712
831.08	2667
831.219	2777
831.357	2823
831.496	2979
831.635	2796
831.774	2689
831.913	2678
832.051	2602
832.19	2613
832.329	2701
832.467	2564
832.606	2533
832.744	2602
832.883	2640
833.022	2629
833.16	2697
833.299	2735
833.437	2746
833.576	2739
833.714	2762
833.852	2773
833.991	2804
834.129	2891
834.267	2849
834.406	2849
834.544	2922
834.682	2864
834.821	2891
834.959	3093
835.097	2941
835.235	3119
835.373	3047
835.511	3081
835.65	2998
835.788	2990
835.926	2842
836.064	2842
836.202	2891
836.34	3150
836.478	3154
836.615	3066
836.753	3135
836.891	3245
837.029	3165
837.167	3135
837.305	3100
837.443	3074
837.58	2994
837.718	3161
837.856	3081
837.993	3051
838.131	3161
838.269	3146
838.406	3123
838.544	3089
838.681	2990
838.819	2944
838.956	2830
839.094	2883
839.231	2929
839.369	3058
839.506	3378
839.643	3253
839.781	3058
839.918	3009
840.055	3112
840.193	3070
840.33	3127
840.467	3100
840.604	3195
840.742	3466
840.879	3089
841.016	3066
841.153	3157
841.29	3367
841.427	3298
841.564	3287
841.701	3325
841.838	3214
841.975	3233
842.112	3237
842.249	3097
842.385	3047
842.522	3283
842.659	3104
842.796	3077
842.933	3108
843.069	3108
843.206	3081
843.343	3256
843.479	3119
843.616	3176
843.752	2941
843.889	2861
844.025	3104
844.162	2902
844.298	3070
844.435	3009
844.571	2922
844.708	3081
844.844	3192
844.98	3287
845.117	3249
845.253	3089
845.389	3017
845.525	3146
845.661	3116
845.798	3047
845.934	3165
846.07	3089
846.206	3260
846.342	3370
846.478	3241
846.614	3116
846.75	3104
846.886	3047
847.022	3291
847.158	3157
847.294	3253
847.429	3230
847.565	3249
847.701	3515
847.837	3062
847.972	3047
848.108	3165
848.244	3157
848.379	3074
848.515	2963
848.65	2986
848.786	3001
848.921	3009
849.057	3138
849.192	3176
849.328	3100
849.463	3142
849.598	3104
849.734	3074
849.869	3017
850.004	2937
850.14	3013
850.275	2960
850.41	2872
850.545	2933
850.68	2948
850.815	2982
850.95	2975
851.085	3199
851.22	3112
851.355	3051
851.49	3001
851.625	3039
851.76	3055
851.895	2963
852.03	2944
852.165	3070
852.299	3135
852.434	3226
852.569	3165
852.703	3207
852.838	3264
852.973	3344
853.107	3370
853.242	3184
853.376	3097
853.511	3005
853.645	3074
853.78	3321
853.914	3161
854.048	3135
854.183	3085
854.317	3169
854.451	3310
854.585	3180
854.72	3104
854.854	3233
854.988	3036
855.122	3097
855.256	3009
855.39	3138
855.524	3237
855.658	3222
855.792	3142
855.926	3233
856.06	3233
856.194	3306
856.327	3173
856.461	3100
856.595	3085
856.729	3112
856.862	3230
856.996	3195
857.13	3237
857.263	3203
857.397	3317
857.53	3123
857.664	3211
857.797	3268
857.931	3298
858.064	3188
858.197	3253
858.331	3192
858.464	3119
858.597	2998
858.731	3131
858.864	3154
858.997	3123
859.13	3203
859.263	3169
859.396	3188
859.529	3123
859.662	3135
859.795	3089
859.928	3165
860.061	3291
860.194	3291
860.327	3146
860.46	3066
860.592	3253
860.725	3264
860.858	3260
860.99	3123
861.123	3066
861.256	3097
861.388	3150
861.521	3896
861.653	3020
861.786	3005
861.918	3043
862.05	3108
862.183	3097
862.315	3176
862.447	3207
862.58	3127
862.712	2986
862.844	2895
862.976	3066
863.108	3017
863.24	3485
863.372	2902
863.504	2998
863.636	2967
863.768	3055
863.9	2979
864.032	2929
864.164	2952
864.296	3032
864.428	3089
864.559	3119
864.691	3089
864.823	3123
864.954	3070
865.086	3055
865.217	3009
865.349	2979
865.48	3028
865.612	3055
865.743	3180
865.875	3024
866.006	2960
866.137	2986
866.269	3009
866.4	2948
866.531	2906
866.662	2922
866.793	2963
866.924	2914
867.055	3013
867.186	2967
867.317	2899
867.448	2853
867.579	2876
867.71	2861
867.841	2853
867.972	2956
868.103	2944
868.233	2880
868.364	2895
868.495	2941
868.625	3119
868.756	3154
868.886	3013
869.017	3058
869.147	3245
869.278	3176
869.408	3032
869.539	3051
869.669	3131
869.799	3058
869.929	3165
870.06	3165
870.19	3344
870.32	3287
870.45	3306
870.58	3424
870.71	3473
870.84	3450
870.97	3313
871.1	3287
871.23	3515
871.36	3481
871.489	3367
871.619	3401
871.749	3447
871.879	3409
872.008	3469
872.138	3382
872.267	3253
872.397	3184
872.526	3104
872.656	3039
872.785	3104
872.915	3256
873.044	3332
873.173	3249
873.303	3253
873.432	3287
873.561	3245
873.69	3173
873.819	3176
873.948	3218
874.077	3108
874.206	3070
874.335	3081
874.464	3272
874.593	3363
874.722	3253
874.851	3397
874.979	3363
875.108	3310
875.237	3253
875.365	3188
875.494	3165
875.623	3260
875.751	3097
875.88	3142
876.008	3218
876.136	3253
876.265	3367
876.393	3538
876.521	3424
876.65	3409
876.778	3363
876.906	3317
877.034	3184
877.162	3226
877.29	3188
877.418	3249
877.546	3287
877.674	3272
877.802	3218
877.93	3253
878.058	3161
878.185	3116
878.313	3226
878.441	3188
878.568	3066
878.696	3169
878.824	3253
878.951	3317
879.079	3511
879.206	3622
879.333	3431
879.461	3332
879.588	3389
879.715	3492
879.842	3587
879.97	3401
880.097	3154
880.224	3131
880.351	3176
880.478	3218
880.605	3192
880.732	3211
880.859	3515
880.986	3298
881.112	3321
881.239	3211
881.366	3138
881.493	3070
881.619	3009
881.746	3077
881.872	3112
881.999	3150
882.125	3165
882.252	3260
882.378	3260
882.505	3431
882.631	3294
882.757	3188
882.883	3256
883.01	3241
883.136	3161
883.262	3123
883.388	3127
883.514	3348
883.64	3378
883.766	3313
883.892	3226
884.018	3218
884.143	3443
884.269	3530
884.395	3214
884.52	3131
884.646	3165
884.772	3077
884.897	3062
885.023	3218
885.148	3355
885.274	3447
885.399	3405
885.524	3279
885.65	3287
885.775	3332
885.9	3313
886.025	3428
886.15	3367
886.275	3279
886.4	3211
886.525	3294
886.65	3294
886.775	3291
886.9	3496
887.025	3606
887.149	3412
887.274	3294
887.399	3203
887.523	3211
887.648	3184
887.773	3169
887.897	3397
888.021	3393
888.146	3291
888.27	3420
888.395	3526
888.519	3447
888.643	3469
888.767	3477
888.891	3344
889.015	3283
889.139	3294
889.263	3260
889.387	3405
889.511	3542
889.635	3492
889.759	3306
889.883	3310
890.006	3401
890.13	3473
890.254	3287
890.377	3332
890.501	3203
890.624	3230
890.748	3287
890.871	3249
890.995	3146
891.118	3074
891.241	3233
891.364	3279
891.488	3329
891.611	3188
891.734	3230
891.857	3279
891.98	3226
892.103	3367
892.226	3329
892.349	3233
892.471	3123
892.594	3237
892.717	3279
892.839	3268
892.962	3294
893.085	3336
893.207	3310
893.33	3135
893.452	3226
893.575	3329
893.697	3233
893.819	3492
893.941	3485
894.064	3424
894.186	3241
894.308	3279
894.43	3454
894.552	3526
894.674	3481
894.796	3260
894.918	3336
895.04	3291
895.161	3428
895.283	3405
895.405	3291
895.526	3386
895.648	3454
895.769	3462
895.891	3462
896.012	3511
896.134	3466
896.255	3420
896.376	3401
896.498	3397
896.619	3382
896.74	3348
896.861	3447
896.982	3690
897.103	3861
897.224	3576
897.345	3515
897.466	3420
897.587	3488
897.708	3610
897.828	3591
897.949	3435
898.07	3336
898.19	3435
898.311	3587
898.431	3439
898.552	3523
898.672	3663
898.792	3580
898.913	3538
899.033	3428
899.153	3321
899.273	3176
899.393	3294
899.513	3348
899.633	3310
899.753	3351
899.873	3264
899.993	3412
900.113	3370
900.232	3409
900.352	3348
900.472	3321
900.591	3241
900.711	3313
900.83	3241
900.95	3397
901.069	3545
901.189	3317
901.308	3154
901.427	3116
901.546	3157
901.665	3310
901.784	3351
901.904	3233
902.023	3138
902.141	3039
902.26	2986
902.379	3127
902.498	3097
902.617	3074
902.735	3233
902.854	3214
902.973	3195
903.091	3077
903.21	3085
903.328	3108
903.446	3097
903.565	3093
903.683	3199
903.801	3138
903.919	3260
904.038	3287
904.156	3188
904.274	3294
904.392	3275
904.51	3264
904.627	3355
904.745	3409
904.863	3542
904.981	3253
905.098	3150
905.216	3188
905.334	3298
905.451	3329
905.569	3279
905.686	3412
905.803	3466
905.921	3260
906.038	3439
906.155	3355
906.272	3306
906.389	3321
906.506	3203
906.623	3291
906.74	3302
906.857	3233
906.974	3249
907.091	3462
907.208	3572
907.324	3469
907.441	3367
907.557	3233
907.674	3211
907.79	3233
907.907	3321
908.023	3367
908.139	3386
908.256	3355
908.372	3344
908.488	3340
908.604	3230
908.72	3245
908.836	3302
908.952	3249
909.068	3351
909.184	3447
909.3	3389
909.415	3447
909.531	3492
909.647	3279
909.762	3298
909.878	3260
909.993	3363
910.108	3321
910.224	3321
910.339	3420
910.454	3313
910.57	3317
910.685	3256
910.8	3576
910.915	3519
911.03	3439
911.145	3272
911.259	3245
911.374	3332
911.489	3218
911.604	3218
911.718	3154
911.833	3116
911.947	3062
912.062	2944
912.176	3165
912.291	3203
912.405	3214
912.519	3424
912.633	3477
912.748	3329
912.862	3272
912.976	3207
913.09	3055
913.204	3131
913.318	3207
913.431	3344
913.545	3313
913.659	3431
913.772	3336
913.886	3207
914	3192
914.113	3393
914.226	3439
914.34	3348
914.453	3184
914.566	3382
914.68	3310
914.793	3344
914.906	3123
915.019	3112
915.132	3062
915.245	3199
915.358	3245
915.47	3256
915.583	3264
915.696	3287
915.809	3405
915.921	3439
916.034	3264
916.146	3253
916.259	3218
916.371	3378
916.483	3374
916.595	3279
916.708	3351
916.82	3370
916.932	3325
917.044	3329
917.156	3367
917.268	3245
917.38	3306
917.491	3268
917.603	3416
917.715	3424
917.826	3485
917.938	3389
918.049	3272
918.161	3409
918.272	3553
918.384	3587
918.495	3477
918.606	3313
918.717	3256
918.828	3397
918.939	3428
919.05	3310
919.161	3374
919.272	3165
919.383	3313
919.494	3488
919.604	3690
919.715	3477
919.826	3393
919.936	3443
920.047	3591
920.157	3523
920.267	3728
920.378	3610
920.488	3549
920.598	3785
920.708	3941
920.818	3781
920.928	3816
921.038	4002
921.148	4006
921.258	3698
921.368	3675
921.477	3584
921.587	3511
921.697	3450
921.806	3633
921.916	3553
922.025	3340
922.134	3351
922.244	3298
922.353	3412
922.462	3294
922.571	3207
922.68	3089
922.789	3093
922.898	3135
923.007	3123
923.116	3233
923.224	3135
923.333	3146
923.442	3100
923.55	3070
923.659	3123
923.767	3230
923.876	3127
923.984	3241
924.092	3131
924.201	3176
924.309	3214
924.417	3245
924.525	3180
924.633	3211
924.741	4200
924.849	3039
924.956	3253
925.064	3108
925.172	3020
925.279	3165
925.387	3233
925.494	3195
925.602	3370
925.709	3355
925.816	3199
925.924	3241
926.031	3405
926.138	3351
926.245	3340
926.352	3291
926.459	3431
926.566	3511
926.673	3298
926.779	3260
926.886	3222
926.993	3142
927.099	3119
927.206	3119
927.312	3116
927.419	3218
927.525	3192
927.631	3264
927.737	3119
927.843	3119
927.95	3013
928.056	3142
928.162	3127
928.267	3245
928.373	3778
928.479	3275
928.585	3058
928.69	3226
928.796	3275
928.901	3165
929.007	3036
929.112	3176
929.218	3176
929.323	3157
929.428	3169
929.533	3287
929.638	3135
929.743	3165
929.848	3253
929.953	3188
930.058	3135
930.163	3005
930.267	3028
930.372	3165
930.477	3070
930.581	3287
930.685	3157
930.79	3051
930.894	3116
930.998	3077
931.103	3279
931.207	2929
931.311	2918
931.415	2929
931.519	2785
931.623	2815
