Data from test_V78500241_1354.txt Node
Date: Fri Mar 25 16:24:35 CST 2022
User: usil
Spectrometer: V785-0024
Trigger mode: 0
Integration Time (sec): 4.000000E-1
Scans to average: 1
Nonlinearity correction enabled: false
Boxcar width: 0
Storing dark spectrum: false
XAxis mode: Wavelengths
Number of Pixels in Spectrum: 1024
>>>>>Begin Spectral Data<<<<<
801.071	2891
801.214	2922
801.356	2899
801.499	2868
801.641	2849
801.783	2887
801.926	3074
802.068	2967
802.211	2986
802.353	2986
802.496	2941
802.638	3009
802.78	3039
802.923	3066
803.065	2952
803.208	2895
803.35	2914
803.492	2941
803.635	2941
803.777	2720
803.919	2872
804.061	3192
804.204	2956
804.346	2941
804.488	2830
804.63	3009
804.773	2883
804.915	2887
805.057	3070
805.199	2952
805.341	2948
805.483	3055
805.626	3009
805.768	2956
805.91	3043
806.052	3097
806.194	3039
806.336	3226
806.478	3009
806.62	2971
806.762	2963
806.904	3089
807.046	3142
807.188	2952
807.33	2918
807.472	2998
807.614	2876
807.756	3001
807.898	2925
808.04	2918
808.182	2994
808.324	2922
808.465	2887
808.607	2887
808.749	2788
808.891	2887
809.033	2967
809.174	2941
809.316	2853
809.458	2868
809.6	2773
809.741	2739
809.883	2735
810.025	2826
810.166	2849
810.308	2823
810.45	2876
810.591	2769
810.733	2788
810.875	2800
811.016	2792
811.158	2762
811.299	2807
811.441	2891
811.582	2883
811.724	2792
811.865	2876
812.007	2880
812.148	2883
812.29	2853
812.431	2880
812.573	2925
812.714	2960
812.855	3036
812.997	3017
813.138	3123
813.279	2998
813.421	2952
813.562	2979
813.703	2891
813.845	2883
813.986	2785
814.127	2743
814.268	2819
814.41	2830
814.551	2815
814.692	2868
814.833	2830
814.974	2902
815.115	2963
815.256	2861
815.397	2807
815.539	2872
815.68	2777
815.821	2743
815.962	2906
816.103	2937
816.244	2891
816.385	2853
816.526	2982
816.666	2914
816.807	2754
816.948	2887
817.089	2891
817.23	2845
817.371	2766
817.512	2788
817.653	2842
817.793	2815
817.934	2902
818.075	2948
818.216	3013
818.356	3028
818.497	2891
818.638	2800
818.778	2868
818.919	2777
819.06	2735
819.2	2880
819.341	2781
819.481	2826
819.622	2914
819.762	3108
819.903	3085
820.043	2891
820.184	2876
820.324	2883
820.465	2979
820.605	3017
820.746	3017
820.886	2906
821.026	3131
821.167	3154
821.307	3222
821.447	3256
821.588	3249
821.728	3222
821.868	3184
822.008	3123
822.149	3135
822.289	3195
822.429	3108
822.569	3093
822.709	3180
822.849	3013
822.99	3051
823.13	3146
823.27	3184
823.41	3104
823.55	3142
823.69	3154
823.83	3203
823.97	3089
824.11	2994
824.25	2990
824.389	3077
824.529	3112
824.669	3058
824.809	3169
824.949	3222
825.089	3233
825.228	3154
825.368	2956
825.508	2963
825.648	2982
825.787	3013
825.927	3013
826.067	2960
826.206	2960
826.346	3036
826.485	3058
826.625	3097
826.765	3253
826.904	3192
827.044	2986
827.183	2937
827.323	2849
827.462	2990
827.601	2937
827.741	2891
827.88	2956
828.02	2849
828.159	2914
828.298	3051
828.437	3112
828.577	3043
828.716	3230
828.855	3123
828.994	2887
829.134	2887
829.273	2948
829.412	2811
829.551	2845
829.69	2887
829.829	3017
829.968	3089
830.107	3070
830.246	3005
830.385	2914
830.524	2891
830.663	2788
830.802	2739
830.941	2644
831.08	2659
831.219	2781
831.357	2758
831.496	2948
831.635	2724
831.774	2667
831.913	2655
832.051	2549
832.19	2590
832.329	2651
832.467	2541
832.606	2480
832.744	2560
832.883	2583
833.022	2579
833.16	2648
833.299	2716
833.437	2667
833.576	2705
833.714	2712
833.852	2693
833.991	2754
834.129	2826
834.267	2826
834.406	2754
834.544	2849
834.682	2902
834.821	2883
834.959	3039
835.097	2861
835.235	3043
835.373	2982
835.511	3005
835.65	2937
835.788	2952
835.926	2815
836.064	2785
836.202	2876
836.34	3077
836.478	3131
836.615	3043
836.753	3123
836.891	3195
837.029	3150
837.167	3093
837.305	3058
837.443	3039
837.58	2960
837.718	3135
837.856	3062
837.993	3055
838.131	3085
838.269	3146
838.406	3062
838.544	3066
838.681	2922
838.819	2899
838.956	2823
839.094	2849
839.231	2887
839.369	3039
839.506	3351
839.643	3199
839.781	3013
839.918	2948
840.055	3032
840.193	3001
840.33	3077
840.467	3070
840.604	3093
840.742	3405
840.879	3013
841.016	3043
841.153	3058
841.29	3321
841.427	3306
841.564	3253
841.701	3268
841.838	3230
841.975	3180
842.112	3188
842.249	3093
842.385	3020
842.522	3222
842.659	3077
842.796	3047
842.933	3116
843.069	2998
843.206	3013
843.343	3207
843.479	3093
843.616	3100
843.752	2883
843.889	2876
844.025	3055
844.162	2880
844.298	3093
844.435	2986
844.571	2902
844.708	3081
844.844	3184
844.98	3226
845.117	3214
845.253	3058
845.389	2963
845.525	3077
845.661	3058
845.798	3020
845.934	3058
846.07	3058
846.206	3279
846.342	3294
846.478	3207
846.614	3081
846.75	3085
846.886	3047
847.022	3245
847.158	3123
847.294	3165
847.429	3222
847.565	3237
847.701	3481
847.837	3028
847.972	3001
848.108	3119
848.244	3135
848.379	2971
848.515	2933
848.65	2929
848.786	2994
848.921	3028
849.057	3100
849.192	3127
849.328	3047
849.463	3081
849.598	3043
849.734	2979
849.869	2990
850.004	2910
850.14	2967
850.275	2902
850.41	2872
850.545	2845
850.68	2891
850.815	2960
850.95	2960
851.085	3184
851.22	3081
851.355	3032
851.49	2952
851.625	2975
851.76	2982
851.895	2914
852.03	2864
852.165	3005
852.299	3089
852.434	3180
852.569	3135
852.703	3150
852.838	3211
852.973	3336
853.107	3336
853.242	3123
853.376	3112
853.511	2914
853.645	3032
853.78	3214
853.914	3127
854.048	3100
854.183	3123
854.317	3180
854.451	3306
854.585	3081
854.72	3066
854.854	3211
854.988	3089
855.122	3074
855.256	2937
855.39	3119
855.524	3195
855.658	3176
855.792	3142
855.926	3192
856.06	3203
856.194	3222
856.327	3135
856.461	3055
856.595	3055
856.729	3058
856.862	3249
856.996	3169
857.13	3180
857.263	3245
857.397	3260
857.53	3085
857.664	3192
857.797	3218
857.931	3256
858.064	3173
858.197	3188
858.331	3131
858.464	3100
858.597	2971
858.731	3112
858.864	3119
858.997	3058
859.13	3150
859.263	3150
859.396	3188
859.529	3062
859.662	3039
859.795	3020
859.928	3165
860.061	3237
860.194	3256
860.327	3127
860.46	3093
860.592	3233
860.725	3230
860.858	3211
860.99	3108
861.123	3100
861.256	3036
861.388	3135
861.521	3667
861.653	3020
861.786	2979
861.918	3005
862.05	3070
862.183	3138
862.315	3154
862.447	3214
862.58	3089
862.712	2933
862.844	2876
862.976	2990
863.108	2986
863.24	3325
863.372	2883
863.504	2990
863.636	2933
863.768	3024
863.9	2986
864.032	2910
864.164	2922
864.296	2975
864.428	3077
864.559	3062
864.691	3070
864.823	3093
864.954	3043
865.086	3047
865.217	2979
865.349	2956
865.48	2956
865.612	3036
865.743	3146
865.875	2956
866.006	2937
866.137	2952
866.269	2910
866.4	2929
866.531	2922
866.662	2891
866.793	2910
866.924	2880
867.055	2975
867.186	2944
867.317	2853
867.448	2853
867.579	2838
867.71	2834
867.841	2819
867.972	2895
868.103	2906
868.233	2876
868.364	2857
868.495	2883
868.625	3039
868.756	3184
868.886	2956
869.017	3017
869.147	3161
869.278	3146
869.408	3024
869.539	3001
869.669	3112
869.799	3001
869.929	3119
870.06	3097
870.19	3306
870.32	3317
870.45	3268
870.58	3336
870.71	3454
870.84	3420
870.97	3256
871.1	3233
871.23	3466
871.36	3454
871.489	3351
871.619	3405
871.749	3428
871.879	3439
872.008	3485
872.138	3329
872.267	3268
872.397	3154
872.526	3093
872.656	2998
872.785	3085
872.915	3207
873.044	3306
873.173	3237
873.303	3264
873.432	3287
873.561	3237
873.69	3138
873.819	3142
873.948	3161
874.077	3081
874.206	3036
874.335	3077
874.464	3214
874.593	3321
874.722	3253
874.851	3359
874.979	3348
875.108	3336
875.237	3214
875.365	3154
875.494	3161
875.623	3256
875.751	3066
875.88	3146
876.008	3173
876.136	3249
876.265	3344
876.393	3477
876.521	3431
876.65	3420
876.778	3313
876.906	3241
877.034	3214
877.162	3245
877.29	3157
877.418	3249
877.546	3226
877.674	3237
877.802	3218
877.93	3260
878.058	3161
878.185	3131
878.313	3211
878.441	3199
878.568	3051
878.696	3154
878.824	3218
878.951	3294
879.079	3431
879.206	3580
879.333	3416
879.461	3332
879.588	3355
879.715	3473
879.842	3622
879.97	3412
880.097	3184
880.224	3142
880.351	3157
880.478	3207
880.605	3146
880.732	3135
880.859	3473
880.986	3275
881.112	3317
881.239	3161
881.366	3089
881.493	3020
881.619	2986
881.746	3017
881.872	3081
881.999	3097
882.125	3116
882.252	3245
882.378	3294
882.505	3409
882.631	3256
882.757	3089
882.883	3195
883.01	3233
883.136	3150
883.262	3104
883.388	3116
883.514	3317
883.64	3370
883.766	3291
883.892	3176
884.018	3218
884.143	3401
884.269	3564
884.395	3226
884.52	3176
884.646	3169
884.772	3142
884.897	3116
885.023	3230
885.148	3336
885.274	3416
885.399	3325
885.524	3279
885.65	3245
885.775	3336
885.9	3241
886.025	3424
886.15	3355
886.275	3283
886.4	3256
886.525	3279
886.65	3279
886.775	3294
886.9	3450
887.025	3614
887.149	3424
887.274	3245
887.399	3226
887.523	3203
887.648	3180
887.773	3260
887.897	3340
888.021	3374
888.146	3275
888.27	3443
888.395	3477
888.519	3447
888.643	3435
888.767	3469
888.891	3291
889.015	3226
889.139	3264
889.263	3264
889.387	3405
889.511	3557
889.635	3469
889.759	3249
889.883	3283
890.006	3367
890.13	3485
890.254	3249
890.377	3306
890.501	3184
890.624	3214
890.748	3310
890.871	3180
890.995	3043
891.118	3058
891.241	3180
891.364	3199
891.488	3317
891.611	3169
891.734	3211
891.857	3294
891.98	3222
892.103	3329
892.226	3241
892.349	3195
892.471	3150
892.594	3241
892.717	3275
892.839	3245
892.962	3287
893.085	3374
893.207	3268
893.33	3173
893.452	3226
893.575	3325
893.697	3237
893.819	3462
893.941	3481
894.064	3435
894.186	3272
894.308	3272
894.43	3424
894.552	3538
894.674	3477
894.796	3279
894.918	3332
895.04	3294
895.161	3424
895.283	3416
895.405	3306
895.526	3359
895.648	3431
895.769	3367
895.891	3409
896.012	3466
896.134	3504
896.255	3370
896.376	3386
896.498	3351
896.619	3424
896.74	3370
896.861	3424
896.982	3675
897.103	3797
897.224	3614
897.345	3519
897.466	3439
897.587	3492
897.708	3618
897.828	3538
897.949	3405
898.07	3287
898.19	3401
898.311	3584
898.431	3431
898.552	3496
898.672	3595
898.792	3564
898.913	3500
899.033	3378
899.153	3253
899.273	3226
899.393	3279
899.513	3310
899.633	3313
899.753	3329
899.873	3344
899.993	3340
900.113	3310
900.232	3409
900.352	3317
900.472	3275
900.591	3230
900.711	3256
900.83	3272
900.95	3409
901.069	3481
901.189	3348
901.308	3169
901.427	3112
901.546	3184
901.665	3237
901.784	3332
901.904	3180
902.023	3176
902.141	3017
902.26	2956
902.379	3127
902.498	3055
902.617	3043
902.735	3211
902.854	3230
902.973	3176
903.091	3047
903.21	3047
903.328	3173
903.446	3077
903.565	3108
903.683	3192
903.801	3104
903.919	3237
904.038	3302
904.156	3192
904.274	3283
904.392	3230
904.51	3294
904.627	3306
904.745	3420
904.863	3473
904.981	3249
905.098	3173
905.216	3230
905.334	3313
905.451	3275
905.569	3321
905.686	3431
905.803	3412
905.921	3279
906.038	3393
906.155	3367
906.272	3249
906.389	3291
906.506	3203
906.623	3253
906.74	3279
906.857	3169
906.974	3260
907.091	3439
907.208	3545
907.324	3454
907.441	3389
907.557	3241
907.674	3237
907.79	3214
907.907	3268
908.023	3370
908.139	3344
908.256	3325
908.372	3367
908.488	3340
908.604	3241
908.72	3230
908.836	3287
908.952	3249
909.068	3336
909.184	3466
909.3	3382
909.415	3481
909.531	3477
909.647	3256
909.762	3275
909.878	3237
909.993	3317
910.108	3310
910.224	3351
910.339	3412
910.454	3321
910.57	3321
910.685	3268
910.8	3587
910.915	3534
911.03	3424
911.145	3275
911.259	3291
911.374	3306
911.489	3237
911.604	3214
911.718	3146
911.833	3123
911.947	3028
912.062	2956
912.176	3161
912.291	3176
912.405	3218
912.519	3477
912.633	3447
912.748	3329
912.862	3253
912.976	3180
913.09	3074
913.204	3146
913.318	3226
913.431	3340
913.545	3374
913.659	3351
913.772	3294
913.886	3230
914	3173
914.113	3367
914.226	3386
914.34	3367
914.453	3226
914.566	3393
914.68	3306
914.793	3283
914.906	3127
915.019	3142
915.132	3039
915.245	3161
915.358	3245
915.47	3180
915.583	3256
915.696	3287
915.809	3351
915.921	3431
916.034	3249
916.146	3253
916.259	3226
916.371	3378
916.483	3378
916.595	3279
916.708	3291
916.82	3351
916.932	3359
917.044	3355
917.156	3344
917.268	3249
917.38	3279
917.491	3283
917.603	3344
917.715	3428
917.826	3424
917.938	3351
918.049	3260
918.161	3405
918.272	3568
918.384	3549
918.495	3469
918.606	3332
918.717	3283
918.828	3374
918.939	3405
919.05	3275
919.161	3348
919.272	3184
919.383	3260
919.494	3485
919.604	3652
919.715	3492
919.826	3424
919.936	3450
920.047	3591
920.157	3542
920.267	3755
920.378	3587
920.488	3576
920.598	3755
920.708	3934
920.818	3842
920.928	3804
921.038	4021
921.148	3972
921.258	3671
921.368	3625
921.477	3580
921.587	3542
921.697	3454
921.806	3660
921.916	3530
922.025	3367
922.134	3389
922.244	3325
922.353	3409
922.462	3268
922.571	3218
922.68	3074
922.789	3058
922.898	3112
923.007	3089
923.116	3184
923.224	3199
923.333	3184
923.442	3100
923.55	3116
923.659	3157
923.767	3180
923.876	3138
923.984	3241
924.092	3089
924.201	3226
924.309	3211
924.417	3272
924.525	3195
924.633	3264
924.741	3991
924.849	3070
924.956	3279
925.064	3112
925.172	3024
925.279	3093
925.387	3184
925.494	3192
925.602	3386
925.709	3344
925.816	3211
925.924	3279
926.031	3378
926.138	3313
926.245	3378
926.352	3272
926.459	3409
926.566	3466
926.673	3321
926.779	3230
926.886	3291
926.993	3165
927.099	3146
927.206	3077
927.312	3085
927.419	3249
927.525	3226
927.631	3275
927.737	3100
927.843	3123
927.95	3024
928.056	3150
928.162	3142
928.267	3249
928.373	3884
928.479	3325
928.585	3051
928.69	3230
928.796	3279
928.901	3184
929.007	3017
929.112	3180
929.218	3165
929.323	3127
929.428	3138
929.533	3306
929.638	3070
929.743	3173
929.848	3256
929.953	3203
930.058	3146
930.163	3043
930.267	3062
930.372	3249
930.477	3047
930.581	3355
930.685	3195
930.79	3070
930.894	3135
930.998	3074
931.103	3291
931.207	2982
931.311	2937
931.415	2944
931.519	2804
931.623	2811
