Data from test_V78500241_688.txt Node
Date: Fri Mar 25 16:19:58 CST 2022
User: usil
Spectrometer: V785-0024
Trigger mode: 0
Integration Time (sec): 4.000000E-1
Scans to average: 1
Nonlinearity correction enabled: false
Boxcar width: 0
Storing dark spectrum: false
XAxis mode: Wavelengths
Number of Pixels in Spectrum: 1024
>>>>>Begin Spectral Data<<<<<
801.071	2941
801.214	2975
801.356	2891
801.499	2937
801.641	2902
801.783	2956
801.926	3077
802.068	3013
802.211	3005
802.353	3036
802.496	2952
802.638	3005
802.78	3058
802.923	3089
803.065	2963
803.208	2910
803.35	2941
803.492	2937
803.635	2937
803.777	2769
803.919	2872
804.061	3218
804.204	2944
804.346	2899
804.488	2861
804.63	2998
804.773	2861
804.915	2902
805.057	3058
805.199	2956
805.341	2967
805.483	3051
805.626	2998
805.768	2952
805.91	3108
806.052	3112
806.194	3032
806.336	3245
806.478	3039
806.62	2937
806.762	2975
806.904	3039
807.046	3173
807.188	2975
807.33	2925
807.472	2963
807.614	2906
807.756	2944
807.898	2925
808.04	2914
808.182	2967
808.324	2960
808.465	2826
808.607	2880
808.749	2762
808.891	2838
809.033	2971
809.174	2956
809.316	2902
809.458	2876
809.6	2796
809.741	2781
809.883	2766
810.025	2838
810.166	2853
810.308	2853
810.45	2868
810.591	2796
810.733	2773
810.875	2849
811.016	2773
811.158	2769
811.299	2815
811.441	2902
811.582	2914
811.724	2868
811.865	2826
812.007	2944
812.148	2857
812.29	2845
812.431	2880
812.573	2895
812.714	2979
812.855	3070
812.997	3066
813.138	3081
813.279	2975
813.421	2967
813.562	2944
813.703	2868
813.845	2891
813.986	2792
814.127	2785
814.268	2838
814.41	2819
814.551	2804
814.692	2872
814.833	2796
814.974	2864
815.115	2948
815.256	2842
815.397	2815
815.539	2868
815.68	2769
815.821	2796
815.962	2952
816.103	2948
816.244	2899
816.385	2887
816.526	2967
816.666	2925
816.807	2739
816.948	2849
817.089	2880
817.23	2868
817.371	2777
817.512	2777
817.653	2857
817.793	2823
817.934	2914
818.075	2944
818.216	2960
818.356	3047
818.497	2861
818.638	2823
818.778	2830
818.919	2796
819.06	2735
819.2	2918
819.341	2792
819.481	2766
819.622	2933
819.762	3093
819.903	3001
820.043	2883
820.184	2872
820.324	2864
820.465	2998
820.605	3032
820.746	3028
820.886	2948
821.026	3074
821.167	3142
821.307	3256
821.447	3275
821.588	3245
821.728	3188
821.868	3188
822.008	3116
822.149	3192
822.289	3222
822.429	3081
822.569	3127
822.709	3207
822.849	3020
822.99	3066
823.13	3169
823.27	3199
823.41	3123
823.55	3176
823.69	3173
823.83	3226
823.97	3100
824.11	3066
824.25	3062
824.389	3062
824.529	3123
824.669	3077
824.809	3211
824.949	3283
825.089	3253
825.228	3203
825.368	3047
825.508	2971
825.648	2990
825.787	3074
825.927	3039
826.067	2998
826.206	2994
826.346	3070
826.485	3112
826.625	3116
826.765	3332
826.904	3211
827.044	3009
827.183	2986
827.323	2902
827.462	3020
827.601	2979
827.741	2990
827.88	2960
828.02	2910
828.159	2990
828.298	3085
828.437	3127
828.577	3077
828.716	3275
828.855	3146
828.994	2944
829.134	2937
829.273	2975
829.412	2899
829.551	2868
829.69	2944
829.829	3055
829.968	3154
830.107	3028
830.246	3104
830.385	2937
830.524	2918
830.663	2853
830.802	2796
830.941	2689
831.08	2678
831.219	2792
831.357	2785
831.496	3043
831.635	2781
831.774	2689
831.913	2708
832.051	2587
832.19	2629
832.329	2743
832.467	2583
832.606	2492
832.744	2640
832.883	2602
833.022	2632
833.16	2701
833.299	2689
833.437	2705
833.576	2758
833.714	2804
833.852	2754
833.991	2788
834.129	2853
834.267	2853
834.406	2826
834.544	2929
834.682	2941
834.821	2937
834.959	3108
835.097	2933
835.235	3097
835.373	3047
835.511	3036
835.65	2994
835.788	2979
835.926	2857
836.064	2861
836.202	2861
836.34	3142
836.478	3165
836.615	3070
836.753	3184
836.891	3253
837.029	3176
837.167	3116
837.305	3070
837.443	3043
837.58	3009
837.718	3138
837.856	3135
837.993	3058
838.131	3142
838.269	3157
838.406	3146
838.544	3123
838.681	2998
838.819	2948
838.956	2826
839.094	2864
839.231	2979
839.369	3051
839.506	3401
839.643	3230
839.781	3024
839.918	3005
840.055	3093
840.193	3097
840.33	3077
840.467	3142
840.604	3192
840.742	3424
840.879	3066
841.016	3081
841.153	3127
841.29	3363
841.427	3363
841.564	3306
841.701	3336
841.838	3256
841.975	3195
842.112	3253
842.249	3138
842.385	3081
842.522	3302
842.659	3077
842.796	3093
842.933	3131
843.069	3119
843.206	3066
843.343	3211
843.479	3188
843.616	3119
843.752	2906
843.889	2864
844.025	3104
844.162	2933
844.298	3146
844.435	2967
844.571	2929
844.708	3081
844.844	3230
844.98	3275
845.117	3214
845.253	3116
845.389	3051
845.525	3146
845.661	3131
845.798	3062
845.934	3146
846.07	3085
846.206	3249
846.342	3382
846.478	3253
846.614	3142
846.75	3097
846.886	3097
847.022	3310
847.158	3146
847.294	3230
847.429	3264
847.565	3214
847.701	3515
847.837	3039
847.972	3017
848.108	3199
848.244	3161
848.379	3051
848.515	2963
848.65	2952
848.786	2998
848.921	3062
849.057	3146
849.192	3199
849.328	3108
849.463	3138
849.598	3108
849.734	3070
849.869	2994
850.004	2948
850.14	2990
850.275	2937
850.41	2868
850.545	2929
850.68	2948
850.815	2967
850.95	2979
851.085	3226
851.22	3150
851.355	3066
851.49	3005
851.625	3036
851.76	3062
851.895	2986
852.03	2944
852.165	3028
852.299	3119
852.434	3222
852.569	3150
852.703	3195
852.838	3287
852.973	3348
853.107	3359
853.242	3157
853.376	3108
853.511	3039
853.645	3089
853.78	3279
853.914	3138
854.048	3161
854.183	3093
854.317	3176
854.451	3329
854.585	3176
854.72	3104
854.854	3249
854.988	3055
855.122	3104
855.256	3013
855.39	3135
855.524	3241
855.658	3241
855.792	3173
855.926	3218
856.06	3249
856.194	3272
856.327	3188
856.461	3097
856.595	3066
856.729	3146
856.862	3188
856.996	3184
857.13	3214
857.263	3272
857.397	3344
857.53	3150
857.664	3211
857.797	3291
857.931	3302
858.064	3184
858.197	3226
858.331	3180
858.464	3142
858.597	3043
858.731	3157
858.864	3203
858.997	3127
859.13	3192
859.263	3173
859.396	3245
859.529	3097
859.662	3108
859.795	3070
859.928	3180
860.061	3302
860.194	3291
860.327	3161
860.46	3123
860.592	3275
860.725	3260
860.858	3268
860.99	3127
861.123	3066
861.256	3058
861.388	3157
861.521	3987
861.653	3062
861.786	3024
861.918	3017
862.05	3100
862.183	3135
862.315	3192
862.447	3199
862.58	3097
862.712	2971
862.844	2899
862.976	3074
863.108	3043
863.24	3473
863.372	2944
863.504	3009
863.636	2967
863.768	3081
863.9	3020
864.032	2944
864.164	2971
864.296	3032
864.428	3119
864.559	3138
864.691	3119
864.823	3070
864.954	3089
865.086	3051
865.217	2986
865.349	2975
865.48	3032
865.612	3043
865.743	3157
865.875	3013
866.006	2937
866.137	3005
866.269	2948
866.4	2941
866.531	2956
866.662	2906
866.793	2944
866.924	2929
867.055	3009
867.186	2975
867.317	2906
867.448	2826
867.579	2872
867.71	2838
867.841	2830
867.972	2914
868.103	2895
868.233	2929
868.364	2864
868.495	2929
868.625	3131
868.756	3203
868.886	2975
869.017	3043
869.147	3180
869.278	3199
869.408	3062
869.539	3036
869.669	3135
869.799	3036
869.929	3154
870.06	3116
870.19	3370
870.32	3291
870.45	3325
870.58	3374
870.71	3447
870.84	3447
870.97	3272
871.1	3237
871.23	3538
871.36	3469
871.489	3374
871.619	3416
871.749	3386
871.879	3466
872.008	3492
872.138	3378
872.267	3313
872.397	3169
872.526	3108
872.656	3017
872.785	3123
872.915	3279
873.044	3332
873.173	3256
873.303	3260
873.432	3233
873.561	3230
873.69	3176
873.819	3157
873.948	3241
874.077	3097
874.206	3043
874.335	3119
874.464	3195
874.593	3363
874.722	3253
874.851	3382
874.979	3367
875.108	3317
875.237	3199
875.365	3199
875.494	3180
875.623	3279
875.751	3081
875.88	3146
876.008	3176
876.136	3195
876.265	3397
876.393	3530
876.521	3439
876.65	3409
876.778	3351
876.906	3256
877.034	3253
877.162	3275
877.29	3214
877.418	3260
877.546	3233
877.674	3310
877.802	3249
877.93	3253
878.058	3176
878.185	3112
878.313	3222
878.441	3184
878.568	3112
878.696	3192
878.824	3268
878.951	3310
879.079	3447
879.206	3606
879.333	3458
879.461	3351
879.588	3359
879.715	3504
879.842	3614
879.97	3435
880.097	3176
880.224	3157
880.351	3233
880.478	3253
880.605	3230
880.732	3226
880.859	3477
880.986	3294
881.112	3363
881.239	3233
881.366	3127
881.493	3055
881.619	3020
881.746	3089
881.872	3127
881.999	3104
882.125	3184
882.252	3294
882.378	3359
882.505	3454
882.631	3272
882.757	3184
882.883	3192
883.01	3230
883.136	3207
883.262	3116
883.388	3123
883.514	3325
883.64	3450
883.766	3306
883.892	3226
884.018	3226
884.143	3409
884.269	3603
884.395	3245
884.52	3176
884.646	3195
884.772	3150
884.897	3116
885.023	3226
885.148	3340
885.274	3435
885.399	3401
885.524	3264
885.65	3336
885.775	3351
885.9	3302
886.025	3458
886.15	3420
886.275	3317
886.4	3275
886.525	3332
886.65	3245
886.775	3279
886.9	3523
887.025	3622
887.149	3435
887.274	3287
887.399	3188
887.523	3222
887.648	3188
887.773	3230
887.897	3389
888.021	3405
888.146	3325
888.27	3443
888.395	3549
888.519	3431
888.643	3447
888.767	3473
888.891	3321
889.015	3272
889.139	3294
889.263	3230
889.387	3424
889.511	3526
889.635	3492
889.759	3287
889.883	3298
890.006	3443
890.13	3507
890.254	3291
890.377	3389
890.501	3230
890.624	3192
890.748	3336
890.871	3199
890.995	3150
891.118	3043
891.241	3154
891.364	3287
891.488	3317
891.611	3211
891.734	3226
891.857	3294
891.98	3279
892.103	3317
892.226	3317
892.349	3222
892.471	3116
892.594	3245
892.717	3298
892.839	3283
892.962	3310
893.085	3374
893.207	3291
893.33	3188
893.452	3230
893.575	3359
893.697	3245
893.819	3496
893.941	3507
894.064	3439
894.186	3253
894.308	3332
894.43	3439
894.552	3561
894.674	3511
894.796	3310
894.918	3321
895.04	3264
895.161	3424
895.283	3397
895.405	3310
895.526	3378
895.648	3416
895.769	3477
895.891	3431
896.012	3488
896.134	3477
896.255	3469
896.376	3424
896.498	3378
896.619	3469
896.74	3412
896.861	3405
896.982	3675
897.103	3842
897.224	3663
897.345	3530
897.466	3401
897.587	3523
897.708	3644
897.828	3534
897.949	3504
898.07	3329
898.19	3431
898.311	3557
898.431	3458
898.552	3538
898.672	3564
898.792	3576
898.913	3526
899.033	3435
899.153	3302
899.273	3203
899.393	3287
899.513	3378
899.633	3329
899.753	3325
899.873	3332
899.993	3393
900.113	3378
900.232	3409
900.352	3374
900.472	3283
900.591	3233
900.711	3291
900.83	3298
900.95	3420
901.069	3469
901.189	3363
901.308	3165
901.427	3135
901.546	3203
901.665	3321
901.784	3344
901.904	3203
902.023	3199
902.141	3036
902.26	3001
902.379	3157
902.498	3127
902.617	3074
902.735	3222
902.854	3222
902.973	3203
903.091	3051
903.21	3081
903.328	3127
903.446	3081
903.565	3138
903.683	3188
903.801	3112
903.919	3233
904.038	3325
904.156	3222
904.274	3317
904.392	3291
904.51	3294
904.627	3329
904.745	3397
904.863	3507
904.981	3298
905.098	3180
905.216	3268
905.334	3283
905.451	3287
905.569	3294
905.686	3439
905.803	3424
905.921	3249
906.038	3416
906.155	3351
906.272	3279
906.389	3340
906.506	3233
906.623	3264
906.74	3294
906.857	3176
906.974	3245
907.091	3462
907.208	3564
907.324	3462
907.441	3378
907.557	3203
907.674	3268
907.79	3203
907.907	3256
908.023	3386
908.139	3355
908.256	3332
908.372	3382
908.488	3351
908.604	3256
908.72	3226
908.836	3321
908.952	3294
909.068	3336
909.184	3473
909.3	3397
909.415	3500
909.531	3488
909.647	3279
909.762	3287
909.878	3237
909.993	3389
910.108	3363
910.224	3340
910.339	3424
910.454	3344
910.57	3298
910.685	3253
910.8	3584
910.915	3526
911.03	3435
911.145	3313
911.259	3260
911.374	3283
911.489	3241
911.604	3237
911.718	3100
911.833	3165
911.947	3043
912.062	2990
912.176	3131
912.291	3211
912.405	3214
912.519	3462
912.633	3492
912.748	3313
912.862	3287
912.976	3188
913.09	3089
913.204	3135
913.318	3264
913.431	3344
913.545	3329
913.659	3393
913.772	3332
913.886	3222
914	3188
914.113	3382
914.226	3443
914.34	3359
914.453	3203
914.566	3401
914.68	3298
914.793	3348
914.906	3154
915.019	3119
915.132	3104
915.245	3176
915.358	3203
915.47	3268
915.583	3272
915.696	3321
915.809	3443
915.921	3458
916.034	3241
916.146	3272
916.259	3176
916.371	3401
916.483	3382
916.595	3272
916.708	3370
916.82	3351
916.932	3321
917.044	3340
917.156	3325
917.268	3256
917.38	3298
917.491	3317
917.603	3344
917.715	3386
917.826	3466
917.938	3405
918.049	3241
918.161	3393
918.272	3561
918.384	3610
918.495	3466
918.606	3306
918.717	3249
918.828	3367
918.939	3382
919.05	3310
919.161	3397
919.272	3165
919.383	3325
919.494	3477
919.604	3720
919.715	3515
919.826	3405
919.936	3466
920.047	3591
920.157	3564
920.267	3770
920.378	3610
920.488	3553
920.598	3747
920.708	3964
920.818	3804
920.928	3819
921.038	3994
921.148	3979
921.258	3663
921.368	3618
921.477	3606
921.587	3523
921.697	3481
921.806	3622
921.916	3507
922.025	3382
922.134	3374
922.244	3344
922.353	3428
922.462	3306
922.571	3237
922.68	3093
922.789	3062
922.898	3142
923.007	3093
923.116	3192
923.224	3176
923.333	3154
923.442	3100
923.55	3089
923.659	3127
923.767	3211
923.876	3116
923.984	3241
924.092	3108
924.201	3161
924.309	3253
924.417	3260
924.525	3211
924.633	3260
924.741	3949
924.849	3051
924.956	3214
925.064	3116
925.172	3039
925.279	3108
925.387	3184
925.494	3195
925.602	3329
925.709	3317
925.816	3154
925.924	3241
926.031	3382
926.138	3306
926.245	3363
926.352	3253
926.459	3450
926.566	3473
926.673	3340
926.779	3275
926.886	3222
926.993	3154
927.099	3161
927.206	3135
927.312	3093
927.419	3226
927.525	3195
927.631	3279
927.737	3184
927.843	3119
927.95	3058
928.056	3146
928.162	3176
928.267	3264
928.373	3835
928.479	3313
928.585	3062
928.69	3245
928.796	3249
928.901	3161
929.007	3017
929.112	3211
929.218	3214
929.323	3150
929.428	3161
929.533	3294
929.638	3131
929.743	3203
929.848	3237
929.953	3241
930.058	3165
930.163	2975
930.267	3017
930.372	3222
930.477	3047
930.581	3332
930.685	3169
930.79	3028
930.894	3119
930.998	3116
931.103	3287
931.207	2990
931.311	2963
931.415	2910
931.519	2777
931.623	2826
