Data from test_V78500241_947.txt Node
Date: Fri Mar 25 16:21:45 CST 2022
User: usil
Spectrometer: V785-0024
Trigger mode: 0
Integration Time (sec): 4.000000E-1
Scans to average: 1
Nonlinearity correction enabled: false
Boxcar width: 0
Storing dark spectrum: false
XAxis mode: Wavelengths
Number of Pixels in Spectrum: 1024
>>>>>Begin Spectral Data<<<<<
801.071	2906
801.214	2944
801.356	2891
801.499	2925
801.641	2922
801.783	2979
801.926	3093
802.068	2979
802.211	2990
802.353	3062
802.496	2990
802.638	3005
802.78	3085
802.923	3081
803.065	3009
803.208	2914
803.35	2914
803.492	2944
803.635	2941
803.777	2758
803.919	2868
804.061	3169
804.204	2967
804.346	2963
804.488	2857
804.63	3005
804.773	2895
804.915	2948
805.057	3062
805.199	2929
805.341	2986
805.483	3028
805.626	3009
805.768	2967
805.91	3062
806.052	3116
806.194	3024
806.336	3230
806.478	3051
806.62	2933
806.762	2982
806.904	3043
807.046	3180
807.188	2967
807.33	2914
807.472	3009
807.614	2902
807.756	3039
807.898	2902
808.04	2887
808.182	2971
808.324	2933
808.465	2895
808.607	2883
808.749	2788
808.891	2842
809.033	2925
809.174	2975
809.316	2887
809.458	2880
809.6	2769
809.741	2792
809.883	2788
810.025	2830
810.166	2876
810.308	2815
810.45	2864
810.591	2804
810.733	2769
810.875	2815
811.016	2815
811.158	2746
811.299	2819
811.441	2944
811.582	2872
811.724	2807
811.865	2838
812.007	2895
812.148	2838
812.29	2800
812.431	2933
812.573	2937
812.714	2963
812.855	3077
812.997	3055
813.138	3093
813.279	3032
813.421	2990
813.562	2963
813.703	2868
813.845	2918
813.986	2788
814.127	2705
814.268	2823
814.41	2811
814.551	2800
814.692	2876
814.833	2834
814.974	2895
815.115	2971
815.256	2834
815.397	2777
815.539	2845
815.68	2807
815.821	2800
815.962	2925
816.103	2941
816.244	2899
816.385	2845
816.526	2963
816.666	2925
816.807	2773
816.948	2887
817.089	2914
817.23	2857
817.371	2777
817.512	2807
817.653	2796
817.793	2819
817.934	2895
818.075	2971
818.216	2960
818.356	3028
818.497	2845
818.638	2796
818.778	2834
818.919	2766
819.06	2750
819.2	2876
819.341	2788
819.481	2792
819.622	2883
819.762	3081
819.903	3055
820.043	2929
820.184	2902
820.324	2868
820.465	3024
820.605	3013
820.746	3051
820.886	2944
821.026	3097
821.167	3135
821.307	3283
821.447	3256
821.588	3241
821.728	3195
821.868	3157
822.008	3077
822.149	3127
822.289	3233
822.429	3085
822.569	3077
822.709	3146
822.849	3020
822.99	3074
823.13	3131
823.27	3222
823.41	3119
823.55	3184
823.69	3142
823.83	3199
823.97	3081
824.11	2975
824.25	3017
824.389	3066
824.529	3142
824.669	3077
824.809	3218
824.949	3275
825.089	3218
825.228	3165
825.368	2960
825.508	2952
825.648	2971
825.787	2998
825.927	3005
826.067	2956
826.206	2914
826.346	3058
826.485	3051
826.625	3157
826.765	3260
826.904	3230
827.044	2990
827.183	2929
827.323	2891
827.462	3005
827.601	2918
827.741	2956
827.88	2990
828.02	2845
828.159	2975
828.298	3036
828.437	3112
828.577	3036
828.716	3264
828.855	3108
828.994	2914
829.134	2872
829.273	2941
829.412	2906
829.551	2922
829.69	2948
829.829	2986
829.968	3169
830.107	3047
830.246	3066
830.385	2929
830.524	2952
830.663	2864
830.802	2769
830.941	2682
831.08	2689
831.219	2823
831.357	2792
831.496	2956
831.635	2785
831.774	2678
831.913	2697
832.051	2598
832.19	2610
832.329	2697
832.467	2610
832.606	2530
832.744	2617
832.883	2625
833.022	2629
833.16	2705
833.299	2727
833.437	2701
833.576	2731
833.714	2766
833.852	2762
833.991	2807
834.129	2849
834.267	2861
834.406	2823
834.544	2883
834.682	2933
834.821	2910
834.959	3116
835.097	2925
835.235	3108
835.373	3028
835.511	3074
835.65	3017
835.788	3005
835.926	2868
836.064	2830
836.202	2906
836.34	3097
836.478	3169
836.615	3097
836.753	3176
836.891	3256
837.029	3173
837.167	3131
837.305	3123
837.443	3055
837.58	3024
837.718	3180
837.856	3100
837.993	3047
838.131	3150
838.269	3199
838.406	3112
838.544	3097
838.681	2967
838.819	2956
838.956	2826
839.094	2883
839.231	2925
839.369	3077
839.506	3409
839.643	3264
839.781	3062
839.918	2990
840.055	3093
840.193	3077
840.33	3097
840.467	3131
840.604	3180
840.742	3469
840.879	3074
841.016	3047
841.153	3169
841.29	3351
841.427	3336
841.564	3321
841.701	3310
841.838	3260
841.975	3192
842.112	3306
842.249	3112
842.385	3077
842.522	3275
842.659	3119
842.796	3119
842.933	3089
843.069	3070
843.206	3036
843.343	3237
843.479	3119
843.616	3165
843.752	2880
843.889	2883
844.025	3135
844.162	2944
844.298	3112
844.435	2990
844.571	2929
844.708	3085
844.844	3214
844.98	3264
845.117	3165
845.253	3062
845.389	3047
845.525	3100
845.661	3131
845.798	3081
845.934	3161
846.07	3097
846.206	3222
846.342	3329
846.478	3237
846.614	3085
846.75	3097
846.886	3036
847.022	3287
847.158	3150
847.294	3192
847.429	3302
847.565	3260
847.701	3488
847.837	3085
847.972	3020
848.108	3207
848.244	3195
848.379	2979
848.515	2967
848.65	2971
848.786	2998
848.921	3047
849.057	3131
849.192	3154
849.328	3070
849.463	3138
849.598	3089
849.734	3089
849.869	3020
850.004	2948
850.14	2967
850.275	2918
850.41	2849
850.545	2918
850.68	2986
850.815	2979
850.95	3009
851.085	3218
851.22	3146
851.355	3062
851.49	2979
851.625	3017
851.76	3013
851.895	2963
852.03	2960
852.165	3070
852.299	3119
852.434	3203
852.569	3150
852.703	3203
852.838	3306
852.973	3363
853.107	3370
853.242	3138
853.376	3116
853.511	3028
853.645	3093
853.78	3218
853.914	3188
854.048	3154
854.183	3108
854.317	3184
854.451	3298
854.585	3150
854.72	3123
854.854	3249
854.988	3077
855.122	3108
855.256	2986
855.39	3165
855.524	3256
855.658	3192
855.792	3184
855.926	3230
856.06	3230
856.194	3306
856.327	3184
856.461	3135
856.595	3108
856.729	3123
856.862	3245
856.996	3180
857.13	3214
857.263	3264
857.397	3329
857.53	3146
857.664	3233
857.797	3283
857.931	3256
858.064	3184
858.197	3249
858.331	3150
858.464	3150
858.597	3043
858.731	3116
858.864	3123
858.997	3112
859.13	3180
859.263	3207
859.396	3260
859.529	3077
859.662	3112
859.795	3070
859.928	3176
860.061	3287
860.194	3287
860.327	3165
860.46	3100
860.592	3302
860.725	3325
860.858	3294
860.99	3127
861.123	3070
861.256	3100
861.388	3157
861.521	3880
861.653	3036
861.786	3009
861.918	3032
862.05	3116
862.183	3074
862.315	3169
862.447	3214
862.58	3138
862.712	2963
862.844	2895
862.976	3036
863.108	3039
863.24	3431
863.372	2918
863.504	2990
863.636	3009
863.768	3055
863.9	3005
864.032	2895
864.164	2982
864.296	3058
864.428	3085
864.559	3089
864.691	3097
864.823	3081
864.954	3017
865.086	3066
865.217	3009
865.349	2944
865.48	3032
865.612	3013
865.743	3199
865.875	3001
866.006	2956
866.137	3001
866.269	2960
866.4	2941
866.531	2929
866.662	2937
866.793	2899
866.924	2887
867.055	2990
867.186	2963
867.317	2925
867.448	2823
867.579	2876
867.71	2845
867.841	2857
867.972	2933
868.103	2902
868.233	2906
868.364	2914
868.495	2902
868.625	3108
868.756	3203
868.886	3024
869.017	3028
869.147	3173
869.278	3184
869.408	3070
869.539	3058
869.669	3154
869.799	3062
869.929	3154
870.06	3154
870.19	3351
870.32	3317
870.45	3313
870.58	3397
870.71	3507
870.84	3485
870.97	3306
871.1	3279
871.23	3500
871.36	3492
871.489	3351
871.619	3393
871.749	3374
871.879	3450
872.008	3496
872.138	3370
872.267	3313
872.397	3157
872.526	3135
872.656	3043
872.785	3100
872.915	3241
873.044	3355
873.173	3237
873.303	3268
873.432	3260
873.561	3268
873.69	3176
873.819	3161
873.948	3264
874.077	3138
874.206	3070
874.335	3085
874.464	3207
874.593	3332
874.722	3233
874.851	3397
874.979	3351
875.108	3291
875.237	3211
875.365	3176
875.494	3203
875.623	3291
875.751	3070
875.88	3150
876.008	3192
876.136	3256
876.265	3401
876.393	3507
876.521	3412
876.65	3409
876.778	3370
876.906	3253
877.034	3203
877.162	3245
877.29	3207
877.418	3264
877.546	3256
877.674	3256
877.802	3264
877.93	3214
878.058	3192
878.185	3146
878.313	3222
878.441	3157
878.568	3135
878.696	3188
878.824	3268
878.951	3298
879.079	3447
879.206	3599
879.333	3466
879.461	3348
879.588	3389
879.715	3523
879.842	3618
879.97	3389
880.097	3199
880.224	3146
880.351	3184
880.478	3253
880.605	3268
880.732	3195
880.859	3481
880.986	3325
881.112	3351
881.239	3260
881.366	3146
881.493	3039
881.619	3039
881.746	3081
881.872	3097
881.999	3123
882.125	3180
882.252	3256
882.378	3310
882.505	3412
882.631	3264
882.757	3150
882.883	3237
883.01	3245
883.136	3157
883.262	3104
883.388	3104
883.514	3310
883.64	3332
883.766	3329
883.892	3222
884.018	3226
884.143	3401
884.269	3542
884.395	3218
884.52	3188
884.646	3222
884.772	3161
884.897	3097
885.023	3203
885.148	3325
885.274	3431
885.399	3382
885.524	3306
885.65	3279
885.775	3344
885.9	3332
886.025	3454
886.15	3359
886.275	3302
886.4	3245
886.525	3351
886.65	3291
886.775	3317
886.9	3500
887.025	3660
887.149	3389
887.274	3294
887.399	3195
887.523	3230
887.648	3169
887.773	3237
887.897	3374
888.021	3416
888.146	3340
888.27	3405
888.395	3545
888.519	3473
888.643	3458
888.767	3511
888.891	3355
889.015	3260
889.139	3313
889.263	3264
889.387	3469
889.511	3492
889.635	3424
889.759	3329
889.883	3306
890.006	3431
890.13	3523
890.254	3283
890.377	3359
890.501	3214
890.624	3195
890.748	3317
890.871	3184
890.995	3112
891.118	3077
891.241	3207
891.364	3173
891.488	3302
891.611	3218
891.734	3230
891.857	3340
891.98	3264
892.103	3359
892.226	3317
892.349	3241
892.471	3131
892.594	3302
892.717	3321
892.839	3287
892.962	3291
893.085	3348
893.207	3313
893.33	3157
893.452	3222
893.575	3424
893.697	3241
893.819	3507
893.941	3545
894.064	3469
894.186	3313
894.308	3264
894.43	3466
894.552	3515
894.674	3488
894.796	3272
894.918	3348
895.04	3313
895.161	3428
895.283	3405
895.405	3325
895.526	3374
895.648	3435
895.769	3447
895.891	3515
896.012	3443
896.134	3466
896.255	3462
896.376	3409
896.498	3348
896.619	3393
896.74	3344
896.861	3447
896.982	3705
897.103	3865
897.224	3561
897.345	3523
897.466	3477
897.587	3523
897.708	3686
897.828	3542
897.949	3439
898.07	3336
898.19	3393
898.311	3618
898.431	3473
898.552	3545
898.672	3625
898.792	3580
898.913	3530
899.033	3416
899.153	3298
899.273	3222
899.393	3268
899.513	3310
899.633	3283
899.753	3298
899.873	3329
899.993	3389
900.113	3363
900.232	3416
900.352	3367
900.472	3294
900.591	3226
900.711	3302
900.83	3298
900.95	3420
901.069	3496
901.189	3370
901.308	3207
901.427	3180
901.546	3169
901.665	3306
901.784	3325
901.904	3218
902.023	3169
902.141	2990
902.26	2982
902.379	3138
902.498	3104
902.617	3070
902.735	3218
902.854	3214
902.973	3218
903.091	3028
903.21	3077
903.328	3131
903.446	3142
903.565	3131
903.683	3195
903.801	3138
903.919	3237
904.038	3279
904.156	3169
904.274	3298
904.392	3218
904.51	3264
904.627	3382
904.745	3458
904.863	3485
904.981	3294
905.098	3184
905.216	3245
905.334	3348
905.451	3310
905.569	3291
905.686	3469
905.803	3424
905.921	3321
906.038	3443
906.155	3389
906.272	3306
906.389	3348
906.506	3230
906.623	3249
906.74	3302
906.857	3184
906.974	3272
907.091	3447
907.208	3557
907.324	3542
907.441	3359
907.557	3233
907.674	3237
907.79	3222
907.907	3253
908.023	3386
908.139	3363
908.256	3344
908.372	3363
908.488	3306
908.604	3222
908.72	3226
908.836	3287
908.952	3294
909.068	3340
909.184	3485
909.3	3382
909.415	3534
909.531	3481
909.647	3283
909.762	3283
909.878	3264
909.993	3348
910.108	3348
910.224	3313
910.339	3428
910.454	3351
910.57	3313
910.685	3260
910.8	3591
910.915	3572
911.03	3462
911.145	3264
911.259	3279
911.374	3344
911.489	3272
911.604	3249
911.718	3146
911.833	3157
911.947	3055
912.062	2975
912.176	3169
912.291	3184
912.405	3207
912.519	3420
912.633	3488
912.748	3351
912.862	3291
912.976	3176
913.09	3058
913.204	3150
913.318	3226
913.431	3321
913.545	3325
913.659	3420
913.772	3386
913.886	3249
914	3249
914.113	3367
914.226	3447
914.34	3389
914.453	3218
914.566	3435
914.68	3279
914.793	3348
914.906	3165
915.019	3127
915.132	3085
915.245	3188
915.358	3218
915.47	3253
915.583	3283
915.696	3340
915.809	3443
915.921	3405
916.034	3237
916.146	3268
916.259	3203
916.371	3397
916.483	3393
916.595	3245
916.708	3313
916.82	3348
916.932	3329
917.044	3340
917.156	3382
917.268	3294
917.38	3294
917.491	3306
917.603	3367
917.715	3473
917.826	3466
917.938	3397
918.049	3294
918.161	3416
918.272	3568
918.384	3587
918.495	3466
918.606	3355
918.717	3302
918.828	3378
918.939	3420
919.05	3321
919.161	3374
919.272	3188
919.383	3279
919.494	3500
919.604	3686
919.715	3477
919.826	3443
919.936	3458
920.047	3618
920.157	3599
920.267	3732
920.378	3584
920.488	3549
920.598	3800
920.708	3960
920.818	3804
920.928	3812
921.038	4025
921.148	4006
921.258	3759
921.368	3637
921.477	3564
921.587	3542
921.697	3492
921.806	3660
921.916	3500
922.025	3355
922.134	3378
922.244	3310
922.353	3409
922.462	3253
922.571	3256
922.68	3058
922.789	3100
922.898	3116
923.007	3123
923.116	3249
923.224	3169
923.333	3188
923.442	3058
923.55	3112
923.659	3131
923.767	3207
923.876	3131
923.984	3214
924.092	3077
924.201	3214
924.309	3214
924.417	3279
924.525	3169
924.633	3222
924.741	4158
924.849	3074
924.956	3241
925.064	3081
925.172	3017
925.279	3119
925.387	3169
925.494	3218
925.602	3348
925.709	3329
925.816	3188
925.924	3249
926.031	3378
926.138	3317
926.245	3367
926.352	3291
926.459	3431
926.566	3473
926.673	3310
926.779	3256
926.886	3264
926.993	3169
927.099	3138
927.206	3119
927.312	3127
927.419	3256
927.525	3199
927.631	3268
927.737	3089
927.843	3100
927.95	3036
928.056	3161
928.162	3195
928.267	3218
928.373	3876
928.479	3313
928.585	3097
928.69	3211
928.796	3302
928.901	3165
929.007	3070
929.112	3245
929.218	3165
929.323	3157
929.428	3138
929.533	3306
929.638	3108
929.743	3173
929.848	3264
929.953	3233
930.058	3142
930.163	3028
930.267	3058
930.372	3241
930.477	3036
930.581	3317
930.685	3195
930.79	3058
930.894	3157
930.998	3097
931.103	3310
931.207	2967
931.311	2918
931.415	2906
931.519	2766
931.623	2819
