Data from test_V78500241_590.txt Node
Date: Fri Mar 25 16:19:17 CST 2022
User: usil
Spectrometer: V785-0024
Trigger mode: 0
Integration Time (sec): 4.000000E-1
Scans to average: 1
Nonlinearity correction enabled: false
Boxcar width: 0
Storing dark spectrum: false
XAxis mode: Wavelengths
Number of Pixels in Spectrum: 1024
>>>>>Begin Spectral Data<<<<<
801.071	2925
801.214	2925
801.356	2857
801.499	2876
801.641	2861
801.783	2937
801.926	3047
802.068	2956
802.211	2998
802.353	3024
802.496	2975
802.638	2994
802.78	3039
802.923	3077
803.065	3024
803.208	2876
803.35	2929
803.492	2937
803.635	2895
803.777	2743
803.919	2861
804.061	3176
804.204	2914
804.346	2929
804.488	2838
804.63	3001
804.773	2853
804.915	2922
805.057	3081
805.199	2910
805.341	2967
805.483	3039
805.626	3001
805.768	2960
805.91	3081
806.052	3081
806.194	3020
806.336	3230
806.478	3001
806.62	2971
806.762	2979
806.904	3070
807.046	3180
807.188	2979
807.33	2906
807.472	2952
807.614	2883
807.756	2956
807.898	2929
808.04	2880
808.182	2963
808.324	2960
808.465	2891
808.607	2883
808.749	2800
808.891	2834
809.033	2982
809.174	2963
809.316	2887
809.458	2887
809.6	2758
809.741	2762
809.883	2785
810.025	2868
810.166	2819
810.308	2804
810.45	2868
810.591	2800
810.733	2754
810.875	2815
811.016	2815
811.158	2785
811.299	2800
811.441	2941
811.582	2887
811.724	2819
811.865	2823
812.007	2883
812.148	2853
812.29	2864
812.431	2868
812.573	2937
812.714	2941
812.855	3055
812.997	3047
813.138	3077
813.279	3005
813.421	2986
813.562	2944
813.703	2834
813.845	2838
813.986	2788
814.127	2712
814.268	2826
814.41	2834
814.551	2826
814.692	2899
814.833	2815
814.974	2872
815.115	2952
815.256	2792
815.397	2792
815.539	2845
815.68	2777
815.821	2781
815.962	2956
816.103	2922
816.244	2906
816.385	2861
816.526	2963
816.666	2967
816.807	2720
816.948	2868
817.089	2887
817.23	2868
817.371	2781
817.512	2777
817.653	2796
817.793	2823
817.934	2838
818.075	2960
818.216	2982
818.356	3009
818.497	2887
818.638	2796
818.778	2842
818.919	2750
819.06	2746
819.2	2872
819.341	2796
819.481	2815
819.622	2906
819.762	3085
819.903	3036
820.043	2864
820.184	2883
820.324	2891
820.465	2971
820.605	2986
820.746	3005
820.886	2925
821.026	3089
821.167	3150
821.307	3245
821.447	3256
821.588	3207
821.728	3214
821.868	3169
822.008	3036
822.149	3157
822.289	3211
822.429	3051
822.569	3112
822.709	3169
822.849	3036
822.99	3039
823.13	3138
823.27	3192
823.41	3100
823.55	3127
823.69	3142
823.83	3211
823.97	3093
824.11	2990
824.25	2998
824.389	3032
824.529	3131
824.669	3055
824.809	3188
824.949	3218
825.089	3135
825.228	3180
825.368	2979
825.508	2994
825.648	2975
825.787	2994
825.927	3005
826.067	2967
826.206	2914
826.346	3036
826.485	3055
826.625	3127
826.765	3233
826.904	3226
827.044	2994
827.183	2880
827.323	2861
827.462	2963
827.601	2914
827.741	2929
827.88	2933
828.02	2830
828.159	2960
828.298	3058
828.437	3112
828.577	3047
828.716	3230
828.855	3032
828.994	2922
829.134	2887
829.273	2868
829.412	2842
829.551	2864
829.69	2891
829.829	2986
829.968	3108
830.107	3032
830.246	3017
830.385	2910
830.524	2872
830.663	2823
830.802	2724
830.941	2606
831.08	2667
831.219	2758
831.357	2762
831.496	2963
831.635	2731
831.774	2663
831.913	2640
832.051	2530
832.19	2594
832.329	2651
832.467	2530
832.606	2499
832.744	2602
832.883	2598
833.022	2571
833.16	2625
833.299	2701
833.437	2648
833.576	2674
833.714	2708
833.852	2720
833.991	2743
834.129	2842
834.267	2823
834.406	2815
834.544	2849
834.682	2872
834.821	2830
834.959	3047
835.097	2914
835.235	3032
835.373	2979
835.511	3005
835.65	2941
835.788	2982
835.926	2834
836.064	2811
836.202	2880
836.34	3093
836.478	3123
836.615	3036
836.753	3104
836.891	3199
837.029	3135
837.167	3089
837.305	3024
837.443	3028
837.58	2929
837.718	3142
837.856	3058
837.993	3058
838.131	3097
838.269	3138
838.406	3097
838.544	3074
838.681	2933
838.819	2883
838.956	2819
839.094	2857
839.231	2906
839.369	3005
839.506	3386
839.643	3218
839.781	3024
839.918	2933
840.055	3036
840.193	3024
840.33	3055
840.467	3062
840.604	3142
840.742	3405
840.879	3036
841.016	3058
841.153	3081
841.29	3325
841.427	3321
841.564	3272
841.701	3298
841.838	3211
841.975	3199
842.112	3173
842.249	3066
842.385	3062
842.522	3233
842.659	3070
842.796	3062
842.933	3089
843.069	3047
843.206	3036
843.343	3184
843.479	3108
843.616	3161
843.752	2883
843.889	2891
844.025	3116
844.162	2849
844.298	3066
844.435	2963
844.571	2914
844.708	3062
844.844	3207
844.98	3195
845.117	3157
845.253	3032
845.389	2994
845.525	3112
845.661	3085
845.798	3013
845.934	3127
846.07	3066
846.206	3230
846.342	3298
846.478	3260
846.614	3081
846.75	3062
846.886	3047
847.022	3214
847.158	3100
847.294	3154
847.429	3275
847.565	3226
847.701	3477
847.837	3047
847.972	3047
848.108	3142
848.244	3154
848.379	2990
848.515	2933
848.65	2929
848.786	2933
848.921	3017
849.057	3081
849.192	3135
849.328	3058
849.463	3108
849.598	3036
849.734	3017
849.869	2948
850.004	2883
850.14	2948
850.275	2944
850.41	2849
850.545	2872
850.68	2963
850.815	2963
850.95	2952
851.085	3142
851.22	3070
851.355	3024
851.49	2986
851.625	2986
851.76	3013
851.895	2922
852.03	2918
852.165	3028
852.299	3089
852.434	3154
852.569	3135
852.703	3161
852.838	3237
852.973	3363
853.107	3306
853.242	3146
853.376	3085
853.511	2975
853.645	3020
853.78	3207
853.914	3154
854.048	3127
854.183	3062
854.317	3146
854.451	3283
854.585	3146
854.72	3081
854.854	3195
854.988	3074
855.122	3070
855.256	2990
855.39	3097
855.524	3222
855.658	3180
855.792	3154
855.926	3192
856.06	3218
856.194	3253
856.327	3142
856.461	3077
856.595	3104
856.729	3066
856.862	3237
856.996	3146
857.13	3218
857.263	3184
857.397	3233
857.53	3089
857.664	3142
857.797	3233
857.931	3233
858.064	3169
858.197	3218
858.331	3100
858.464	3047
858.597	3032
858.731	3116
858.864	3119
858.997	3112
859.13	3138
859.263	3157
859.396	3192
859.529	3100
859.662	3062
859.795	3039
859.928	3108
860.061	3272
860.194	3313
860.327	3154
860.46	3085
860.592	3226
860.725	3287
860.858	3253
860.99	3089
861.123	3051
861.256	3085
861.388	3142
861.521	3709
861.653	3020
861.786	2986
861.918	3009
862.05	3051
862.183	3100
862.315	3142
862.447	3173
862.58	3051
862.712	2929
862.844	2861
862.976	3017
863.108	3005
863.24	3424
863.372	2906
863.504	2937
863.636	2937
863.768	3017
863.9	2979
864.032	2883
864.164	2963
864.296	3005
864.428	3097
864.559	3100
864.691	3066
864.823	3062
864.954	3062
865.086	3051
865.217	3013
865.349	2956
865.48	2998
865.612	3005
865.743	3146
865.875	2990
866.006	2952
866.137	2967
866.269	2979
866.4	2963
866.531	2899
866.662	2891
866.793	2880
866.924	2883
867.055	2967
867.186	2887
867.317	2883
867.448	2823
867.579	2842
867.71	2838
867.841	2845
867.972	2910
868.103	2887
868.233	2872
868.364	2899
868.495	2937
868.625	3062
868.756	3165
868.886	2982
869.017	3043
869.147	3157
869.278	3169
869.408	3013
869.539	3055
869.669	3062
869.799	3043
869.929	3173
870.06	3108
870.19	3302
870.32	3279
870.45	3317
870.58	3363
870.71	3462
870.84	3469
870.97	3310
871.1	3245
871.23	3469
871.36	3428
871.489	3332
871.619	3370
871.749	3416
871.879	3462
872.008	3462
872.138	3317
872.267	3264
872.397	3131
872.526	3119
872.656	2994
872.785	3104
872.915	3218
873.044	3268
873.173	3203
873.303	3275
873.432	3230
873.561	3230
873.69	3184
873.819	3127
873.948	3176
874.077	3077
874.206	3062
874.335	3058
874.464	3207
874.593	3317
874.722	3268
874.851	3359
874.979	3378
875.108	3302
875.237	3211
875.365	3116
875.494	3127
875.623	3237
875.751	3119
875.88	3100
876.008	3165
876.136	3214
876.265	3370
876.393	3534
876.521	3401
876.65	3450
876.778	3313
876.906	3214
877.034	3195
877.162	3211
877.29	3176
877.418	3226
877.546	3275
877.674	3272
877.802	3214
877.93	3241
878.058	3142
878.185	3112
878.313	3218
878.441	3203
878.568	3085
878.696	3119
878.824	3253
878.951	3291
879.079	3450
879.206	3614
879.333	3450
879.461	3340
879.588	3378
879.715	3488
879.842	3603
879.97	3389
880.097	3097
880.224	3157
880.351	3211
880.478	3237
880.605	3222
880.732	3169
880.859	3492
880.986	3283
881.112	3313
881.239	3211
881.366	3100
881.493	3051
881.619	3024
881.746	3070
881.872	3104
881.999	3093
882.125	3154
882.252	3233
882.378	3249
882.505	3405
882.631	3291
882.757	3135
882.883	3222
883.01	3237
883.136	3176
883.262	3077
883.388	3142
883.514	3313
883.64	3370
883.766	3325
883.892	3165
884.018	3222
884.143	3424
884.269	3538
884.395	3161
884.52	3161
884.646	3180
884.772	3123
884.897	3108
885.023	3237
885.148	3348
885.274	3386
885.399	3363
885.524	3268
885.65	3230
885.775	3279
885.9	3245
886.025	3424
886.15	3370
886.275	3294
886.4	3218
886.525	3344
886.65	3272
886.775	3226
886.9	3504
887.025	3599
887.149	3374
887.274	3233
887.399	3176
887.523	3184
887.648	3165
887.773	3192
887.897	3382
888.021	3435
888.146	3272
888.27	3443
888.395	3507
888.519	3431
888.643	3424
888.767	3439
888.891	3279
889.015	3192
889.139	3294
889.263	3211
889.387	3428
889.511	3481
889.635	3462
889.759	3260
889.883	3329
890.006	3397
890.13	3500
890.254	3233
890.377	3325
890.501	3192
890.624	3211
890.748	3306
890.871	3161
890.995	3085
891.118	3028
891.241	3169
891.364	3176
891.488	3325
891.611	3135
891.734	3222
891.857	3268
891.98	3245
892.103	3313
892.226	3245
892.349	3203
892.471	3108
892.594	3260
892.717	3272
892.839	3233
892.962	3245
893.085	3367
893.207	3249
893.33	3154
893.452	3180
893.575	3378
893.697	3230
893.819	3504
893.941	3454
894.064	3485
894.186	3264
894.308	3237
894.43	3485
894.552	3526
894.674	3454
894.796	3237
894.918	3268
895.04	3321
895.161	3428
895.283	3389
895.405	3272
895.526	3355
895.648	3450
895.769	3397
895.891	3420
896.012	3458
896.134	3477
896.255	3397
896.376	3382
896.498	3382
896.619	3424
896.74	3348
896.861	3420
896.982	3686
897.103	3823
897.224	3576
897.345	3469
897.466	3405
897.587	3458
897.708	3603
897.828	3587
897.949	3454
898.07	3313
898.19	3428
898.311	3580
898.431	3409
898.552	3496
898.672	3606
898.792	3545
898.913	3511
899.033	3401
899.153	3287
899.273	3188
899.393	3275
899.513	3313
899.633	3298
899.753	3313
899.873	3275
899.993	3382
900.113	3344
900.232	3355
900.352	3332
900.472	3298
900.591	3199
900.711	3310
900.83	3237
900.95	3420
901.069	3477
901.189	3359
901.308	3154
901.427	3123
901.546	3192
901.665	3283
901.784	3340
901.904	3211
902.023	3135
902.141	3005
902.26	2998
902.379	3119
902.498	3070
902.617	3039
902.735	3214
902.854	3245
902.973	3241
903.091	3028
903.21	3085
903.328	3154
903.446	3108
903.565	3131
903.683	3192
903.801	3138
903.919	3211
904.038	3260
904.156	3192
904.274	3256
904.392	3260
904.51	3294
904.627	3340
904.745	3462
904.863	3466
904.981	3245
905.098	3154
905.216	3226
905.334	3302
905.451	3317
905.569	3268
905.686	3397
905.803	3450
905.921	3287
906.038	3420
906.155	3344
906.272	3253
906.389	3336
906.506	3214
906.623	3268
906.74	3268
906.857	3154
906.974	3279
907.091	3435
907.208	3572
907.324	3507
907.441	3367
907.557	3245
907.674	3214
907.79	3203
907.907	3245
908.023	3367
908.139	3416
908.256	3332
908.372	3367
908.488	3340
908.604	3272
908.72	3207
908.836	3279
908.952	3287
909.068	3336
909.184	3485
909.3	3401
909.415	3485
909.531	3473
909.647	3294
909.762	3272
909.878	3260
909.993	3355
910.108	3363
910.224	3325
910.339	3389
910.454	3332
910.57	3287
910.685	3226
910.8	3580
910.915	3526
911.03	3424
911.145	3253
911.259	3260
911.374	3310
911.489	3260
911.604	3218
911.718	3074
911.833	3176
911.947	3039
912.062	2998
912.176	3154
912.291	3192
912.405	3211
912.519	3393
912.633	3450
912.748	3336
912.862	3294
912.976	3184
913.09	3039
913.204	3157
913.318	3226
913.431	3332
913.545	3321
913.659	3424
913.772	3332
913.886	3233
914	3218
914.113	3355
914.226	3416
914.34	3344
914.453	3222
914.566	3374
914.68	3264
914.793	3310
914.906	3154
915.019	3123
915.132	3028
915.245	3169
915.358	3230
915.47	3272
915.583	3291
915.696	3268
915.809	3374
915.921	3386
916.034	3256
916.146	3237
916.259	3264
916.371	3397
916.483	3374
916.595	3272
916.708	3348
916.82	3340
916.932	3332
917.044	3370
917.156	3355
917.268	3249
917.38	3306
917.491	3287
917.603	3317
917.715	3428
917.826	3492
917.938	3367
918.049	3264
918.161	3447
918.272	3603
918.384	3564
918.495	3488
918.606	3336
918.717	3275
918.828	3378
918.939	3386
919.05	3329
919.161	3374
919.272	3142
919.383	3294
919.494	3523
919.604	3675
919.715	3466
919.826	3374
919.936	3462
920.047	3591
920.157	3515
920.267	3793
920.378	3599
920.488	3530
920.598	3785
920.708	3964
920.818	3793
920.928	3823
921.038	3987
921.148	3983
921.258	3720
921.368	3625
921.477	3568
921.587	3576
921.697	3473
921.806	3652
921.916	3496
922.025	3336
922.134	3386
922.244	3302
922.353	3412
922.462	3275
922.571	3222
922.68	3116
922.789	3047
922.898	3154
923.007	3085
923.116	3192
923.224	3165
923.333	3173
923.442	3089
923.55	3085
923.659	3104
923.767	3226
923.876	3077
923.984	3264
924.092	3097
924.201	3207
924.309	3214
924.417	3256
924.525	3176
924.633	3218
924.741	3987
924.849	3062
924.956	3222
925.064	3089
925.172	3055
925.279	3104
925.387	3188
925.494	3230
925.602	3386
925.709	3336
925.816	3169
925.924	3272
926.031	3378
926.138	3389
926.245	3355
926.352	3249
926.459	3382
926.566	3462
926.673	3321
926.779	3218
926.886	3226
926.993	3142
927.099	3123
927.206	3138
927.312	3146
927.419	3203
927.525	3180
927.631	3256
927.737	3123
927.843	3169
927.95	2994
928.056	3169
928.162	3150
928.267	3245
928.373	3743
928.479	3306
928.585	3089
928.69	3184
928.796	3256
928.901	3199
929.007	3036
929.112	3195
929.218	3203
929.323	3150
929.428	3123
929.533	3336
929.638	3135
929.743	3150
929.848	3249
929.953	3233
930.058	3154
930.163	2994
930.267	3055
930.372	3192
930.477	3017
930.581	3294
930.685	3207
930.79	3051
930.894	3135
930.998	3085
931.103	3298
931.207	2937
931.311	2933
931.415	2925
931.519	2773
931.623	2777
