Data from test_V78500241_1235.txt Node
Date: Fri Mar 25 16:23:45 CST 2022
User: usil
Spectrometer: V785-0024
Trigger mode: 0
Integration Time (sec): 4.000000E-1
Scans to average: 1
Nonlinearity correction enabled: false
Boxcar width: 0
Storing dark spectrum: false
XAxis mode: Wavelengths
Number of Pixels in Spectrum: 1024
>>>>>Begin Spectral Data<<<<<
801.071	2895
801.214	2956
801.356	2864
801.499	2876
801.641	2872
801.783	2948
801.926	3043
802.068	3001
802.211	2982
802.353	3009
802.496	2971
802.638	3020
802.78	2990
802.923	3085
803.065	3001
803.208	2929
803.35	2891
803.492	2933
803.635	2941
803.777	2754
803.919	2849
804.061	3188
804.204	2910
804.346	2853
804.488	2834
804.63	2982
804.773	2872
804.915	2914
805.057	3039
805.199	2880
805.341	2914
805.483	3028
805.626	2994
805.768	2975
805.91	3066
806.052	3104
806.194	3043
806.336	3264
806.478	2971
806.62	2975
806.762	2979
806.904	3020
807.046	3188
807.188	2952
807.33	2899
807.472	2952
807.614	2910
807.756	2971
807.898	2925
808.04	2861
808.182	2975
808.324	2967
808.465	2883
808.607	2872
808.749	2788
808.891	2864
809.033	2952
809.174	2982
809.316	2887
809.458	2925
809.6	2777
809.741	2766
809.883	2754
810.025	2868
810.166	2861
810.308	2853
810.45	2838
810.591	2766
810.733	2804
810.875	2834
811.016	2792
811.158	2766
811.299	2804
811.441	2918
811.582	2922
811.724	2853
811.865	2857
812.007	2895
812.148	2883
812.29	2883
812.431	2895
812.573	2922
812.714	2937
812.855	3074
812.997	3085
813.138	3093
813.279	2979
813.421	2967
813.562	2960
813.703	2872
813.845	2883
813.986	2743
814.127	2727
814.268	2819
814.41	2838
814.551	2807
814.692	2880
814.833	2842
814.974	2895
815.115	2944
815.256	2830
815.397	2811
815.539	2864
815.68	2766
815.821	2811
815.962	2922
816.103	2925
816.244	2895
816.385	2842
816.526	2933
816.666	2899
816.807	2762
816.948	2838
817.089	2929
817.23	2853
817.371	2796
817.512	2792
817.653	2845
817.793	2811
817.934	2887
818.075	2975
818.216	3024
818.356	3017
818.497	2883
818.638	2773
818.778	2811
818.919	2792
819.06	2758
819.2	2902
819.341	2796
819.481	2800
819.622	2944
819.762	3066
819.903	3066
820.043	2910
820.184	2899
820.324	2906
820.465	3001
820.605	2998
820.746	3020
820.886	2902
821.026	3062
821.167	3123
821.307	3253
821.447	3302
821.588	3226
821.728	3211
821.868	3184
822.008	3062
822.149	3184
822.289	3226
822.429	3074
822.569	3085
822.709	3180
822.849	3039
822.99	3074
823.13	3142
823.27	3180
823.41	3074
823.55	3089
823.69	3154
823.83	3169
823.97	3104
824.11	3017
824.25	2994
824.389	3047
824.529	3119
824.669	3024
824.809	3176
824.949	3207
825.089	3207
825.228	3154
825.368	3013
825.508	2952
825.648	2948
825.787	2975
825.927	3005
826.067	2982
826.206	2941
826.346	3055
826.485	3077
826.625	3119
826.765	3256
826.904	3199
827.044	2982
827.183	2895
827.323	2868
827.462	3020
827.601	2887
827.741	2914
827.88	2952
828.02	2834
828.159	2986
828.298	3024
828.437	3135
828.577	3058
828.716	3214
828.855	3077
828.994	2922
829.134	2880
829.273	2929
829.412	2823
829.551	2857
829.69	2895
829.829	2975
829.968	3108
830.107	3028
830.246	2979
830.385	2918
830.524	2842
830.663	2800
830.802	2724
830.941	2651
831.08	2621
831.219	2750
831.357	2796
831.496	2967
831.635	2667
831.774	2644
831.913	2625
832.051	2556
832.19	2549
832.329	2686
832.467	2526
832.606	2484
832.744	2587
832.883	2583
833.022	2575
833.16	2655
833.299	2693
833.437	2682
833.576	2712
833.714	2735
833.852	2705
833.991	2769
834.129	2830
834.267	2788
834.406	2758
834.544	2876
834.682	2864
834.821	2876
834.959	3074
835.097	2906
835.235	3062
835.373	2963
835.511	3001
835.65	2967
835.788	2960
835.926	2834
836.064	2807
836.202	2834
836.34	3100
836.478	3154
836.615	3036
836.753	3104
836.891	3165
837.029	3176
837.167	3100
837.305	3028
837.443	3024
837.58	2979
837.718	3184
837.856	3085
837.993	3036
838.131	3104
838.269	3077
838.406	3074
838.544	3070
838.681	2948
838.819	2868
838.956	2815
839.094	2826
839.231	2918
839.369	2986
839.506	3370
839.643	3195
839.781	3024
839.918	2963
840.055	3043
840.193	3062
840.33	3077
840.467	3085
840.604	3180
840.742	3386
840.879	3055
841.016	3062
841.153	3157
841.29	3321
841.427	3317
841.564	3245
841.701	3329
841.838	3226
841.975	3131
842.112	3230
842.249	3100
842.385	3055
842.522	3249
842.659	3146
842.796	3070
842.933	3089
843.069	2994
843.206	3028
843.343	3173
843.479	3089
843.616	3131
843.752	2853
843.889	2845
844.025	3108
844.162	2845
844.298	3070
844.435	2967
844.571	2906
844.708	3097
844.844	3173
844.98	3211
845.117	3203
845.253	3009
845.389	2975
845.525	3066
845.661	3081
845.798	2979
845.934	3119
846.07	3009
846.206	3188
846.342	3317
846.478	3211
846.614	3097
846.75	3024
846.886	3032
847.022	3264
847.158	3127
847.294	3211
847.429	3233
847.565	3195
847.701	3504
847.837	3032
847.972	3001
848.108	3192
848.244	3116
848.379	2986
848.515	2902
848.65	2925
848.786	2937
848.921	3009
849.057	3085
849.192	3150
849.328	3055
849.463	3112
849.598	3070
849.734	3051
849.869	2971
850.004	2944
850.14	2941
850.275	2910
850.41	2853
850.545	2906
850.68	2929
850.815	2933
850.95	2941
851.085	3188
851.22	3089
851.355	3039
851.49	2986
851.625	2975
851.76	2971
851.895	2918
852.03	2887
852.165	3032
852.299	3108
852.434	3173
852.569	3127
852.703	3131
852.838	3253
852.973	3332
853.107	3317
853.242	3146
853.376	3085
853.511	3009
853.645	3036
853.78	3211
853.914	3085
854.048	3070
854.183	3047
854.317	3104
854.451	3275
854.585	3077
854.72	3097
854.854	3218
854.988	3028
855.122	3077
855.256	2986
855.39	3127
855.524	3230
855.658	3176
855.792	3135
855.926	3180
856.06	3211
856.194	3237
856.327	3131
856.461	3074
856.595	3089
856.729	3085
856.862	3195
856.996	3173
857.13	3188
857.263	3195
857.397	3256
857.53	3123
857.664	3138
857.797	3230
857.931	3256
858.064	3142
858.197	3195
858.331	3108
858.464	3074
858.597	2982
858.731	3150
858.864	3112
858.997	3066
859.13	3154
859.263	3161
859.396	3180
859.529	3066
859.662	3089
859.795	3077
859.928	3116
860.061	3222
860.194	3287
860.327	3112
860.46	3116
860.592	3226
860.725	3230
860.858	3237
860.99	3131
861.123	3039
861.256	3039
861.388	3150
861.521	3728
861.653	3013
861.786	2975
861.918	2971
862.05	3081
862.183	3051
862.315	3131
862.447	3169
862.58	3097
862.712	2922
862.844	2880
862.976	3032
863.108	3032
863.24	3355
863.372	2872
863.504	2971
863.636	2895
863.768	3017
863.9	2956
864.032	2914
864.164	2941
864.296	3005
864.428	3055
864.559	3089
864.691	3028
864.823	3039
864.954	2998
865.086	3051
865.217	2967
865.349	2941
865.48	2922
865.612	3001
865.743	3157
865.875	2990
866.006	2933
866.137	2998
866.269	2937
866.4	2895
866.531	2937
866.662	2883
866.793	2902
866.924	2861
867.055	2944
867.186	2941
867.317	2834
867.448	2861
867.579	2849
867.71	2838
867.841	2811
867.972	2895
868.103	2887
868.233	2864
868.364	2895
868.495	2880
868.625	3058
868.756	3157
868.886	2963
869.017	3032
869.147	3146
869.278	3192
869.408	3032
869.539	2994
869.669	3085
869.799	3032
869.929	3097
870.06	3108
870.19	3340
870.32	3241
870.45	3306
870.58	3370
870.71	3466
870.84	3409
870.97	3249
871.1	3245
871.23	3481
871.36	3424
871.489	3317
871.619	3382
871.749	3374
871.879	3431
872.008	3443
872.138	3374
872.267	3302
872.397	3097
872.526	3077
872.656	3017
872.785	3085
872.915	3256
873.044	3332
873.173	3237
873.303	3230
873.432	3245
873.561	3226
873.69	3127
873.819	3146
873.948	3207
874.077	3097
874.206	3043
874.335	3062
874.464	3173
874.593	3386
874.722	3237
874.851	3378
874.979	3317
875.108	3321
875.237	3245
875.365	3146
875.494	3176
875.623	3211
875.751	3089
875.88	3112
876.008	3203
876.136	3192
876.265	3367
876.393	3485
876.521	3435
876.65	3409
876.778	3325
876.906	3218
877.034	3180
877.162	3211
877.29	3180
877.418	3256
877.546	3241
877.674	3226
877.802	3207
877.93	3226
878.058	3146
878.185	3108
878.313	3188
878.441	3233
878.568	3062
878.696	3150
878.824	3249
878.951	3264
879.079	3420
879.206	3629
879.333	3412
879.461	3317
879.588	3325
879.715	3439
879.842	3568
879.97	3393
880.097	3184
880.224	3135
880.351	3173
880.478	3203
880.605	3184
880.732	3169
880.859	3469
880.986	3294
881.112	3313
881.239	3161
881.366	3104
881.493	3013
881.619	3013
881.746	3051
881.872	3062
881.999	3116
882.125	3116
882.252	3214
882.378	3268
882.505	3431
882.631	3272
882.757	3173
882.883	3207
883.01	3180
883.136	3119
883.262	3097
883.388	3112
883.514	3294
883.64	3367
883.766	3256
883.892	3131
884.018	3241
884.143	3386
884.269	3500
884.395	3218
884.52	3176
884.646	3173
884.772	3138
884.897	3138
885.023	3188
885.148	3298
885.274	3405
885.399	3348
885.524	3268
885.65	3260
885.775	3325
885.9	3264
886.025	3447
886.15	3374
886.275	3302
886.4	3218
886.525	3302
886.65	3260
886.775	3279
886.9	3488
887.025	3599
887.149	3378
887.274	3230
887.399	3157
887.523	3195
887.648	3180
887.773	3207
887.897	3336
888.021	3447
888.146	3291
888.27	3435
888.395	3500
888.519	3435
888.643	3473
888.767	3443
888.891	3272
889.015	3256
889.139	3275
889.263	3283
889.387	3397
889.511	3526
889.635	3500
889.759	3268
889.883	3268
890.006	3367
890.13	3424
890.254	3249
890.377	3321
890.501	3157
890.624	3188
890.748	3332
890.871	3150
890.995	3142
891.118	3077
891.241	3150
891.364	3199
891.488	3344
891.611	3165
891.734	3192
891.857	3298
891.98	3253
892.103	3310
892.226	3294
892.349	3203
892.471	3089
892.594	3226
892.717	3310
892.839	3260
892.962	3291
893.085	3374
893.207	3283
893.33	3184
893.452	3195
893.575	3283
893.697	3241
893.819	3485
893.941	3488
894.064	3412
894.186	3264
894.308	3272
894.43	3420
894.552	3481
894.674	3462
894.796	3268
894.918	3310
895.04	3283
895.161	3378
895.283	3412
895.405	3317
895.526	3386
895.648	3389
895.769	3401
895.891	3450
896.012	3473
896.134	3409
896.255	3428
896.376	3397
896.498	3336
896.619	3412
896.74	3336
896.861	3428
896.982	3667
897.103	3850
897.224	3599
897.345	3504
897.466	3431
897.587	3507
897.708	3606
897.828	3526
897.949	3409
898.07	3340
898.19	3370
898.311	3603
898.431	3458
898.552	3481
898.672	3595
898.792	3542
898.913	3504
899.033	3412
899.153	3279
899.273	3192
899.393	3272
899.513	3310
899.633	3268
899.753	3294
899.873	3275
899.993	3367
900.113	3359
900.232	3363
900.352	3310
900.472	3298
900.591	3233
900.711	3306
900.83	3211
900.95	3401
901.069	3488
901.189	3340
901.308	3131
901.427	3097
901.546	3184
901.665	3298
901.784	3332
901.904	3192
902.023	3104
902.141	3005
902.26	2982
902.379	3146
902.498	3062
902.617	3005
902.735	3203
902.854	3195
902.973	3222
903.091	3036
903.21	3058
903.328	3142
903.446	3104
903.565	3093
903.683	3195
903.801	3077
903.919	3233
904.038	3302
904.156	3180
904.274	3275
904.392	3226
904.51	3317
904.627	3302
904.745	3409
904.863	3477
904.981	3222
905.098	3165
905.216	3241
905.334	3272
905.451	3306
905.569	3283
905.686	3424
905.803	3409
905.921	3245
906.038	3416
906.155	3351
906.272	3245
906.389	3321
906.506	3203
906.623	3207
906.74	3298
906.857	3184
906.974	3237
907.091	3439
907.208	3523
907.324	3469
907.441	3351
907.557	3245
907.674	3207
907.79	3214
907.907	3287
908.023	3378
908.139	3386
908.256	3329
908.372	3348
908.488	3332
908.604	3260
908.72	3256
908.836	3291
908.952	3272
909.068	3329
909.184	3462
909.3	3355
909.415	3473
909.531	3435
909.647	3275
909.762	3253
909.878	3245
909.993	3359
910.108	3344
910.224	3306
910.339	3374
910.454	3313
910.57	3298
910.685	3264
910.8	3618
910.915	3515
911.03	3469
911.145	3260
911.259	3291
911.374	3306
911.489	3253
911.604	3237
911.718	3138
911.833	3195
911.947	3024
912.062	2990
912.176	3195
912.291	3165
912.405	3188
912.519	3416
912.633	3485
912.748	3336
912.862	3283
912.976	3165
913.09	3047
913.204	3146
913.318	3184
913.431	3363
913.545	3313
913.659	3447
913.772	3272
913.886	3222
914	3188
914.113	3355
914.226	3405
914.34	3336
914.453	3241
914.566	3370
914.68	3260
914.793	3302
914.906	3157
915.019	3116
915.132	3062
915.245	3184
915.358	3233
915.47	3233
915.583	3226
915.696	3260
915.809	3374
915.921	3416
916.034	3214
916.146	3253
916.259	3199
916.371	3340
916.483	3317
916.595	3264
916.708	3359
916.82	3321
916.932	3302
917.044	3329
917.156	3317
917.268	3245
917.38	3287
917.491	3279
917.603	3363
917.715	3454
917.826	3485
917.938	3386
918.049	3249
918.161	3424
918.272	3557
918.384	3553
918.495	3504
918.606	3344
918.717	3245
918.828	3332
918.939	3431
919.05	3287
919.161	3370
919.272	3138
919.383	3272
919.494	3473
919.604	3686
919.715	3458
919.826	3386
919.936	3435
920.047	3564
920.157	3561
920.267	3762
920.378	3637
920.488	3576
920.598	3732
920.708	3945
920.818	3804
920.928	3808
921.038	3968
921.148	3968
921.258	3690
921.368	3629
921.477	3614
921.587	3519
921.697	3405
921.806	3652
921.916	3515
922.025	3367
922.134	3370
922.244	3279
922.353	3443
922.462	3264
922.571	3233
922.68	3123
922.789	3077
922.898	3104
923.007	3085
923.116	3184
923.224	3150
923.333	3150
923.442	3085
923.55	3089
923.659	3154
923.767	3161
923.876	3119
923.984	3237
924.092	3058
924.201	3173
924.309	3207
924.417	3226
924.525	3169
924.633	3222
924.741	4010
924.849	3051
924.956	3245
925.064	3081
925.172	3043
925.279	3074
925.387	3180
925.494	3161
925.602	3355
925.709	3298
925.816	3142
925.924	3268
926.031	3386
926.138	3325
926.245	3374
926.352	3241
926.459	3393
926.566	3443
926.673	3291
926.779	3241
926.886	3230
926.993	3135
927.099	3093
927.206	3093
927.312	3100
927.419	3207
927.525	3226
927.631	3241
927.737	3127
927.843	3070
927.95	2998
928.056	3119
928.162	3165
928.267	3211
928.373	3831
928.479	3313
928.585	3093
928.69	3218
928.796	3230
928.901	3138
929.007	3028
929.112	3154
929.218	3161
929.323	3146
929.428	3116
929.533	3287
929.638	3131
929.743	3207
929.848	3268
929.953	3199
930.058	3123
930.163	3005
930.267	3043
930.372	3188
930.477	3013
930.581	3294
930.685	3104
930.79	3036
930.894	3097
930.998	3066
931.103	3241
931.207	2952
931.311	2906
931.415	2922
931.519	2769
931.623	2800
