Data from test_V78500241_1475.txt Node
Date: Fri Mar 25 16:25:25 CST 2022
User: usil
Spectrometer: V785-0024
Trigger mode: 0
Integration Time (sec): 4.000000E-1
Scans to average: 1
Nonlinearity correction enabled: false
Boxcar width: 0
Storing dark spectrum: false
XAxis mode: Wavelengths
Number of Pixels in Spectrum: 1024
>>>>>Begin Spectral Data<<<<<
801.071	2906
801.214	2937
801.356	2849
801.499	2887
801.641	2845
801.783	2925
801.926	3024
802.068	2948
802.211	2998
802.353	3047
802.496	2979
802.638	3001
802.78	3039
802.923	3058
803.065	2982
803.208	2880
803.35	2937
803.492	2933
803.635	2914
803.777	2792
803.919	2857
804.061	3165
804.204	2929
804.346	2891
804.488	2826
804.63	2967
804.773	2864
804.915	2902
805.057	3089
805.199	2929
805.341	2937
805.483	3013
805.626	3001
805.768	2975
805.91	3058
806.052	3112
806.194	2998
806.336	3195
806.478	3036
806.62	2948
806.762	2975
806.904	3039
807.046	3161
807.188	3013
807.33	2910
807.472	2975
807.614	2906
807.756	2990
807.898	2914
808.04	2918
808.182	2967
808.324	2956
808.465	2895
808.607	2872
808.749	2766
808.891	2834
809.033	2967
809.174	2982
809.316	2891
809.458	2864
809.6	2804
809.741	2754
809.883	2727
810.025	2845
810.166	2883
810.308	2834
810.45	2830
810.591	2754
810.733	2743
810.875	2830
811.016	2743
811.158	2754
811.299	2777
811.441	2895
811.582	2876
811.724	2826
811.865	2826
812.007	2849
812.148	2861
812.29	2857
812.431	2868
812.573	2948
812.714	2986
812.855	2986
812.997	3055
813.138	3123
813.279	2994
813.421	3005
813.562	2971
813.703	2864
813.845	2899
813.986	2788
814.127	2750
814.268	2830
814.41	2811
814.551	2807
814.692	2857
814.833	2819
814.974	2857
815.115	2975
815.256	2845
815.397	2800
815.539	2845
815.68	2777
815.821	2800
815.962	2948
816.103	2914
816.244	2868
816.385	2834
816.526	2998
816.666	2910
816.807	2735
816.948	2914
817.089	2910
817.23	2876
817.371	2746
817.512	2807
817.653	2872
817.793	2830
817.934	2883
818.075	2963
818.216	2971
818.356	3043
818.497	2891
818.638	2781
818.778	2804
818.919	2750
819.06	2750
819.2	2883
819.341	2845
819.481	2800
819.622	2883
819.762	3116
819.903	3020
820.043	2895
820.184	2941
820.324	2887
820.465	3009
820.605	3047
820.746	3001
820.886	2933
821.026	3081
821.167	3161
821.307	3230
821.447	3245
821.588	3233
821.728	3211
821.868	3150
822.008	3100
822.149	3173
822.289	3226
822.429	3097
822.569	3108
822.709	3173
822.849	3024
822.99	3085
823.13	3154
823.27	3192
823.41	3108
823.55	3154
823.69	3180
823.83	3165
823.97	3081
824.11	3043
824.25	2956
824.389	3039
824.529	3119
824.669	3081
824.809	3176
824.949	3241
825.089	3222
825.228	3123
825.368	3028
825.508	2975
825.648	2952
825.787	3009
825.927	3020
826.067	2956
826.206	2952
826.346	3032
826.485	3085
826.625	3093
826.765	3260
826.904	3173
827.044	2960
827.183	2925
827.323	2849
827.462	2994
827.601	2933
827.741	2887
827.88	2960
828.02	2826
828.159	2979
828.298	3001
828.437	3119
828.577	3043
828.716	3275
828.855	3074
828.994	2906
829.134	2857
829.273	2925
829.412	2830
829.551	2830
829.69	2864
829.829	2986
829.968	3142
830.107	2986
830.246	3024
830.385	2906
830.524	2864
830.663	2823
830.802	2712
830.941	2636
831.08	2644
831.219	2754
831.357	2769
831.496	2956
831.635	2739
831.774	2598
831.913	2674
832.051	2545
832.19	2575
832.329	2697
832.467	2526
832.606	2469
832.744	2564
832.883	2571
833.022	2587
833.16	2648
833.299	2689
833.437	2689
833.576	2712
833.714	2712
833.852	2731
833.991	2758
834.129	2845
834.267	2788
834.406	2769
834.544	2845
834.682	2830
834.821	2845
834.959	3043
835.097	2910
835.235	3074
835.373	2990
835.511	3005
835.65	2948
835.788	2937
835.926	2800
836.064	2785
836.202	2849
836.34	3036
836.478	3135
836.615	3017
836.753	3100
836.891	3180
837.029	3180
837.167	3077
837.305	3055
837.443	2979
837.58	2941
837.718	3119
837.856	3043
837.993	3043
838.131	3085
838.269	3131
838.406	3085
838.544	3058
838.681	2952
838.819	2929
838.956	2800
839.094	2826
839.231	2868
839.369	3005
839.506	3386
839.643	3214
839.781	2990
839.918	2963
840.055	3036
840.193	3077
840.33	3062
840.467	3066
840.604	3138
840.742	3424
840.879	3013
841.016	3036
841.153	3108
841.29	3336
841.427	3302
841.564	3275
841.701	3260
841.838	3192
841.975	3180
842.112	3237
842.249	3081
842.385	3036
842.522	3218
842.659	3097
842.796	3085
842.933	3116
843.069	3070
843.206	3043
843.343	3169
843.479	3093
843.616	3108
843.752	2887
843.889	2857
844.025	3055
844.162	2861
844.298	3077
844.435	2944
844.571	2864
844.708	3062
844.844	3161
844.98	3222
845.117	3195
845.253	3032
845.389	2990
845.525	3100
845.661	3089
845.798	3001
845.934	3085
846.07	3055
846.206	3203
846.342	3294
846.478	3233
846.614	3058
846.75	3032
846.886	3028
847.022	3237
847.158	3157
847.294	3214
847.429	3249
847.565	3195
847.701	3488
847.837	3047
847.972	3001
848.108	3142
848.244	3131
848.379	2944
848.515	2906
848.65	2914
848.786	2952
848.921	2979
849.057	3108
849.192	3123
849.328	3043
849.463	3077
849.598	3024
849.734	3055
849.869	2963
850.004	2906
850.14	2952
850.275	2933
850.41	2804
850.545	2887
850.68	2906
850.815	2925
850.95	2963
851.085	3157
851.22	3081
851.355	3028
851.49	2975
851.625	2994
851.76	2956
851.895	2933
852.03	2880
852.165	3009
852.299	3131
852.434	3131
852.569	3123
852.703	3154
852.838	3214
852.973	3302
853.107	3325
853.242	3089
853.376	3081
853.511	2963
853.645	2994
853.78	3249
853.914	3100
854.048	3131
854.183	3089
854.317	3081
854.451	3249
854.585	3093
854.72	3085
854.854	3203
854.988	3036
855.122	3089
855.256	3009
855.39	3097
855.524	3249
855.658	3184
855.792	3127
855.926	3176
856.06	3203
856.194	3249
856.327	3165
856.461	3074
856.595	3051
856.729	3112
856.862	3176
856.996	3135
857.13	3165
857.263	3245
857.397	3230
857.53	3146
857.664	3199
857.797	3207
857.931	3192
858.064	3154
858.197	3226
858.331	3135
858.464	3058
858.597	3024
858.731	3119
858.864	3138
858.997	3108
859.13	3165
859.263	3180
859.396	3211
859.529	3077
859.662	3081
859.795	3009
859.928	3146
860.061	3241
860.194	3237
860.327	3127
860.46	3081
860.592	3253
860.725	3222
860.858	3203
860.99	3116
861.123	3070
861.256	3020
861.388	3146
861.521	3861
861.653	3032
861.786	2952
861.918	2956
862.05	3066
862.183	3085
862.315	3173
862.447	3218
862.58	3081
862.712	2933
862.844	2864
862.976	2990
863.108	3017
863.24	3294
863.372	2895
863.504	2979
863.636	2952
863.768	3001
863.9	3001
864.032	2899
864.164	2933
864.296	3020
864.428	3081
864.559	3047
864.691	3043
864.823	3043
864.954	3013
865.086	3001
865.217	2979
865.349	2914
865.48	2979
865.612	3039
865.743	3131
865.875	2963
866.006	2956
866.137	2952
866.269	2937
866.4	2941
866.531	2910
866.662	2895
866.793	2876
866.924	2895
867.055	2994
867.186	2887
867.317	2853
867.448	2834
867.579	2853
867.71	2830
867.841	2788
867.972	2861
868.103	2922
868.233	2868
868.364	2902
868.495	2906
868.625	3043
868.756	3157
868.886	2967
869.017	3020
869.147	3173
869.278	3169
869.408	3028
869.539	2998
869.669	3116
869.799	3039
869.929	3135
870.06	3085
870.19	3325
870.32	3272
870.45	3275
870.58	3386
870.71	3450
870.84	3428
870.97	3291
871.1	3211
871.23	3454
871.36	3443
871.489	3332
871.619	3393
871.749	3450
871.879	3405
872.008	3492
872.138	3378
872.267	3287
872.397	3146
872.526	3100
872.656	2994
872.785	3127
872.915	3226
873.044	3313
873.173	3222
873.303	3245
873.432	3241
873.561	3245
873.69	3161
873.819	3123
873.948	3173
874.077	3081
874.206	3036
874.335	3112
874.464	3199
874.593	3363
874.722	3249
874.851	3336
874.979	3359
875.108	3317
875.237	3222
875.365	3173
875.494	3119
875.623	3218
875.751	3085
875.88	3077
876.008	3169
876.136	3211
876.265	3344
876.393	3500
876.521	3370
876.65	3409
876.778	3344
876.906	3268
877.034	3176
877.162	3222
877.29	3154
877.418	3272
877.546	3260
877.674	3207
877.802	3195
877.93	3260
878.058	3188
878.185	3112
878.313	3203
878.441	3207
878.568	3081
878.696	3150
878.824	3245
878.951	3279
879.079	3431
879.206	3599
879.333	3424
879.461	3348
879.588	3340
879.715	3450
879.842	3584
879.97	3370
880.097	3127
880.224	3123
880.351	3176
880.478	3195
880.605	3211
880.732	3173
880.859	3485
880.986	3325
881.112	3310
881.239	3150
881.366	3066
881.493	3009
881.619	3017
881.746	3066
881.872	3085
881.999	3077
882.125	3108
882.252	3226
882.378	3302
882.505	3447
882.631	3310
882.757	3161
882.883	3184
883.01	3184
883.136	3150
883.262	3058
883.388	3119
883.514	3287
883.64	3367
883.766	3332
883.892	3192
884.018	3241
884.143	3405
884.269	3477
884.395	3230
884.52	3138
884.646	3180
884.772	3097
884.897	3089
885.023	3226
885.148	3348
885.274	3424
885.399	3374
885.524	3253
885.65	3237
885.775	3344
885.9	3268
886.025	3389
886.15	3367
886.275	3294
886.4	3218
886.525	3310
886.65	3272
886.775	3279
886.9	3500
887.025	3587
887.149	3401
887.274	3233
887.399	3169
887.523	3245
887.648	3180
887.773	3157
887.897	3370
888.021	3378
888.146	3256
888.27	3420
888.395	3534
888.519	3412
888.643	3435
888.767	3466
888.891	3355
889.015	3256
889.139	3317
889.263	3249
889.387	3389
889.511	3526
889.635	3435
889.759	3264
889.883	3279
890.006	3401
890.13	3523
890.254	3272
890.377	3329
890.501	3218
890.624	3161
890.748	3272
890.871	3150
890.995	3081
891.118	3074
891.241	3184
891.364	3222
891.488	3283
891.611	3157
891.734	3222
891.857	3279
891.98	3230
892.103	3325
892.226	3287
892.349	3218
892.471	3112
892.594	3226
892.717	3256
892.839	3272
892.962	3264
893.085	3367
893.207	3302
893.33	3123
893.452	3218
893.575	3317
893.697	3245
893.819	3435
893.941	3496
894.064	3469
894.186	3226
894.308	3272
894.43	3466
894.552	3519
894.674	3473
894.796	3291
894.918	3279
895.04	3268
895.161	3420
895.283	3397
895.405	3340
895.526	3313
895.648	3412
895.769	3424
895.891	3462
896.012	3412
896.134	3443
896.255	3389
896.376	3378
896.498	3351
896.619	3439
896.74	3378
896.861	3386
896.982	3637
897.103	3838
897.224	3587
897.345	3507
897.466	3424
897.587	3488
897.708	3625
897.828	3549
897.949	3443
898.07	3321
898.19	3351
898.311	3606
898.431	3439
898.552	3534
898.672	3587
898.792	3534
898.913	3530
899.033	3428
899.153	3302
899.273	3188
899.393	3287
899.513	3298
899.633	3302
899.753	3321
899.873	3340
899.993	3367
900.113	3329
900.232	3348
900.352	3340
900.472	3321
900.591	3180
900.711	3313
900.83	3226
900.95	3431
901.069	3511
901.189	3363
901.308	3188
901.427	3119
901.546	3207
901.665	3264
901.784	3317
901.904	3184
902.023	3127
902.141	2998
902.26	2994
902.379	3138
902.498	3039
902.617	3039
902.735	3173
902.854	3222
902.973	3180
903.091	3005
903.21	3047
903.328	3100
903.446	3138
903.565	3100
903.683	3165
903.801	3135
903.919	3253
904.038	3268
904.156	3154
904.274	3264
904.392	3268
904.51	3268
904.627	3332
904.745	3405
904.863	3500
904.981	3268
905.098	3161
905.216	3195
905.334	3279
905.451	3287
905.569	3340
905.686	3393
905.803	3420
905.921	3310
906.038	3348
906.155	3359
906.272	3245
906.389	3344
906.506	3211
906.623	3241
906.74	3264
906.857	3173
906.974	3256
907.091	3412
907.208	3568
907.324	3458
907.441	3382
907.557	3230
907.674	3203
907.79	3207
907.907	3302
908.023	3401
908.139	3382
908.256	3294
908.372	3336
908.488	3351
908.604	3233
908.72	3264
908.836	3249
908.952	3272
909.068	3332
909.184	3431
909.3	3359
909.415	3477
909.531	3469
909.647	3245
909.762	3268
909.878	3291
909.993	3294
910.108	3336
910.224	3370
910.339	3367
910.454	3294
910.57	3241
910.685	3245
910.8	3591
910.915	3538
911.03	3405
911.145	3230
911.259	3241
911.374	3291
911.489	3245
911.604	3233
911.718	3176
911.833	3108
911.947	2982
912.062	2944
912.176	3150
912.291	3142
912.405	3173
912.519	3458
912.633	3405
912.748	3344
912.862	3222
912.976	3161
913.09	3047
913.204	3150
913.318	3203
913.431	3321
913.545	3306
913.659	3409
913.772	3298
913.886	3237
914	3192
914.113	3344
914.226	3386
914.34	3378
914.453	3180
914.566	3420
914.68	3253
914.793	3268
914.906	3104
915.019	3070
915.132	3028
915.245	3131
915.358	3188
915.47	3245
915.583	3268
915.696	3283
915.809	3397
915.921	3370
916.034	3249
916.146	3233
916.259	3207
916.371	3382
916.483	3351
916.595	3329
916.708	3310
916.82	3329
916.932	3348
917.044	3340
917.156	3363
917.268	3214
917.38	3340
917.491	3260
917.603	3370
917.715	3458
917.826	3485
917.938	3389
918.049	3272
918.161	3492
918.272	3545
918.384	3603
918.495	3477
918.606	3359
918.717	3268
918.828	3420
918.939	3450
919.05	3291
919.161	3409
919.272	3237
919.383	3291
919.494	3496
919.604	3720
919.715	3511
919.826	3462
919.936	3488
920.047	3599
920.157	3549
920.267	3770
920.378	3603
920.488	3603
920.598	3774
920.708	3975
920.818	3896
920.928	3831
921.038	4040
921.148	4025
921.258	3759
921.368	3663
921.477	3610
921.587	3591
921.697	3477
921.806	3648
921.916	3564
922.025	3370
922.134	3428
922.244	3348
922.353	3469
922.462	3291
922.571	3264
922.68	3150
922.789	3104
922.898	3203
923.007	3169
923.116	3195
923.224	3233
923.333	3218
923.442	3112
923.55	3116
923.659	3184
923.767	3306
923.876	3161
923.984	3253
924.092	3127
924.201	3237
924.309	3283
924.417	3275
924.525	3203
924.633	3268
924.741	4215
924.849	3085
924.956	3302
925.064	3119
925.172	3081
925.279	3108
925.387	3268
925.494	3214
925.602	3397
925.709	3348
925.816	3233
925.924	3321
926.031	3412
926.138	3340
926.245	3378
926.352	3313
926.459	3462
926.566	3473
926.673	3363
926.779	3283
926.886	3237
926.993	3154
927.099	3154
927.206	3142
927.312	3154
927.419	3275
927.525	3283
927.631	3313
927.737	3188
927.843	3150
927.95	3058
928.056	3199
928.162	3195
928.267	3268
928.373	3827
928.479	3294
928.585	3097
928.69	3253
928.796	3325
928.901	3222
929.007	3119
929.112	3237
929.218	3241
929.323	3199
929.428	3165
929.533	3344
929.638	3119
929.743	3192
929.848	3317
929.953	3237
930.058	3146
930.163	2998
930.267	3074
930.372	3260
930.477	3100
930.581	3374
930.685	3218
930.79	3104
930.894	3146
930.998	3093
931.103	3306
931.207	2956
931.311	2956
931.415	2948
931.519	2845
931.623	2853
