Data from test_V78500241_1194.txt Node
Date: Fri Mar 25 16:23:28 CST 2022
User: usil
Spectrometer: V785-0024
Trigger mode: 0
Integration Time (sec): 4.000000E-1
Scans to average: 1
Nonlinearity correction enabled: false
Boxcar width: 0
Storing dark spectrum: false
XAxis mode: Wavelengths
Number of Pixels in Spectrum: 1024
>>>>>Begin Spectral Data<<<<<
801.071	2895
801.214	2944
801.356	2861
801.499	2895
801.641	2880
801.783	2910
801.926	3009
802.068	2975
802.211	2971
802.353	3028
802.496	2937
802.638	3024
802.78	3020
802.923	3039
803.065	2986
803.208	2918
803.35	2918
803.492	2941
803.635	2929
803.777	2777
803.919	2864
804.061	3195
804.204	2963
804.346	2914
804.488	2845
804.63	2994
804.773	2883
804.915	2960
805.057	3074
805.199	2925
805.341	2941
805.483	3047
805.626	3001
805.768	2994
805.91	3093
806.052	3123
806.194	3047
806.336	3249
806.478	3020
806.62	2971
806.762	2998
806.904	3032
807.046	3157
807.188	2956
807.33	2891
807.472	2975
807.614	2914
807.756	2975
807.898	2933
808.04	2902
808.182	2982
808.324	2963
808.465	2872
808.607	2838
808.749	2807
808.891	2895
809.033	2975
809.174	2990
809.316	2880
809.458	2902
809.6	2766
809.741	2769
809.883	2739
810.025	2861
810.166	2845
810.308	2834
810.45	2864
810.591	2758
810.733	2735
810.875	2838
811.016	2800
811.158	2762
811.299	2830
811.441	2899
811.582	2864
811.724	2815
811.865	2815
812.007	2941
812.148	2849
812.29	2842
812.431	2906
812.573	2891
812.714	2963
812.855	3028
812.997	3051
813.138	3146
813.279	3013
813.421	2975
813.562	2944
813.703	2883
813.845	2842
813.986	2743
814.127	2708
814.268	2811
814.41	2792
814.551	2796
814.692	2872
814.833	2845
814.974	2853
815.115	2944
815.256	2861
815.397	2769
815.539	2842
815.68	2781
815.821	2792
815.962	2937
816.103	2914
816.244	2861
816.385	2864
816.526	2986
816.666	2910
816.807	2727
816.948	2853
817.089	2872
817.23	2804
817.371	2788
817.512	2785
817.653	2815
817.793	2800
817.934	2861
818.075	2933
818.216	2990
818.356	3070
818.497	2910
818.638	2792
818.778	2830
818.919	2804
819.06	2758
819.2	2868
819.341	2792
819.481	2792
819.622	2918
819.762	3077
819.903	3017
820.043	2937
820.184	2883
820.324	2906
820.465	2979
820.605	2948
820.746	3036
820.886	2887
821.026	3077
821.167	3176
821.307	3279
821.447	3272
821.588	3241
821.728	3173
821.868	3176
822.008	3108
822.149	3180
822.289	3192
822.429	3055
822.569	3077
822.709	3154
822.849	3028
822.99	3043
823.13	3131
823.27	3211
823.41	3085
823.55	3165
823.69	3138
823.83	3245
823.97	3123
824.11	3017
824.25	2971
824.389	3093
824.529	3108
824.669	3066
824.809	3165
824.949	3233
825.089	3180
825.228	3161
825.368	3001
825.508	2948
825.648	3005
825.787	2986
825.927	3013
826.067	2998
826.206	2979
826.346	3036
826.485	3074
826.625	3074
826.765	3241
826.904	3161
827.044	2986
827.183	2918
827.323	2868
827.462	2967
827.601	2906
827.741	2922
827.88	2975
828.02	2842
828.159	2990
828.298	3036
828.437	3138
828.577	3017
828.716	3222
828.855	3036
828.994	2899
829.134	2895
829.273	2929
829.412	2842
829.551	2880
829.69	2899
829.829	2986
829.968	3093
830.107	3005
830.246	3009
830.385	2899
830.524	2887
830.663	2788
830.802	2682
830.941	2655
831.08	2674
831.219	2724
831.357	2735
831.496	2944
831.635	2701
831.774	2636
831.913	2648
832.051	2507
832.19	2583
832.329	2678
832.467	2526
832.606	2469
832.744	2583
832.883	2594
833.022	2564
833.16	2625
833.299	2686
833.437	2705
833.576	2708
833.714	2705
833.852	2716
833.991	2743
834.129	2845
834.267	2845
834.406	2785
834.544	2830
834.682	2857
834.821	2880
834.959	3024
835.097	2887
835.235	3039
835.373	2998
835.511	3013
835.65	2922
835.788	2975
835.926	2811
836.064	2823
836.202	2853
836.34	3058
836.478	3112
836.615	3028
836.753	3157
836.891	3211
837.029	3169
837.167	3131
837.305	3097
837.443	3058
837.58	2925
837.718	3100
837.856	3039
837.993	3032
838.131	3142
838.269	3112
838.406	3112
838.544	3070
838.681	2948
838.819	2883
838.956	2788
839.094	2861
839.231	2895
839.369	2979
839.506	3348
839.643	3222
839.781	3013
839.918	2994
840.055	3024
840.193	3028
840.33	3051
840.467	3089
840.604	3131
840.742	3412
840.879	3085
841.016	3039
841.153	3074
841.29	3287
841.427	3325
841.564	3260
841.701	3351
841.838	3203
841.975	3169
842.112	3207
842.249	3062
842.385	3077
842.522	3230
842.659	3093
842.796	3047
842.933	3062
843.069	3055
843.206	3043
843.343	3211
843.479	3119
843.616	3157
843.752	2933
843.889	2857
844.025	3089
844.162	2895
844.298	3070
844.435	2960
844.571	2899
844.708	3055
844.844	3199
844.98	3241
845.117	3157
845.253	3051
845.389	3005
845.525	3112
845.661	3100
845.798	3005
845.934	3127
846.07	3077
846.206	3226
846.342	3268
846.478	3226
846.614	3085
846.75	3077
846.886	3024
847.022	3253
847.158	3127
847.294	3203
847.429	3272
847.565	3241
847.701	3523
847.837	3009
847.972	2982
848.108	3127
848.244	3135
848.379	3009
848.515	2956
848.65	2933
848.786	2948
848.921	3009
849.057	3077
849.192	3116
849.328	3051
849.463	3074
849.598	3070
849.734	3028
849.869	2982
850.004	2895
850.14	2960
850.275	2918
850.41	2826
850.545	2902
850.68	2948
850.815	2922
850.95	2967
851.085	3226
851.22	3123
851.355	3017
851.49	2994
851.625	3043
851.76	2998
851.895	2990
852.03	2899
852.165	3032
852.299	3093
852.434	3192
852.569	3138
852.703	3180
852.838	3249
852.973	3336
853.107	3321
853.242	3104
853.376	3081
853.511	2971
853.645	3017
853.78	3192
853.914	3119
854.048	3100
854.183	3032
854.317	3146
854.451	3241
854.585	3154
854.72	3062
854.854	3241
854.988	3070
855.122	3077
855.256	2990
855.39	3116
855.524	3245
855.658	3146
855.792	3138
855.926	3157
856.06	3233
856.194	3233
856.327	3119
856.461	3097
856.595	3070
856.729	3093
856.862	3226
856.996	3119
857.13	3218
857.263	3199
857.397	3264
857.53	3062
857.664	3176
857.797	3237
857.931	3233
858.064	3131
858.197	3195
858.331	3161
858.464	3077
858.597	2982
858.731	3097
858.864	3135
858.997	3085
859.13	3165
859.263	3146
859.396	3222
859.529	3077
859.662	3055
859.795	3051
859.928	3188
860.061	3272
860.194	3268
860.327	3077
860.46	3089
860.592	3237
860.725	3211
860.858	3233
860.99	3100
861.123	3024
861.256	3028
861.388	3157
861.521	3671
861.653	2998
861.786	2982
861.918	3036
862.05	3081
862.183	3077
862.315	3150
862.447	3157
862.58	3089
862.712	2929
862.844	2861
862.976	3005
863.108	2998
863.24	3325
863.372	2887
863.504	2979
863.636	2929
863.768	2986
863.9	3001
864.032	2906
864.164	2937
864.296	3051
864.428	3127
864.559	3097
864.691	3051
864.823	3066
864.954	3043
865.086	3051
865.217	3020
865.349	2956
865.48	2952
865.612	3051
865.743	3131
865.875	2971
866.006	2925
866.137	2982
866.269	2948
866.4	2922
866.531	2902
866.662	2895
866.793	2883
866.924	2891
867.055	2956
867.186	2906
867.317	2864
867.448	2826
867.579	2857
867.71	2845
867.841	2785
867.972	2910
868.103	2914
868.233	2883
868.364	2880
868.495	2887
868.625	3058
868.756	3157
868.886	2994
869.017	3017
869.147	3188
869.278	3161
869.408	3047
869.539	3009
869.669	3089
869.799	3020
869.929	3119
870.06	3089
870.19	3332
870.32	3298
870.45	3302
870.58	3355
870.71	3412
870.84	3409
870.97	3298
871.1	3245
871.23	3477
871.36	3443
871.489	3344
871.619	3397
871.749	3420
871.879	3409
872.008	3454
872.138	3378
872.267	3237
872.397	3161
872.526	3070
872.656	3032
872.785	3074
872.915	3226
873.044	3283
873.173	3211
873.303	3233
873.432	3253
873.561	3226
873.69	3157
873.819	3108
873.948	3192
874.077	3119
874.206	3009
874.335	3123
874.464	3218
874.593	3351
874.722	3272
874.851	3363
874.979	3332
875.108	3306
875.237	3199
875.365	3173
875.494	3138
875.623	3211
875.751	3097
875.88	3135
876.008	3173
876.136	3253
876.265	3378
876.393	3492
876.521	3416
876.65	3386
876.778	3321
876.906	3241
877.034	3218
877.162	3214
877.29	3127
877.418	3233
877.546	3268
877.674	3218
877.802	3218
877.93	3188
878.058	3146
878.185	3116
878.313	3203
878.441	3195
878.568	3047
878.696	3142
878.824	3237
878.951	3264
879.079	3488
879.206	3618
879.333	3424
879.461	3336
879.588	3340
879.715	3473
879.842	3584
879.97	3386
880.097	3173
880.224	3104
880.351	3203
880.478	3233
880.605	3169
880.732	3195
880.859	3488
880.986	3332
881.112	3359
881.239	3176
881.366	3074
881.493	3058
881.619	3013
881.746	3039
881.872	3085
881.999	3097
882.125	3131
882.252	3253
882.378	3256
882.505	3416
882.631	3241
882.757	3161
882.883	3237
883.01	3230
883.136	3184
883.262	3070
883.388	3116
883.514	3348
883.64	3401
883.766	3348
883.892	3188
884.018	3241
884.143	3431
884.269	3492
884.395	3207
884.52	3165
884.646	3146
884.772	3100
884.897	3116
885.023	3203
885.148	3294
885.274	3397
885.399	3367
885.524	3241
885.65	3237
885.775	3283
885.9	3249
886.025	3439
886.15	3378
886.275	3283
886.4	3264
886.525	3256
886.65	3287
886.775	3279
886.9	3469
887.025	3656
887.149	3405
887.274	3253
887.399	3214
887.523	3222
887.648	3150
887.773	3207
887.897	3355
888.021	3412
888.146	3287
888.27	3416
888.395	3519
888.519	3401
888.643	3443
888.767	3454
888.891	3325
889.015	3241
889.139	3272
889.263	3214
889.387	3405
889.511	3496
889.635	3439
889.759	3275
889.883	3306
890.006	3397
890.13	3458
890.254	3233
890.377	3332
890.501	3226
890.624	3184
890.748	3283
890.871	3188
890.995	3085
891.118	3024
891.241	3173
891.364	3176
891.488	3317
891.611	3154
891.734	3230
891.857	3325
891.98	3241
892.103	3329
892.226	3256
892.349	3237
892.471	3104
892.594	3237
892.717	3256
892.839	3237
892.962	3302
893.085	3367
893.207	3317
893.33	3154
893.452	3192
893.575	3340
893.697	3249
893.819	3431
893.941	3488
894.064	3431
894.186	3264
894.308	3245
894.43	3424
894.552	3534
894.674	3435
894.796	3230
894.918	3260
895.04	3336
895.161	3435
895.283	3359
895.405	3253
895.526	3340
895.648	3431
895.769	3374
895.891	3393
896.012	3447
896.134	3450
896.255	3420
896.376	3386
896.498	3374
896.619	3416
896.74	3351
896.861	3428
896.982	3682
897.103	3800
897.224	3618
897.345	3485
897.466	3397
897.587	3477
897.708	3610
897.828	3603
897.949	3424
898.07	3355
898.19	3382
898.311	3572
898.431	3428
898.552	3500
898.672	3576
898.792	3538
898.913	3473
899.033	3389
899.153	3294
899.273	3188
899.393	3272
899.513	3268
899.633	3310
899.753	3332
899.873	3268
899.993	3409
900.113	3317
900.232	3409
900.352	3310
900.472	3237
900.591	3218
900.711	3291
900.83	3226
900.95	3397
901.069	3507
901.189	3313
901.308	3180
901.427	3116
901.546	3173
901.665	3291
901.784	3302
901.904	3169
902.023	3150
902.141	3028
902.26	3005
902.379	3165
902.498	3066
902.617	3013
902.735	3226
902.854	3211
902.973	3180
903.091	3024
903.21	3058
903.328	3112
903.446	3112
903.565	3119
903.683	3207
903.801	3104
903.919	3260
904.038	3306
904.156	3131
904.274	3268
904.392	3260
904.51	3294
904.627	3306
904.745	3431
904.863	3458
904.981	3291
905.098	3161
905.216	3249
905.334	3310
905.451	3348
905.569	3355
905.686	3435
905.803	3447
905.921	3287
906.038	3450
906.155	3355
906.272	3317
906.389	3321
906.506	3241
906.623	3253
906.74	3317
906.857	3161
906.974	3253
907.091	3424
907.208	3549
907.324	3443
907.441	3409
907.557	3211
907.674	3230
907.79	3188
907.907	3294
908.023	3370
908.139	3389
908.256	3355
908.372	3386
908.488	3363
908.604	3256
908.72	3203
908.836	3264
908.952	3264
909.068	3306
909.184	3492
909.3	3374
909.415	3500
909.531	3500
909.647	3264
909.762	3302
909.878	3245
909.993	3370
910.108	3325
910.224	3313
910.339	3424
910.454	3302
910.57	3302
910.685	3268
910.8	3538
910.915	3515
911.03	3412
911.145	3306
911.259	3256
911.374	3401
911.489	3249
911.604	3195
911.718	3146
911.833	3173
911.947	3051
912.062	2963
912.176	3142
912.291	3203
912.405	3207
912.519	3454
912.633	3439
912.748	3336
912.862	3268
912.976	3150
913.09	3020
913.204	3131
913.318	3211
913.431	3359
913.545	3340
913.659	3351
913.772	3317
913.886	3226
914	3222
914.113	3374
914.226	3389
914.34	3344
914.453	3173
914.566	3416
914.68	3264
914.793	3302
914.906	3116
915.019	3085
915.132	3077
915.245	3176
915.358	3195
915.47	3230
915.583	3211
915.696	3294
915.809	3367
915.921	3409
916.034	3233
916.146	3253
916.259	3218
916.371	3424
916.483	3382
916.595	3253
916.708	3321
916.82	3287
916.932	3344
917.044	3310
917.156	3363
917.268	3245
917.38	3325
917.491	3260
917.603	3370
917.715	3481
917.826	3458
917.938	3332
918.049	3272
918.161	3435
918.272	3553
918.384	3557
918.495	3481
918.606	3351
918.717	3256
918.828	3367
918.939	3405
919.05	3279
919.161	3336
919.272	3176
919.383	3245
919.494	3519
919.604	3686
919.715	3488
919.826	3378
919.936	3431
920.047	3584
920.157	3561
920.267	3747
920.378	3610
920.488	3534
920.598	3785
920.708	3922
920.818	3766
920.928	3846
921.038	4013
921.148	3953
921.258	3694
921.368	3614
921.477	3568
921.587	3530
921.697	3462
921.806	3622
921.916	3485
922.025	3306
922.134	3348
922.244	3336
922.353	3401
922.462	3245
922.571	3230
922.68	3100
922.789	3100
922.898	3108
923.007	3097
923.116	3192
923.224	3169
923.333	3173
923.442	3112
923.55	3055
923.659	3085
923.767	3218
923.876	3104
923.984	3260
924.092	3119
924.201	3157
924.309	3214
924.417	3264
924.525	3176
924.633	3245
924.741	3972
924.849	3036
924.956	3226
925.064	3093
925.172	3028
925.279	3093
925.387	3203
925.494	3173
925.602	3329
925.709	3336
925.816	3207
925.924	3268
926.031	3401
926.138	3294
926.245	3382
926.352	3253
926.459	3370
926.566	3507
926.673	3336
926.779	3184
926.886	3241
926.993	3184
927.099	3142
927.206	3104
927.312	3104
927.419	3268
927.525	3207
927.631	3279
927.737	3154
927.843	3116
927.95	2990
928.056	3161
928.162	3154
928.267	3241
928.373	3850
928.479	3272
928.585	3047
928.69	3233
928.796	3275
928.901	3180
929.007	3024
929.112	3195
929.218	3173
929.323	3157
929.428	3127
929.533	3294
929.638	3138
929.743	3188
929.848	3249
929.953	3226
930.058	3150
930.163	2986
930.267	3039
930.372	3199
930.477	3036
930.581	3306
930.685	3173
930.79	3055
930.894	3081
930.998	3097
931.103	3264
931.207	2956
931.311	2925
931.415	2925
931.519	2743
931.623	2819
