Data from test_V78500241_960.txt Node
Date: Fri Mar 25 16:21:51 CST 2022
User: usil
Spectrometer: V785-0024
Trigger mode: 0
Integration Time (sec): 4.000000E-1
Scans to average: 1
Nonlinearity correction enabled: false
Boxcar width: 0
Storing dark spectrum: false
XAxis mode: Wavelengths
Number of Pixels in Spectrum: 1024
>>>>>Begin Spectral Data<<<<<
801.071	2864
801.214	2937
801.356	2880
801.499	2883
801.641	2857
801.783	2895
801.926	3020
802.068	2979
802.211	3001
802.353	3055
802.496	2952
802.638	3020
802.78	3028
802.923	3077
803.065	3020
803.208	2906
803.35	2941
803.492	2922
803.635	2918
803.777	2743
803.919	2853
804.061	3218
804.204	2948
804.346	2891
804.488	2796
804.63	3001
804.773	2895
804.915	2922
805.057	3066
805.199	2925
805.341	2971
805.483	3028
805.626	3028
805.768	2956
805.91	3089
806.052	3116
806.194	3024
806.336	3218
806.478	3013
806.62	2960
806.762	2967
806.904	3039
807.046	3165
807.188	2990
807.33	2914
807.472	2971
807.614	2887
807.756	2994
807.898	2937
808.04	2880
808.182	2998
808.324	2963
808.465	2864
808.607	2895
808.749	2804
808.891	2845
809.033	2982
809.174	3001
809.316	2880
809.458	2891
809.6	2792
809.741	2804
809.883	2769
810.025	2838
810.166	2872
810.308	2849
810.45	2853
810.591	2785
810.733	2754
810.875	2815
811.016	2766
811.158	2788
811.299	2849
811.441	2933
811.582	2872
811.724	2834
811.865	2826
812.007	2891
812.148	2861
812.29	2804
812.431	2906
812.573	2914
812.714	2910
812.855	3039
812.997	3039
813.138	3123
813.279	2963
813.421	2986
813.562	2971
813.703	2857
813.845	2906
813.986	2769
814.127	2735
814.268	2758
814.41	2838
814.551	2830
814.692	2857
814.833	2796
814.974	2861
815.115	2937
815.256	2796
815.397	2834
815.539	2872
815.68	2739
815.821	2788
815.962	2902
816.103	2925
816.244	2868
816.385	2887
816.526	2956
816.666	2914
816.807	2739
816.948	2891
817.089	2868
817.23	2887
817.371	2773
817.512	2777
817.653	2842
817.793	2781
817.934	2872
818.075	2960
818.216	2986
818.356	3055
818.497	2887
818.638	2758
818.778	2800
818.919	2781
819.06	2739
819.2	2883
819.341	2796
819.481	2792
819.622	2895
819.762	3104
819.903	3032
820.043	2952
820.184	2899
820.324	2876
820.465	3017
820.605	3013
820.746	3036
820.886	2910
821.026	3100
821.167	3184
821.307	3230
821.447	3256
821.588	3218
821.728	3214
821.868	3188
822.008	3077
822.149	3142
822.289	3214
822.429	3077
822.569	3074
822.709	3207
822.849	3017
822.99	3081
823.13	3146
823.27	3184
823.41	3100
823.55	3100
823.69	3165
823.83	3192
823.97	3112
824.11	2982
824.25	2948
824.389	3047
824.529	3112
824.669	3066
824.809	3218
824.949	3230
825.089	3203
825.228	3157
825.368	3013
825.508	2925
825.648	2925
825.787	3013
825.927	3028
826.067	2948
826.206	2922
826.346	3051
826.485	3051
826.625	3108
826.765	3253
826.904	3214
827.044	2975
827.183	2887
827.323	2845
827.462	3032
827.601	2895
827.741	2910
827.88	2952
828.02	2849
828.159	2963
828.298	3047
828.437	3127
828.577	3024
828.716	3226
828.855	3047
828.994	2925
829.134	2880
829.273	2887
829.412	2857
829.551	2880
829.69	2845
829.829	2975
829.968	3112
830.107	3005
830.246	2975
830.385	2891
830.524	2880
830.663	2807
830.802	2716
830.941	2640
831.08	2655
831.219	2785
831.357	2743
831.496	2941
831.635	2724
831.774	2621
831.913	2667
832.051	2568
832.19	2575
832.329	2678
832.467	2564
832.606	2503
832.744	2575
832.883	2587
833.022	2564
833.16	2693
833.299	2667
833.437	2682
833.576	2716
833.714	2720
833.852	2735
833.991	2739
834.129	2838
834.267	2811
834.406	2788
834.544	2872
834.682	2922
834.821	2849
834.959	3055
835.097	2899
835.235	3051
835.373	2998
835.511	3005
835.65	2956
835.788	2956
835.926	2811
836.064	2807
836.202	2838
836.34	3058
836.478	3135
836.615	3024
836.753	3112
836.891	3169
837.029	3131
837.167	3100
837.305	3028
837.443	3043
837.58	2986
837.718	3116
837.856	3055
837.993	3036
838.131	3135
838.269	3062
838.406	3089
838.544	3070
838.681	2960
838.819	2944
838.956	2773
839.094	2819
839.231	2914
839.369	3017
839.506	3367
839.643	3237
839.781	3028
839.918	2998
840.055	3074
840.193	2990
840.33	3028
840.467	3066
840.604	3161
840.742	3367
840.879	3070
841.016	3043
841.153	3123
841.29	3340
841.427	3291
841.564	3264
841.701	3306
841.838	3176
841.975	3157
842.112	3207
842.249	3112
842.385	3009
842.522	3298
842.659	3070
842.796	3047
842.933	3081
843.069	3013
843.206	3028
843.343	3173
843.479	3089
843.616	3119
843.752	2895
843.889	2857
844.025	3085
844.162	2868
844.298	3051
844.435	2925
844.571	2899
844.708	3047
844.844	3188
844.98	3230
845.117	3195
845.253	3047
845.389	2994
845.525	3097
845.661	3100
845.798	3001
845.934	3131
846.07	3039
846.206	3211
846.342	3302
846.478	3226
846.614	3066
846.75	3036
846.886	3020
847.022	3207
847.158	3142
847.294	3207
847.429	3241
847.565	3154
847.701	3504
847.837	3001
847.972	2971
848.108	3138
848.244	3123
848.379	2963
848.515	2910
848.65	2922
848.786	2895
848.921	2998
849.057	3123
849.192	3146
849.328	3058
849.463	3074
849.598	3039
849.734	3032
849.869	2990
850.004	2944
850.14	2948
850.275	2914
850.41	2868
850.545	2845
850.68	2918
850.815	2944
850.95	2971
851.085	3188
851.22	3074
851.355	3017
851.49	2994
851.625	2979
851.76	2998
851.895	2925
852.03	2937
852.165	3001
852.299	3089
852.434	3157
852.569	3119
852.703	3176
852.838	3245
852.973	3359
853.107	3287
853.242	3150
853.376	3070
853.511	2963
853.645	3020
853.78	3256
853.914	3104
854.048	3100
854.183	3123
854.317	3123
854.451	3275
854.585	3074
854.72	3089
854.854	3165
854.988	3043
855.122	3066
855.256	2967
855.39	3112
855.524	3237
855.658	3169
855.792	3165
855.926	3184
856.06	3237
856.194	3218
856.327	3135
856.461	3058
856.595	3058
856.729	3123
856.862	3203
856.996	3176
857.13	3173
857.263	3218
857.397	3237
857.53	3123
857.664	3222
857.797	3214
857.931	3249
858.064	3154
858.197	3237
858.331	3127
858.464	3093
858.597	2986
858.731	3104
858.864	3108
858.997	3066
859.13	3157
859.263	3165
859.396	3173
859.529	3112
859.662	3077
859.795	3028
859.928	3131
860.061	3253
860.194	3302
860.327	3116
860.46	3085
860.592	3283
860.725	3241
860.858	3203
860.99	3074
861.123	2990
861.256	3047
861.388	3157
861.521	3827
861.653	2982
861.786	2979
861.918	2998
862.05	3024
862.183	3100
862.315	3142
862.447	3173
862.58	3074
862.712	2937
862.844	2868
862.976	3039
863.108	2986
863.24	3393
863.372	2845
863.504	2952
863.636	2941
863.768	3017
863.9	3001
864.032	2914
864.164	2910
864.296	2998
864.428	3085
864.559	3100
864.691	3089
864.823	3070
864.954	3032
865.086	2994
865.217	2990
865.349	2906
865.48	2956
865.612	3017
865.743	3157
865.875	2971
866.006	2963
866.137	2986
866.269	2937
866.4	2914
866.531	2895
866.662	2883
866.793	2895
866.924	2880
867.055	2982
867.186	2895
867.317	2880
867.448	2811
867.579	2834
867.71	2864
867.841	2777
867.972	2914
868.103	2876
868.233	2868
868.364	2853
868.495	2902
868.625	3051
868.756	3169
868.886	2982
869.017	2990
869.147	3142
869.278	3127
869.408	3028
869.539	3051
869.669	3089
869.799	3001
869.929	3135
870.06	3104
870.19	3298
870.32	3279
870.45	3241
870.58	3336
870.71	3469
870.84	3443
870.97	3272
871.1	3199
871.23	3477
871.36	3397
871.489	3313
871.619	3420
871.749	3370
871.879	3458
872.008	3496
872.138	3313
872.267	3283
872.397	3119
872.526	3077
872.656	2986
872.785	3089
872.915	3249
873.044	3313
873.173	3233
873.303	3195
873.432	3241
873.561	3222
873.69	3195
873.819	3142
873.948	3199
874.077	3089
874.206	3047
874.335	3077
874.464	3192
874.593	3336
874.722	3253
874.851	3378
874.979	3336
875.108	3329
875.237	3173
875.365	3142
875.494	3150
875.623	3233
875.751	3047
875.88	3104
876.008	3180
876.136	3237
876.265	3359
876.393	3496
876.521	3416
876.65	3405
876.778	3321
876.906	3275
877.034	3192
877.162	3241
877.29	3199
877.418	3237
877.546	3203
877.674	3207
877.802	3249
877.93	3195
878.058	3173
878.185	3135
878.313	3188
878.441	3203
878.568	3066
878.696	3135
878.824	3256
878.951	3302
879.079	3382
879.206	3584
879.333	3439
879.461	3336
879.588	3340
879.715	3500
879.842	3568
879.97	3397
880.097	3176
880.224	3116
880.351	3180
880.478	3211
880.605	3165
880.732	3165
880.859	3488
880.986	3321
881.112	3313
881.239	3199
881.366	3085
881.493	3028
881.619	3032
881.746	3085
881.872	3062
881.999	3116
882.125	3135
882.252	3226
882.378	3230
882.505	3424
882.631	3272
882.757	3123
882.883	3180
883.01	3203
883.136	3165
883.262	3074
883.388	3097
883.514	3306
883.64	3363
883.766	3336
883.892	3199
884.018	3214
884.143	3424
884.269	3545
884.395	3214
884.52	3173
884.646	3184
884.772	3093
884.897	3070
885.023	3195
885.148	3306
885.274	3416
885.399	3424
885.524	3302
885.65	3291
885.775	3317
885.9	3268
886.025	3397
886.15	3332
886.275	3283
886.4	3237
886.525	3313
886.65	3230
886.775	3268
886.9	3473
887.025	3633
887.149	3389
887.274	3264
887.399	3173
887.523	3146
887.648	3222
887.773	3184
887.897	3351
888.021	3378
888.146	3306
888.27	3393
888.395	3500
888.519	3405
888.643	3435
888.767	3447
888.891	3317
889.015	3233
889.139	3272
889.263	3218
889.387	3420
889.511	3492
889.635	3485
889.759	3298
889.883	3313
890.006	3374
890.13	3458
890.254	3253
890.377	3336
890.501	3184
890.624	3161
890.748	3260
890.871	3199
890.995	3112
891.118	3036
891.241	3203
891.364	3192
891.488	3332
891.611	3188
891.734	3199
891.857	3306
891.98	3230
892.103	3344
892.226	3233
892.349	3207
892.471	3131
892.594	3226
892.717	3287
892.839	3291
892.962	3294
893.085	3340
893.207	3310
893.33	3173
893.452	3211
893.575	3359
893.697	3218
893.819	3466
893.941	3481
894.064	3462
894.186	3245
894.308	3272
894.43	3389
894.552	3561
894.674	3462
894.796	3272
894.918	3359
895.04	3283
895.161	3401
895.283	3359
895.405	3317
895.526	3389
895.648	3412
895.769	3439
895.891	3462
896.012	3443
896.134	3435
896.255	3428
896.376	3363
896.498	3348
896.619	3447
896.74	3393
896.861	3389
896.982	3648
897.103	3838
897.224	3625
897.345	3500
897.466	3443
897.587	3519
897.708	3618
897.828	3492
897.949	3443
898.07	3310
898.19	3389
898.311	3599
898.431	3450
898.552	3454
898.672	3580
898.792	3572
898.913	3488
899.033	3420
899.153	3264
899.273	3207
899.393	3313
899.513	3336
899.633	3310
899.753	3351
899.873	3332
899.993	3367
900.113	3310
900.232	3378
900.352	3329
900.472	3283
900.591	3233
900.711	3241
900.83	3218
900.95	3405
901.069	3488
901.189	3367
901.308	3142
901.427	3184
901.546	3176
901.665	3291
901.784	3336
901.904	3176
902.023	3165
902.141	3020
902.26	2986
902.379	3100
902.498	3070
902.617	3074
902.735	3207
902.854	3211
902.973	3214
903.091	3024
903.21	3043
903.328	3100
903.446	3089
903.565	3089
903.683	3226
903.801	3119
903.919	3249
904.038	3306
904.156	3188
904.274	3253
904.392	3233
904.51	3256
904.627	3298
904.745	3454
904.863	3519
904.981	3222
905.098	3146
905.216	3260
905.334	3302
905.451	3268
905.569	3294
905.686	3439
905.803	3450
905.921	3332
906.038	3401
906.155	3317
906.272	3211
906.389	3321
906.506	3249
906.623	3237
906.74	3218
906.857	3199
906.974	3241
907.091	3420
907.208	3572
907.324	3473
907.441	3363
907.557	3203
907.674	3241
907.79	3207
907.907	3279
908.023	3367
908.139	3378
908.256	3325
908.372	3370
908.488	3355
908.604	3249
908.72	3207
908.836	3283
908.952	3291
909.068	3340
909.184	3439
909.3	3420
909.415	3504
909.531	3450
909.647	3287
909.762	3249
909.878	3249
909.993	3332
910.108	3313
910.224	3344
910.339	3374
910.454	3329
910.57	3283
910.685	3192
910.8	3576
910.915	3564
911.03	3420
911.145	3306
911.259	3249
911.374	3264
911.489	3233
911.604	3184
911.718	3074
911.833	3176
911.947	3001
912.062	3005
912.176	3165
912.291	3165
912.405	3199
912.519	3424
912.633	3466
912.748	3321
912.862	3256
912.976	3169
913.09	3024
913.204	3150
913.318	3199
913.431	3317
913.545	3336
913.659	3370
913.772	3310
913.886	3237
914	3222
914.113	3306
914.226	3393
914.34	3332
914.453	3226
914.566	3363
914.68	3287
914.793	3317
914.906	3108
915.019	3116
915.132	3058
915.245	3169
915.358	3214
915.47	3218
915.583	3256
915.696	3272
915.809	3420
915.921	3443
916.034	3245
916.146	3249
916.259	3237
916.371	3340
916.483	3363
916.595	3249
916.708	3344
916.82	3332
916.932	3321
917.044	3336
917.156	3359
917.268	3195
917.38	3310
917.491	3317
917.603	3374
917.715	3409
917.826	3435
917.938	3355
918.049	3275
918.161	3409
918.272	3526
918.384	3572
918.495	3458
918.606	3332
918.717	3253
918.828	3367
918.939	3389
919.05	3291
919.161	3336
919.272	3146
919.383	3321
919.494	3515
919.604	3660
919.715	3492
919.826	3378
919.936	3488
920.047	3580
920.157	3553
920.267	3800
920.378	3584
920.488	3534
920.598	3724
920.708	3926
920.818	3838
920.928	3896
921.038	4006
921.148	3960
921.258	3698
921.368	3603
921.477	3603
921.587	3561
921.697	3466
921.806	3629
921.916	3515
922.025	3325
922.134	3348
922.244	3310
922.353	3447
922.462	3291
922.571	3222
922.68	3142
922.789	3062
922.898	3097
923.007	3108
923.116	3203
923.224	3184
923.333	3207
923.442	3062
923.55	3077
923.659	3169
923.767	3226
923.876	3123
923.984	3249
924.092	3108
924.201	3188
924.309	3222
924.417	3256
924.525	3169
924.633	3230
924.741	4200
924.849	3108
924.956	3260
925.064	3070
925.172	3039
925.279	3085
925.387	3165
925.494	3188
925.602	3355
925.709	3344
925.816	3157
925.924	3256
926.031	3363
926.138	3310
926.245	3370
926.352	3294
926.459	3378
926.566	3466
926.673	3306
926.779	3279
926.886	3237
926.993	3146
927.099	3173
927.206	3097
927.312	3127
927.419	3195
927.525	3173
927.631	3233
927.737	3154
927.843	3104
927.95	3028
928.056	3127
928.162	3165
928.267	3253
928.373	3892
928.479	3351
928.585	3089
928.69	3218
928.796	3264
928.901	3192
929.007	3036
929.112	3165
929.218	3154
929.323	3161
929.428	3119
929.533	3302
929.638	3138
929.743	3169
929.848	3230
929.953	3203
930.058	3119
930.163	2975
930.267	3020
930.372	3192
930.477	3009
930.581	3287
930.685	3161
930.79	3047
930.894	3112
930.998	3142
931.103	3268
931.207	2990
931.311	2948
931.415	2986
931.519	2762
931.623	2830
