Data from test_V78500241_842.txt Node
Date: Fri Mar 25 16:21:02 CST 2022
User: usil
Spectrometer: V785-0024
Trigger mode: 0
Integration Time (sec): 4.000000E-1
Scans to average: 1
Nonlinearity correction enabled: false
Boxcar width: 0
Storing dark spectrum: false
XAxis mode: Wavelengths
Number of Pixels in Spectrum: 1024
>>>>>Begin Spectral Data<<<<<
801.071	2929
801.214	2899
801.356	2842
801.499	2883
801.641	2868
801.783	2906
801.926	3032
802.068	2975
802.211	3001
802.353	3047
802.496	2941
802.638	3051
802.78	3047
802.923	3051
803.065	2982
803.208	2899
803.35	2883
803.492	2891
803.635	2918
803.777	2769
803.919	2891
804.061	3173
804.204	2922
804.346	2906
804.488	2819
804.63	2975
804.773	2880
804.915	2929
805.057	3108
805.199	2933
805.341	2937
805.483	3032
805.626	3013
805.768	2956
805.91	3074
806.052	3119
806.194	3043
806.336	3192
806.478	3009
806.62	2948
806.762	2986
806.904	3066
807.046	3154
807.188	2990
807.33	2929
807.472	2986
807.614	2880
807.756	2925
807.898	2922
808.04	2872
808.182	2971
808.324	2956
808.465	2864
808.607	2868
808.749	2750
808.891	2804
809.033	2948
809.174	2967
809.316	2887
809.458	2887
809.6	2781
809.741	2762
809.883	2720
810.025	2845
810.166	2853
810.308	2853
810.45	2864
810.591	2754
810.733	2777
810.875	2830
811.016	2792
811.158	2739
811.299	2826
811.441	2925
811.582	2899
811.724	2830
811.865	2807
812.007	2922
812.148	2895
812.29	2876
812.431	2876
812.573	2948
812.714	2967
812.855	3058
812.997	3036
813.138	3142
813.279	3020
813.421	2963
813.562	2963
813.703	2872
813.845	2864
813.986	2804
814.127	2716
814.268	2750
814.41	2868
814.551	2785
814.692	2876
814.833	2823
814.974	2891
815.115	2960
815.256	2853
815.397	2807
815.539	2880
815.68	2758
815.821	2788
815.962	2967
816.103	2933
816.244	2872
816.385	2864
816.526	2952
816.666	2868
816.807	2754
816.948	2883
817.089	2914
817.23	2876
817.371	2788
817.512	2811
817.653	2815
817.793	2815
817.934	2864
818.075	2933
818.216	3001
818.356	3020
818.497	2891
818.638	2773
818.778	2826
818.919	2815
819.06	2777
819.2	2891
819.341	2766
819.481	2758
819.622	2929
819.762	3085
819.903	3013
820.043	2899
820.184	2906
820.324	2952
820.465	3024
820.605	2998
820.746	3020
820.886	2910
821.026	3081
821.167	3154
821.307	3268
821.447	3264
821.588	3199
821.728	3199
821.868	3222
822.008	3104
822.149	3169
822.289	3226
822.429	3070
822.569	3116
822.709	3173
822.849	3024
822.99	3058
823.13	3135
823.27	3192
823.41	3127
823.55	3123
823.69	3116
823.83	3161
823.97	3100
824.11	3028
824.25	3013
824.389	3074
824.529	3104
824.669	3062
824.809	3218
824.949	3222
825.089	3226
825.228	3176
825.368	3036
825.508	2971
825.648	2960
825.787	2998
825.927	3039
826.067	2948
826.206	2941
826.346	3066
826.485	3058
826.625	3127
826.765	3268
826.904	3188
827.044	2975
827.183	2925
827.323	2876
827.462	2979
827.601	2880
827.741	2922
827.88	2929
828.02	2842
828.159	2952
828.298	3043
828.437	3093
828.577	3032
828.716	3226
828.855	3066
828.994	2910
829.134	2880
829.273	2922
829.412	2857
829.551	2826
829.69	2906
829.829	2960
829.968	3081
830.107	3001
830.246	3017
830.385	2910
830.524	2845
830.663	2788
830.802	2705
830.941	2667
831.08	2632
831.219	2773
831.357	2754
831.496	2971
831.635	2697
831.774	2651
831.913	2655
832.051	2526
832.19	2568
832.329	2674
832.467	2511
832.606	2480
832.744	2587
832.883	2606
833.022	2583
833.16	2632
833.299	2678
833.437	2701
833.576	2705
833.714	2708
833.852	2708
833.991	2720
834.129	2826
834.267	2792
834.406	2792
834.544	2872
834.682	2864
834.821	2876
834.959	3055
835.097	2918
835.235	3062
835.373	2975
835.511	3017
835.65	2929
835.788	2937
835.926	2815
836.064	2804
836.202	2826
836.34	3112
836.478	3123
836.615	3062
836.753	3089
836.891	3218
837.029	3138
837.167	3093
837.305	3081
837.443	3070
837.58	2960
837.718	3119
837.856	3077
837.993	3017
838.131	3100
838.269	3123
838.406	3104
838.544	3074
838.681	2941
838.819	2918
838.956	2830
839.094	2823
839.231	2922
839.369	3005
839.506	3370
839.643	3188
839.781	3009
839.918	2971
840.055	3047
840.193	3051
840.33	3062
840.467	3085
840.604	3135
840.742	3416
840.879	3028
841.016	3032
841.153	3123
841.29	3332
841.427	3329
841.564	3279
841.701	3279
841.838	3218
841.975	3211
842.112	3207
842.249	3070
842.385	3032
842.522	3233
842.659	3062
842.796	3043
842.933	3097
843.069	3036
843.206	3017
843.343	3150
843.479	3066
843.616	3123
843.752	2883
843.889	2864
844.025	3039
844.162	2845
844.298	3070
844.435	2952
844.571	2925
844.708	3058
844.844	3180
844.98	3245
845.117	3180
845.253	3047
845.389	3001
845.525	3081
845.661	3097
845.798	3032
845.934	3135
846.07	3066
846.206	3207
846.342	3298
846.478	3207
846.614	3097
846.75	3055
846.886	2986
847.022	3249
847.158	3154
847.294	3161
847.429	3245
847.565	3165
847.701	3466
847.837	3032
847.972	2971
848.108	3150
848.244	3104
848.379	2975
848.515	2933
848.65	2933
848.786	2922
848.921	3013
849.057	3062
849.192	3127
849.328	3089
849.463	3093
849.598	3077
849.734	3047
849.869	2971
850.004	2895
850.14	2975
850.275	2910
850.41	2826
850.545	2895
850.68	2925
850.815	2941
850.95	2944
851.085	3184
851.22	3089
851.355	3043
851.49	2963
851.625	2952
851.76	3039
851.895	2922
852.03	2895
852.165	3062
852.299	3055
852.434	3173
852.569	3138
852.703	3146
852.838	3218
852.973	3336
853.107	3329
853.242	3161
853.376	3123
853.511	2971
853.645	3047
853.78	3241
853.914	3074
854.048	3119
854.183	3066
854.317	3138
854.451	3283
854.585	3089
854.72	3077
854.854	3211
854.988	3020
855.122	3085
855.256	2952
855.39	3108
855.524	3222
855.658	3180
855.792	3154
855.926	3169
856.06	3218
856.194	3199
856.327	3135
856.461	3074
856.595	3066
856.729	3070
856.862	3199
856.996	3112
857.13	3142
857.263	3230
857.397	3283
857.53	3081
857.664	3146
857.797	3184
857.931	3222
858.064	3108
858.197	3230
858.331	3131
858.464	3097
858.597	3001
858.731	3146
858.864	3081
858.997	3058
859.13	3131
859.263	3161
859.396	3192
859.529	3055
859.662	3074
859.795	3039
859.928	3135
860.061	3218
860.194	3283
860.327	3104
860.46	3123
860.592	3207
860.725	3256
860.858	3245
860.99	3093
861.123	3032
861.256	3047
861.388	3154
861.521	3865
861.653	3020
861.786	2960
861.918	2994
862.05	3070
862.183	3131
862.315	3169
862.447	3180
862.58	3089
862.712	2971
862.844	2902
862.976	3024
863.108	2994
863.24	3310
863.372	2891
863.504	2963
863.636	2986
863.768	3070
863.9	2990
864.032	2902
864.164	2971
864.296	3020
864.428	3081
864.559	3097
864.691	3085
864.823	3093
864.954	3062
865.086	3066
865.217	3001
865.349	2986
865.48	3047
865.612	3028
865.743	3176
865.875	3036
866.006	2960
866.137	2990
866.269	2952
866.4	2994
866.531	2941
866.662	2941
866.793	2952
866.924	2929
867.055	2963
867.186	2998
867.317	2899
867.448	2880
867.579	2906
867.71	2876
867.841	2853
867.972	2971
868.103	2971
868.233	2918
868.364	2914
868.495	2925
868.625	3127
868.756	3176
868.886	2986
869.017	3081
869.147	3180
869.278	3184
869.408	3089
869.539	3062
869.669	3127
869.799	3081
869.929	3161
870.06	3112
870.19	3348
870.32	3291
870.45	3344
870.58	3412
870.71	3488
870.84	3504
870.97	3351
871.1	3302
871.23	3549
871.36	3507
871.489	3378
871.619	3393
871.749	3401
871.879	3458
872.008	3500
872.138	3412
872.267	3321
872.397	3207
872.526	3146
872.656	3070
872.785	3157
872.915	3256
873.044	3378
873.173	3256
873.303	3291
873.432	3275
873.561	3291
873.69	3218
873.819	3188
873.948	3195
874.077	3154
874.206	3062
874.335	3123
874.464	3260
874.593	3382
874.722	3294
874.851	3420
874.979	3363
875.108	3405
875.237	3226
875.365	3211
875.494	3195
875.623	3291
875.751	3108
875.88	3154
876.008	3188
876.136	3245
876.265	3401
876.393	3542
876.521	3469
876.65	3405
876.778	3348
876.906	3298
877.034	3260
877.162	3233
877.29	3199
877.418	3279
877.546	3275
877.674	3249
877.802	3260
877.93	3264
878.058	3195
878.185	3131
878.313	3218
878.441	3207
878.568	3123
878.696	3195
878.824	3268
878.951	3279
879.079	3473
879.206	3652
879.333	3428
879.461	3348
879.588	3367
879.715	3485
879.842	3618
879.97	3405
880.097	3184
880.224	3184
880.351	3268
880.478	3237
880.605	3195
880.732	3199
880.859	3523
880.986	3336
881.112	3325
881.239	3218
881.366	3138
881.493	3058
881.619	3043
881.746	3112
881.872	3127
881.999	3135
882.125	3161
882.252	3256
882.378	3302
882.505	3450
882.631	3340
882.757	3180
882.883	3237
883.01	3230
883.136	3237
883.262	3085
883.388	3150
883.514	3321
883.64	3359
883.766	3329
883.892	3214
884.018	3275
884.143	3519
884.269	3568
884.395	3241
884.52	3207
884.646	3165
884.772	3195
884.897	3131
885.023	3233
885.148	3325
885.274	3458
885.399	3397
885.524	3329
885.65	3306
885.775	3332
885.9	3302
886.025	3447
886.15	3389
886.275	3336
886.4	3279
886.525	3344
886.65	3302
886.775	3329
886.9	3496
887.025	3690
887.149	3466
887.274	3256
887.399	3226
887.523	3245
887.648	3214
887.773	3241
887.897	3382
888.021	3424
888.146	3332
888.27	3477
888.395	3568
888.519	3481
888.643	3447
888.767	3492
888.891	3355
889.015	3256
889.139	3317
889.263	3272
889.387	3412
889.511	3526
889.635	3477
889.759	3317
889.883	3340
890.006	3401
890.13	3473
890.254	3287
890.377	3367
890.501	3226
890.624	3233
890.748	3336
890.871	3214
890.995	3150
891.118	3131
891.241	3214
891.364	3226
891.488	3336
891.611	3199
891.734	3214
891.857	3302
891.98	3272
892.103	3378
892.226	3317
892.349	3256
892.471	3161
892.594	3264
892.717	3313
892.839	3279
892.962	3294
893.085	3367
893.207	3321
893.33	3150
893.452	3180
893.575	3363
893.697	3272
893.819	3492
893.941	3545
894.064	3447
894.186	3310
894.308	3287
894.43	3488
894.552	3538
894.674	3443
894.796	3302
894.918	3340
895.04	3310
895.161	3439
895.283	3397
895.405	3336
895.526	3424
895.648	3435
895.769	3462
895.891	3469
896.012	3526
896.134	3507
896.255	3431
896.376	3439
896.498	3386
896.619	3420
896.74	3389
896.861	3447
896.982	3717
897.103	3865
897.224	3622
897.345	3504
897.466	3393
897.587	3564
897.708	3637
897.828	3557
897.949	3462
898.07	3355
898.19	3473
898.311	3660
898.431	3496
898.552	3526
898.672	3614
898.792	3568
898.913	3564
899.033	3416
899.153	3310
899.273	3264
899.393	3275
899.513	3310
899.633	3317
899.753	3355
899.873	3329
899.993	3405
900.113	3370
900.232	3424
900.352	3370
900.472	3253
900.591	3230
900.711	3302
900.83	3298
900.95	3462
901.069	3507
901.189	3367
901.308	3192
901.427	3150
901.546	3237
901.665	3291
901.784	3378
901.904	3184
902.023	3154
902.141	3024
902.26	3020
902.379	3173
902.498	3108
902.617	3066
902.735	3230
902.854	3260
902.973	3211
903.091	3047
903.21	3100
903.328	3150
903.446	3119
903.565	3119
903.683	3214
903.801	3154
903.919	3279
904.038	3363
904.156	3211
904.274	3283
904.392	3294
904.51	3306
904.627	3340
904.745	3511
904.863	3500
904.981	3279
905.098	3173
905.216	3268
905.334	3332
905.451	3329
905.569	3348
905.686	3462
905.803	3458
905.921	3313
906.038	3454
906.155	3363
906.272	3306
906.389	3344
906.506	3230
906.623	3253
906.74	3279
906.857	3222
906.974	3253
907.091	3458
907.208	3568
907.324	3462
907.441	3454
907.557	3264
907.674	3272
907.79	3253
907.907	3260
908.023	3393
908.139	3397
908.256	3355
908.372	3409
908.488	3397
908.604	3264
908.72	3249
908.836	3291
908.952	3313
909.068	3382
909.184	3488
909.3	3416
909.415	3496
909.531	3481
909.647	3325
909.762	3291
909.878	3294
909.993	3370
910.108	3317
910.224	3355
910.339	3428
910.454	3367
910.57	3313
910.685	3298
910.8	3675
910.915	3504
911.03	3458
911.145	3272
911.259	3302
911.374	3340
911.489	3302
911.604	3245
911.718	3165
911.833	3173
911.947	3043
912.062	2990
912.176	3184
912.291	3233
912.405	3226
912.519	3416
912.633	3454
912.748	3370
912.862	3306
912.976	3184
913.09	3100
913.204	3150
913.318	3264
913.431	3363
913.545	3359
913.659	3439
913.772	3340
913.886	3211
914	3226
914.113	3325
914.226	3454
914.34	3386
914.453	3279
914.566	3412
914.68	3329
914.793	3317
914.906	3176
915.019	3127
915.132	3089
915.245	3218
915.358	3230
915.47	3260
915.583	3253
915.696	3291
915.809	3443
915.921	3420
916.034	3275
916.146	3283
916.259	3253
916.371	3416
916.483	3374
916.595	3260
916.708	3363
916.82	3363
916.932	3336
917.044	3359
917.156	3355
917.268	3268
917.38	3332
917.491	3317
917.603	3351
917.715	3477
917.826	3473
917.938	3378
918.049	3268
918.161	3496
918.272	3553
918.384	3587
918.495	3488
918.606	3340
918.717	3249
918.828	3405
918.939	3447
919.05	3306
919.161	3378
919.272	3195
919.383	3298
919.494	3523
919.604	3709
919.715	3477
919.826	3389
919.936	3485
920.047	3603
920.157	3580
920.267	3740
920.378	3629
920.488	3545
920.598	3812
920.708	3941
920.818	3850
920.928	3827
921.038	4044
921.148	4017
921.258	3747
921.368	3622
921.477	3576
921.587	3599
921.697	3542
921.806	3622
921.916	3496
922.025	3370
922.134	3389
922.244	3370
922.353	3428
922.462	3272
922.571	3249
922.68	3138
922.789	3077
922.898	3127
923.007	3070
923.116	3188
923.224	3173
923.333	3184
923.442	3097
923.55	3085
923.659	3165
923.767	3272
923.876	3131
923.984	3249
924.092	3127
924.201	3260
924.309	3233
924.417	3207
924.525	3253
924.633	3222
924.741	4010
924.849	3097
924.956	3249
925.064	3089
925.172	3062
925.279	3127
925.387	3214
925.494	3188
925.602	3374
925.709	3359
925.816	3180
925.924	3275
926.031	3412
926.138	3340
926.245	3348
926.352	3268
926.459	3420
926.566	3454
926.673	3310
926.779	3230
926.886	3268
926.993	3169
927.099	3135
927.206	3119
927.312	3093
927.419	3192
927.525	3192
927.631	3260
927.737	3154
927.843	3135
927.95	3017
928.056	3188
928.162	3188
928.267	3256
928.373	3755
928.479	3302
928.585	3077
928.69	3211
928.796	3253
928.901	3165
929.007	3047
929.112	3237
929.218	3150
929.323	3169
929.428	3154
929.533	3359
929.638	3138
929.743	3214
929.848	3275
929.953	3237
930.058	3154
930.163	3043
930.267	3039
930.372	3275
930.477	3036
930.581	3351
930.685	3138
930.79	3093
930.894	3157
930.998	3116
931.103	3302
931.207	2994
931.311	2963
931.415	2986
931.519	2823
931.623	2845
