Data from test_V78500241_258.txt Node
Date: Fri Mar 25 16:16:59 CST 2022
User: usil
Spectrometer: V785-0024
Trigger mode: 0
Integration Time (sec): 4.000000E-1
Scans to average: 1
Nonlinearity correction enabled: false
Boxcar width: 0
Storing dark spectrum: false
XAxis mode: Wavelengths
Number of Pixels in Spectrum: 1024
>>>>>Begin Spectral Data<<<<<
801.071	2914
801.214	2990
801.356	2861
801.499	2918
801.641	2899
801.783	2941
801.926	3032
802.068	2990
802.211	2979
802.353	3032
802.496	2967
802.638	3024
802.78	3043
802.923	3104
803.065	3020
803.208	2922
803.35	2952
803.492	2910
803.635	2941
803.777	2716
803.919	2845
804.061	3157
804.204	2929
804.346	2910
804.488	2853
804.63	2960
804.773	2868
804.915	2960
805.057	3085
805.199	2910
805.341	2948
805.483	3032
805.626	3001
805.768	2948
805.91	3104
806.052	3131
806.194	3058
806.336	3214
806.478	3036
806.62	2948
806.762	2975
806.904	3051
807.046	3176
807.188	2956
807.33	2899
807.472	3039
807.614	2914
807.756	3028
807.898	2914
808.04	2883
808.182	2986
808.324	2967
808.465	2887
808.607	2891
808.749	2819
808.891	2864
809.033	2941
809.174	2971
809.316	2910
809.458	2876
809.6	2750
809.741	2766
809.883	2758
810.025	2868
810.166	2826
810.308	2834
810.45	2895
810.591	2773
810.733	2781
810.875	2853
811.016	2766
811.158	2766
811.299	2800
811.441	2967
811.582	2941
811.724	2800
811.865	2830
812.007	2922
812.148	2864
812.29	2883
812.431	2895
812.573	2944
812.714	2975
812.855	3070
812.997	3077
813.138	3097
813.279	2967
813.421	2982
813.562	2971
813.703	2880
813.845	2880
813.986	2785
814.127	2731
814.268	2819
814.41	2842
814.551	2811
814.692	2876
814.833	2800
814.974	2910
815.115	2967
815.256	2857
815.397	2796
815.539	2857
815.68	2788
815.821	2830
815.962	2960
816.103	2941
816.244	2883
816.385	2872
816.526	2986
816.666	2956
816.807	2766
816.948	2853
817.089	2922
817.23	2857
817.371	2785
817.512	2800
817.653	2830
817.793	2819
817.934	2922
818.075	2994
818.216	3028
818.356	2998
818.497	2880
818.638	2796
818.778	2830
818.919	2826
819.06	2762
819.2	2883
819.341	2834
819.481	2792
819.622	2914
819.762	3066
819.903	3047
820.043	2902
820.184	2914
820.324	2883
820.465	3066
820.605	3028
820.746	3047
820.886	2956
821.026	3093
821.167	3157
821.307	3268
821.447	3275
821.588	3230
821.728	3211
821.868	3203
822.008	3074
822.149	3195
822.289	3302
822.429	3093
822.569	3089
822.709	3157
822.849	3055
822.99	3047
823.13	3184
823.27	3218
823.41	3104
823.55	3176
823.69	3176
823.83	3211
823.97	3089
824.11	2963
824.25	2982
824.389	3051
824.529	3142
824.669	3089
824.809	3161
824.949	3245
825.089	3230
825.228	3150
825.368	2982
825.508	2967
825.648	2990
825.787	3039
825.927	3013
826.067	2963
826.206	2975
826.346	3043
826.485	3066
826.625	3085
826.765	3264
826.904	3211
827.044	3043
827.183	2937
827.323	2838
827.462	2971
827.601	2952
827.741	2952
827.88	2982
828.02	2868
828.159	2952
828.298	3047
828.437	3119
828.577	3062
828.716	3241
828.855	3112
828.994	2880
829.134	2876
829.273	2933
829.412	2834
829.551	2883
829.69	2933
829.829	2956
829.968	3146
830.107	3020
830.246	3051
830.385	2933
830.524	2842
830.663	2777
830.802	2727
830.941	2632
831.08	2644
831.219	2746
831.357	2754
831.496	2914
831.635	2758
831.774	2636
831.913	2644
832.051	2537
832.19	2602
832.329	2686
832.467	2549
832.606	2461
832.744	2594
832.883	2571
833.022	2564
833.16	2617
833.299	2674
833.437	2708
833.576	2693
833.714	2743
833.852	2727
833.991	2769
834.129	2861
834.267	2804
834.406	2823
834.544	2891
834.682	2864
834.821	2883
834.959	3077
835.097	2922
835.235	3055
835.373	2986
835.511	3017
835.65	2971
835.788	2979
835.926	2823
836.064	2815
836.202	2849
836.34	3085
836.478	3116
836.615	3097
836.753	3138
836.891	3192
837.029	3173
837.167	3131
837.305	3043
837.443	3001
837.58	2982
837.718	3146
837.856	3058
837.993	3047
838.131	3100
838.269	3093
838.406	3104
838.544	3085
838.681	2963
838.819	2922
838.956	2796
839.094	2811
839.231	2899
839.369	3017
839.506	3367
839.643	3192
839.781	3032
839.918	2922
840.055	3051
840.193	3028
840.33	3066
840.467	3108
840.604	3150
840.742	3412
840.879	3009
841.016	3051
841.153	3108
841.29	3321
841.427	3355
841.564	3294
841.701	3317
841.838	3226
841.975	3131
842.112	3245
842.249	3108
842.385	3028
842.522	3237
842.659	3116
842.796	3047
842.933	3127
843.069	3036
843.206	3024
843.343	3161
843.479	3085
843.616	3142
843.752	2902
843.889	2906
844.025	3062
844.162	2895
844.298	3116
844.435	2925
844.571	2918
844.708	3043
844.844	3207
844.98	3268
845.117	3173
845.253	3020
845.389	3005
845.525	3112
845.661	3100
845.798	3009
845.934	3131
846.07	3024
846.206	3211
846.342	3283
846.478	3237
846.614	3066
846.75	3058
846.886	3013
847.022	3272
847.158	3138
847.294	3184
847.429	3245
847.565	3226
847.701	3473
847.837	3036
847.972	2963
848.108	3180
848.244	3173
848.379	2971
848.515	2948
848.65	2902
848.786	2956
848.921	3005
849.057	3127
849.192	3123
849.328	3074
849.463	3116
849.598	3058
849.734	3005
849.869	2986
850.004	2918
850.14	2956
850.275	2929
850.41	2838
850.545	2853
850.68	2952
850.815	2963
850.95	2963
851.085	3207
851.22	3100
851.355	3066
851.49	2960
851.625	3020
851.76	2979
851.895	2944
852.03	2910
852.165	3055
852.299	3108
852.434	3188
852.569	3112
852.703	3157
852.838	3260
852.973	3329
853.107	3344
853.242	3176
853.376	3066
853.511	2971
853.645	3032
853.78	3245
853.914	3093
854.048	3112
854.183	3051
854.317	3142
854.451	3306
854.585	3081
854.72	3081
854.854	3188
854.988	3036
855.122	3138
855.256	2982
855.39	3127
855.524	3230
855.658	3237
855.792	3146
855.926	3199
856.06	3180
856.194	3249
856.327	3173
856.461	3074
856.595	3074
856.729	3104
856.862	3245
856.996	3165
857.13	3154
857.263	3230
857.397	3245
857.53	3131
857.664	3237
857.797	3230
857.931	3241
858.064	3192
858.197	3211
858.331	3123
858.464	3142
858.597	2986
858.731	3097
858.864	3135
858.997	3089
859.13	3157
859.263	3150
859.396	3184
859.529	3066
859.662	3039
859.795	3024
859.928	3131
860.061	3275
860.194	3287
860.327	3142
860.46	3043
860.592	3222
860.725	3249
860.858	3233
860.99	3089
861.123	3051
861.256	3085
861.388	3192
861.521	3903
861.653	3047
861.786	2960
861.918	2982
862.05	3077
862.183	3116
862.315	3161
862.447	3211
862.58	3089
862.712	2967
862.844	2887
862.976	3013
863.108	3032
863.24	3329
863.372	2861
863.504	2941
863.636	2929
863.768	3009
863.9	2998
864.032	2891
864.164	2952
864.296	3009
864.428	3112
864.559	3100
864.691	3070
864.823	3051
864.954	3055
865.086	3043
865.217	3005
865.349	2960
865.48	2998
865.612	3013
865.743	3150
865.875	2982
866.006	2986
866.137	2998
866.269	2952
866.4	2929
866.531	2914
866.662	2891
866.793	2891
866.924	2910
867.055	2963
867.186	2925
867.317	2929
867.448	2861
867.579	2880
867.71	2883
867.841	2800
867.972	2937
868.103	2868
868.233	2868
868.364	2826
868.495	2910
868.625	3081
868.756	3127
868.886	3009
869.017	2990
869.147	3169
869.278	3165
869.408	3043
869.539	3028
869.669	3108
869.799	3036
869.929	3119
870.06	3104
870.19	3332
870.32	3253
870.45	3302
870.58	3374
870.71	3466
870.84	3439
870.97	3332
871.1	3195
871.23	3507
871.36	3454
871.489	3363
871.619	3443
871.749	3458
871.879	3431
872.008	3507
872.138	3351
872.267	3279
872.397	3131
872.526	3055
872.656	3017
872.785	3116
872.915	3237
873.044	3310
873.173	3233
873.303	3249
873.432	3233
873.561	3237
873.69	3150
873.819	3180
873.948	3207
874.077	3116
874.206	3039
874.335	3074
874.464	3222
874.593	3317
874.722	3249
874.851	3367
874.979	3367
875.108	3317
875.237	3218
875.365	3180
875.494	3093
875.623	3249
875.751	3097
875.88	3123
876.008	3199
876.136	3230
876.265	3386
876.393	3530
876.521	3439
876.65	3409
876.778	3321
876.906	3256
877.034	3176
877.162	3214
877.29	3218
877.418	3253
877.546	3279
877.674	3260
877.802	3207
877.93	3241
878.058	3146
878.185	3074
878.313	3165
878.441	3192
878.568	3047
878.696	3195
878.824	3283
878.951	3298
879.079	3462
879.206	3610
879.333	3424
879.461	3344
879.588	3355
879.715	3462
879.842	3606
879.97	3363
880.097	3195
880.224	3173
880.351	3176
880.478	3245
880.605	3218
880.732	3180
880.859	3492
880.986	3317
881.112	3283
881.239	3203
881.366	3108
881.493	3039
881.619	3001
881.746	3100
881.872	3116
881.999	3119
882.125	3165
882.252	3260
882.378	3249
882.505	3431
882.631	3317
882.757	3157
882.883	3264
883.01	3214
883.136	3116
883.262	3108
883.388	3093
883.514	3287
883.64	3389
883.766	3336
883.892	3176
884.018	3226
884.143	3416
884.269	3572
884.395	3222
884.52	3184
884.646	3184
884.772	3123
884.897	3138
885.023	3199
885.148	3298
885.274	3454
885.399	3386
885.524	3253
885.65	3253
885.775	3313
885.9	3321
886.025	3401
886.15	3332
886.275	3279
886.4	3230
886.525	3306
886.65	3283
886.775	3317
886.9	3492
887.025	3641
887.149	3386
887.274	3245
887.399	3180
887.523	3199
887.648	3176
887.773	3211
887.897	3363
888.021	3424
888.146	3291
888.27	3454
888.395	3561
888.519	3447
888.643	3477
888.767	3485
888.891	3329
889.015	3260
889.139	3317
889.263	3256
889.387	3405
889.511	3549
889.635	3466
889.759	3287
889.883	3298
890.006	3428
890.13	3492
890.254	3283
890.377	3355
890.501	3173
890.624	3203
890.748	3275
890.871	3195
890.995	3123
891.118	3066
891.241	3203
891.364	3272
891.488	3302
891.611	3192
891.734	3226
891.857	3306
891.98	3249
892.103	3325
892.226	3272
892.349	3214
892.471	3135
892.594	3245
892.717	3310
892.839	3272
892.962	3287
893.085	3378
893.207	3275
893.33	3154
893.452	3245
893.575	3336
893.697	3222
893.819	3488
893.941	3492
894.064	3469
894.186	3268
894.308	3287
894.43	3443
894.552	3557
894.674	3473
894.796	3298
894.918	3302
895.04	3310
895.161	3439
895.283	3363
895.405	3329
895.526	3386
895.648	3420
895.769	3416
895.891	3431
896.012	3458
896.134	3481
896.255	3435
896.376	3359
896.498	3348
896.619	3393
896.74	3382
896.861	3370
896.982	3686
897.103	3854
897.224	3618
897.345	3481
897.466	3454
897.587	3466
897.708	3633
897.828	3549
897.949	3447
898.07	3344
898.19	3393
898.311	3614
898.431	3435
898.552	3492
898.672	3606
898.792	3568
898.913	3549
899.033	3405
899.153	3298
899.273	3218
899.393	3260
899.513	3317
899.633	3332
899.753	3340
899.873	3325
899.993	3348
900.113	3329
900.232	3416
900.352	3378
900.472	3260
900.591	3222
900.711	3321
900.83	3237
900.95	3401
901.069	3515
901.189	3351
901.308	3173
901.427	3135
901.546	3157
901.665	3256
901.784	3340
901.904	3184
902.023	3154
902.141	3043
902.26	2975
902.379	3100
902.498	3070
902.617	3058
902.735	3211
902.854	3245
902.973	3192
903.091	3047
903.21	3081
903.328	3161
903.446	3097
903.565	3116
903.683	3173
903.801	3154
903.919	3272
904.038	3256
904.156	3154
904.274	3306
904.392	3275
904.51	3310
904.627	3344
904.745	3428
904.863	3545
904.981	3260
905.098	3180
905.216	3268
905.334	3306
905.451	3329
905.569	3332
905.686	3458
905.803	3458
905.921	3256
906.038	3458
906.155	3397
906.272	3260
906.389	3332
906.506	3226
906.623	3275
906.74	3272
906.857	3188
906.974	3272
907.091	3477
907.208	3542
907.324	3466
907.441	3363
907.557	3241
907.674	3226
907.79	3226
907.907	3275
908.023	3431
908.139	3401
908.256	3302
908.372	3386
908.488	3363
908.604	3256
908.72	3260
908.836	3260
908.952	3310
909.068	3332
909.184	3477
909.3	3386
909.415	3477
909.531	3500
909.647	3313
909.762	3332
909.878	3298
909.993	3378
910.108	3351
910.224	3344
910.339	3374
910.454	3355
910.57	3287
910.685	3253
910.8	3568
910.915	3523
911.03	3443
911.145	3287
911.259	3294
911.374	3348
911.489	3237
911.604	3237
911.718	3119
911.833	3146
911.947	3047
912.062	2971
912.176	3116
912.291	3195
912.405	3195
912.519	3428
912.633	3492
912.748	3370
912.862	3283
912.976	3176
913.09	3058
913.204	3100
913.318	3245
913.431	3378
913.545	3317
913.659	3431
913.772	3363
913.886	3176
914	3195
914.113	3332
914.226	3401
914.34	3393
914.453	3199
914.566	3412
914.68	3298
914.793	3344
914.906	3104
915.019	3123
915.132	3100
915.245	3154
915.358	3199
915.47	3214
915.583	3283
915.696	3291
915.809	3420
915.921	3435
916.034	3291
916.146	3275
916.259	3233
916.371	3443
916.483	3382
916.595	3264
916.708	3378
916.82	3340
916.932	3344
917.044	3401
917.156	3321
917.268	3264
917.38	3291
917.491	3329
917.603	3378
917.715	3450
917.826	3454
917.938	3405
918.049	3260
918.161	3428
918.272	3580
918.384	3576
918.495	3492
918.606	3321
918.717	3260
918.828	3386
918.939	3428
919.05	3321
919.161	3397
919.272	3154
919.383	3306
919.494	3545
919.604	3675
919.715	3473
919.826	3428
919.936	3458
920.047	3564
920.157	3538
920.267	3740
920.378	3610
920.488	3557
920.598	3766
920.708	3934
920.818	3865
920.928	3838
921.038	4010
921.148	3991
921.258	3720
921.368	3629
921.477	3591
921.587	3523
921.697	3462
921.806	3603
921.916	3538
922.025	3409
922.134	3367
922.244	3279
922.353	3447
922.462	3291
922.571	3272
922.68	3116
922.789	3119
922.898	3169
923.007	3097
923.116	3226
923.224	3180
923.333	3188
923.442	3138
923.55	3100
923.659	3127
923.767	3203
923.876	3173
923.984	3268
924.092	3112
924.201	3195
924.309	3146
924.417	3241
924.525	3192
924.633	3249
924.741	4185
924.849	3077
924.956	3275
925.064	3127
925.172	3024
925.279	3077
925.387	3195
925.494	3169
925.602	3344
925.709	3332
925.816	3214
925.924	3302
926.031	3363
926.138	3317
926.245	3382
926.352	3264
926.459	3420
926.566	3504
926.673	3298
926.779	3260
926.886	3237
926.993	3173
927.099	3138
927.206	3138
927.312	3150
927.419	3233
927.525	3188
927.631	3283
927.737	3146
927.843	3112
927.95	3028
928.056	3119
928.162	3169
928.267	3249
928.373	3838
928.479	3329
928.585	3070
928.69	3249
928.796	3283
928.901	3173
929.007	3058
929.112	3211
929.218	3176
929.323	3180
929.428	3180
929.533	3310
929.638	3131
929.743	3192
929.848	3264
929.953	3211
930.058	3173
930.163	2975
930.267	3058
930.372	3203
930.477	3013
930.581	3283
930.685	3154
930.79	3020
930.894	3127
930.998	3089
931.103	3275
931.207	2963
931.311	2918
931.415	2941
931.519	2800
931.623	2823
