Data from test_V78500241_1517.txt Node
Date: Fri Mar 25 16:25:42 CST 2022
User: usil
Spectrometer: V785-0024
Trigger mode: 0
Integration Time (sec): 4.000000E-1
Scans to average: 1
Nonlinearity correction enabled: false
Boxcar width: 0
Storing dark spectrum: false
XAxis mode: Wavelengths
Number of Pixels in Spectrum: 1024
>>>>>Begin Spectral Data<<<<<
801.071	2895
801.214	2944
801.356	2887
801.499	2868
801.641	2853
801.783	2941
801.926	3051
802.068	2960
802.211	2986
802.353	3001
802.496	2956
802.638	3028
802.78	3055
802.923	3024
803.065	2994
803.208	2883
803.35	2887
803.492	2937
803.635	2895
803.777	2762
803.919	2845
804.061	3173
804.204	2937
804.346	2864
804.488	2815
804.63	2952
804.773	2872
804.915	2933
805.057	3047
805.199	2895
805.341	2948
805.483	3039
805.626	2967
805.768	2944
805.91	3051
806.052	3081
806.194	3043
806.336	3218
806.478	3066
806.62	2975
806.762	3005
806.904	3058
807.046	3131
807.188	2967
807.33	2891
807.472	3001
807.614	2906
807.756	2971
807.898	2918
808.04	2883
808.182	2937
808.324	2902
808.465	2849
808.607	2872
808.749	2788
808.891	2796
809.033	2956
809.174	2998
809.316	2872
809.458	2864
809.6	2731
809.741	2792
809.883	2746
810.025	2823
810.166	2823
810.308	2804
810.45	2830
810.591	2769
810.733	2785
810.875	2834
811.016	2762
811.158	2731
811.299	2857
811.441	2941
811.582	2868
811.724	2800
811.865	2811
812.007	2895
812.148	2876
812.29	2849
812.431	2887
812.573	2922
812.714	2952
812.855	3043
812.997	3077
813.138	3119
813.279	3013
813.421	2971
813.562	2944
813.703	2849
813.845	2914
813.986	2788
814.127	2720
814.268	2819
814.41	2861
814.551	2773
814.692	2883
814.833	2800
814.974	2914
815.115	2960
815.256	2830
815.397	2796
815.539	2834
815.68	2773
815.821	2788
815.962	2941
816.103	2929
816.244	2853
816.385	2857
816.526	2960
816.666	2891
816.807	2727
816.948	2872
817.089	2925
817.23	2872
817.371	2777
817.512	2823
817.653	2845
817.793	2811
817.934	2887
818.075	2982
818.216	2998
818.356	3077
818.497	2895
818.638	2819
818.778	2876
818.919	2796
819.06	2758
819.2	2887
819.341	2842
819.481	2785
819.622	2902
819.762	3036
819.903	3017
820.043	2933
820.184	2914
820.324	2899
820.465	3001
820.605	2986
820.746	3028
820.886	2933
821.026	3074
821.167	3169
821.307	3214
821.447	3275
821.588	3264
821.728	3207
821.868	3214
822.008	3066
822.149	3192
822.289	3241
822.429	3123
822.569	3089
822.709	3135
822.849	3032
822.99	3039
823.13	3157
823.27	3199
823.41	3066
823.55	3154
823.69	3154
823.83	3214
823.97	3055
824.11	2975
824.25	2971
824.389	3070
824.529	3089
824.669	3058
824.809	3135
824.949	3237
825.089	3245
825.228	3116
825.368	2986
825.508	2960
825.648	2982
825.787	2986
825.927	3013
826.067	2986
826.206	3005
826.346	3020
826.485	3047
826.625	3112
826.765	3230
826.904	3184
827.044	2986
827.183	2933
827.323	2857
827.462	2948
827.601	2918
827.741	2899
827.88	2963
828.02	2830
828.159	2967
828.298	2990
828.437	3062
828.577	3066
828.716	3226
828.855	3085
828.994	2960
829.134	2880
829.273	2891
829.412	2842
829.551	2845
829.69	2872
829.829	2986
829.968	3112
830.107	3009
830.246	3020
830.385	2929
830.524	2880
830.663	2834
830.802	2739
830.941	2640
831.08	2667
831.219	2762
831.357	2762
831.496	2967
831.635	2678
831.774	2644
831.913	2663
832.051	2533
832.19	2606
832.329	2674
832.467	2526
832.606	2473
832.744	2590
832.883	2560
833.022	2590
833.16	2640
833.299	2663
833.437	2678
833.576	2693
833.714	2762
833.852	2727
833.991	2762
834.129	2853
834.267	2815
834.406	2777
834.544	2853
834.682	2849
834.821	2872
834.959	3039
835.097	2906
835.235	3058
835.373	2986
835.511	3017
835.65	2960
835.788	2975
835.926	2826
836.064	2800
836.202	2849
836.34	3104
836.478	3112
836.615	3066
836.753	3146
836.891	3192
837.029	3150
837.167	3097
837.305	3055
837.443	3039
837.58	2967
837.718	3097
837.856	3074
837.993	3062
838.131	3085
838.269	3081
838.406	3093
838.544	3100
838.681	2891
838.819	2906
838.956	2807
839.094	2823
839.231	2880
839.369	2986
839.506	3367
839.643	3226
839.781	3013
839.918	2941
840.055	3039
840.193	3043
840.33	3085
840.467	3104
840.604	3150
840.742	3367
840.879	3043
841.016	3036
841.153	3089
841.29	3332
841.427	3272
841.564	3256
841.701	3336
841.838	3184
841.975	3157
842.112	3253
842.249	3074
842.385	3036
842.522	3226
842.659	3028
842.796	3024
842.933	3089
843.069	3039
843.206	2990
843.343	3184
843.479	3112
843.616	3150
843.752	2914
843.889	2819
844.025	3100
844.162	2872
844.298	3085
844.435	2941
844.571	2922
844.708	3097
844.844	3207
844.98	3241
845.117	3184
845.253	3070
845.389	2986
845.525	3142
845.661	3085
845.798	2998
845.934	3108
846.07	3043
846.206	3207
846.342	3291
846.478	3233
846.614	3085
846.75	3055
846.886	3005
847.022	3249
847.158	3150
847.294	3199
847.429	3203
847.565	3207
847.701	3507
847.837	3013
847.972	2975
848.108	3165
848.244	3104
848.379	2967
848.515	2918
848.65	2910
848.786	2960
848.921	3017
849.057	3108
849.192	3119
849.328	3062
849.463	3119
849.598	3070
849.734	3055
849.869	2994
850.004	2845
850.14	2960
850.275	2925
850.41	2834
850.545	2876
850.68	2944
850.815	2960
850.95	2963
851.085	3214
851.22	3119
851.355	3032
851.49	2975
851.625	2982
851.76	3032
851.895	2910
852.03	2929
852.165	3058
852.299	3108
852.434	3165
852.569	3131
852.703	3173
852.838	3233
852.973	3370
853.107	3321
853.242	3150
853.376	3032
853.511	3001
853.645	3032
853.78	3203
853.914	3116
854.048	3097
854.183	3047
854.317	3077
854.451	3325
854.585	3157
854.72	3097
854.854	3226
854.988	3051
855.122	3066
855.256	2967
855.39	3119
855.524	3207
855.658	3188
855.792	3142
855.926	3180
856.06	3211
856.194	3253
856.327	3131
856.461	3070
856.595	3051
856.729	3116
856.862	3184
856.996	3161
857.13	3203
857.263	3226
857.397	3260
857.53	3138
857.664	3165
857.797	3268
857.931	3268
858.064	3142
858.197	3207
858.331	3127
858.464	3100
858.597	2998
858.731	3062
858.864	3127
858.997	3039
859.13	3146
859.263	3203
859.396	3207
859.529	3112
859.662	3097
859.795	3070
859.928	3131
860.061	3241
860.194	3275
860.327	3123
860.46	3070
860.592	3253
860.725	3249
860.858	3253
860.99	3123
861.123	3062
861.256	3020
861.388	3161
861.521	3934
861.653	3020
861.786	2990
861.918	2982
862.05	3081
862.183	3062
862.315	3154
862.447	3192
862.58	3112
862.712	2956
862.844	2845
862.976	3020
863.108	3009
863.24	3325
863.372	2872
863.504	2952
863.636	2960
863.768	3047
863.9	2952
864.032	2887
864.164	2910
864.296	2986
864.428	3104
864.559	3104
864.691	3058
864.823	3097
864.954	3009
865.086	3032
865.217	2941
865.349	2963
865.48	2956
865.612	3024
865.743	3123
865.875	2937
866.006	2952
866.137	2967
866.269	2960
866.4	2948
866.531	2929
866.662	2880
866.793	2883
866.924	2880
867.055	2979
867.186	2899
867.317	2902
867.448	2796
867.579	2815
867.71	2845
867.841	2823
867.972	2887
868.103	2914
868.233	2880
868.364	2853
868.495	2895
868.625	3047
868.756	3157
868.886	2960
869.017	3017
869.147	3165
869.278	3188
869.408	3043
869.539	3036
869.669	3089
869.799	3036
869.929	3112
870.06	3093
870.19	3298
870.32	3317
870.45	3325
870.58	3363
870.71	3409
870.84	3412
870.97	3298
871.1	3226
871.23	3435
871.36	3412
871.489	3374
871.619	3393
871.749	3382
871.879	3447
872.008	3485
872.138	3389
872.267	3306
872.397	3173
872.526	3104
872.656	3036
872.785	3077
872.915	3226
873.044	3317
873.173	3184
873.303	3207
873.432	3230
873.561	3291
873.69	3165
873.819	3150
873.948	3184
874.077	3104
874.206	3024
874.335	3066
874.464	3211
874.593	3348
874.722	3249
874.851	3378
874.979	3294
875.108	3359
875.237	3188
875.365	3176
875.494	3169
875.623	3214
875.751	3085
875.88	3085
876.008	3146
876.136	3169
876.265	3386
876.393	3523
876.521	3382
876.65	3416
876.778	3332
876.906	3264
877.034	3203
877.162	3222
877.29	3161
877.418	3268
877.546	3237
877.674	3253
877.802	3188
877.93	3180
878.058	3173
878.185	3135
878.313	3157
878.441	3199
878.568	3039
878.696	3150
878.824	3241
878.951	3283
879.079	3397
879.206	3614
879.333	3428
879.461	3359
879.588	3313
879.715	3424
879.842	3603
879.97	3370
880.097	3207
880.224	3112
880.351	3165
880.478	3192
880.605	3218
880.732	3176
880.859	3466
880.986	3310
881.112	3298
881.239	3165
881.366	3089
881.493	3024
881.619	3020
881.746	3043
881.872	3077
881.999	3085
882.125	3161
882.252	3230
882.378	3306
882.505	3401
882.631	3245
882.757	3138
882.883	3192
883.01	3218
883.136	3173
883.262	3127
883.388	3108
883.514	3298
883.64	3351
883.766	3275
883.892	3203
884.018	3237
884.143	3409
884.269	3492
884.395	3184
884.52	3135
884.646	3146
884.772	3123
884.897	3081
885.023	3188
885.148	3298
885.274	3435
885.399	3374
885.524	3249
885.65	3230
885.775	3294
885.9	3291
886.025	3424
886.15	3386
886.275	3283
886.4	3237
886.525	3329
886.65	3294
886.775	3317
886.9	3519
887.025	3667
887.149	3389
887.274	3256
887.399	3169
887.523	3207
887.648	3154
887.773	3195
887.897	3386
888.021	3393
888.146	3329
888.27	3496
888.395	3523
888.519	3420
888.643	3443
888.767	3428
888.891	3298
889.015	3264
889.139	3306
889.263	3249
889.387	3374
889.511	3538
889.635	3447
889.759	3302
889.883	3279
890.006	3424
890.13	3523
890.254	3268
890.377	3317
890.501	3222
890.624	3211
890.748	3310
890.871	3180
890.995	3135
891.118	3070
891.241	3214
891.364	3256
891.488	3279
891.611	3150
891.734	3192
891.857	3283
891.98	3260
892.103	3329
892.226	3256
892.349	3188
892.471	3097
892.594	3188
892.717	3287
892.839	3268
892.962	3287
893.085	3405
893.207	3245
893.33	3157
893.452	3188
893.575	3367
893.697	3253
893.819	3454
893.941	3473
894.064	3450
894.186	3291
894.308	3245
894.43	3420
894.552	3526
894.674	3458
894.796	3256
894.918	3264
895.04	3283
895.161	3389
895.283	3344
895.405	3317
895.526	3355
895.648	3389
895.769	3428
895.891	3447
896.012	3500
896.134	3462
896.255	3397
896.376	3367
896.498	3363
896.619	3439
896.74	3367
896.861	3386
896.982	3663
897.103	3930
897.224	3587
897.345	3488
897.466	3412
897.587	3504
897.708	3644
897.828	3561
897.949	3481
898.07	3325
898.19	3424
898.311	3595
898.431	3447
898.552	3534
898.672	3584
898.792	3595
898.913	3534
899.033	3409
899.153	3294
899.273	3203
899.393	3291
899.513	3279
899.633	3363
899.753	3340
899.873	3298
899.993	3374
900.113	3348
900.232	3329
900.352	3374
900.472	3275
900.591	3237
900.711	3260
900.83	3245
900.95	3393
901.069	3496
901.189	3310
901.308	3157
901.427	3146
901.546	3180
901.665	3245
901.784	3306
901.904	3188
902.023	3138
902.141	3043
902.26	2979
902.379	3112
902.498	3089
902.617	3020
902.735	3180
902.854	3207
902.973	3180
903.091	3051
903.21	3062
903.328	3135
903.446	3119
903.565	3093
903.683	3214
903.801	3161
903.919	3226
904.038	3272
904.156	3169
904.274	3332
904.392	3260
904.51	3348
904.627	3306
904.745	3458
904.863	3477
904.981	3253
905.098	3169
905.216	3230
905.334	3272
905.451	3291
905.569	3279
905.686	3443
905.803	3424
905.921	3287
906.038	3428
906.155	3359
906.272	3268
906.389	3310
906.506	3237
906.623	3260
906.74	3298
906.857	3207
906.974	3233
907.091	3435
907.208	3576
907.324	3500
907.441	3409
907.557	3253
907.674	3237
907.79	3214
907.907	3260
908.023	3351
908.139	3336
908.256	3355
908.372	3351
908.488	3351
908.604	3214
908.72	3218
908.836	3275
908.952	3283
909.068	3344
909.184	3454
909.3	3420
909.415	3481
909.531	3485
909.647	3287
909.762	3256
909.878	3256
909.993	3370
910.108	3321
910.224	3351
910.339	3397
910.454	3313
910.57	3302
910.685	3249
910.8	3595
910.915	3504
911.03	3447
911.145	3260
911.259	3249
911.374	3310
911.489	3241
911.604	3211
911.718	3119
911.833	3150
911.947	2998
912.062	2998
912.176	3135
912.291	3192
912.405	3180
912.519	3386
912.633	3488
912.748	3298
912.862	3275
912.976	3173
913.09	3077
913.204	3161
913.318	3218
913.431	3325
913.545	3329
913.659	3412
913.772	3291
913.886	3214
914	3199
914.113	3344
914.226	3389
914.34	3340
914.453	3214
914.566	3401
914.68	3317
914.793	3325
914.906	3142
915.019	3127
915.132	3066
915.245	3157
915.358	3211
915.47	3214
915.583	3253
915.696	3287
915.809	3420
915.921	3401
916.034	3268
916.146	3268
916.259	3173
916.371	3359
916.483	3374
916.595	3199
916.708	3291
916.82	3302
916.932	3351
917.044	3359
917.156	3317
917.268	3256
917.38	3294
917.491	3321
917.603	3336
917.715	3485
917.826	3447
917.938	3389
918.049	3249
918.161	3450
918.272	3564
918.384	3564
918.495	3496
918.606	3344
918.717	3298
918.828	3393
918.939	3405
919.05	3291
919.161	3382
919.272	3169
919.383	3321
919.494	3477
919.604	3720
919.715	3534
919.826	3397
919.936	3469
920.047	3572
920.157	3564
920.267	3736
920.378	3576
920.488	3549
920.598	3732
920.708	3960
920.818	3835
920.928	3838
921.038	4002
921.148	3934
921.258	3667
921.368	3656
921.477	3568
921.587	3538
921.697	3416
921.806	3606
921.916	3538
922.025	3325
922.134	3351
922.244	3302
922.353	3412
922.462	3275
922.571	3253
922.68	3119
922.789	3074
922.898	3127
923.007	3062
923.116	3211
923.224	3211
923.333	3188
923.442	3043
923.55	3108
923.659	3142
923.767	3226
923.876	3127
923.984	3245
924.092	3116
924.201	3192
924.309	3199
924.417	3222
924.525	3218
924.633	3222
924.741	4177
924.849	3039
924.956	3233
925.064	3104
925.172	3032
925.279	3119
925.387	3176
925.494	3211
925.602	3367
925.709	3336
925.816	3180
925.924	3275
926.031	3370
926.138	3336
926.245	3370
926.352	3218
926.459	3397
926.566	3435
926.673	3287
926.779	3230
926.886	3268
926.993	3169
927.099	3123
927.206	3112
927.312	3150
927.419	3256
927.525	3165
927.631	3253
927.737	3131
927.843	3119
927.95	3017
928.056	3176
928.162	3142
928.267	3245
928.373	3778
928.479	3332
928.585	3070
928.69	3207
928.796	3249
928.901	3161
929.007	3055
929.112	3222
929.218	3173
929.323	3135
929.428	3154
929.533	3272
929.638	3154
929.743	3157
929.848	3256
929.953	3214
930.058	3127
930.163	2990
930.267	3005
930.372	3150
930.477	3039
930.581	3294
930.685	3108
930.79	3058
930.894	3119
930.998	3108
931.103	3298
931.207	2941
931.311	2963
931.415	2944
931.519	2754
931.623	2785
