Data from test_V78500241_1355.txt Node
Date: Fri Mar 25 16:24:35 CST 2022
User: usil
Spectrometer: V785-0024
Trigger mode: 0
Integration Time (sec): 4.000000E-1
Scans to average: 1
Nonlinearity correction enabled: false
Boxcar width: 0
Storing dark spectrum: false
XAxis mode: Wavelengths
Number of Pixels in Spectrum: 1024
>>>>>Begin Spectral Data<<<<<
801.071	2910
801.214	2956
801.356	2899
801.499	2876
801.641	2895
801.783	2914
801.926	3036
802.068	2982
802.211	2982
802.353	3066
802.496	2994
802.638	2998
802.78	3062
802.923	3089
803.065	2967
803.208	2895
803.35	2933
803.492	2937
803.635	2925
803.777	2758
803.919	2895
804.061	3222
804.204	2922
804.346	2922
804.488	2830
804.63	2990
804.773	2868
804.915	2941
805.057	3058
805.199	2891
805.341	2982
805.483	3005
805.626	2994
805.768	2922
805.91	3058
806.052	3161
806.194	3039
806.336	3218
806.478	2998
806.62	2963
806.762	2967
806.904	3039
807.046	3104
807.188	2975
807.33	2906
807.472	2975
807.614	2918
807.756	3009
807.898	2918
808.04	2899
808.182	2979
808.324	2963
808.465	2891
808.607	2857
808.749	2815
808.891	2842
809.033	2963
809.174	2956
809.316	2887
809.458	2868
809.6	2800
809.741	2792
809.883	2769
810.025	2842
810.166	2864
810.308	2887
810.45	2872
810.591	2792
810.733	2743
810.875	2838
811.016	2773
811.158	2769
811.299	2819
811.441	2906
811.582	2864
811.724	2815
811.865	2826
812.007	2861
812.148	2872
812.29	2849
812.431	2899
812.573	2952
812.714	2967
812.855	3020
812.997	3036
813.138	3138
813.279	2979
813.421	2952
813.562	2982
813.703	2880
813.845	2914
813.986	2746
814.127	2735
814.268	2807
814.41	2845
814.551	2796
814.692	2838
814.833	2830
814.974	2880
815.115	2944
815.256	2815
815.397	2849
815.539	2826
815.68	2758
815.821	2746
815.962	2922
816.103	2929
816.244	2887
816.385	2880
816.526	2944
816.666	2933
816.807	2758
816.948	2861
817.089	2925
817.23	2872
817.371	2743
817.512	2811
817.653	2838
817.793	2804
817.934	2876
818.075	2952
818.216	3013
818.356	2994
818.497	2895
818.638	2788
818.778	2842
818.919	2800
819.06	2754
819.2	2872
819.341	2819
819.481	2811
819.622	2895
819.762	3089
819.903	3036
820.043	2914
820.184	2925
820.324	2910
820.465	3020
820.605	2975
820.746	3017
820.886	2933
821.026	3093
821.167	3138
821.307	3249
821.447	3302
821.588	3233
821.728	3241
821.868	3222
822.008	3058
822.149	3233
822.289	3218
822.429	3077
822.569	3066
822.709	3180
822.849	3032
822.99	3051
823.13	3154
823.27	3180
823.41	3093
823.55	3150
823.69	3131
823.83	3199
823.97	3089
824.11	2963
824.25	2979
824.389	3039
824.529	3062
824.669	3055
824.809	3169
824.949	3233
825.089	3214
825.228	3135
825.368	2990
825.508	2960
825.648	2982
825.787	3020
825.927	3032
826.067	2963
826.206	3005
826.346	3036
826.485	3062
826.625	3146
826.765	3241
826.904	3230
827.044	2979
827.183	2899
827.323	2845
827.462	3009
827.601	2895
827.741	2899
827.88	2887
828.02	2826
828.159	2979
828.298	2998
828.437	3093
828.577	3024
828.716	3218
828.855	3062
828.994	2918
829.134	2849
829.273	2902
829.412	2857
829.551	2868
829.69	2853
829.829	2922
829.968	3104
830.107	3009
830.246	3036
830.385	2933
830.524	2883
830.663	2823
830.802	2727
830.941	2613
831.08	2644
831.219	2754
831.357	2758
831.496	2929
831.635	2716
831.774	2621
831.913	2617
832.051	2530
832.19	2610
832.329	2655
832.467	2514
832.606	2457
832.744	2598
832.883	2564
833.022	2568
833.16	2613
833.299	2670
833.437	2682
833.576	2727
833.714	2735
833.852	2712
833.991	2712
834.129	2842
834.267	2823
834.406	2792
834.544	2899
834.682	2861
834.821	2853
834.959	3036
835.097	2902
835.235	3058
835.373	2990
835.511	3024
835.65	2956
835.788	2914
835.926	2804
836.064	2826
836.202	2815
836.34	3028
836.478	3173
836.615	3028
836.753	3123
836.891	3218
837.029	3138
837.167	3100
837.305	3051
837.443	3051
837.58	2941
837.718	3127
837.856	3093
837.993	3055
838.131	3097
838.269	3081
838.406	3062
838.544	3081
838.681	2929
838.819	2872
838.956	2815
839.094	2819
839.231	2922
839.369	3028
839.506	3351
839.643	3237
839.781	3005
839.918	2952
840.055	3036
840.193	3001
840.33	3036
840.467	3066
840.604	3146
840.742	3378
840.879	3024
841.016	3070
841.153	3116
841.29	3325
841.427	3260
841.564	3260
841.701	3317
841.838	3218
841.975	3180
842.112	3241
842.249	3062
842.385	2998
842.522	3253
842.659	3104
842.796	3074
842.933	3100
843.069	3043
843.206	2998
843.343	3195
843.479	3097
843.616	3112
843.752	2914
843.889	2857
844.025	3081
844.162	2853
844.298	3085
844.435	2952
844.571	2887
844.708	3055
844.844	3165
844.98	3203
845.117	3165
845.253	3009
845.389	3024
845.525	3104
845.661	3100
845.798	2967
845.934	3116
846.07	3036
846.206	3237
846.342	3325
846.478	3184
846.614	3043
846.75	3009
846.886	2998
847.022	3233
847.158	3123
847.294	3157
847.429	3241
847.565	3207
847.701	3447
847.837	3039
847.972	2986
848.108	3146
848.244	3074
848.379	2971
848.515	2948
848.65	2914
848.786	2944
848.921	2986
849.057	3066
849.192	3135
849.328	3112
849.463	3116
849.598	3032
849.734	3039
849.869	2944
850.004	2933
850.14	2948
850.275	2883
850.41	2876
850.545	2891
850.68	2944
850.815	2899
850.95	2933
851.085	3180
851.22	3093
851.355	3036
851.49	2971
851.625	2994
851.76	3028
851.895	2906
852.03	2914
852.165	3032
852.299	3104
852.434	3192
852.569	3127
852.703	3184
852.838	3241
852.973	3336
853.107	3310
853.242	3173
853.376	3112
853.511	2960
853.645	3036
853.78	3245
853.914	3104
854.048	3108
854.183	3074
854.317	3165
854.451	3283
854.585	3138
854.72	3062
854.854	3180
854.988	3062
855.122	3047
855.256	2975
855.39	3100
855.524	3161
855.658	3211
855.792	3199
855.926	3184
856.06	3211
856.194	3253
856.327	3131
856.461	3058
856.595	3039
856.729	3100
856.862	3218
856.996	3169
857.13	3207
857.263	3245
857.397	3310
857.53	3127
857.664	3165
857.797	3203
857.931	3241
858.064	3138
858.197	3230
858.331	3123
858.464	3077
858.597	3017
858.731	3097
858.864	3108
858.997	3055
859.13	3123
859.263	3135
859.396	3195
859.529	3077
859.662	3058
859.795	3051
859.928	3112
860.061	3317
860.194	3283
860.327	3150
860.46	3077
860.592	3214
860.725	3199
860.858	3253
860.99	3123
861.123	3039
861.256	3036
861.388	3150
861.521	3705
861.653	2982
861.786	3017
861.918	2937
862.05	3020
862.183	3089
862.315	3169
862.447	3108
862.58	3058
862.712	2933
862.844	2857
862.976	3005
863.108	2994
863.24	3321
863.372	2880
863.504	2979
863.636	2952
863.768	3013
863.9	2975
864.032	2910
864.164	2941
864.296	2982
864.428	3074
864.559	3058
864.691	3074
864.823	3020
864.954	3036
865.086	3009
865.217	2990
865.349	2929
865.48	2990
865.612	3024
865.743	3157
865.875	3005
866.006	2948
866.137	2960
866.269	2929
866.4	2918
866.531	2929
866.662	2895
866.793	2868
866.924	2902
867.055	2975
867.186	2922
867.317	2883
867.448	2861
867.579	2834
867.71	2861
867.841	2788
867.972	2857
868.103	2899
868.233	2880
868.364	2876
868.495	2899
868.625	3066
868.756	3157
868.886	2982
869.017	3017
869.147	3173
869.278	3188
869.408	2994
869.539	3017
869.669	3081
869.799	3047
869.929	3157
870.06	3097
870.19	3283
870.32	3245
870.45	3302
870.58	3378
870.71	3428
870.84	3435
870.97	3298
871.1	3237
871.23	3477
871.36	3389
871.489	3317
871.619	3378
871.749	3382
871.879	3409
872.008	3424
872.138	3363
872.267	3268
872.397	3146
872.526	3081
872.656	3009
872.785	3093
872.915	3203
873.044	3298
873.173	3222
873.303	3218
873.432	3237
873.561	3211
873.69	3146
873.819	3138
873.948	3188
874.077	3081
874.206	3020
874.335	3074
874.464	3203
874.593	3310
874.722	3260
874.851	3393
874.979	3329
875.108	3291
875.237	3195
875.365	3161
875.494	3176
875.623	3214
875.751	3055
875.88	3123
876.008	3214
876.136	3211
876.265	3378
876.393	3485
876.521	3431
876.65	3378
876.778	3332
876.906	3195
877.034	3207
877.162	3237
877.29	3173
877.418	3245
877.546	3214
877.674	3207
877.802	3207
877.93	3169
878.058	3127
878.185	3093
878.313	3203
878.441	3195
878.568	3066
878.696	3116
878.824	3218
878.951	3279
879.079	3416
879.206	3606
879.333	3416
879.461	3329
879.588	3367
879.715	3492
879.842	3568
879.97	3401
880.097	3154
880.224	3097
880.351	3142
880.478	3226
880.605	3199
880.732	3237
880.859	3485
880.986	3260
881.112	3310
881.239	3150
881.366	3093
881.493	3024
881.619	2963
881.746	3070
881.872	3116
881.999	3116
882.125	3135
882.252	3199
882.378	3302
882.505	3428
882.631	3287
882.757	3154
882.883	3188
883.01	3218
883.136	3138
883.262	3070
883.388	3157
883.514	3298
883.64	3325
883.766	3283
883.892	3173
884.018	3211
884.143	3370
884.269	3507
884.395	3176
884.52	3161
884.646	3138
884.772	3116
884.897	3066
885.023	3203
885.148	3325
885.274	3370
885.399	3348
885.524	3233
885.65	3230
885.775	3317
885.9	3253
886.025	3412
886.15	3367
886.275	3302
886.4	3233
886.525	3264
886.65	3256
886.775	3275
886.9	3500
887.025	3629
887.149	3405
887.274	3245
887.399	3192
887.523	3218
887.648	3150
887.773	3211
887.897	3332
888.021	3401
888.146	3310
888.27	3428
888.395	3500
888.519	3431
888.643	3424
888.767	3481
888.891	3291
889.015	3249
889.139	3306
889.263	3188
889.387	3428
889.511	3549
889.635	3473
889.759	3279
889.883	3298
890.006	3401
890.13	3485
890.254	3256
890.377	3332
890.501	3214
890.624	3195
890.748	3294
890.871	3207
890.995	3146
891.118	3074
891.241	3218
891.364	3230
891.488	3310
891.611	3173
891.734	3214
891.857	3283
891.98	3260
892.103	3336
892.226	3256
892.349	3218
892.471	3157
892.594	3272
892.717	3321
892.839	3336
892.962	3336
893.085	3435
893.207	3317
893.33	3237
893.452	3233
893.575	3386
893.697	3302
893.819	3519
893.941	3492
894.064	3481
894.186	3321
894.308	3291
894.43	3469
894.552	3549
894.674	3496
894.796	3317
894.918	3355
895.04	3344
895.161	3458
895.283	3435
895.405	3363
895.526	3412
895.648	3469
895.769	3412
895.891	3492
896.012	3515
896.134	3538
896.255	3462
896.376	3435
896.498	3416
896.619	3462
896.74	3393
896.861	3443
896.982	3720
897.103	3842
897.224	3660
897.345	3545
897.466	3481
897.587	3526
897.708	3625
897.828	3637
897.949	3511
898.07	3348
898.19	3431
898.311	3656
898.431	3488
898.552	3545
898.672	3652
898.792	3625
898.913	3549
899.033	3447
899.153	3336
899.273	3268
899.393	3329
899.513	3336
899.633	3321
899.753	3351
899.873	3382
899.993	3401
900.113	3340
900.232	3428
900.352	3382
900.472	3275
900.591	3222
900.711	3329
900.83	3256
900.95	3443
901.069	3526
901.189	3389
901.308	3180
901.427	3165
901.546	3218
901.665	3313
901.784	3386
901.904	3272
902.023	3199
902.141	3055
902.26	3013
902.379	3195
902.498	3108
902.617	3085
902.735	3192
902.854	3279
902.973	3253
903.091	3127
903.21	3100
903.328	3192
903.446	3123
903.565	3127
903.683	3226
903.801	3157
903.919	3298
904.038	3302
904.156	3214
904.274	3321
904.392	3298
904.51	3329
904.627	3374
904.745	3485
904.863	3488
904.981	3306
905.098	3161
905.216	3264
905.334	3321
905.451	3348
905.569	3340
905.686	3454
905.803	3462
905.921	3336
906.038	3454
906.155	3393
906.272	3291
906.389	3340
906.506	3256
906.623	3268
906.74	3298
906.857	3241
906.974	3291
907.091	3519
907.208	3557
907.324	3538
907.441	3443
907.557	3233
907.674	3256
907.79	3245
907.907	3253
908.023	3416
908.139	3405
908.256	3313
908.372	3397
908.488	3370
908.604	3310
908.72	3287
908.836	3302
908.952	3313
909.068	3351
909.184	3511
909.3	3420
909.415	3523
909.531	3519
909.647	3325
909.762	3302
909.878	3310
909.993	3370
910.108	3351
910.224	3374
910.339	3458
910.454	3367
910.57	3313
910.685	3245
910.8	3606
910.915	3587
911.03	3458
911.145	3275
911.259	3275
911.374	3291
911.489	3287
911.604	3260
911.718	3169
911.833	3176
911.947	3013
912.062	3009
912.176	3188
912.291	3237
912.405	3214
912.519	3458
912.633	3462
912.748	3363
912.862	3310
912.976	3180
913.09	3093
913.204	3165
913.318	3222
913.431	3355
913.545	3393
913.659	3454
913.772	3393
913.886	3256
914	3268
914.113	3370
914.226	3424
914.34	3412
914.453	3260
914.566	3424
914.68	3329
914.793	3367
914.906	3157
915.019	3142
915.132	3119
915.245	3192
915.358	3203
915.47	3306
915.583	3287
915.696	3344
915.809	3462
915.921	3420
916.034	3253
916.146	3268
916.259	3241
916.371	3424
916.483	3386
916.595	3298
916.708	3405
916.82	3359
916.932	3412
917.044	3393
917.156	3389
917.268	3283
917.38	3321
917.491	3291
917.603	3416
917.715	3462
917.826	3519
917.938	3397
918.049	3317
918.161	3454
918.272	3587
918.384	3603
918.495	3526
918.606	3370
918.717	3272
918.828	3367
918.939	3401
919.05	3344
919.161	3386
919.272	3203
919.383	3310
919.494	3511
919.604	3667
919.715	3534
919.826	3431
919.936	3458
920.047	3618
920.157	3599
920.267	3797
920.378	3660
920.488	3576
920.598	3842
920.708	3991
920.818	3812
920.928	3861
921.038	4021
921.148	4021
921.258	3736
921.368	3663
921.477	3637
921.587	3584
921.697	3538
921.806	3675
921.916	3580
922.025	3348
922.134	3389
922.244	3310
922.353	3447
922.462	3294
922.571	3256
922.68	3131
922.789	3119
922.898	3150
923.007	3112
923.116	3275
923.224	3180
923.333	3195
923.442	3123
923.55	3131
923.659	3188
923.767	3283
923.876	3165
923.984	3253
924.092	3157
924.201	3233
924.309	3207
924.417	3291
924.525	3218
924.633	3260
924.741	4021
924.849	3066
924.956	3336
925.064	3085
925.172	3081
925.279	3116
925.387	3211
925.494	3214
925.602	3397
925.709	3382
925.816	3180
925.924	3275
926.031	3424
926.138	3374
926.245	3325
926.352	3302
926.459	3454
926.566	3473
926.673	3317
926.779	3256
926.886	3283
926.993	3188
927.099	3150
927.206	3131
927.312	3154
927.419	3233
927.525	3253
927.631	3283
927.737	3199
927.843	3135
927.95	3097
928.056	3138
928.162	3218
928.267	3279
928.373	3835
928.479	3340
928.585	3085
928.69	3214
928.796	3348
928.901	3237
929.007	3047
929.112	3237
929.218	3233
929.323	3195
929.428	3157
929.533	3329
929.638	3131
929.743	3211
929.848	3313
929.953	3203
930.058	3135
930.163	3036
930.267	3055
930.372	3203
930.477	3058
930.581	3279
930.685	3192
930.79	3085
930.894	3161
930.998	3116
931.103	3298
931.207	2944
931.311	2971
931.415	2933
931.519	2769
931.623	2830
