Data from test_V78500241_736.txt Node
Date: Fri Mar 25 16:20:18 CST 2022
User: usil
Spectrometer: V785-0024
Trigger mode: 0
Integration Time (sec): 4.000000E-1
Scans to average: 1
Nonlinearity correction enabled: false
Boxcar width: 0
Storing dark spectrum: false
XAxis mode: Wavelengths
Number of Pixels in Spectrum: 1024
>>>>>Begin Spectral Data<<<<<
801.071	2895
801.214	2910
801.356	2830
801.499	2876
801.641	2868
801.783	2891
801.926	3028
802.068	2967
802.211	3020
802.353	3058
802.496	2899
802.638	2982
802.78	3017
802.923	3081
803.065	2990
803.208	2891
803.35	2929
803.492	2899
803.635	2933
803.777	2777
803.919	2853
804.061	3207
804.204	2918
804.346	2906
804.488	2826
804.63	2975
804.773	2868
804.915	2918
805.057	3093
805.199	2914
805.341	2963
805.483	2998
805.626	2982
805.768	2960
805.91	3070
806.052	3116
806.194	2994
806.336	3199
806.478	3017
806.62	2933
806.762	2998
806.904	3055
807.046	3150
807.188	2971
807.33	2891
807.472	2967
807.614	2895
807.756	2990
807.898	2944
808.04	2918
808.182	2960
808.324	2956
808.465	2868
808.607	2899
808.749	2792
808.891	2853
809.033	2944
809.174	2948
809.316	2864
809.458	2899
809.6	2769
809.741	2754
809.883	2769
810.025	2845
810.166	2883
810.308	2861
810.45	2830
810.591	2758
810.733	2777
810.875	2845
811.016	2777
811.158	2739
811.299	2781
811.441	2929
811.582	2918
811.724	2811
811.865	2849
812.007	2918
812.148	2872
812.29	2830
812.431	2883
812.573	2948
812.714	2952
812.855	3013
812.997	3051
813.138	3119
813.279	3005
813.421	2994
813.562	2960
813.703	2891
813.845	2891
813.986	2777
814.127	2754
814.268	2823
814.41	2819
814.551	2796
814.692	2857
814.833	2807
814.974	2876
815.115	2929
815.256	2819
815.397	2815
815.539	2876
815.68	2804
815.821	2788
815.962	2929
816.103	2925
816.244	2838
816.385	2857
816.526	2967
816.666	2929
816.807	2777
816.948	2853
817.089	2918
817.23	2845
817.371	2785
817.512	2819
817.653	2853
817.793	2830
817.934	2880
818.075	2990
818.216	2998
818.356	3032
818.497	2861
818.638	2788
818.778	2811
818.919	2785
819.06	2739
819.2	2868
819.341	2792
819.481	2785
819.622	2906
819.762	3070
819.903	3020
820.043	2910
820.184	2872
820.324	2895
820.465	2986
820.605	3013
820.746	3032
820.886	2891
821.026	3089
821.167	3146
821.307	3298
821.447	3275
821.588	3230
821.728	3192
821.868	3157
822.008	3028
822.149	3184
822.289	3211
822.429	3077
822.569	3077
822.709	3146
822.849	2952
822.99	3051
823.13	3150
823.27	3161
823.41	3112
823.55	3123
823.69	3135
823.83	3173
823.97	3077
824.11	3005
824.25	2994
824.389	3081
824.529	3123
824.669	3058
824.809	3226
824.949	3291
825.089	3260
825.228	3150
825.368	2994
825.508	2971
825.648	2994
825.787	3036
825.927	2960
826.067	2948
826.206	2948
826.346	3047
826.485	3047
826.625	3108
826.765	3268
826.904	3195
827.044	2982
827.183	2960
827.323	2861
827.462	2998
827.601	2956
827.741	2971
827.88	2937
828.02	2868
828.159	3024
828.298	3028
828.437	3127
828.577	3093
828.716	3275
828.855	3104
828.994	2899
829.134	2914
829.273	2979
829.412	2944
829.551	2838
829.69	2933
829.829	3017
829.968	3154
830.107	3077
830.246	3039
830.385	2948
830.524	2929
830.663	2830
830.802	2758
830.941	2686
831.08	2678
831.219	2804
831.357	2785
831.496	3005
831.635	2743
831.774	2689
831.913	2712
832.051	2575
832.19	2629
832.329	2724
832.467	2545
832.606	2518
832.744	2621
832.883	2636
833.022	2606
833.16	2689
833.299	2716
833.437	2754
833.576	2727
833.714	2766
833.852	2785
833.991	2800
834.129	2876
834.267	2883
834.406	2857
834.544	2895
834.682	2941
834.821	2902
834.959	3112
835.097	2952
835.235	3093
835.373	3043
835.511	3051
835.65	2982
835.788	2994
835.926	2872
836.064	2887
836.202	2838
836.34	3074
836.478	3150
836.615	3070
836.753	3176
836.891	3256
837.029	3211
837.167	3131
837.305	3108
837.443	3085
837.58	3036
837.718	3207
837.856	3081
837.993	3070
838.131	3165
838.269	3135
838.406	3157
838.544	3142
838.681	2979
838.819	2952
838.956	2872
839.094	2853
839.231	2948
839.369	3047
839.506	3424
839.643	3275
839.781	3036
839.918	2998
840.055	3032
840.193	3108
840.33	3074
840.467	3089
840.604	3188
840.742	3401
840.879	3043
841.016	3100
841.153	3146
841.29	3401
841.427	3306
841.564	3279
841.701	3310
841.838	3256
841.975	3222
842.112	3237
842.249	3131
842.385	3074
842.522	3302
842.659	3100
842.796	3085
842.933	3180
843.069	3062
843.206	3089
843.343	3184
843.479	3157
843.616	3188
843.752	2941
843.889	2914
844.025	3116
844.162	2910
844.298	3112
844.435	2948
844.571	2925
844.708	3116
844.844	3245
844.98	3264
845.117	3214
845.253	3074
845.389	3055
845.525	3138
845.661	3119
845.798	3032
845.934	3184
846.07	3116
846.206	3264
846.342	3325
846.478	3233
846.614	3135
846.75	3097
846.886	3070
847.022	3287
847.158	3161
847.294	3214
847.429	3272
847.565	3218
847.701	3492
847.837	3039
847.972	3001
848.108	3173
848.244	3165
848.379	3028
848.515	2960
848.65	2941
848.786	2971
848.921	3039
849.057	3135
849.192	3184
849.328	3077
849.463	3123
849.598	3097
849.734	3112
849.869	3036
850.004	2979
850.14	2998
850.275	2922
850.41	2880
850.545	2895
850.68	2963
850.815	2986
850.95	3001
851.085	3207
851.22	3131
851.355	3051
851.49	3047
851.625	3013
851.76	3028
851.895	2967
852.03	2933
852.165	3005
852.299	3176
852.434	3222
852.569	3157
852.703	3214
852.838	3245
852.973	3348
853.107	3344
853.242	3169
853.376	3138
853.511	3020
853.645	3058
853.78	3245
853.914	3199
854.048	3119
854.183	3119
854.317	3211
854.451	3294
854.585	3169
854.72	3138
854.854	3211
854.988	3089
855.122	3119
855.256	3017
855.39	3135
855.524	3272
855.658	3218
855.792	3138
855.926	3207
856.06	3218
856.194	3283
856.327	3173
856.461	3097
856.595	3074
856.729	3116
856.862	3275
856.996	3165
857.13	3241
857.263	3268
857.397	3317
857.53	3127
857.664	3245
857.797	3283
857.931	3275
858.064	3192
858.197	3233
858.331	3180
858.464	3104
858.597	3020
858.731	3142
858.864	3165
858.997	3108
859.13	3142
859.263	3203
859.396	3214
859.529	3097
859.662	3093
859.795	3058
859.928	3157
860.061	3279
860.194	3340
860.327	3161
860.46	3116
860.592	3275
860.725	3253
860.858	3294
860.99	3138
861.123	3043
861.256	3093
861.388	3203
861.521	3850
861.653	3020
861.786	3001
861.918	3013
862.05	3077
862.183	3112
862.315	3169
862.447	3241
862.58	3100
862.712	2975
862.844	2914
862.976	3028
863.108	2982
863.24	3431
863.372	2880
863.504	3009
863.636	2967
863.768	3070
863.9	2982
864.032	2952
864.164	2952
864.296	3036
864.428	3100
864.559	3100
864.691	3089
864.823	3100
864.954	3051
865.086	3070
865.217	2979
865.349	2967
865.48	3017
865.612	3036
865.743	3131
865.875	2994
866.006	2971
866.137	2986
866.269	2952
866.4	2971
866.531	2944
866.662	2967
866.793	2944
866.924	2937
867.055	3024
867.186	2944
867.317	2929
867.448	2853
867.579	2868
867.71	2887
867.841	2868
867.972	2925
868.103	2922
868.233	2876
868.364	2918
868.495	2918
868.625	3093
868.756	3195
868.886	3005
869.017	3036
869.147	3218
869.278	3161
869.408	3070
869.539	3074
869.669	3116
869.799	3081
869.929	3169
870.06	3123
870.19	3374
870.32	3283
870.45	3332
870.58	3378
870.71	3450
870.84	3526
870.97	3291
871.1	3275
871.23	3549
871.36	3504
871.489	3401
871.619	3397
871.749	3420
871.879	3477
872.008	3496
872.138	3378
872.267	3268
872.397	3154
872.526	3123
872.656	3062
872.785	3116
872.915	3237
873.044	3344
873.173	3226
873.303	3264
873.432	3272
873.561	3283
873.69	3154
873.819	3199
873.948	3226
874.077	3104
874.206	3074
874.335	3100
874.464	3203
874.593	3382
874.722	3268
874.851	3405
874.979	3344
875.108	3329
875.237	3230
875.365	3173
875.494	3192
875.623	3226
875.751	3104
875.88	3112
876.008	3207
876.136	3230
876.265	3393
876.393	3534
876.521	3420
876.65	3454
876.778	3355
876.906	3313
877.034	3241
877.162	3233
877.29	3184
877.418	3272
877.546	3249
877.674	3272
877.802	3249
877.93	3230
878.058	3161
878.185	3100
878.313	3226
878.441	3218
878.568	3085
878.696	3138
878.824	3275
878.951	3302
879.079	3454
879.206	3660
879.333	3435
879.461	3344
879.588	3378
879.715	3485
879.842	3629
879.97	3435
880.097	3218
880.224	3157
880.351	3203
880.478	3245
880.605	3230
880.732	3214
880.859	3572
880.986	3287
881.112	3321
881.239	3218
881.366	3116
881.493	3081
881.619	3036
881.746	3104
881.872	3081
881.999	3116
882.125	3169
882.252	3279
882.378	3344
882.505	3447
882.631	3325
882.757	3173
882.883	3218
883.01	3253
883.136	3161
883.262	3131
883.388	3150
883.514	3310
883.64	3389
883.766	3344
883.892	3222
884.018	3249
884.143	3409
884.269	3568
884.395	3241
884.52	3176
884.646	3199
884.772	3104
884.897	3165
885.023	3264
885.148	3321
885.274	3447
885.399	3367
885.524	3245
885.65	3268
885.775	3332
885.9	3294
886.025	3435
886.15	3340
886.275	3321
886.4	3226
886.525	3317
886.65	3279
886.775	3310
886.9	3523
887.025	3641
887.149	3412
887.274	3253
887.399	3226
887.523	3214
887.648	3199
887.773	3233
887.897	3386
888.021	3420
888.146	3313
888.27	3469
888.395	3500
888.519	3469
888.643	3454
888.767	3447
888.891	3317
889.015	3264
889.139	3279
889.263	3233
889.387	3420
889.511	3545
889.635	3488
889.759	3287
889.883	3294
890.006	3431
890.13	3523
890.254	3249
890.377	3359
890.501	3218
890.624	3180
890.748	3340
890.871	3218
890.995	3089
891.118	3077
891.241	3211
891.364	3226
891.488	3332
891.611	3188
891.734	3245
891.857	3302
891.98	3279
892.103	3363
892.226	3279
892.349	3233
892.471	3123
892.594	3272
892.717	3279
892.839	3279
892.962	3275
893.085	3363
893.207	3310
893.33	3135
893.452	3249
893.575	3363
893.697	3298
893.819	3458
893.941	3530
894.064	3447
894.186	3275
894.308	3291
894.43	3450
894.552	3526
894.674	3477
894.796	3260
894.918	3298
895.04	3306
895.161	3416
895.283	3386
895.405	3294
895.526	3340
895.648	3447
895.769	3439
895.891	3477
896.012	3526
896.134	3454
896.255	3405
896.376	3397
896.498	3386
896.619	3416
896.74	3397
896.861	3428
896.982	3686
897.103	3869
897.224	3671
897.345	3500
897.466	3450
897.587	3519
897.708	3622
897.828	3519
897.949	3488
898.07	3355
898.19	3454
898.311	3606
898.431	3462
898.552	3523
898.672	3591
898.792	3618
898.913	3500
899.033	3466
899.153	3313
899.273	3207
899.393	3291
899.513	3348
899.633	3317
899.753	3313
899.873	3313
899.993	3374
900.113	3348
900.232	3386
900.352	3329
900.472	3336
900.591	3218
900.711	3294
900.83	3272
900.95	3458
901.069	3450
901.189	3378
901.308	3230
901.427	3123
901.546	3195
901.665	3298
901.784	3348
901.904	3214
902.023	3142
902.141	3017
902.26	2979
902.379	3150
902.498	3058
902.617	3085
902.735	3207
902.854	3253
902.973	3241
903.091	3058
903.21	3047
903.328	3142
903.446	3131
903.565	3116
903.683	3188
903.801	3157
903.919	3272
904.038	3287
904.156	3176
904.274	3298
904.392	3230
904.51	3291
904.627	3344
904.745	3504
904.863	3511
904.981	3268
905.098	3192
905.216	3245
905.334	3325
905.451	3310
905.569	3317
905.686	3405
905.803	3450
905.921	3287
906.038	3386
906.155	3393
906.272	3310
906.389	3329
906.506	3287
906.623	3256
906.74	3249
906.857	3192
906.974	3268
907.091	3469
907.208	3576
907.324	3492
907.441	3363
907.557	3222
907.674	3264
907.79	3233
907.907	3268
908.023	3409
908.139	3393
908.256	3389
908.372	3355
908.488	3370
908.604	3313
908.72	3256
908.836	3321
908.952	3245
909.068	3348
909.184	3477
909.3	3412
909.415	3561
909.531	3496
909.647	3287
909.762	3302
909.878	3249
909.993	3367
910.108	3351
910.224	3325
910.339	3409
910.454	3363
910.57	3268
910.685	3268
910.8	3610
910.915	3545
911.03	3428
911.145	3260
911.259	3249
911.374	3355
911.489	3264
911.604	3230
911.718	3081
911.833	3161
911.947	3032
912.062	3005
912.176	3142
912.291	3176
912.405	3249
912.519	3450
912.633	3481
912.748	3332
912.862	3256
912.976	3157
913.09	3051
913.204	3157
913.318	3207
913.431	3348
913.545	3306
913.659	3424
913.772	3348
913.886	3264
914	3199
914.113	3351
914.226	3416
914.34	3370
914.453	3199
914.566	3367
914.68	3302
914.793	3321
914.906	3157
915.019	3131
915.132	3089
915.245	3180
915.358	3180
915.47	3241
915.583	3272
915.696	3306
915.809	3439
915.921	3428
916.034	3241
916.146	3298
916.259	3245
916.371	3405
916.483	3351
916.595	3283
916.708	3355
916.82	3313
916.932	3348
917.044	3355
917.156	3351
917.268	3298
917.38	3313
917.491	3313
917.603	3370
917.715	3458
917.826	3466
917.938	3370
918.049	3298
918.161	3450
918.272	3584
918.384	3625
918.495	3496
918.606	3348
918.717	3283
918.828	3363
918.939	3401
919.05	3306
919.161	3344
919.272	3184
919.383	3279
919.494	3519
919.604	3667
919.715	3504
919.826	3374
919.936	3435
920.047	3576
920.157	3564
920.267	3747
920.378	3629
920.488	3557
920.598	3774
920.708	3956
920.818	3804
920.928	3835
921.038	4006
921.148	3987
921.258	3648
921.368	3637
921.477	3587
921.587	3538
921.697	3496
921.806	3660
921.916	3568
922.025	3378
922.134	3310
922.244	3332
922.353	3405
922.462	3264
922.571	3230
922.68	3093
922.789	3112
922.898	3150
923.007	3108
923.116	3203
923.224	3161
923.333	3157
923.442	3077
923.55	3108
923.659	3135
923.767	3245
923.876	3131
923.984	3222
924.092	3085
924.201	3176
924.309	3241
924.417	3279
924.525	3211
924.633	3230
924.741	4204
924.849	3024
924.956	3268
925.064	3089
925.172	3009
925.279	3112
925.387	3199
925.494	3161
925.602	3359
925.709	3351
925.816	3211
925.924	3279
926.031	3382
926.138	3306
926.245	3348
926.352	3218
926.459	3424
926.566	3462
926.673	3336
926.779	3260
926.886	3230
926.993	3157
927.099	3119
927.206	3074
927.312	3085
927.419	3237
927.525	3180
927.631	3272
927.737	3146
927.843	3135
927.95	3066
928.056	3142
928.162	3150
928.267	3298
928.373	3838
928.479	3294
928.585	3055
928.69	3237
928.796	3260
928.901	3138
929.007	3058
929.112	3211
929.218	3173
929.323	3127
929.428	3176
929.533	3298
929.638	3123
929.743	3157
929.848	3233
929.953	3211
930.058	3116
930.163	3005
930.267	3062
930.372	3165
930.477	3036
930.581	3348
930.685	3157
930.79	3077
930.894	3150
930.998	3077
931.103	3275
931.207	2979
931.311	2956
931.415	2910
931.519	2743
931.623	2807
