Data from test_V78500241_712.txt Node
Date: Fri Mar 25 16:20:08 CST 2022
User: usil
Spectrometer: V785-0024
Trigger mode: 0
Integration Time (sec): 4.000000E-1
Scans to average: 1
Nonlinearity correction enabled: false
Boxcar width: 0
Storing dark spectrum: false
XAxis mode: Wavelengths
Number of Pixels in Spectrum: 1024
>>>>>Begin Spectral Data<<<<<
801.071	2887
801.214	2941
801.356	2872
801.499	2929
801.641	2880
801.783	2937
801.926	3036
802.068	2956
802.211	3024
802.353	3013
802.496	2990
802.638	2994
802.78	3032
802.923	3093
803.065	3020
803.208	2876
803.35	2918
803.492	2910
803.635	2922
803.777	2758
803.919	2845
804.061	3207
804.204	2948
804.346	2918
804.488	2838
804.63	2990
804.773	2872
804.915	2880
805.057	3062
805.199	2929
805.341	2933
805.483	3055
805.626	2975
805.768	2952
805.91	3066
806.052	3066
806.194	3013
806.336	3199
806.478	3001
806.62	2960
806.762	2975
806.904	3047
807.046	3138
807.188	2982
807.33	2883
807.472	2952
807.614	2910
807.756	2979
807.898	2914
808.04	2895
808.182	2963
808.324	2937
808.465	2880
808.607	2853
808.749	2815
808.891	2834
809.033	2960
809.174	2956
809.316	2883
809.458	2899
809.6	2815
809.741	2792
809.883	2762
810.025	2887
810.166	2845
810.308	2838
810.45	2838
810.591	2750
810.733	2766
810.875	2811
811.016	2773
811.158	2743
811.299	2826
811.441	2929
811.582	2914
811.724	2804
811.865	2830
812.007	2910
812.148	2914
812.29	2861
812.431	2864
812.573	2944
812.714	2948
812.855	3028
812.997	3039
813.138	3123
813.279	3036
813.421	2952
813.562	2963
813.703	2883
813.845	2876
813.986	2834
814.127	2720
814.268	2815
814.41	2823
814.551	2785
814.692	2857
814.833	2826
814.974	2880
815.115	2986
815.256	2804
815.397	2811
815.539	2868
815.68	2777
815.821	2819
815.962	2941
816.103	2883
816.244	2876
816.385	2857
816.526	2956
816.666	2910
816.807	2746
816.948	2887
817.089	2899
817.23	2857
817.371	2792
817.512	2811
817.653	2845
817.793	2815
817.934	2868
818.075	2941
818.216	2982
818.356	3013
818.497	2857
818.638	2766
818.778	2823
818.919	2804
819.06	2727
819.2	2906
819.341	2796
819.481	2811
819.622	2925
819.762	3070
819.903	3024
820.043	2933
820.184	2880
820.324	2880
820.465	3013
820.605	2982
820.746	3028
820.886	2937
821.026	3097
821.167	3123
821.307	3275
821.447	3279
821.588	3211
821.728	3226
821.868	3165
822.008	3070
822.149	3192
822.289	3249
822.429	3058
822.569	3074
822.709	3184
822.849	2998
822.99	3032
823.13	3146
823.27	3199
823.41	3123
823.55	3157
823.69	3154
823.83	3195
823.97	3066
824.11	2986
824.25	2994
824.389	3039
824.529	3089
824.669	3028
824.809	3214
824.949	3237
825.089	3203
825.228	3104
825.368	3005
825.508	2948
825.648	2967
825.787	3013
825.927	3051
826.067	2967
826.206	2948
826.346	3032
826.485	3043
826.625	3138
826.765	3253
826.904	3199
827.044	2971
827.183	2956
827.323	2861
827.462	2944
827.601	2922
827.741	2925
827.88	2918
828.02	2845
828.159	2963
828.298	3028
828.437	3127
828.577	3036
828.716	3226
828.855	3058
828.994	2887
829.134	2887
829.273	2906
829.412	2849
829.551	2868
829.69	2868
829.829	2952
829.968	3131
830.107	3005
830.246	2998
830.385	2929
830.524	2853
830.663	2777
830.802	2743
830.941	2659
831.08	2651
831.219	2754
831.357	2773
831.496	2937
831.635	2727
831.774	2640
831.913	2636
832.051	2575
832.19	2606
832.329	2659
832.467	2530
832.606	2469
832.744	2583
832.883	2590
833.022	2583
833.16	2644
833.299	2667
833.437	2682
833.576	2705
833.714	2705
833.852	2731
833.991	2735
834.129	2864
834.267	2796
834.406	2792
834.544	2853
834.682	2845
834.821	2883
834.959	3062
835.097	2861
835.235	3066
835.373	2998
835.511	3039
835.65	2956
835.788	2982
835.926	2834
836.064	2838
836.202	2849
836.34	3119
836.478	3142
836.615	3013
836.753	3119
836.891	3188
837.029	3173
837.167	3085
837.305	3043
837.443	3032
837.58	2975
837.718	3104
837.856	3047
837.993	3013
838.131	3097
838.269	3070
838.406	3112
838.544	3062
838.681	2880
838.819	2899
838.956	2819
839.094	2838
839.231	2914
839.369	3036
839.506	3374
839.643	3199
839.781	3001
839.918	2960
840.055	3028
840.193	3009
840.33	3032
840.467	3100
840.604	3135
840.742	3382
840.879	3047
841.016	3028
841.153	3070
841.29	3302
841.427	3283
841.564	3260
841.701	3294
841.838	3173
841.975	3180
842.112	3264
842.249	3077
842.385	3020
842.522	3272
842.659	3085
842.796	3047
842.933	3077
843.069	3055
843.206	3039
843.343	3195
843.479	3047
843.616	3127
843.752	2899
843.889	2853
844.025	3104
844.162	2891
844.298	3074
844.435	2963
844.571	2922
844.708	3085
844.844	3203
844.98	3226
845.117	3154
845.253	3028
845.389	3024
845.525	3074
845.661	3085
845.798	3020
845.934	3097
846.07	3028
846.206	3207
846.342	3325
846.478	3260
846.614	3085
846.75	3081
846.886	3058
847.022	3218
847.158	3131
847.294	3184
847.429	3233
847.565	3161
847.701	3473
847.837	3032
847.972	2982
848.108	3169
848.244	3161
848.379	2944
848.515	2933
848.65	2891
848.786	2971
848.921	3013
849.057	3089
849.192	3104
849.328	3036
849.463	3070
849.598	3074
849.734	2990
849.869	2971
850.004	2902
850.14	2960
850.275	2922
850.41	2842
850.545	2876
850.68	2906
850.815	2971
850.95	2971
851.085	3188
851.22	3097
851.355	3074
851.49	2975
851.625	2971
851.76	2990
851.895	2948
852.03	2868
852.165	3036
852.299	3100
852.434	3176
852.569	3150
852.703	3161
852.838	3226
852.973	3291
853.107	3336
853.242	3154
853.376	3112
853.511	2960
853.645	3036
853.78	3245
853.914	3135
854.048	3119
854.183	3058
854.317	3184
854.451	3291
854.585	3104
854.72	3093
854.854	3222
854.988	3051
855.122	3066
855.256	2948
855.39	3089
855.524	3264
855.658	3214
855.792	3138
855.926	3180
856.06	3199
856.194	3226
856.327	3146
856.461	3047
856.595	3089
856.729	3100
856.862	3169
856.996	3150
857.13	3176
857.263	3207
857.397	3287
857.53	3104
857.664	3195
857.797	3245
857.931	3237
858.064	3119
858.197	3268
858.331	3108
858.464	3108
858.597	3001
858.731	3123
858.864	3154
858.997	3112
859.13	3135
859.263	3161
859.396	3176
859.529	3081
859.662	3024
859.795	3051
859.928	3127
860.061	3233
860.194	3279
860.327	3112
860.46	3081
860.592	3260
860.725	3233
860.858	3241
860.99	3104
861.123	3020
861.256	3051
861.388	3097
861.521	3888
861.653	2986
861.786	2986
861.918	2948
862.05	3024
862.183	3081
862.315	3142
862.447	3203
862.58	3077
862.712	2906
862.844	2842
862.976	3017
863.108	3009
863.24	3431
863.372	2868
863.504	2971
863.636	2956
863.768	3024
863.9	3001
864.032	2895
864.164	2948
864.296	3032
864.428	3070
864.559	3097
864.691	3062
864.823	3058
864.954	3039
865.086	3043
865.217	3005
865.349	2910
865.48	2948
865.612	3005
865.743	3165
865.875	2944
866.006	2883
866.137	2963
866.269	2918
866.4	2929
866.531	2895
866.662	2906
866.793	2895
866.924	2887
867.055	2979
867.186	2929
867.317	2918
867.448	2807
867.579	2834
867.71	2876
867.841	2838
867.972	2933
868.103	2906
868.233	2849
868.364	2880
868.495	2883
868.625	3020
868.756	3157
868.886	2986
869.017	3013
869.147	3169
869.278	3161
869.408	3070
869.539	3017
869.669	3097
869.799	3036
869.929	3077
870.06	3093
870.19	3310
870.32	3279
870.45	3291
870.58	3367
870.71	3443
870.84	3447
870.97	3329
871.1	3245
871.23	3488
871.36	3458
871.489	3363
871.619	3397
871.749	3416
871.879	3435
872.008	3477
872.138	3351
872.267	3264
872.397	3127
872.526	3104
872.656	3009
872.785	3142
872.915	3275
873.044	3294
873.173	3176
873.303	3253
873.432	3207
873.561	3203
873.69	3127
873.819	3180
873.948	3214
874.077	3108
874.206	3036
874.335	3085
874.464	3184
874.593	3313
874.722	3237
874.851	3382
874.979	3298
875.108	3332
875.237	3176
875.365	3169
875.494	3169
875.623	3237
875.751	3077
875.88	3108
876.008	3169
876.136	3241
876.265	3348
876.393	3488
876.521	3420
876.65	3401
876.778	3355
876.906	3264
877.034	3192
877.162	3233
877.29	3157
877.418	3275
877.546	3218
877.674	3161
877.802	3230
877.93	3214
878.058	3150
878.185	3085
878.313	3203
878.441	3218
878.568	3077
878.696	3119
878.824	3287
878.951	3310
879.079	3450
879.206	3603
879.333	3405
879.461	3332
879.588	3351
879.715	3424
879.842	3542
879.97	3359
880.097	3131
880.224	3100
880.351	3165
880.478	3237
880.605	3165
880.732	3180
880.859	3549
880.986	3336
881.112	3370
881.239	3214
881.366	3097
881.493	3047
881.619	3055
881.746	3089
881.872	3085
881.999	3138
882.125	3165
882.252	3230
882.378	3298
882.505	3435
882.631	3279
882.757	3165
882.883	3226
883.01	3188
883.136	3150
883.262	3089
883.388	3085
883.514	3344
883.64	3336
883.766	3275
883.892	3173
884.018	3241
884.143	3393
884.269	3534
884.395	3230
884.52	3131
884.646	3207
884.772	3100
884.897	3104
885.023	3184
885.148	3340
885.274	3439
885.399	3348
885.524	3253
885.65	3256
885.775	3298
885.9	3268
886.025	3447
886.15	3378
886.275	3325
886.4	3230
886.525	3294
886.65	3291
886.775	3275
886.9	3485
887.025	3618
887.149	3370
887.274	3264
887.399	3173
887.523	3165
887.648	3150
887.773	3195
887.897	3363
888.021	3416
888.146	3287
888.27	3439
888.395	3504
888.519	3416
888.643	3420
888.767	3447
888.891	3313
889.015	3241
889.139	3291
889.263	3275
889.387	3393
889.511	3530
889.635	3416
889.759	3253
889.883	3310
890.006	3409
890.13	3488
890.254	3268
890.377	3363
890.501	3150
890.624	3188
890.748	3294
890.871	3180
890.995	3089
891.118	3066
891.241	3169
891.364	3214
891.488	3329
891.611	3192
891.734	3249
891.857	3298
891.98	3256
892.103	3344
892.226	3241
892.349	3180
892.471	3119
892.594	3279
892.717	3268
892.839	3264
892.962	3302
893.085	3389
893.207	3306
893.33	3150
893.452	3169
893.575	3291
893.697	3237
893.819	3458
893.941	3504
894.064	3424
894.186	3256
894.308	3268
894.43	3447
894.552	3526
894.674	3481
894.796	3287
894.918	3310
895.04	3298
895.161	3416
895.283	3401
895.405	3268
895.526	3329
895.648	3420
895.769	3435
895.891	3454
896.012	3466
896.134	3454
896.255	3412
896.376	3397
896.498	3344
896.619	3424
896.74	3367
896.861	3428
896.982	3690
897.103	3804
897.224	3580
897.345	3511
897.466	3393
897.587	3504
897.708	3656
897.828	3526
897.949	3428
898.07	3340
898.19	3409
898.311	3603
898.431	3447
898.552	3507
898.672	3584
898.792	3591
898.913	3492
899.033	3393
899.153	3291
899.273	3203
899.393	3268
899.513	3317
899.633	3302
899.753	3313
899.873	3325
899.993	3351
900.113	3340
900.232	3386
900.352	3317
900.472	3294
900.591	3230
900.711	3317
900.83	3241
900.95	3420
901.069	3485
901.189	3363
901.308	3169
901.427	3161
901.546	3176
901.665	3298
901.784	3313
901.904	3199
902.023	3165
902.141	3017
902.26	2982
902.379	3157
902.498	3100
902.617	3097
902.735	3226
902.854	3233
902.973	3188
903.091	3066
903.21	3097
903.328	3142
903.446	3104
903.565	3104
903.683	3211
903.801	3154
903.919	3279
904.038	3283
904.156	3176
904.274	3302
904.392	3272
904.51	3283
904.627	3325
904.745	3431
904.863	3519
904.981	3253
905.098	3157
905.216	3249
905.334	3325
905.451	3313
905.569	3287
905.686	3386
905.803	3454
905.921	3283
906.038	3424
906.155	3378
906.272	3241
906.389	3359
906.506	3230
906.623	3226
906.74	3264
906.857	3165
906.974	3260
907.091	3477
907.208	3580
907.324	3488
907.441	3393
907.557	3230
907.674	3226
907.79	3214
907.907	3287
908.023	3401
908.139	3401
908.256	3359
908.372	3348
908.488	3363
908.604	3260
908.72	3218
908.836	3249
908.952	3279
909.068	3351
909.184	3488
909.3	3386
909.415	3507
909.531	3488
909.647	3264
909.762	3253
909.878	3237
909.993	3321
910.108	3329
910.224	3325
910.339	3416
910.454	3321
910.57	3294
910.685	3230
910.8	3587
910.915	3542
911.03	3439
911.145	3256
911.259	3256
911.374	3325
911.489	3195
911.604	3203
911.718	3138
911.833	3154
911.947	3020
912.062	2998
912.176	3188
912.291	3203
912.405	3192
912.519	3424
912.633	3473
912.748	3321
912.862	3237
912.976	3165
913.09	3017
913.204	3154
913.318	3180
913.431	3332
913.545	3336
913.659	3420
913.772	3340
913.886	3192
914	3173
914.113	3378
914.226	3405
914.34	3325
914.453	3226
914.566	3397
914.68	3310
914.793	3287
914.906	3157
915.019	3154
915.132	3055
915.245	3157
915.358	3199
915.47	3211
915.583	3256
915.696	3260
915.809	3412
915.921	3443
916.034	3260
916.146	3253
916.259	3195
916.371	3378
916.483	3348
916.595	3283
916.708	3370
916.82	3336
916.932	3374
917.044	3355
917.156	3351
917.268	3241
917.38	3268
917.491	3279
917.603	3378
917.715	3477
917.826	3488
917.938	3370
918.049	3275
918.161	3435
918.272	3534
918.384	3572
918.495	3488
918.606	3340
918.717	3256
918.828	3363
918.939	3397
919.05	3306
919.161	3348
919.272	3169
919.383	3306
919.494	3507
919.604	3663
919.715	3481
919.826	3424
919.936	3428
920.047	3580
920.157	3545
920.267	3819
920.378	3614
920.488	3584
920.598	3778
920.708	3934
920.818	3831
920.928	3808
921.038	4029
921.148	3979
921.258	3705
921.368	3637
921.477	3568
921.587	3545
921.697	3462
921.806	3572
921.916	3519
922.025	3351
922.134	3355
922.244	3321
922.353	3428
922.462	3283
922.571	3188
922.68	3066
922.789	3081
922.898	3112
923.007	3100
923.116	3218
923.224	3169
923.333	3203
923.442	3100
923.55	3116
923.659	3131
923.767	3214
923.876	3119
923.984	3226
924.092	3119
924.201	3184
924.309	3211
924.417	3249
924.525	3161
924.633	3226
924.741	4204
924.849	3058
924.956	3268
925.064	3100
925.172	3032
925.279	3074
925.387	3180
925.494	3211
925.602	3374
925.709	3291
925.816	3192
925.924	3306
926.031	3344
926.138	3313
926.245	3317
926.352	3260
926.459	3397
926.566	3458
926.673	3321
926.779	3233
926.886	3268
926.993	3127
927.099	3100
927.206	3093
927.312	3100
927.419	3222
927.525	3195
927.631	3287
927.737	3138
927.843	3108
927.95	3024
928.056	3093
928.162	3176
928.267	3230
928.373	3865
928.479	3275
928.585	3047
928.69	3256
928.796	3268
928.901	3146
929.007	3017
929.112	3230
929.218	3173
929.323	3173
929.428	3188
929.533	3287
929.638	3150
929.743	3150
929.848	3253
929.953	3207
930.058	3100
930.163	2998
930.267	3039
930.372	3222
930.477	3062
930.581	3321
930.685	3161
930.79	3039
930.894	3154
930.998	3123
931.103	3249
931.207	2982
931.311	2975
931.415	2906
931.519	2762
931.623	2777
