Data from test_V78500241_1755.txt Node
Date: Fri Mar 25 16:27:21 CST 2022
User: usil
Spectrometer: V785-0024
Trigger mode: 0
Integration Time (sec): 4.000000E-1
Scans to average: 1
Nonlinearity correction enabled: false
Boxcar width: 0
Storing dark spectrum: false
XAxis mode: Wavelengths
Number of Pixels in Spectrum: 1024
>>>>>Begin Spectral Data<<<<<
801.071	2925
801.214	2941
801.356	2838
801.499	2895
801.641	2861
801.783	2937
801.926	3066
802.068	2952
802.211	3001
802.353	3058
802.496	2967
802.638	3005
802.78	3043
802.923	3051
803.065	2998
803.208	2906
803.35	2887
803.492	2918
803.635	2925
803.777	2758
803.919	2861
804.061	3211
804.204	2941
804.346	2883
804.488	2868
804.63	2960
804.773	2880
804.915	2891
805.057	3055
805.199	2891
805.341	2960
805.483	3051
805.626	2971
805.768	2933
805.91	3032
806.052	3070
806.194	2998
806.336	3207
806.478	3005
806.62	2929
806.762	2952
806.904	3032
807.046	3150
807.188	2956
807.33	2899
807.472	2963
807.614	2895
807.756	2963
807.898	2960
808.04	2861
808.182	2982
808.324	2933
808.465	2880
808.607	2861
808.749	2785
808.891	2861
809.033	2971
809.174	2944
809.316	2861
809.458	2883
809.6	2777
809.741	2766
809.883	2727
810.025	2826
810.166	2857
810.308	2849
810.45	2872
810.591	2766
810.733	2766
810.875	2861
811.016	2754
811.158	2785
811.299	2807
811.441	2922
811.582	2895
811.724	2834
811.865	2857
812.007	2922
812.148	2880
812.29	2872
812.431	2895
812.573	2918
812.714	2971
812.855	3055
812.997	3036
813.138	3093
813.279	2998
813.421	2986
813.562	2975
813.703	2887
813.845	2887
813.986	2754
814.127	2731
814.268	2800
814.41	2804
814.551	2804
814.692	2853
814.833	2815
814.974	2876
815.115	2929
815.256	2826
815.397	2796
815.539	2872
815.68	2769
815.821	2781
815.962	2910
816.103	2918
816.244	2887
816.385	2887
816.526	2986
816.666	2937
816.807	2758
816.948	2857
817.089	2918
817.23	2861
817.371	2781
817.512	2777
817.653	2868
817.793	2830
817.934	2861
818.075	2960
818.216	2967
818.356	3009
818.497	2883
818.638	2796
818.778	2777
818.919	2788
819.06	2720
819.2	2876
819.341	2781
819.481	2807
819.622	2899
819.762	3074
819.903	3020
820.043	2960
820.184	2883
820.324	2864
820.465	3009
820.605	3036
820.746	3043
820.886	2929
821.026	3085
821.167	3169
821.307	3272
821.447	3287
821.588	3230
821.728	3176
821.868	3199
822.008	3058
822.149	3192
822.289	3188
822.429	3131
822.569	3077
822.709	3180
822.849	3036
822.99	3062
823.13	3135
823.27	3192
823.41	3116
823.55	3123
823.69	3131
823.83	3161
823.97	3081
824.11	2967
824.25	2998
824.389	3017
824.529	3131
824.669	3077
824.809	3203
824.949	3268
825.089	3230
825.228	3165
825.368	3005
825.508	2952
825.648	2967
825.787	3013
825.927	3009
826.067	2941
826.206	2994
826.346	3024
826.485	3074
826.625	3119
826.765	3233
826.904	3218
827.044	2986
827.183	2933
827.323	2868
827.462	2971
827.601	2883
827.741	2910
827.88	2914
828.02	2868
828.159	2982
828.298	3051
828.437	3100
828.577	3032
828.716	3237
828.855	3074
828.994	2899
829.134	2899
829.273	2910
829.412	2853
829.551	2864
829.69	2906
829.829	2990
829.968	3123
830.107	3013
830.246	3020
830.385	2944
830.524	2872
830.663	2804
830.802	2735
830.941	2617
831.08	2625
831.219	2750
831.357	2735
831.496	2960
831.635	2739
831.774	2640
831.913	2663
832.051	2507
832.19	2590
832.329	2663
832.467	2541
832.606	2457
832.744	2571
832.883	2594
833.022	2579
833.16	2617
833.299	2705
833.437	2686
833.576	2705
833.714	2739
833.852	2743
833.991	2754
834.129	2853
834.267	2811
834.406	2773
834.544	2838
834.682	2872
834.821	2849
834.959	3066
835.097	2918
835.235	3058
835.373	3001
835.511	3013
835.65	2948
835.788	2948
835.926	2815
836.064	2804
836.202	2811
836.34	3074
836.478	3188
836.615	3047
836.753	3089
836.891	3226
837.029	3157
837.167	3089
837.305	3077
837.443	3036
837.58	2982
837.718	3123
837.856	3043
837.993	3036
838.131	3116
838.269	3081
838.406	3116
838.544	3081
838.681	2929
838.819	2918
838.956	2804
839.094	2830
839.231	2899
839.369	3013
839.506	3370
839.643	3199
839.781	3047
839.918	2982
840.055	3036
840.193	3074
840.33	3062
840.467	3097
840.604	3146
840.742	3412
840.879	3020
841.016	3039
841.153	3097
841.29	3306
841.427	3298
841.564	3241
841.701	3306
841.838	3218
841.975	3180
842.112	3176
842.249	3070
842.385	3032
842.522	3245
842.659	3070
842.796	3028
842.933	3089
843.069	3043
843.206	3055
843.343	3188
843.479	3119
843.616	3135
843.752	2880
843.889	2880
844.025	3089
844.162	2868
844.298	3058
844.435	2971
844.571	2883
844.708	3058
844.844	3203
844.98	3241
845.117	3184
845.253	3058
845.389	2979
845.525	3070
845.661	3039
845.798	3051
845.934	3100
846.07	3081
846.206	3260
846.342	3329
846.478	3253
846.614	3058
846.75	3055
846.886	3024
847.022	3241
847.158	3127
847.294	3173
847.429	3226
847.565	3226
847.701	3454
847.837	3058
847.972	2990
848.108	3154
848.244	3142
848.379	2979
848.515	2948
848.65	2952
848.786	2937
848.921	2998
849.057	3116
849.192	3108
849.328	3051
849.463	3081
849.598	3055
849.734	3020
849.869	2963
850.004	2902
850.14	2971
850.275	2902
850.41	2842
850.545	2880
850.68	2925
850.815	2960
850.95	2967
851.085	3195
851.22	3116
851.355	3017
851.49	2979
851.625	2979
851.76	2982
851.895	2922
852.03	2906
852.165	3020
852.299	3085
852.434	3173
852.569	3169
852.703	3165
852.838	3230
852.973	3332
853.107	3302
853.242	3135
853.376	3077
853.511	2971
853.645	3005
853.78	3253
853.914	3116
854.048	3085
854.183	3043
854.317	3150
854.451	3279
854.585	3146
854.72	3104
854.854	3195
854.988	3055
855.122	3043
855.256	2975
855.39	3142
855.524	3237
855.658	3180
855.792	3131
855.926	3184
856.06	3218
856.194	3268
856.327	3176
856.461	3028
856.595	3085
856.729	3131
856.862	3222
856.996	3176
857.13	3184
857.263	3260
857.397	3268
857.53	3100
857.664	3173
857.797	3146
857.931	3256
858.064	3119
858.197	3203
858.331	3116
858.464	3085
858.597	3028
858.731	3112
858.864	3146
858.997	3039
859.13	3165
859.263	3199
859.396	3214
859.529	3047
859.662	3062
859.795	3013
859.928	3154
860.061	3226
860.194	3275
860.327	3161
860.46	3104
860.592	3222
860.725	3222
860.858	3253
860.99	3127
861.123	2986
861.256	3074
861.388	3157
861.521	3823
861.653	3013
861.786	2944
861.918	2986
862.05	3058
862.183	3081
862.315	3165
862.447	3192
862.58	3058
862.712	2960
862.844	2887
862.976	3005
863.108	2998
863.24	3325
863.372	2902
863.504	2941
863.636	2960
863.768	3032
863.9	2963
864.032	2891
864.164	2960
864.296	3036
864.428	3062
864.559	3116
864.691	3097
864.823	3066
864.954	3017
865.086	3051
865.217	2990
865.349	2910
865.48	3001
865.612	2990
865.743	3135
865.875	2979
866.006	2929
866.137	2956
866.269	2929
866.4	2902
866.531	2906
866.662	2910
866.793	2910
866.924	2925
867.055	2960
867.186	2895
867.317	2891
867.448	2830
867.579	2834
867.71	2838
867.841	2811
867.972	2895
868.103	2853
868.233	2887
868.364	2857
868.495	2895
868.625	3097
868.756	3146
868.886	2975
869.017	3055
869.147	3207
869.278	3146
869.408	3013
869.539	3055
869.669	3081
869.799	3047
869.929	3097
870.06	3089
870.19	3310
870.32	3283
870.45	3264
870.58	3355
870.71	3443
870.84	3424
870.97	3279
871.1	3237
871.23	3458
871.36	3443
871.489	3382
871.619	3412
871.749	3370
871.879	3397
872.008	3454
872.138	3374
872.267	3275
872.397	3135
872.526	3074
872.656	2990
872.785	3123
872.915	3241
873.044	3298
873.173	3241
873.303	3264
873.432	3233
873.561	3203
873.69	3146
873.819	3165
873.948	3195
874.077	3127
874.206	3051
874.335	3055
874.464	3233
874.593	3344
874.722	3222
874.851	3401
874.979	3344
875.108	3283
875.237	3207
875.365	3157
875.494	3173
875.623	3207
875.751	3089
875.88	3127
876.008	3176
876.136	3268
876.265	3359
876.393	3469
876.521	3412
876.65	3370
876.778	3336
876.906	3226
877.034	3211
877.162	3203
877.29	3207
877.418	3222
877.546	3237
877.674	3222
877.802	3237
877.93	3222
878.058	3138
878.185	3123
878.313	3218
878.441	3180
878.568	3047
878.696	3138
878.824	3245
878.951	3313
879.079	3424
879.206	3606
879.333	3420
879.461	3332
879.588	3317
879.715	3507
879.842	3553
879.97	3359
880.097	3157
880.224	3116
880.351	3207
880.478	3237
880.605	3180
880.732	3218
880.859	3458
880.986	3313
881.112	3321
881.239	3173
881.366	3138
881.493	3013
881.619	3017
881.746	3070
881.872	3051
881.999	3119
882.125	3093
882.252	3211
882.378	3283
882.505	3428
882.631	3302
882.757	3146
882.883	3218
883.01	3176
883.136	3154
883.262	3077
883.388	3127
883.514	3306
883.64	3386
883.766	3321
883.892	3195
884.018	3222
884.143	3431
884.269	3534
884.395	3237
884.52	3150
884.646	3165
884.772	3112
884.897	3097
885.023	3184
885.148	3313
885.274	3416
885.399	3348
885.524	3237
885.65	3279
885.775	3332
885.9	3279
886.025	3424
886.15	3363
886.275	3313
886.4	3241
886.525	3287
886.65	3268
886.775	3230
886.9	3492
887.025	3625
887.149	3424
887.274	3256
887.399	3176
887.523	3222
887.648	3176
887.773	3192
887.897	3393
888.021	3393
888.146	3264
888.27	3420
888.395	3481
888.519	3439
888.643	3431
888.767	3469
888.891	3294
889.015	3241
889.139	3260
889.263	3222
889.387	3416
889.511	3530
889.635	3443
889.759	3287
889.883	3279
890.006	3409
890.13	3488
890.254	3291
890.377	3321
890.501	3192
890.624	3195
890.748	3306
890.871	3180
890.995	3097
891.118	3070
891.241	3218
891.364	3211
891.488	3332
891.611	3165
891.734	3226
891.857	3272
891.98	3230
892.103	3313
892.226	3268
892.349	3203
892.471	3112
892.594	3214
892.717	3226
892.839	3279
892.962	3287
893.085	3359
893.207	3279
893.33	3154
893.452	3184
893.575	3340
893.697	3275
893.819	3462
893.941	3507
894.064	3450
894.186	3241
894.308	3268
894.43	3431
894.552	3519
894.674	3443
894.796	3256
894.918	3329
895.04	3317
895.161	3431
895.283	3374
895.405	3302
895.526	3386
895.648	3439
895.769	3435
895.891	3382
896.012	3496
896.134	3462
896.255	3447
896.376	3359
896.498	3336
896.619	3420
896.74	3397
896.861	3393
896.982	3671
897.103	3854
897.224	3595
897.345	3538
897.466	3412
897.587	3485
897.708	3629
897.828	3568
897.949	3435
898.07	3313
898.19	3424
898.311	3610
898.431	3443
898.552	3515
898.672	3576
898.792	3519
898.913	3504
899.033	3378
899.153	3287
899.273	3214
899.393	3317
899.513	3310
899.633	3313
899.753	3363
899.873	3302
899.993	3382
900.113	3294
900.232	3370
900.352	3344
900.472	3291
900.591	3214
900.711	3291
900.83	3207
900.95	3447
901.069	3488
901.189	3317
901.308	3146
901.427	3142
901.546	3207
901.665	3298
901.784	3367
901.904	3211
902.023	3165
902.141	3001
902.26	2971
902.379	3116
902.498	3089
902.617	3036
902.735	3222
902.854	3253
902.973	3199
903.091	3036
903.21	3062
903.328	3135
903.446	3104
903.565	3112
903.683	3218
903.801	3131
903.919	3237
904.038	3283
904.156	3165
904.274	3268
904.392	3241
904.51	3260
904.627	3329
904.745	3412
904.863	3526
904.981	3260
905.098	3184
905.216	3188
905.334	3272
905.451	3321
905.569	3310
905.686	3439
905.803	3450
905.921	3275
906.038	3409
906.155	3359
906.272	3294
906.389	3329
906.506	3237
906.623	3268
906.74	3260
906.857	3192
906.974	3287
907.091	3405
907.208	3576
907.324	3511
907.441	3317
907.557	3207
907.674	3237
907.79	3207
907.907	3279
908.023	3355
908.139	3378
908.256	3351
908.372	3329
908.488	3389
908.604	3272
908.72	3253
908.836	3256
908.952	3287
909.068	3317
909.184	3466
909.3	3405
909.415	3496
909.531	3492
909.647	3233
909.762	3291
909.878	3214
909.993	3344
910.108	3329
910.224	3336
910.339	3409
910.454	3348
910.57	3291
910.685	3279
910.8	3568
910.915	3564
911.03	3439
911.145	3253
911.259	3256
911.374	3336
911.489	3245
911.604	3222
911.718	3116
911.833	3146
911.947	3013
912.062	2963
912.176	3108
912.291	3176
912.405	3203
912.519	3485
912.633	3485
912.748	3329
912.862	3283
912.976	3154
913.09	3081
913.204	3093
913.318	3218
913.431	3348
913.545	3321
913.659	3382
913.772	3351
913.886	3222
914	3195
914.113	3348
914.226	3374
914.34	3378
914.453	3226
914.566	3420
914.68	3272
914.793	3287
914.906	3146
915.019	3116
915.132	3047
915.245	3154
915.358	3188
915.47	3245
915.583	3302
915.696	3264
915.809	3431
915.921	3412
916.034	3241
916.146	3253
916.259	3207
916.371	3367
916.483	3317
916.595	3245
916.708	3313
916.82	3294
916.932	3336
917.044	3359
917.156	3336
917.268	3230
917.38	3287
917.491	3260
917.603	3355
917.715	3431
917.826	3428
917.938	3378
918.049	3287
918.161	3382
918.272	3572
918.384	3530
918.495	3500
918.606	3351
918.717	3306
918.828	3378
918.939	3416
919.05	3294
919.161	3370
919.272	3203
919.383	3275
919.494	3511
919.604	3713
919.715	3500
919.826	3389
919.936	3500
920.047	3564
920.157	3580
920.267	3747
920.378	3641
920.488	3542
920.598	3762
920.708	3956
920.818	3823
920.928	3835
921.038	3998
921.148	4017
921.258	3709
921.368	3618
921.477	3523
921.587	3500
921.697	3443
921.806	3625
921.916	3534
922.025	3321
922.134	3351
922.244	3298
922.353	3397
922.462	3287
922.571	3226
922.68	3104
922.789	3074
922.898	3123
923.007	3093
923.116	3207
923.224	3154
923.333	3188
923.442	3058
923.55	3070
923.659	3142
923.767	3230
923.876	3112
923.984	3214
924.092	3119
924.201	3195
924.309	3211
924.417	3241
924.525	3222
924.633	3222
924.741	3972
924.849	3043
924.956	3241
925.064	3074
925.172	3020
925.279	3108
925.387	3195
925.494	3154
925.602	3332
925.709	3317
925.816	3184
925.924	3264
926.031	3367
926.138	3302
926.245	3336
926.352	3241
926.459	3393
926.566	3500
926.673	3294
926.779	3230
926.886	3207
926.993	3131
927.099	3131
927.206	3077
927.312	3108
927.419	3222
927.525	3207
927.631	3294
927.737	3150
927.843	3138
927.95	3028
928.056	3169
928.162	3146
928.267	3237
928.373	3865
928.479	3306
928.585	3062
928.69	3245
928.796	3272
928.901	3199
929.007	3058
929.112	3195
929.218	3211
929.323	3169
929.428	3161
929.533	3313
929.638	3119
929.743	3150
929.848	3241
929.953	3207
930.058	3161
930.163	3020
930.267	3047
930.372	3180
930.477	3051
930.581	3310
930.685	3199
930.79	3024
930.894	3138
930.998	3089
931.103	3245
931.207	2922
931.311	2929
931.415	2910
931.519	2815
931.623	2807
