Data from test_V78500241_1069.txt Node
Date: Fri Mar 25 16:22:36 CST 2022
User: usil
Spectrometer: V785-0024
Trigger mode: 0
Integration Time (sec): 4.000000E-1
Scans to average: 1
Nonlinearity correction enabled: false
Boxcar width: 0
Storing dark spectrum: false
XAxis mode: Wavelengths
Number of Pixels in Spectrum: 1024
>>>>>Begin Spectral Data<<<<<
801.071	2895
801.214	2944
801.356	2876
801.499	2910
801.641	2883
801.783	2902
801.926	3024
802.068	2967
802.211	2975
802.353	3047
802.496	2967
802.638	3017
802.78	3043
802.923	3055
803.065	3017
803.208	2895
803.35	2918
803.492	2941
803.635	2899
803.777	2766
803.919	2853
804.061	3173
804.204	2925
804.346	2883
804.488	2826
804.63	3005
804.773	2902
804.915	2933
805.057	3077
805.199	2933
805.341	2956
805.483	3066
805.626	3028
805.768	2975
805.91	3119
806.052	3135
806.194	3028
806.336	3207
806.478	3039
806.62	2952
806.762	2963
806.904	3058
807.046	3169
807.188	2963
807.33	2925
807.472	3005
807.614	2918
807.756	2967
807.898	2933
808.04	2899
808.182	2952
808.324	2960
808.465	2872
808.607	2861
808.749	2754
808.891	2853
809.033	2971
809.174	2982
809.316	2910
809.458	2929
809.6	2750
809.741	2777
809.883	2777
810.025	2819
810.166	2853
810.308	2823
810.45	2876
810.591	2766
810.733	2823
810.875	2857
811.016	2785
811.158	2754
811.299	2830
811.441	2979
811.582	2876
811.724	2800
811.865	2842
812.007	2891
812.148	2883
812.29	2838
812.431	2895
812.573	2944
812.714	2990
812.855	3055
812.997	3032
813.138	3146
813.279	2990
813.421	2941
813.562	2937
813.703	2887
813.845	2880
813.986	2777
814.127	2735
814.268	2811
814.41	2845
814.551	2804
814.692	2906
814.833	2811
814.974	2899
815.115	2975
815.256	2823
815.397	2800
815.539	2880
815.68	2788
815.821	2807
815.962	2937
816.103	2914
816.244	2906
816.385	2830
816.526	2960
816.666	2914
816.807	2754
816.948	2918
817.089	2906
817.23	2880
817.371	2746
817.512	2773
817.653	2830
817.793	2830
817.934	2883
818.075	2971
818.216	2975
818.356	3028
818.497	2868
818.638	2781
818.778	2857
818.919	2804
819.06	2724
819.2	2918
819.341	2766
819.481	2792
819.622	2929
819.762	3097
819.903	3017
820.043	2929
820.184	2941
820.324	2895
820.465	3028
820.605	3036
820.746	2990
820.886	2941
821.026	3097
821.167	3150
821.307	3230
821.447	3279
821.588	3226
821.728	3199
821.868	3180
822.008	3066
822.149	3192
822.289	3207
822.429	3100
822.569	3123
822.709	3157
822.849	3032
822.99	3055
823.13	3138
823.27	3222
823.41	3135
823.55	3116
823.69	3146
823.83	3192
823.97	3066
824.11	3005
824.25	2994
824.389	3047
824.529	3093
824.669	3055
824.809	3150
824.949	3230
825.089	3253
825.228	3127
825.368	2994
825.508	2941
825.648	2948
825.787	3039
825.927	2994
826.067	2990
826.206	2982
826.346	3032
826.485	3074
826.625	3119
826.765	3241
826.904	3218
827.044	2982
827.183	2922
827.323	2872
827.462	2941
827.601	2895
827.741	2914
827.88	2971
828.02	2857
828.159	2967
828.298	3047
828.437	3089
828.577	3024
828.716	3233
828.855	3074
828.994	2906
829.134	2883
829.273	2933
829.412	2864
829.551	2826
829.69	2887
829.829	3005
829.968	3097
830.107	3005
830.246	3005
830.385	2899
830.524	2864
830.663	2800
830.802	2716
830.941	2670
831.08	2659
831.219	2762
831.357	2731
831.496	2960
831.635	2739
831.774	2625
831.913	2644
832.051	2537
832.19	2583
832.329	2686
832.467	2537
832.606	2469
832.744	2575
832.883	2560
833.022	2541
833.16	2636
833.299	2678
833.437	2705
833.576	2712
833.714	2731
833.852	2731
833.991	2750
834.129	2830
834.267	2838
834.406	2754
834.544	2895
834.682	2864
834.821	2842
834.959	3047
835.097	2914
835.235	3070
835.373	2963
835.511	3020
835.65	2994
835.788	2982
835.926	2853
836.064	2800
836.202	2849
836.34	3104
836.478	3138
836.615	3028
836.753	3127
836.891	3199
837.029	3150
837.167	3116
837.305	3043
837.443	3051
837.58	2914
837.718	3077
837.856	3032
837.993	3058
838.131	3127
838.269	3066
838.406	3100
838.544	3066
838.681	2914
838.819	2941
838.956	2811
839.094	2861
839.231	2933
839.369	3058
839.506	3370
839.643	3192
839.781	2982
839.918	2956
840.055	3074
840.193	3070
840.33	3074
840.467	3138
840.604	3142
840.742	3424
840.879	3020
841.016	3013
841.153	3116
841.29	3332
841.427	3306
841.564	3302
841.701	3325
841.838	3226
841.975	3176
842.112	3233
842.249	3074
842.385	3051
842.522	3268
842.659	3066
842.796	3055
842.933	3097
843.069	3036
843.206	3032
843.343	3195
843.479	3119
843.616	3135
843.752	2880
843.889	2880
844.025	3104
844.162	2845
844.298	3085
844.435	2941
844.571	2914
844.708	3085
844.844	3180
844.98	3245
845.117	3207
845.253	3066
845.389	3009
845.525	3093
845.661	3097
845.798	3005
845.934	3104
846.07	3062
846.206	3218
846.342	3344
846.478	3199
846.614	3089
846.75	3036
846.886	2994
847.022	3230
847.158	3119
847.294	3173
847.429	3222
847.565	3214
847.701	3481
847.837	3028
847.972	3013
848.108	3192
848.244	3131
848.379	2986
848.515	2956
848.65	2925
848.786	2982
848.921	3032
849.057	3093
849.192	3150
849.328	3055
849.463	3135
849.598	3020
849.734	3036
849.869	2956
850.004	2933
850.14	2975
850.275	2933
850.41	2823
850.545	2887
850.68	2944
850.815	2956
850.95	2952
851.085	3184
851.22	3077
851.355	3017
851.49	2963
851.625	3017
851.76	2986
851.895	2910
852.03	2872
852.165	3047
852.299	3127
852.434	3176
852.569	3081
852.703	3180
852.838	3218
852.973	3329
853.107	3325
853.242	3146
853.376	3085
853.511	2960
853.645	3039
853.78	3207
853.914	3108
854.048	3077
854.183	3077
854.317	3135
854.451	3283
854.585	3119
854.72	3089
854.854	3211
854.988	3039
855.122	3085
855.256	2956
855.39	3097
855.524	3214
855.658	3146
855.792	3142
855.926	3195
856.06	3230
856.194	3264
856.327	3104
856.461	3070
856.595	3089
856.729	3066
856.862	3180
856.996	3176
857.13	3195
857.263	3256
857.397	3256
857.53	3089
857.664	3169
857.797	3203
857.931	3283
858.064	3161
858.197	3199
858.331	3119
858.464	3104
858.597	3001
858.731	3138
858.864	3142
858.997	3066
859.13	3165
859.263	3173
859.396	3218
859.529	3051
859.662	3051
859.795	3055
859.928	3150
860.061	3237
860.194	3218
860.327	3108
860.46	3066
860.592	3203
860.725	3268
860.858	3241
860.99	3104
861.123	3062
861.256	3081
861.388	3112
861.521	3797
861.653	3039
861.786	2986
861.918	2986
862.05	3062
862.183	3062
862.315	3112
862.447	3195
862.58	3112
862.712	2963
862.844	2857
862.976	3001
863.108	2982
863.24	3332
863.372	2883
863.504	2937
863.636	2914
863.768	3028
863.9	2971
864.032	2899
864.164	2971
864.296	2998
864.428	3062
864.559	3097
864.691	3058
864.823	3047
864.954	3039
865.086	3036
865.217	3017
865.349	2960
865.48	2998
865.612	3036
865.743	3119
865.875	3001
866.006	2963
866.137	2963
866.269	2941
866.4	2944
866.531	2929
866.662	2895
866.793	2876
866.924	2872
867.055	2960
867.186	2895
867.317	2880
867.448	2838
867.579	2845
867.71	2857
867.841	2804
867.972	2876
868.103	2899
868.233	2857
868.364	2925
868.495	2937
868.625	3089
868.756	3165
868.886	2967
869.017	3013
869.147	3157
869.278	3138
869.408	3051
869.539	2975
869.669	3081
869.799	3043
869.929	3089
870.06	3066
870.19	3325
870.32	3283
870.45	3283
870.58	3363
870.71	3431
870.84	3424
870.97	3249
871.1	3241
871.23	3473
871.36	3466
871.489	3348
871.619	3378
871.749	3428
871.879	3428
872.008	3485
872.138	3367
872.267	3275
872.397	3161
872.526	3116
872.656	2990
872.785	3085
872.915	3237
873.044	3310
873.173	3260
873.303	3230
873.432	3260
873.561	3222
873.69	3154
873.819	3146
873.948	3176
874.077	3112
874.206	3017
874.335	3062
874.464	3176
874.593	3313
874.722	3253
874.851	3363
874.979	3348
875.108	3332
875.237	3169
875.365	3150
875.494	3146
875.623	3230
875.751	3116
875.88	3131
876.008	3195
876.136	3226
876.265	3359
876.393	3530
876.521	3370
876.65	3363
876.778	3344
876.906	3260
877.034	3192
877.162	3214
877.29	3173
877.418	3245
877.546	3249
877.674	3241
877.802	3230
877.93	3207
878.058	3150
878.185	3093
878.313	3192
878.441	3192
878.568	3051
878.696	3154
878.824	3237
878.951	3272
879.079	3458
879.206	3644
879.333	3469
879.461	3313
879.588	3351
879.715	3496
879.842	3610
879.97	3344
880.097	3199
880.224	3131
880.351	3199
880.478	3207
880.605	3154
880.732	3169
880.859	3511
880.986	3283
881.112	3302
881.239	3199
881.366	3074
881.493	3043
881.619	3005
881.746	3058
881.872	3089
881.999	3070
882.125	3157
882.252	3241
882.378	3279
882.505	3405
882.631	3313
882.757	3169
882.883	3211
883.01	3253
883.136	3154
883.262	3047
883.388	3123
883.514	3310
883.64	3382
883.766	3302
883.892	3230
884.018	3203
884.143	3420
884.269	3549
884.395	3184
884.52	3180
884.646	3199
884.772	3138
884.897	3074
885.023	3230
885.148	3310
885.274	3412
885.399	3409
885.524	3245
885.65	3268
885.775	3291
885.9	3306
886.025	3431
886.15	3351
886.275	3302
886.4	3260
886.525	3302
886.65	3317
886.775	3249
886.9	3443
887.025	3648
887.149	3435
887.274	3249
887.399	3188
887.523	3256
887.648	3188
887.773	3169
887.897	3370
888.021	3424
888.146	3294
888.27	3458
888.395	3511
888.519	3450
888.643	3435
888.767	3435
888.891	3287
889.015	3237
889.139	3283
889.263	3211
889.387	3409
889.511	3534
889.635	3424
889.759	3256
889.883	3291
890.006	3378
890.13	3515
890.254	3279
890.377	3344
890.501	3214
890.624	3188
890.748	3348
890.871	3211
890.995	3089
891.118	3070
891.241	3188
891.364	3192
891.488	3363
891.611	3150
891.734	3226
891.857	3256
891.98	3233
892.103	3355
892.226	3287
892.349	3245
892.471	3127
892.594	3226
892.717	3268
892.839	3245
892.962	3336
893.085	3370
893.207	3298
893.33	3154
893.452	3214
893.575	3370
893.697	3275
893.819	3485
893.941	3488
894.064	3462
894.186	3294
894.308	3241
894.43	3393
894.552	3519
894.674	3454
894.796	3302
894.918	3325
895.04	3287
895.161	3443
895.283	3382
895.405	3287
895.526	3351
895.648	3389
895.769	3428
895.891	3412
896.012	3458
896.134	3458
896.255	3401
896.376	3382
896.498	3393
896.619	3382
896.74	3340
896.861	3359
896.982	3671
897.103	3854
897.224	3534
897.345	3492
897.466	3420
897.587	3466
897.708	3625
897.828	3530
897.949	3458
898.07	3321
898.19	3435
898.311	3610
898.431	3469
898.552	3488
898.672	3561
898.792	3549
898.913	3538
899.033	3409
899.153	3230
899.273	3207
899.393	3275
899.513	3306
899.633	3332
899.753	3325
899.873	3306
899.993	3348
900.113	3306
900.232	3321
900.352	3340
900.472	3268
900.591	3199
900.711	3325
900.83	3253
900.95	3405
901.069	3481
901.189	3348
901.308	3131
901.427	3123
901.546	3150
901.665	3313
901.784	3321
901.904	3233
902.023	3123
902.141	3001
902.26	2982
902.379	3142
902.498	3066
902.617	3024
902.735	3192
902.854	3233
902.973	3169
903.091	3047
903.21	3081
903.328	3123
903.446	3127
903.565	3108
903.683	3173
903.801	3112
903.919	3245
904.038	3275
904.156	3154
904.274	3264
904.392	3249
904.51	3275
904.627	3317
904.745	3431
904.863	3485
904.981	3260
905.098	3188
905.216	3218
905.334	3298
905.451	3272
905.569	3317
905.686	3405
905.803	3447
905.921	3264
906.038	3428
906.155	3378
906.272	3279
906.389	3294
906.506	3222
906.623	3264
906.74	3279
906.857	3173
906.974	3253
907.091	3416
907.208	3530
907.324	3462
907.441	3405
907.557	3203
907.674	3260
907.79	3184
907.907	3260
908.023	3397
908.139	3355
908.256	3336
908.372	3401
908.488	3340
908.604	3241
908.72	3233
908.836	3306
908.952	3283
909.068	3363
909.184	3443
909.3	3378
909.415	3466
909.531	3485
909.647	3275
909.762	3291
909.878	3256
909.993	3386
910.108	3340
910.224	3344
910.339	3420
910.454	3344
910.57	3306
910.685	3222
910.8	3599
910.915	3526
911.03	3431
911.145	3256
911.259	3260
911.374	3287
911.489	3260
911.604	3211
911.718	3070
911.833	3112
911.947	3047
912.062	2948
912.176	3176
912.291	3173
912.405	3184
912.519	3424
912.633	3458
912.748	3332
912.862	3287
912.976	3138
913.09	3020
913.204	3093
913.318	3222
913.431	3321
913.545	3348
913.659	3393
913.772	3317
913.886	3268
914	3203
914.113	3367
914.226	3405
914.34	3340
914.453	3241
914.566	3405
914.68	3268
914.793	3291
914.906	3119
915.019	3077
915.132	3066
915.245	3176
915.358	3154
915.47	3226
915.583	3256
915.696	3298
915.809	3393
915.921	3428
916.034	3253
916.146	3256
916.259	3230
916.371	3355
916.483	3336
916.595	3287
916.708	3340
916.82	3321
916.932	3382
917.044	3340
917.156	3336
917.268	3222
917.38	3268
917.491	3294
917.603	3389
917.715	3424
917.826	3469
917.938	3332
918.049	3306
918.161	3439
918.272	3557
918.384	3530
918.495	3507
918.606	3332
918.717	3317
918.828	3397
918.939	3386
919.05	3272
919.161	3340
919.272	3192
919.383	3302
919.494	3496
919.604	3690
919.715	3481
919.826	3443
919.936	3435
920.047	3610
920.157	3542
920.267	3831
920.378	3584
920.488	3561
920.598	3793
920.708	3979
920.818	3846
920.928	3831
921.038	4051
921.148	3953
921.258	3732
921.368	3641
921.477	3564
921.587	3530
921.697	3469
921.806	3629
921.916	3481
922.025	3401
922.134	3344
922.244	3283
922.353	3393
922.462	3253
922.571	3222
922.68	3131
922.789	3112
922.898	3127
923.007	3097
923.116	3188
923.224	3173
923.333	3199
923.442	3116
923.55	3081
923.659	3135
923.767	3222
923.876	3097
923.984	3207
924.092	3097
924.201	3184
924.309	3226
924.417	3256
924.525	3157
924.633	3222
924.741	4173
924.849	3058
924.956	3245
925.064	3081
925.172	3028
925.279	3123
925.387	3188
925.494	3230
925.602	3344
925.709	3310
925.816	3192
925.924	3302
926.031	3351
926.138	3329
926.245	3382
926.352	3264
926.459	3428
926.566	3473
926.673	3291
926.779	3237
926.886	3245
926.993	3176
927.099	3116
927.206	3108
927.312	3093
927.419	3264
927.525	3253
927.631	3264
927.737	3150
927.843	3138
927.95	3062
928.056	3119
928.162	3192
928.267	3272
928.373	3899
928.479	3351
928.585	3093
928.69	3222
928.796	3256
928.901	3119
929.007	3062
929.112	3184
929.218	3154
929.323	3142
929.428	3116
929.533	3310
929.638	3131
929.743	3169
929.848	3207
929.953	3222
930.058	3116
930.163	2990
930.267	3062
930.372	3230
930.477	3055
930.581	3298
930.685	3180
930.79	3093
930.894	3116
930.998	3081
931.103	3283
931.207	2956
931.311	2929
931.415	2895
931.519	2766
931.623	2842
