Data from test_V78500241_387.txt Node
Date: Fri Mar 25 16:17:53 CST 2022
User: usil
Spectrometer: V785-0024
Trigger mode: 0
Integration Time (sec): 4.000000E-1
Scans to average: 1
Nonlinearity correction enabled: false
Boxcar width: 0
Storing dark spectrum: false
XAxis mode: Wavelengths
Number of Pixels in Spectrum: 1024
>>>>>Begin Spectral Data<<<<<
801.071	2899
801.214	2937
801.356	2872
801.499	2887
801.641	2891
801.783	2918
801.926	3020
802.068	2925
802.211	3009
802.353	3043
802.496	2956
802.638	2979
802.78	3013
802.923	3074
803.065	2986
803.208	2849
803.35	2887
803.492	2944
803.635	2922
803.777	2754
803.919	2883
804.061	3150
804.204	2967
804.346	2857
804.488	2823
804.63	2960
804.773	2872
804.915	2914
805.057	3074
805.199	2883
805.341	2971
805.483	3043
805.626	3017
805.768	2941
805.91	3093
806.052	3127
806.194	3032
806.336	3233
806.478	2982
806.62	2944
806.762	2963
806.904	3043
807.046	3161
807.188	2967
807.33	2922
807.472	2998
807.614	2914
807.756	2948
807.898	2948
808.04	2887
808.182	2990
808.324	2899
808.465	2880
808.607	2899
808.749	2800
808.891	2777
809.033	2910
809.174	2975
809.316	2895
809.458	2906
809.6	2758
809.741	2785
809.883	2777
810.025	2876
810.166	2864
810.308	2838
810.45	2842
810.591	2781
810.733	2781
810.875	2853
811.016	2739
811.158	2766
811.299	2811
811.441	2906
811.582	2914
811.724	2815
811.865	2788
812.007	2876
812.148	2876
812.29	2830
812.431	2872
812.573	2944
812.714	2956
812.855	3043
812.997	3020
813.138	3093
813.279	3047
813.421	2975
813.562	2944
813.703	2864
813.845	2910
813.986	2754
814.127	2697
814.268	2819
814.41	2834
814.551	2792
814.692	2895
814.833	2804
814.974	2899
815.115	2948
815.256	2819
815.397	2807
815.539	2864
815.68	2769
815.821	2788
815.962	2902
816.103	2891
816.244	2880
816.385	2853
816.526	2979
816.666	2925
816.807	2746
816.948	2880
817.089	2918
817.23	2842
817.371	2796
817.512	2785
817.653	2834
817.793	2834
817.934	2876
818.075	2986
818.216	3020
818.356	3028
818.497	2914
818.638	2777
818.778	2842
818.919	2807
819.06	2743
819.2	2880
819.341	2823
819.481	2796
819.622	2899
819.762	3097
819.903	3017
820.043	2895
820.184	2895
820.324	2914
820.465	3013
820.605	3028
820.746	2971
820.886	2937
821.026	3097
821.167	3112
821.307	3222
821.447	3275
821.588	3237
821.728	3207
821.868	3165
822.008	3077
822.149	3188
822.289	3260
822.429	3108
822.569	3116
822.709	3207
822.849	3005
822.99	3066
823.13	3211
823.27	3218
823.41	3112
823.55	3142
823.69	3154
823.83	3195
823.97	3138
824.11	2975
824.25	3005
824.389	3043
824.529	3093
824.669	3058
824.809	3199
824.949	3260
825.089	3173
825.228	3127
825.368	3005
825.508	2914
825.648	2948
825.787	3005
825.927	3009
826.067	2941
826.206	2952
826.346	3043
826.485	3043
826.625	3104
826.765	3253
826.904	3218
827.044	2971
827.183	2944
827.323	2826
827.462	2998
827.601	2902
827.741	2929
827.88	2937
828.02	2849
828.159	2960
828.298	3009
828.437	3081
828.577	3039
828.716	3268
828.855	3093
828.994	2910
829.134	2876
829.273	2918
829.412	2842
829.551	2868
829.69	2883
829.829	2960
829.968	3131
830.107	3028
830.246	3013
830.385	2941
830.524	2902
830.663	2838
830.802	2716
830.941	2648
831.08	2629
831.219	2746
831.357	2731
831.496	2944
831.635	2674
831.774	2651
831.913	2651
832.051	2560
832.19	2575
832.329	2697
832.467	2526
832.606	2480
832.744	2594
832.883	2549
833.022	2587
833.16	2659
833.299	2674
833.437	2670
833.576	2689
833.714	2712
833.852	2720
833.991	2754
834.129	2819
834.267	2830
834.406	2762
834.544	2845
834.682	2872
834.821	2887
834.959	3047
835.097	2883
835.235	3047
835.373	2963
835.511	3013
835.65	2948
835.788	2963
835.926	2830
836.064	2830
836.202	2804
836.34	3074
836.478	3135
836.615	3013
836.753	3127
836.891	3195
837.029	3146
837.167	3093
837.305	3058
837.443	3032
837.58	2937
837.718	3131
837.856	3074
837.993	3013
838.131	3108
838.269	3112
838.406	3104
838.544	3119
838.681	2933
838.819	2910
838.956	2826
839.094	2826
839.231	2906
839.369	3013
839.506	3359
839.643	3214
839.781	3036
839.918	2956
840.055	3039
840.193	3039
840.33	2990
840.467	3062
840.604	3165
840.742	3382
840.879	3024
841.016	3028
841.153	3093
841.29	3332
841.427	3275
841.564	3241
841.701	3321
841.838	3165
841.975	3176
842.112	3199
842.249	3055
842.385	2998
842.522	3249
842.659	3058
842.796	3047
842.933	3089
843.069	3047
843.206	3074
843.343	3184
843.479	3093
843.616	3123
843.752	2902
843.889	2872
844.025	3074
844.162	2883
844.298	3039
844.435	2922
844.571	2880
844.708	3062
844.844	3173
844.98	3199
845.117	3218
845.253	3081
845.389	3017
845.525	3112
845.661	3097
845.798	2971
845.934	3119
846.07	3028
846.206	3184
846.342	3336
846.478	3245
846.614	3051
846.75	3020
846.886	3032
847.022	3180
847.158	3161
847.294	3199
847.429	3230
847.565	3184
847.701	3462
847.837	3024
847.972	2994
848.108	3165
848.244	3135
848.379	2998
848.515	2933
848.65	2914
848.786	2971
848.921	3032
849.057	3119
849.192	3100
849.328	3058
849.463	3043
849.598	3074
849.734	3032
849.869	2933
850.004	2918
850.14	2925
850.275	2910
850.41	2834
850.545	2880
850.68	2914
850.815	2960
850.95	2986
851.085	3233
851.22	3123
851.355	3036
851.49	2941
851.625	2982
851.76	3039
851.895	2925
852.03	2914
852.165	2990
852.299	3074
852.434	3142
852.569	3146
852.703	3157
852.838	3230
852.973	3310
853.107	3298
853.242	3127
853.376	3116
853.511	2975
853.645	3028
853.78	3230
853.914	3085
854.048	3066
854.183	3127
854.317	3157
854.451	3260
854.585	3104
854.72	3070
854.854	3161
854.988	3070
855.122	3089
855.256	2975
855.39	3116
855.524	3230
855.658	3146
855.792	3112
855.926	3195
856.06	3211
856.194	3291
856.327	3150
856.461	3062
856.595	3089
856.729	3081
856.862	3203
856.996	3180
857.13	3169
857.263	3218
857.397	3230
857.53	3123
857.664	3195
857.797	3256
857.931	3226
858.064	3176
858.197	3207
858.331	3116
858.464	3104
858.597	2990
858.731	3146
858.864	3112
858.997	3093
859.13	3100
859.263	3192
859.396	3169
859.529	3081
859.662	3070
859.795	3009
859.928	3108
860.061	3283
860.194	3272
860.327	3097
860.46	3100
860.592	3233
860.725	3237
860.858	3230
860.99	3070
861.123	3039
861.256	3070
861.388	3135
861.521	3854
861.653	3005
861.786	2963
861.918	3001
862.05	3051
862.183	3077
862.315	3173
862.447	3180
862.58	3093
862.712	2918
862.844	2853
862.976	3017
863.108	2967
863.24	3435
863.372	2876
863.504	2956
863.636	2960
863.768	2990
863.9	2990
864.032	2902
864.164	2937
864.296	3001
864.428	3055
864.559	3077
864.691	3093
864.823	3066
864.954	2990
865.086	3039
865.217	2982
865.349	2937
865.48	2960
865.612	3001
865.743	3146
865.875	2975
866.006	2960
866.137	2967
866.269	2918
866.4	2895
866.531	2906
866.662	2861
866.793	2876
866.924	2902
867.055	2960
867.186	2922
867.317	2899
867.448	2857
867.579	2830
867.71	2857
867.841	2823
867.972	2933
868.103	2910
868.233	2906
868.364	2842
868.495	2918
868.625	3074
868.756	3138
868.886	2967
869.017	2971
869.147	3180
869.278	3123
869.408	3036
869.539	3039
869.669	3077
869.799	3039
869.929	3123
870.06	3097
870.19	3294
870.32	3306
870.45	3272
870.58	3367
870.71	3454
870.84	3450
870.97	3306
871.1	3222
871.23	3466
871.36	3374
871.489	3332
871.619	3405
871.749	3397
871.879	3424
872.008	3473
872.138	3310
872.267	3226
872.397	3165
872.526	3123
872.656	3013
872.785	3116
872.915	3203
873.044	3253
873.173	3207
873.303	3188
873.432	3256
873.561	3211
873.69	3188
873.819	3146
873.948	3176
874.077	3081
874.206	3001
874.335	3074
874.464	3207
874.593	3329
874.722	3222
874.851	3351
874.979	3325
875.108	3298
875.237	3169
875.365	3157
875.494	3138
875.623	3245
875.751	3062
875.88	3119
876.008	3146
876.136	3222
876.265	3378
876.393	3542
876.521	3428
876.65	3378
876.778	3313
876.906	3207
877.034	3207
877.162	3211
877.29	3154
877.418	3233
877.546	3237
877.674	3203
877.802	3199
877.93	3184
878.058	3157
878.185	3081
878.313	3211
878.441	3188
878.568	3036
878.696	3131
878.824	3241
878.951	3241
879.079	3454
879.206	3610
879.333	3443
879.461	3325
879.588	3367
879.715	3450
879.842	3584
879.97	3336
880.097	3176
880.224	3074
880.351	3188
880.478	3237
880.605	3188
880.732	3188
880.859	3447
880.986	3317
881.112	3317
881.239	3180
881.366	3119
881.493	3043
881.619	3070
881.746	3112
881.872	3077
881.999	3104
882.125	3169
882.252	3253
882.378	3291
882.505	3462
882.631	3294
882.757	3169
882.883	3207
883.01	3264
883.136	3180
883.262	3104
883.388	3131
883.514	3332
883.64	3382
883.766	3310
883.892	3207
884.018	3279
884.143	3428
884.269	3572
884.395	3294
884.52	3188
884.646	3249
884.772	3184
884.897	3131
885.023	3237
885.148	3351
885.274	3477
885.399	3378
885.524	3332
885.65	3306
885.775	3351
885.9	3294
886.025	3462
886.15	3420
886.275	3321
886.4	3283
886.525	3310
886.65	3321
886.775	3310
886.9	3549
887.025	3675
887.149	3466
887.274	3283
887.399	3230
887.523	3245
887.648	3207
887.773	3245
887.897	3382
888.021	3466
888.146	3340
888.27	3466
888.395	3561
888.519	3439
888.643	3500
888.767	3496
888.891	3340
889.015	3256
889.139	3332
889.263	3272
889.387	3401
889.511	3561
889.635	3469
889.759	3340
889.883	3325
890.006	3428
890.13	3500
890.254	3332
890.377	3424
890.501	3264
890.624	3222
890.748	3351
890.871	3199
890.995	3131
891.118	3093
891.241	3253
891.364	3272
891.488	3332
891.611	3233
891.734	3253
891.857	3340
891.98	3313
892.103	3351
892.226	3302
892.349	3237
892.471	3131
892.594	3302
892.717	3313
892.839	3272
892.962	3321
893.085	3367
893.207	3332
893.33	3195
893.452	3222
893.575	3367
893.697	3275
893.819	3523
893.941	3523
894.064	3473
894.186	3283
894.308	3294
894.43	3454
894.552	3580
894.674	3507
894.796	3355
894.918	3344
895.04	3329
895.161	3450
895.283	3378
895.405	3336
895.526	3389
895.648	3496
895.769	3431
895.891	3526
896.012	3496
896.134	3515
896.255	3439
896.376	3409
896.498	3397
896.619	3424
896.74	3466
896.861	3466
896.982	3694
897.103	3892
897.224	3671
897.345	3553
897.466	3462
897.587	3519
897.708	3667
897.828	3549
897.949	3466
898.07	3355
898.19	3443
898.311	3648
898.431	3473
898.552	3538
898.672	3584
898.792	3595
898.913	3587
899.033	3443
899.153	3340
899.273	3256
899.393	3336
899.513	3355
899.633	3294
899.753	3389
899.873	3321
899.993	3439
900.113	3363
900.232	3401
900.352	3397
900.472	3359
900.591	3241
900.711	3351
900.83	3272
900.95	3412
901.069	3504
901.189	3393
901.308	3233
901.427	3192
901.546	3218
901.665	3298
901.784	3370
901.904	3222
902.023	3165
902.141	3074
902.26	3028
902.379	3157
902.498	3154
902.617	3097
902.735	3237
902.854	3256
902.973	3264
903.091	3070
903.21	3112
903.328	3188
903.446	3135
903.565	3108
903.683	3199
903.801	3180
903.919	3291
904.038	3329
904.156	3214
904.274	3313
904.392	3287
904.51	3355
904.627	3370
904.745	3458
904.863	3523
904.981	3268
905.098	3207
905.216	3253
905.334	3359
905.451	3351
905.569	3378
905.686	3443
905.803	3473
905.921	3325
906.038	3481
906.155	3367
906.272	3294
906.389	3351
906.506	3310
906.623	3291
906.74	3321
906.857	3249
906.974	3279
907.091	3454
907.208	3568
907.324	3481
907.441	3473
907.557	3298
907.674	3241
907.79	3241
907.907	3329
908.023	3412
908.139	3409
908.256	3386
908.372	3416
908.488	3378
908.604	3283
908.72	3264
908.836	3287
908.952	3321
909.068	3409
909.184	3462
909.3	3401
909.415	3526
909.531	3485
909.647	3325
909.762	3317
909.878	3279
909.993	3389
910.108	3344
910.224	3351
910.339	3443
910.454	3363
910.57	3321
910.685	3230
910.8	3660
910.915	3545
911.03	3473
911.145	3287
911.259	3279
911.374	3348
911.489	3287
911.604	3249
911.718	3157
911.833	3203
911.947	3077
912.062	2994
912.176	3165
912.291	3226
912.405	3173
912.519	3450
912.633	3454
912.748	3359
912.862	3275
912.976	3169
913.09	3112
913.204	3173
913.318	3268
913.431	3370
913.545	3370
913.659	3428
913.772	3370
913.886	3241
914	3188
914.113	3401
914.226	3428
914.34	3382
914.453	3226
914.566	3435
914.68	3302
914.793	3321
914.906	3169
915.019	3150
915.132	3074
915.245	3192
915.358	3241
915.47	3233
915.583	3302
915.696	3329
915.809	3439
915.921	3439
916.034	3294
916.146	3264
916.259	3253
916.371	3428
916.483	3416
916.595	3283
916.708	3378
916.82	3367
916.932	3355
917.044	3370
917.156	3393
917.268	3287
917.38	3367
917.491	3344
917.603	3420
917.715	3447
917.826	3481
917.938	3420
918.049	3287
918.161	3485
918.272	3584
918.384	3591
918.495	3488
918.606	3359
918.717	3313
918.828	3374
918.939	3431
919.05	3298
919.161	3397
919.272	3165
919.383	3268
919.494	3519
919.604	3701
919.715	3488
919.826	3386
919.936	3496
920.047	3656
920.157	3572
920.267	3785
920.378	3629
920.488	3595
920.598	3793
920.708	3975
920.818	3869
920.928	3854
921.038	4040
921.148	4025
921.258	3747
921.368	3663
921.477	3618
921.587	3549
921.697	3462
921.806	3663
921.916	3523
922.025	3412
922.134	3370
922.244	3348
922.353	3431
922.462	3294
922.571	3245
922.68	3108
922.789	3108
922.898	3169
923.007	3119
923.116	3237
923.224	3199
923.333	3199
923.442	3127
923.55	3070
923.659	3135
923.767	3237
923.876	3123
923.984	3287
924.092	3127
924.201	3184
924.309	3233
924.417	3279
924.525	3237
924.633	3237
924.741	4173
924.849	3104
924.956	3264
925.064	3116
925.172	3062
925.279	3154
925.387	3222
925.494	3245
925.602	3348
925.709	3359
925.816	3226
925.924	3325
926.031	3428
926.138	3348
926.245	3355
926.352	3287
926.459	3450
926.566	3477
926.673	3321
926.779	3287
926.886	3272
926.993	3154
927.099	3154
927.206	3157
927.312	3157
927.419	3237
927.525	3203
927.631	3291
927.737	3173
927.843	3085
927.95	3024
928.056	3161
928.162	3203
928.267	3279
928.373	3880
928.479	3340
928.585	3089
928.69	3256
928.796	3298
928.901	3188
929.007	3047
929.112	3230
929.218	3173
929.323	3180
929.428	3161
929.533	3325
929.638	3123
929.743	3146
929.848	3272
929.953	3241
930.058	3161
930.163	3009
930.267	3032
930.372	3233
930.477	3081
930.581	3344
930.685	3203
930.79	3116
930.894	3154
930.998	3108
931.103	3332
931.207	2986
931.311	2975
931.415	2918
931.519	2781
931.623	2842
