Data from test_V78500241_500.txt Node
Date: Fri Mar 25 16:18:40 CST 2022
User: usil
Spectrometer: V785-0024
Trigger mode: 0
Integration Time (sec): 4.000000E-1
Scans to average: 1
Nonlinearity correction enabled: false
Boxcar width: 0
Storing dark spectrum: false
XAxis mode: Wavelengths
Number of Pixels in Spectrum: 1024
>>>>>Begin Spectral Data<<<<<
801.071	2918
801.214	2925
801.356	2880
801.499	2883
801.641	2853
801.783	2929
801.926	3051
802.068	2994
802.211	3005
802.353	3013
802.496	2948
802.638	3028
802.78	2982
802.923	3066
803.065	2982
803.208	2876
803.35	2922
803.492	2925
803.635	2910
803.777	2735
803.919	2857
804.061	3199
804.204	2967
804.346	2868
804.488	2819
804.63	2967
804.773	2872
804.915	2891
805.057	3051
805.199	2937
805.341	3001
805.483	3020
805.626	2979
805.768	2933
805.91	3089
806.052	3112
806.194	3051
806.336	3192
806.478	3024
806.62	2944
806.762	2975
806.904	3047
807.046	3165
807.188	2963
807.33	2925
807.472	2975
807.614	2887
807.756	2982
807.898	2918
808.04	2899
808.182	2986
808.324	2967
808.465	2842
808.607	2864
808.749	2807
808.891	2823
809.033	2990
809.174	2967
809.316	2891
809.458	2861
809.6	2766
809.741	2758
809.883	2743
810.025	2853
810.166	2845
810.308	2857
810.45	2849
810.591	2750
810.733	2739
810.875	2864
811.016	2750
811.158	2788
811.299	2796
811.441	2960
811.582	2880
811.724	2815
811.865	2811
812.007	2902
812.148	2853
812.29	2842
812.431	2872
812.573	2906
812.714	2941
812.855	3058
812.997	3001
813.138	3089
813.279	2986
813.421	2948
813.562	2952
813.703	2895
813.845	2895
813.986	2785
814.127	2750
814.268	2823
814.41	2815
814.551	2792
814.692	2849
814.833	2804
814.974	2902
815.115	2933
815.256	2800
815.397	2804
815.539	2891
815.68	2777
815.821	2773
815.962	2899
816.103	2914
816.244	2872
816.385	2883
816.526	2956
816.666	2914
816.807	2720
816.948	2864
817.089	2880
817.23	2845
817.371	2792
817.512	2773
817.653	2861
817.793	2807
817.934	2902
818.075	2933
818.216	2990
818.356	3047
818.497	2845
818.638	2746
818.778	2804
818.919	2811
819.06	2746
819.2	2883
819.341	2800
819.481	2819
819.622	2902
819.762	3055
819.903	3028
820.043	2944
820.184	2914
820.324	2902
820.465	2990
820.605	2998
820.746	3066
820.886	2925
821.026	3112
821.167	3157
821.307	3256
821.447	3226
821.588	3222
821.728	3199
821.868	3222
822.008	3081
822.149	3165
822.289	3245
822.429	3116
822.569	3119
822.709	3173
822.849	3009
822.99	3055
823.13	3176
823.27	3199
823.41	3119
823.55	3127
823.69	3119
823.83	3195
823.97	3093
824.11	3001
824.25	2982
824.389	3051
824.529	3085
824.669	3051
824.809	3207
824.949	3214
825.089	3199
825.228	3116
825.368	3009
825.508	2975
825.648	2963
825.787	3032
825.927	3020
826.067	2948
826.206	2948
826.346	3028
826.485	3074
826.625	3108
826.765	3249
826.904	3180
827.044	2971
827.183	2937
827.323	2853
827.462	3009
827.601	2899
827.741	2906
827.88	2929
828.02	2838
828.159	2941
828.298	3028
828.437	3138
828.577	3051
828.716	3222
828.855	3070
828.994	2864
829.134	2861
829.273	2902
829.412	2864
829.551	2845
829.69	2880
829.829	2963
829.968	3157
830.107	3020
830.246	3005
830.385	2929
830.524	2906
830.663	2830
830.802	2712
830.941	2644
831.08	2663
831.219	2777
831.357	2716
831.496	2937
831.635	2746
831.774	2651
831.913	2655
832.051	2526
832.19	2549
832.329	2701
832.467	2571
832.606	2484
832.744	2564
832.883	2556
833.022	2579
833.16	2594
833.299	2667
833.437	2670
833.576	2701
833.714	2708
833.852	2716
833.991	2758
834.129	2815
834.267	2826
834.406	2781
834.544	2864
834.682	2891
834.821	2845
834.959	3020
835.097	2910
835.235	3058
835.373	2971
835.511	3024
835.65	2948
835.788	2956
835.926	2834
836.064	2811
836.202	2861
836.34	3062
836.478	3127
836.615	3043
836.753	3123
836.891	3214
837.029	3150
837.167	3066
837.305	3036
837.443	3013
837.58	2963
837.718	3142
837.856	3077
837.993	3036
838.131	3112
838.269	3104
838.406	3085
838.544	3066
838.681	2941
838.819	2902
838.956	2796
839.094	2788
839.231	2929
839.369	3001
839.506	3382
839.643	3195
839.781	3028
839.918	2960
840.055	3036
840.193	3058
840.33	3097
840.467	3089
840.604	3127
840.742	3374
840.879	3024
841.016	3066
841.153	3116
841.29	3363
841.427	3253
841.564	3253
841.701	3313
841.838	3180
841.975	3157
842.112	3233
842.249	3077
842.385	3024
842.522	3279
842.659	3089
842.796	3009
842.933	3108
843.069	3017
843.206	3017
843.343	3173
843.479	3131
843.616	3119
843.752	2922
843.889	2880
844.025	3097
844.162	2880
844.298	3108
844.435	2960
844.571	2910
844.708	3036
844.844	3188
844.98	3192
845.117	3176
845.253	3051
845.389	3005
845.525	3116
845.661	3085
845.798	2998
845.934	3077
846.07	3028
846.206	3222
846.342	3302
846.478	3176
846.614	3093
846.75	3047
846.886	3024
847.022	3226
847.158	3119
847.294	3188
847.429	3218
847.565	3184
847.701	3511
847.837	3017
847.972	3043
848.108	3150
848.244	3104
848.379	2986
848.515	2933
848.65	2967
848.786	2975
848.921	3001
849.057	3097
849.192	3142
849.328	3074
849.463	3116
849.598	3077
849.734	3036
849.869	2982
850.004	2937
850.14	2979
850.275	2895
850.41	2823
850.545	2864
850.68	2948
850.815	2910
850.95	2982
851.085	3199
851.22	3085
851.355	3017
851.49	2998
851.625	3028
851.76	3005
851.895	2925
852.03	2876
852.165	3020
852.299	3116
852.434	3154
852.569	3116
852.703	3142
852.838	3275
852.973	3340
853.107	3355
853.242	3142
853.376	3062
853.511	2975
853.645	2986
853.78	3249
853.914	3131
854.048	3135
854.183	3074
854.317	3146
854.451	3294
854.585	3097
854.72	3074
854.854	3180
854.988	3051
855.122	3043
855.256	2963
855.39	3131
855.524	3268
855.658	3169
855.792	3214
855.926	3207
856.06	3165
856.194	3245
856.327	3192
856.461	3047
856.595	3089
856.729	3074
856.862	3195
856.996	3116
857.13	3230
857.263	3192
857.397	3298
857.53	3062
857.664	3123
857.797	3214
857.931	3241
858.064	3154
858.197	3233
858.331	3127
858.464	3085
858.597	2956
858.731	3100
858.864	3081
858.997	3051
859.13	3131
859.263	3180
859.396	3157
859.529	3058
859.662	3051
859.795	3062
859.928	3180
860.061	3264
860.194	3294
860.327	3123
860.46	3081
860.592	3218
860.725	3272
860.858	3245
860.99	3123
861.123	3036
861.256	3047
861.388	3146
861.521	3831
861.653	3017
861.786	2963
861.918	3005
862.05	3070
862.183	3085
862.315	3138
862.447	3218
862.58	3077
862.712	2929
862.844	2895
862.976	3001
863.108	3013
863.24	3313
863.372	2861
863.504	2925
863.636	2929
863.768	3024
863.9	2979
864.032	2906
864.164	2952
864.296	3024
864.428	3070
864.559	3066
864.691	3039
864.823	3028
864.954	3051
865.086	3032
865.217	2990
865.349	2925
865.48	2971
865.612	3032
865.743	3161
865.875	2975
866.006	2967
866.137	2963
866.269	2937
866.4	2941
866.531	2876
866.662	2902
866.793	2895
866.924	2937
867.055	2956
867.186	2906
867.317	2887
867.448	2826
867.579	2857
867.71	2853
867.841	2815
867.972	2914
868.103	2887
868.233	2883
868.364	2872
868.495	2902
868.625	3032
868.756	3135
868.886	2956
869.017	3013
869.147	3165
869.278	3157
869.408	3039
869.539	3043
869.669	3070
869.799	3036
869.929	3123
870.06	3123
870.19	3367
870.32	3310
870.45	3256
870.58	3355
870.71	3458
870.84	3439
870.97	3279
871.1	3245
871.23	3534
871.36	3443
871.489	3386
871.619	3355
871.749	3378
871.879	3477
872.008	3477
872.138	3340
872.267	3260
872.397	3150
872.526	3077
872.656	3047
872.785	3070
872.915	3268
873.044	3302
873.173	3211
873.303	3222
873.432	3218
873.561	3207
873.69	3157
873.819	3112
873.948	3214
874.077	3062
874.206	3058
874.335	3081
874.464	3199
874.593	3348
874.722	3249
874.851	3355
874.979	3348
875.108	3306
875.237	3230
875.365	3157
875.494	3154
875.623	3237
875.751	3062
875.88	3093
876.008	3184
876.136	3195
876.265	3336
876.393	3519
876.521	3424
876.65	3370
876.778	3294
876.906	3241
877.034	3184
877.162	3222
877.29	3169
877.418	3256
877.546	3249
877.674	3207
877.802	3195
877.93	3230
878.058	3131
878.185	3123
878.313	3165
878.441	3211
878.568	3055
878.696	3135
878.824	3226
878.951	3272
879.079	3466
879.206	3625
879.333	3469
879.461	3344
879.588	3363
879.715	3485
879.842	3584
879.97	3348
880.097	3154
880.224	3116
880.351	3199
880.478	3233
880.605	3184
880.732	3176
880.859	3507
880.986	3294
881.112	3294
881.239	3184
881.366	3081
881.493	3028
881.619	3001
881.746	3077
881.872	3066
881.999	3097
882.125	3112
882.252	3218
882.378	3279
882.505	3454
882.631	3283
882.757	3116
882.883	3222
883.01	3241
883.136	3135
883.262	3081
883.388	3108
883.514	3348
883.64	3378
883.766	3317
883.892	3195
884.018	3249
884.143	3401
884.269	3511
884.395	3195
884.52	3127
884.646	3169
884.772	3119
884.897	3051
885.023	3214
885.148	3294
885.274	3393
885.399	3355
885.524	3298
885.65	3264
885.775	3313
885.9	3302
886.025	3473
886.15	3351
886.275	3302
886.4	3222
886.525	3279
886.65	3275
886.775	3241
886.9	3473
887.025	3652
887.149	3409
887.274	3275
887.399	3131
887.523	3211
887.648	3199
887.773	3173
887.897	3340
888.021	3386
888.146	3291
888.27	3443
888.395	3538
888.519	3405
888.643	3412
888.767	3466
888.891	3329
889.015	3207
889.139	3268
889.263	3253
889.387	3363
889.511	3488
889.635	3443
889.759	3283
889.883	3283
890.006	3401
890.13	3485
890.254	3256
890.377	3344
890.501	3180
890.624	3195
890.748	3272
890.871	3176
890.995	3055
891.118	3047
891.241	3207
891.364	3230
891.488	3325
891.611	3188
891.734	3237
891.857	3279
891.98	3241
892.103	3329
892.226	3260
892.349	3218
892.471	3127
892.594	3241
892.717	3279
892.839	3241
892.962	3283
893.085	3321
893.207	3272
893.33	3127
893.452	3203
893.575	3340
893.697	3233
893.819	3477
893.941	3504
894.064	3473
894.186	3283
894.308	3218
894.43	3382
894.552	3485
894.674	3488
894.796	3298
894.918	3306
895.04	3279
895.161	3420
895.283	3420
895.405	3272
895.526	3401
895.648	3412
895.769	3382
895.891	3458
896.012	3447
896.134	3428
896.255	3397
896.376	3378
896.498	3355
896.619	3424
896.74	3382
896.861	3393
896.982	3675
897.103	3835
897.224	3587
897.345	3515
897.466	3450
897.587	3500
897.708	3618
897.828	3511
897.949	3416
898.07	3340
898.19	3416
898.311	3576
898.431	3469
898.552	3530
898.672	3545
898.792	3561
898.913	3523
899.033	3420
899.153	3287
899.273	3192
899.393	3302
899.513	3317
899.633	3294
899.753	3332
899.873	3321
899.993	3378
900.113	3351
900.232	3393
900.352	3329
900.472	3306
900.591	3188
900.711	3313
900.83	3294
900.95	3389
901.069	3485
901.189	3363
901.308	3180
901.427	3176
901.546	3127
901.665	3310
901.784	3302
901.904	3184
902.023	3161
902.141	3009
902.26	3005
902.379	3127
902.498	3066
902.617	3085
902.735	3188
902.854	3241
902.973	3218
903.091	3085
903.21	3070
903.328	3154
903.446	3116
903.565	3093
903.683	3218
903.801	3138
903.919	3230
904.038	3313
904.156	3157
904.274	3306
904.392	3283
904.51	3287
904.627	3348
904.745	3412
904.863	3496
904.981	3291
905.098	3176
905.216	3245
905.334	3294
905.451	3317
905.569	3306
905.686	3443
905.803	3458
905.921	3275
906.038	3428
906.155	3355
906.272	3260
906.389	3321
906.506	3207
906.623	3256
906.74	3245
906.857	3192
906.974	3237
907.091	3454
907.208	3549
907.324	3500
907.441	3374
907.557	3214
907.674	3218
907.79	3199
907.907	3264
908.023	3367
908.139	3359
908.256	3325
908.372	3367
908.488	3348
908.604	3302
908.72	3203
908.836	3264
908.952	3275
909.068	3332
909.184	3507
909.3	3374
909.415	3504
909.531	3462
909.647	3298
909.762	3306
909.878	3260
909.993	3351
910.108	3310
910.224	3370
910.339	3416
910.454	3291
910.57	3302
910.685	3230
910.8	3568
910.915	3538
911.03	3435
911.145	3291
911.259	3283
911.374	3287
911.489	3230
911.604	3230
911.718	3112
911.833	3157
911.947	3024
912.062	2960
912.176	3173
912.291	3188
912.405	3233
912.519	3409
912.633	3454
912.748	3306
912.862	3237
912.976	3188
913.09	3066
913.204	3138
913.318	3237
913.431	3336
913.545	3332
913.659	3397
913.772	3378
913.886	3230
914	3173
914.113	3374
914.226	3431
914.34	3370
914.453	3207
914.566	3412
914.68	3298
914.793	3310
914.906	3138
915.019	3138
915.132	3032
915.245	3161
915.358	3211
915.47	3260
915.583	3260
915.696	3287
915.809	3386
915.921	3397
916.034	3260
916.146	3256
916.259	3241
916.371	3389
916.483	3355
916.595	3214
916.708	3298
916.82	3321
916.932	3367
917.044	3298
917.156	3321
917.268	3241
917.38	3291
917.491	3317
917.603	3351
917.715	3454
917.826	3469
917.938	3344
918.049	3268
918.161	3416
918.272	3599
918.384	3557
918.495	3481
918.606	3329
918.717	3237
918.828	3359
918.939	3374
919.05	3332
919.161	3348
919.272	3176
919.383	3294
919.494	3473
919.604	3705
919.715	3466
919.826	3397
919.936	3466
920.047	3572
920.157	3542
920.267	3747
920.378	3644
920.488	3584
920.598	3759
920.708	3949
920.818	3816
920.928	3797
921.038	4006
921.148	4036
921.258	3701
921.368	3633
921.477	3530
921.587	3542
921.697	3485
921.806	3599
921.916	3511
922.025	3374
922.134	3374
922.244	3287
922.353	3431
922.462	3264
922.571	3233
922.68	3123
922.789	3051
922.898	3142
923.007	3112
923.116	3176
923.224	3150
923.333	3180
923.442	3089
923.55	3093
923.659	3108
923.767	3233
923.876	3112
923.984	3249
924.092	3127
924.201	3195
924.309	3188
924.417	3230
924.525	3188
924.633	3214
924.741	4044
924.849	3070
924.956	3237
925.064	3135
925.172	3055
925.279	3127
925.387	3192
925.494	3188
925.602	3329
925.709	3317
925.816	3192
925.924	3268
926.031	3382
926.138	3317
926.245	3348
926.352	3241
926.459	3458
926.566	3530
926.673	3287
926.779	3249
926.886	3253
926.993	3119
927.099	3104
927.206	3062
927.312	3131
927.419	3245
927.525	3188
927.631	3298
927.737	3119
927.843	3138
927.95	3024
928.056	3135
928.162	3138
928.267	3226
928.373	3785
928.479	3279
928.585	3062
928.69	3214
928.796	3264
928.901	3150
929.007	3024
929.112	3184
929.218	3173
929.323	3161
929.428	3146
929.533	3313
929.638	3123
929.743	3138
929.848	3256
929.953	3214
930.058	3150
930.163	3001
930.267	3032
930.372	3192
930.477	3039
930.581	3298
930.685	3184
930.79	3074
930.894	3085
930.998	3047
931.103	3283
931.207	2948
931.311	2918
931.415	2937
931.519	2750
931.623	2811
