Data from test_V78500241_436.txt Node
Date: Fri Mar 25 16:18:13 CST 2022
User: usil
Spectrometer: V785-0024
Trigger mode: 0
Integration Time (sec): 4.000000E-1
Scans to average: 1
Nonlinearity correction enabled: false
Boxcar width: 0
Storing dark spectrum: false
XAxis mode: Wavelengths
Number of Pixels in Spectrum: 1024
>>>>>Begin Spectral Data<<<<<
801.071	2910
801.214	2933
801.356	2838
801.499	2883
801.641	2872
801.783	2925
801.926	3036
802.068	2998
802.211	2986
802.353	3051
802.496	2979
802.638	3024
802.78	3062
802.923	3051
803.065	2944
803.208	2899
803.35	2876
803.492	2941
803.635	2929
803.777	2746
803.919	2861
804.061	3188
804.204	2941
804.346	2902
804.488	2849
804.63	2990
804.773	2880
804.915	2918
805.057	3039
805.199	2937
805.341	2937
805.483	2990
805.626	2998
805.768	2975
805.91	3047
806.052	3127
806.194	3032
806.336	3203
806.478	3017
806.62	2937
806.762	2979
806.904	3085
807.046	3188
807.188	2971
807.33	2922
807.472	2967
807.614	2887
807.756	3001
807.898	2902
808.04	2895
808.182	2994
808.324	2948
808.465	2872
808.607	2876
808.749	2804
808.891	2857
809.033	2979
809.174	2952
809.316	2864
809.458	2883
809.6	2754
809.741	2788
809.883	2785
810.025	2849
810.166	2849
810.308	2834
810.45	2826
810.591	2781
810.733	2754
810.875	2830
811.016	2792
811.158	2766
811.299	2792
811.441	2914
811.582	2902
811.724	2815
811.865	2826
812.007	2880
812.148	2872
812.29	2849
812.431	2914
812.573	2922
812.714	2998
812.855	3036
812.997	3058
813.138	3081
813.279	3039
813.421	2960
813.562	2982
813.703	2872
813.845	2906
813.986	2785
814.127	2712
814.268	2800
814.41	2811
814.551	2811
814.692	2868
814.833	2766
814.974	2872
815.115	2971
815.256	2823
815.397	2781
815.539	2845
815.68	2785
815.821	2792
815.962	2906
816.103	2914
816.244	2838
816.385	2830
816.526	2952
816.666	2914
816.807	2731
816.948	2880
817.089	2918
817.23	2864
817.371	2762
817.512	2792
817.653	2815
817.793	2823
817.934	2910
818.075	2948
818.216	2982
818.356	3036
818.497	2880
818.638	2800
818.778	2823
818.919	2781
819.06	2739
819.2	2872
819.341	2785
819.481	2807
819.622	2925
819.762	3108
819.903	3055
820.043	2933
820.184	2891
820.324	2906
820.465	3001
820.605	3009
820.746	3005
820.886	2910
821.026	3074
821.167	3192
821.307	3195
821.447	3249
821.588	3245
821.728	3241
821.868	3195
822.008	3077
822.149	3165
822.289	3279
822.429	3047
822.569	3074
822.709	3199
822.849	3032
822.99	3055
823.13	3154
823.27	3214
823.41	3085
823.55	3165
823.69	3127
823.83	3184
823.97	3097
824.11	2982
824.25	2994
824.389	3085
824.529	3058
824.669	3074
824.809	3214
824.949	3230
825.089	3203
825.228	3195
825.368	3009
825.508	2933
825.648	2956
825.787	3013
825.927	3013
826.067	2975
826.206	2937
826.346	3005
826.485	3070
826.625	3070
826.765	3264
826.904	3195
827.044	2960
827.183	2899
827.323	2853
827.462	3001
827.601	2883
827.741	2902
827.88	2922
828.02	2883
828.159	2944
828.298	3032
828.437	3119
828.577	3039
828.716	3245
828.855	3074
828.994	2910
829.134	2899
829.273	2944
829.412	2849
829.551	2864
829.69	2891
829.829	2982
829.968	3138
830.107	2963
830.246	2982
830.385	2914
830.524	2910
830.663	2826
830.802	2727
830.941	2648
831.08	2610
831.219	2754
831.357	2746
831.496	2937
831.635	2727
831.774	2670
831.913	2629
832.051	2541
832.19	2560
832.329	2667
832.467	2541
832.606	2503
832.744	2556
832.883	2549
833.022	2564
833.16	2644
833.299	2686
833.437	2655
833.576	2678
833.714	2697
833.852	2743
833.991	2762
834.129	2834
834.267	2773
834.406	2796
834.544	2876
834.682	2834
834.821	2872
834.959	3062
835.097	2861
835.235	3020
835.373	2960
835.511	3013
835.65	2998
835.788	2944
835.926	2826
836.064	2804
836.202	2826
836.34	3047
836.478	3112
836.615	3024
836.753	3146
836.891	3154
837.029	3161
837.167	3070
837.305	3043
837.443	3005
837.58	2952
837.718	3104
837.856	3039
837.993	3032
838.131	3104
838.269	3093
838.406	3058
838.544	3062
838.681	2910
838.819	2887
838.956	2788
839.094	2815
839.231	2872
839.369	3001
839.506	3355
839.643	3195
839.781	2994
839.918	2952
840.055	3036
840.193	3043
840.33	3070
840.467	3123
840.604	3146
840.742	3355
840.879	3028
841.016	3039
841.153	3138
841.29	3332
841.427	3283
841.564	3283
841.701	3321
841.838	3207
841.975	3157
842.112	3195
842.249	3066
842.385	3066
842.522	3249
842.659	3055
842.796	3066
842.933	3085
843.069	3032
843.206	2990
843.343	3188
843.479	3119
843.616	3119
843.752	2857
843.889	2838
844.025	3066
844.162	2853
844.298	3077
844.435	2971
844.571	2899
844.708	3081
844.844	3173
844.98	3207
845.117	3188
845.253	3039
845.389	2982
845.525	3119
845.661	3062
845.798	3005
845.934	3089
846.07	3055
846.206	3161
846.342	3283
846.478	3226
846.614	3093
846.75	3013
846.886	3017
847.022	3203
847.158	3146
847.294	3123
847.429	3188
847.565	3207
847.701	3462
847.837	2982
847.972	2979
848.108	3150
848.244	3138
848.379	2948
848.515	2914
848.65	2910
848.786	2975
848.921	2994
849.057	3112
849.192	3161
849.328	3089
849.463	3077
849.598	3093
849.734	3017
849.869	2944
850.004	2922
850.14	2963
850.275	2925
850.41	2834
850.545	2861
850.68	2922
850.815	2910
850.95	2952
851.085	3192
851.22	3089
851.355	3036
851.49	2944
851.625	3009
851.76	2963
851.895	2872
852.03	2891
852.165	3005
852.299	3108
852.434	3150
852.569	3138
852.703	3150
852.838	3233
852.973	3344
853.107	3302
853.242	3116
853.376	3116
853.511	2979
853.645	3028
853.78	3211
853.914	3097
854.048	3093
854.183	3081
854.317	3119
854.451	3237
854.585	3104
854.72	3081
854.854	3199
854.988	3017
855.122	3058
855.256	2960
855.39	3104
855.524	3241
855.658	3142
855.792	3135
855.926	3157
856.06	3211
856.194	3222
856.327	3157
856.461	3055
856.595	3074
856.729	3135
856.862	3218
856.996	3146
857.13	3176
857.263	3192
857.397	3268
857.53	3062
857.664	3188
857.797	3214
857.931	3264
858.064	3154
858.197	3165
858.331	3081
858.464	3089
858.597	2967
858.731	3085
858.864	3135
858.997	3074
859.13	3112
859.263	3165
859.396	3226
859.529	3104
859.662	3043
859.795	3051
859.928	3116
860.061	3283
860.194	3249
860.327	3116
860.46	3024
860.592	3237
860.725	3211
860.858	3253
860.99	3055
861.123	3058
861.256	3009
861.388	3127
861.521	3949
861.653	2975
861.786	2979
861.918	3009
862.05	3089
862.183	3077
862.315	3165
862.447	3207
862.58	3070
862.712	2914
862.844	2857
862.976	2994
863.108	2994
863.24	3386
863.372	2826
863.504	2925
863.636	2922
863.768	3017
863.9	2937
864.032	2868
864.164	2933
864.296	2979
864.428	3047
864.559	3097
864.691	3043
864.823	3074
864.954	3005
865.086	3036
865.217	2971
865.349	2960
865.48	2952
865.612	2994
865.743	3161
865.875	2979
866.006	2937
866.137	2952
866.269	2929
866.4	2952
866.531	2910
866.662	2887
866.793	2910
866.924	2906
867.055	2975
867.186	2925
867.317	2906
867.448	2876
867.579	2891
867.71	2864
867.841	2823
867.972	2906
868.103	2906
868.233	2918
868.364	2918
868.495	2960
868.625	3077
868.756	3176
868.886	2979
869.017	3028
869.147	3195
869.278	3192
869.408	3043
869.539	3047
869.669	3100
869.799	3070
869.929	3173
870.06	3135
870.19	3382
870.32	3298
870.45	3310
870.58	3412
870.71	3504
870.84	3485
870.97	3348
871.1	3279
871.23	3496
871.36	3496
871.489	3450
871.619	3473
871.749	3469
871.879	3428
872.008	3534
872.138	3431
872.267	3344
872.397	3180
872.526	3119
872.656	3047
872.785	3138
872.915	3313
873.044	3378
873.173	3253
873.303	3275
873.432	3298
873.561	3268
873.69	3195
873.819	3203
873.948	3256
874.077	3146
874.206	3097
874.335	3154
874.464	3256
874.593	3378
874.722	3340
874.851	3409
874.979	3382
875.108	3332
875.237	3233
875.365	3173
875.494	3199
875.623	3287
875.751	3100
875.88	3097
876.008	3241
876.136	3245
876.265	3443
876.393	3519
876.521	3515
876.65	3443
876.778	3382
876.906	3279
877.034	3207
877.162	3268
877.29	3211
877.418	3313
877.546	3264
877.674	3287
877.802	3268
877.93	3256
878.058	3207
878.185	3154
878.313	3214
878.441	3203
878.568	3081
878.696	3169
878.824	3260
878.951	3336
879.079	3428
879.206	3629
879.333	3450
879.461	3378
879.588	3363
879.715	3500
879.842	3656
879.97	3397
880.097	3188
880.224	3150
880.351	3233
880.478	3237
880.605	3214
880.732	3226
880.859	3530
880.986	3306
881.112	3393
881.239	3222
881.366	3154
881.493	3074
881.619	3055
881.746	3119
881.872	3089
881.999	3150
882.125	3161
882.252	3291
882.378	3317
882.505	3466
882.631	3287
882.757	3233
882.883	3218
883.01	3268
883.136	3157
883.262	3085
883.388	3123
883.514	3351
883.64	3389
883.766	3332
883.892	3192
884.018	3237
884.143	3466
884.269	3568
884.395	3203
884.52	3169
884.646	3195
884.772	3199
884.897	3108
885.023	3230
885.148	3348
885.274	3431
885.399	3370
885.524	3291
885.65	3272
885.775	3340
885.9	3268
886.025	3447
886.15	3416
886.275	3325
886.4	3233
886.525	3348
886.65	3321
886.775	3283
886.9	3515
887.025	3660
887.149	3443
887.274	3325
887.399	3218
887.523	3230
887.648	3218
887.773	3226
887.897	3435
888.021	3428
888.146	3340
888.27	3477
888.395	3576
888.519	3481
888.643	3450
888.767	3500
888.891	3374
889.015	3233
889.139	3306
889.263	3283
889.387	3447
889.511	3523
889.635	3481
889.759	3291
889.883	3291
890.006	3447
890.13	3515
890.254	3287
890.377	3378
890.501	3237
890.624	3180
890.748	3291
890.871	3203
890.995	3127
891.118	3097
891.241	3245
891.364	3237
891.488	3351
891.611	3180
891.734	3230
891.857	3332
891.98	3275
892.103	3401
892.226	3287
892.349	3264
892.471	3173
892.594	3275
892.717	3294
892.839	3310
892.962	3306
893.085	3378
893.207	3348
893.33	3176
893.452	3237
893.575	3340
893.697	3287
893.819	3485
893.941	3515
894.064	3466
894.186	3272
894.308	3272
894.43	3462
894.552	3561
894.674	3481
894.796	3306
894.918	3325
895.04	3313
895.161	3439
895.283	3443
895.405	3367
895.526	3401
895.648	3454
895.769	3454
895.891	3492
896.012	3481
896.134	3500
896.255	3405
896.376	3389
896.498	3370
896.619	3447
896.74	3382
896.861	3447
896.982	3694
897.103	3804
897.224	3633
897.345	3519
897.466	3435
897.587	3507
897.708	3641
897.828	3568
897.949	3492
898.07	3393
898.19	3450
898.311	3614
898.431	3481
898.552	3557
898.672	3663
898.792	3622
898.913	3545
899.033	3431
899.153	3321
899.273	3294
899.393	3313
899.513	3340
899.633	3374
899.753	3378
899.873	3325
899.993	3405
900.113	3351
900.232	3389
900.352	3374
900.472	3332
900.591	3253
900.711	3302
900.83	3298
900.95	3439
901.069	3519
901.189	3370
901.308	3211
901.427	3169
901.546	3192
901.665	3355
901.784	3378
901.904	3279
902.023	3161
902.141	3013
902.26	3013
902.379	3184
902.498	3104
902.617	3070
902.735	3245
902.854	3275
902.973	3226
903.091	3074
903.21	3112
903.328	3142
903.446	3146
903.565	3093
903.683	3211
903.801	3176
903.919	3279
904.038	3348
904.156	3195
904.274	3340
904.392	3264
904.51	3351
904.627	3313
904.745	3473
904.863	3481
904.981	3283
905.098	3211
905.216	3249
905.334	3336
905.451	3340
905.569	3302
905.686	3447
905.803	3420
905.921	3313
906.038	3439
906.155	3359
906.272	3306
906.389	3340
906.506	3218
906.623	3245
906.74	3336
906.857	3184
906.974	3264
907.091	3504
907.208	3587
907.324	3477
907.441	3412
907.557	3264
907.674	3241
907.79	3226
907.907	3329
908.023	3416
908.139	3439
908.256	3344
908.372	3401
908.488	3382
908.604	3291
908.72	3241
908.836	3283
908.952	3325
909.068	3310
909.184	3477
909.3	3420
909.415	3485
909.531	3485
909.647	3313
909.762	3268
909.878	3241
909.993	3389
910.108	3367
910.224	3344
910.339	3412
910.454	3310
910.57	3291
910.685	3283
910.8	3610
910.915	3591
911.03	3435
911.145	3264
911.259	3310
911.374	3370
911.489	3226
911.604	3241
911.718	3135
911.833	3199
911.947	3032
912.062	3020
912.176	3184
912.291	3256
912.405	3222
912.519	3431
912.633	3492
912.748	3340
912.862	3237
912.976	3165
913.09	3077
913.204	3150
913.318	3256
913.431	3359
913.545	3389
913.659	3397
913.772	3389
913.886	3241
914	3237
914.113	3378
914.226	3466
914.34	3424
914.453	3218
914.566	3439
914.68	3275
914.793	3317
914.906	3173
915.019	3127
915.132	3089
915.245	3188
915.358	3230
915.47	3256
915.583	3310
915.696	3325
915.809	3412
915.921	3439
916.034	3272
916.146	3287
916.259	3241
916.371	3412
916.483	3348
916.595	3306
916.708	3344
916.82	3363
916.932	3378
917.044	3348
917.156	3332
917.268	3256
917.38	3283
917.491	3302
917.603	3374
917.715	3481
917.826	3492
917.938	3409
918.049	3268
918.161	3439
918.272	3603
918.384	3595
918.495	3526
918.606	3351
918.717	3321
918.828	3359
918.939	3428
919.05	3294
919.161	3374
919.272	3192
919.383	3298
919.494	3507
919.604	3713
919.715	3511
919.826	3428
919.936	3492
920.047	3591
920.157	3561
920.267	3778
920.378	3606
920.488	3576
920.598	3732
920.708	3968
920.818	3850
920.928	3842
921.038	4086
921.148	4010
921.258	3698
921.368	3675
921.477	3614
921.587	3519
921.697	3477
921.806	3663
921.916	3542
922.025	3355
922.134	3382
922.244	3306
922.353	3428
922.462	3291
922.571	3230
922.68	3154
922.789	3066
922.898	3180
923.007	3085
923.116	3211
923.224	3180
923.333	3207
923.442	3097
923.55	3123
923.659	3157
923.767	3214
923.876	3146
923.984	3264
924.092	3089
924.201	3233
924.309	3241
924.417	3245
924.525	3188
924.633	3214
924.741	4200
924.849	3047
924.956	3279
925.064	3119
925.172	3058
925.279	3116
925.387	3222
925.494	3249
925.602	3382
925.709	3348
925.816	3203
925.924	3291
926.031	3420
926.138	3329
926.245	3378
926.352	3275
926.459	3443
926.566	3458
926.673	3336
926.779	3268
926.886	3260
926.993	3154
927.099	3108
927.206	3119
927.312	3116
927.419	3199
927.525	3245
927.631	3298
927.737	3154
927.843	3077
927.95	2982
928.056	3146
928.162	3188
928.267	3253
928.373	3846
928.479	3336
928.585	3085
928.69	3214
928.796	3241
928.901	3199
929.007	3020
929.112	3241
929.218	3195
929.323	3173
929.428	3173
929.533	3321
929.638	3123
929.743	3154
929.848	3253
929.953	3180
930.058	3169
930.163	3013
930.267	3020
930.372	3192
930.477	3039
930.581	3310
930.685	3218
930.79	3081
930.894	3123
930.998	3085
931.103	3287
931.207	2971
931.311	2937
931.415	2922
931.519	2792
931.623	2796
