Data from test_V78500241_451.txt Node
Date: Fri Mar 25 16:18:19 CST 2022
User: usil
Spectrometer: V785-0024
Trigger mode: 0
Integration Time (sec): 4.000000E-1
Scans to average: 1
Nonlinearity correction enabled: false
Boxcar width: 0
Storing dark spectrum: false
XAxis mode: Wavelengths
Number of Pixels in Spectrum: 1024
>>>>>Begin Spectral Data<<<<<
801.071	2925
801.214	2960
801.356	2868
801.499	2902
801.641	2861
801.783	2982
801.926	3036
802.068	2975
802.211	3001
802.353	3074
802.496	2982
802.638	3020
802.78	3036
802.923	3047
803.065	3013
803.208	2910
803.35	2956
803.492	2887
803.635	2956
803.777	2769
803.919	2872
804.061	3218
804.204	2922
804.346	2914
804.488	2826
804.63	2979
804.773	2853
804.915	2887
805.057	3081
805.199	2937
805.341	2944
805.483	3032
805.626	2986
805.768	2956
805.91	3066
806.052	3135
806.194	3062
806.336	3241
806.478	3032
806.62	2948
806.762	2937
806.904	3074
807.046	3180
807.188	2986
807.33	2895
807.472	3013
807.614	2925
807.756	2952
807.898	2941
808.04	2861
808.182	2971
808.324	2929
808.465	2872
808.607	2857
808.749	2777
808.891	2815
809.033	2994
809.174	2971
809.316	2849
809.458	2872
809.6	2800
809.741	2743
809.883	2769
810.025	2868
810.166	2826
810.308	2842
810.45	2842
810.591	2739
810.733	2792
810.875	2823
811.016	2781
811.158	2731
811.299	2811
811.441	2933
811.582	2887
811.724	2815
811.865	2781
812.007	2895
812.148	2849
812.29	2815
812.431	2861
812.573	2929
812.714	2933
812.855	3024
812.997	3062
813.138	3146
813.279	2998
813.421	2975
813.562	2963
813.703	2849
813.845	2872
813.986	2762
814.127	2708
814.268	2807
814.41	2834
814.551	2819
814.692	2861
814.833	2804
814.974	2883
815.115	2960
815.256	2834
815.397	2804
815.539	2842
815.68	2788
815.821	2766
815.962	2971
816.103	2918
816.244	2861
816.385	2876
816.526	2948
816.666	2899
816.807	2766
816.948	2887
817.089	2899
817.23	2872
817.371	2769
817.512	2762
817.653	2857
817.793	2819
817.934	2880
818.075	2948
818.216	3001
818.356	3013
818.497	2895
818.638	2773
818.778	2830
818.919	2781
819.06	2739
819.2	2887
819.341	2807
819.481	2788
819.622	2933
819.762	3081
819.903	3036
820.043	2914
820.184	2910
820.324	2906
820.465	2990
820.605	3028
820.746	3013
820.886	2944
821.026	3055
821.167	3146
821.307	3253
821.447	3241
821.588	3203
821.728	3203
821.868	3173
822.008	3036
822.149	3184
822.289	3237
822.429	3089
822.569	3108
822.709	3195
822.849	3039
822.99	3062
823.13	3176
823.27	3207
823.41	3142
823.55	3138
823.69	3135
823.83	3173
823.97	3066
824.11	3024
824.25	2986
824.389	3051
824.529	3112
824.669	3058
824.809	3165
824.949	3218
825.089	3176
825.228	3150
825.368	3024
825.508	2944
825.648	3005
825.787	3028
825.927	3062
826.067	2979
826.206	2967
826.346	3051
826.485	3058
826.625	3081
826.765	3233
826.904	3222
827.044	2998
827.183	2922
827.323	2868
827.462	2948
827.601	2929
827.741	2929
827.88	2937
828.02	2857
828.159	2971
828.298	3013
828.437	3131
828.577	3001
828.716	3226
828.855	3062
828.994	2922
829.134	2872
829.273	2891
829.412	2861
829.551	2842
829.69	2853
829.829	3001
829.968	3112
830.107	2990
830.246	3013
830.385	2891
830.524	2853
830.663	2815
830.802	2727
830.941	2625
831.08	2613
831.219	2754
831.357	2750
831.496	2963
831.635	2739
831.774	2625
831.913	2663
832.051	2537
832.19	2560
832.329	2686
832.467	2552
832.606	2480
832.744	2560
832.883	2568
833.022	2613
833.16	2632
833.299	2678
833.437	2659
833.576	2693
833.714	2689
833.852	2746
833.991	2743
834.129	2830
834.267	2834
834.406	2785
834.544	2899
834.682	2868
834.821	2826
834.959	3058
835.097	2891
835.235	3043
835.373	3001
835.511	2990
835.65	2944
835.788	2948
835.926	2804
836.064	2785
836.202	2868
836.34	3036
836.478	3173
836.615	3032
836.753	3138
836.891	3192
837.029	3119
837.167	3097
837.305	3039
837.443	3051
837.58	2956
837.718	3154
837.856	3051
837.993	3013
838.131	3138
838.269	3077
838.406	3058
838.544	3081
838.681	2891
838.819	2895
838.956	2777
839.094	2864
839.231	2941
839.369	2990
839.506	3359
839.643	3192
839.781	3043
839.918	2937
840.055	3062
840.193	3001
840.33	3074
840.467	3108
840.604	3123
840.742	3386
840.879	3093
841.016	3032
841.153	3097
841.29	3340
841.427	3310
841.564	3245
841.701	3264
841.838	3230
841.975	3165
842.112	3188
842.249	3055
842.385	3009
842.522	3268
842.659	3081
842.796	3039
842.933	3062
843.069	3028
843.206	3017
843.343	3135
843.479	3097
843.616	3116
843.752	2933
843.889	2834
844.025	3077
844.162	2880
844.298	3070
844.435	2960
844.571	2925
844.708	3039
844.844	3150
844.98	3237
845.117	3176
845.253	3085
845.389	3032
845.525	3093
845.661	3074
845.798	2990
845.934	3135
846.07	3039
846.206	3188
846.342	3291
846.478	3207
846.614	3074
846.75	3055
846.886	3081
847.022	3211
847.158	3112
847.294	3192
847.429	3214
847.565	3180
847.701	3496
847.837	3039
847.972	2960
848.108	3135
848.244	3138
848.379	2982
848.515	2956
848.65	2902
848.786	2933
848.921	2986
849.057	3062
849.192	3112
849.328	3089
849.463	3146
849.598	3070
849.734	3005
849.869	2963
850.004	2925
850.14	2960
850.275	2910
850.41	2845
850.545	2857
850.68	2899
850.815	2956
850.95	2948
851.085	3135
851.22	3070
851.355	3024
851.49	2967
851.625	2994
851.76	2994
851.895	2922
852.03	2902
852.165	2994
852.299	3085
852.434	3184
852.569	3150
852.703	3169
852.838	3222
852.973	3321
853.107	3321
853.242	3157
853.376	3077
853.511	2933
853.645	3028
853.78	3272
853.914	3119
854.048	3104
854.183	3097
854.317	3131
854.451	3310
854.585	3112
854.72	3085
854.854	3176
854.988	3055
855.122	3077
855.256	2967
855.39	3131
855.524	3256
855.658	3184
855.792	3161
855.926	3176
856.06	3211
856.194	3256
856.327	3142
856.461	3058
856.595	3058
856.729	3081
856.862	3165
856.996	3157
857.13	3218
857.263	3199
857.397	3283
857.53	3100
857.664	3176
857.797	3180
857.931	3230
858.064	3154
858.197	3207
858.331	3150
858.464	3097
858.597	3020
858.731	3097
858.864	3123
858.997	3055
859.13	3146
859.263	3157
859.396	3195
859.529	3093
859.662	3039
859.795	3058
859.928	3100
860.061	3237
860.194	3279
860.327	3074
860.46	3085
860.592	3222
860.725	3249
860.858	3226
860.99	3055
861.123	3032
861.256	3005
861.388	3154
861.521	3937
861.653	3013
861.786	2952
861.918	3024
862.05	3085
862.183	3070
862.315	3169
862.447	3180
862.58	3070
862.712	2956
862.844	2857
862.976	2990
863.108	2971
863.24	3435
863.372	2880
863.504	2952
863.636	2960
863.768	2982
863.9	3009
864.032	2929
864.164	2933
864.296	3039
864.428	3077
864.559	3074
864.691	3051
864.823	3055
864.954	3032
865.086	3036
865.217	2979
865.349	2956
865.48	2941
865.612	2975
865.743	3100
865.875	2975
866.006	2910
866.137	2948
866.269	2956
866.4	2929
866.531	2899
866.662	2883
866.793	2880
866.924	2876
867.055	2922
867.186	2922
867.317	2880
867.448	2849
867.579	2838
867.71	2823
867.841	2811
867.972	2918
868.103	2887
868.233	2876
868.364	2853
868.495	2899
868.625	3028
868.756	3173
868.886	2944
869.017	2998
869.147	3180
869.278	3131
869.408	3043
869.539	3024
869.669	3116
869.799	3058
869.929	3093
870.06	3070
870.19	3279
870.32	3230
870.45	3306
870.58	3355
870.71	3450
870.84	3401
870.97	3283
871.1	3233
871.23	3454
871.36	3424
871.489	3348
871.619	3393
871.749	3389
871.879	3428
872.008	3477
872.138	3367
872.267	3237
872.397	3138
872.526	3051
872.656	3009
872.785	3089
872.915	3253
873.044	3272
873.173	3230
873.303	3218
873.432	3226
873.561	3237
873.69	3142
873.819	3077
873.948	3165
874.077	3097
874.206	3036
874.335	3085
874.464	3226
874.593	3332
874.722	3226
874.851	3363
874.979	3310
875.108	3302
875.237	3161
875.365	3157
875.494	3154
875.623	3218
875.751	3070
875.88	3123
876.008	3157
876.136	3222
876.265	3340
876.393	3473
876.521	3424
876.65	3389
876.778	3332
876.906	3245
877.034	3173
877.162	3207
877.29	3176
877.418	3249
877.546	3245
877.674	3237
877.802	3222
877.93	3214
878.058	3127
878.185	3097
878.313	3218
878.441	3195
878.568	3039
878.696	3112
878.824	3249
878.951	3287
879.079	3458
879.206	3561
879.333	3447
879.461	3287
879.588	3363
879.715	3443
879.842	3606
879.97	3355
880.097	3161
880.224	3119
880.351	3154
880.478	3241
880.605	3176
880.732	3176
880.859	3466
880.986	3313
881.112	3291
881.239	3184
881.366	3039
881.493	3028
881.619	2994
881.746	3051
881.872	3058
881.999	3089
882.125	3150
882.252	3226
882.378	3253
882.505	3397
882.631	3268
882.757	3119
882.883	3203
883.01	3199
883.136	3123
883.262	3047
883.388	3097
883.514	3287
883.64	3317
883.766	3336
883.892	3157
884.018	3222
884.143	3393
884.269	3496
884.395	3226
884.52	3135
884.646	3165
884.772	3154
884.897	3104
885.023	3180
885.148	3321
885.274	3397
885.399	3374
885.524	3279
885.65	3249
885.775	3294
885.9	3317
886.025	3450
886.15	3363
886.275	3332
886.4	3222
886.525	3329
886.65	3294
886.775	3268
886.9	3492
887.025	3603
887.149	3412
887.274	3264
887.399	3233
887.523	3192
887.648	3207
887.773	3184
887.897	3401
888.021	3412
888.146	3321
888.27	3443
888.395	3561
888.519	3466
888.643	3458
888.767	3439
888.891	3325
889.015	3268
889.139	3313
889.263	3287
889.387	3428
889.511	3530
889.635	3492
889.759	3313
889.883	3302
890.006	3382
890.13	3485
890.254	3294
890.377	3321
890.501	3245
890.624	3226
890.748	3351
890.871	3237
890.995	3161
891.118	3081
891.241	3233
891.364	3260
891.488	3374
891.611	3203
891.734	3287
891.857	3355
891.98	3317
892.103	3332
892.226	3298
892.349	3233
892.471	3154
892.594	3287
892.717	3370
892.839	3325
892.962	3310
893.085	3386
893.207	3317
893.33	3188
893.452	3237
893.575	3386
893.697	3275
893.819	3481
893.941	3564
894.064	3481
894.186	3294
894.308	3306
894.43	3462
894.552	3564
894.674	3473
894.796	3298
894.918	3348
895.04	3313
895.161	3477
895.283	3424
895.405	3363
895.526	3382
895.648	3424
895.769	3469
895.891	3500
896.012	3530
896.134	3496
896.255	3424
896.376	3416
896.498	3409
896.619	3416
896.74	3416
896.861	3454
896.982	3656
897.103	3876
897.224	3663
897.345	3545
897.466	3469
897.587	3534
897.708	3614
897.828	3606
897.949	3469
898.07	3317
898.19	3466
898.311	3633
898.431	3466
898.552	3534
898.672	3660
898.792	3572
898.913	3561
899.033	3420
899.153	3317
899.273	3211
899.393	3317
899.513	3370
899.633	3370
899.753	3374
899.873	3348
899.993	3420
900.113	3332
900.232	3447
900.352	3348
900.472	3329
900.591	3253
900.711	3336
900.83	3260
900.95	3485
901.069	3553
901.189	3405
901.308	3226
901.427	3157
901.546	3237
901.665	3348
901.784	3367
901.904	3237
902.023	3157
902.141	3062
902.26	3009
902.379	3180
902.498	3093
902.617	3058
902.735	3237
902.854	3245
902.973	3233
903.091	3074
903.21	3070
903.328	3154
903.446	3146
903.565	3108
903.683	3222
903.801	3176
903.919	3237
904.038	3313
904.156	3211
904.274	3313
904.392	3291
904.51	3336
904.627	3325
904.745	3439
904.863	3553
904.981	3283
905.098	3214
905.216	3256
905.334	3351
905.451	3268
905.569	3336
905.686	3458
905.803	3439
905.921	3287
906.038	3435
906.155	3355
906.272	3336
906.389	3344
906.506	3256
906.623	3275
906.74	3317
906.857	3192
906.974	3260
907.091	3504
907.208	3603
907.324	3519
907.441	3416
907.557	3241
907.674	3230
907.79	3230
907.907	3298
908.023	3424
908.139	3374
908.256	3367
908.372	3405
908.488	3424
908.604	3291
908.72	3260
908.836	3294
908.952	3321
909.068	3401
909.184	3557
909.3	3420
909.415	3519
909.531	3511
909.647	3302
909.762	3317
909.878	3294
909.993	3386
910.108	3367
910.224	3370
910.339	3450
910.454	3359
910.57	3310
910.685	3260
910.8	3595
910.915	3496
911.03	3458
911.145	3306
911.259	3302
911.374	3313
911.489	3268
911.604	3275
911.718	3131
911.833	3169
911.947	3058
912.062	3017
912.176	3195
912.291	3256
912.405	3211
912.519	3492
912.633	3485
912.748	3389
912.862	3317
912.976	3203
913.09	3097
913.204	3188
913.318	3256
913.431	3378
913.545	3386
913.659	3462
913.772	3340
913.886	3253
914	3214
914.113	3389
914.226	3458
914.34	3397
914.453	3233
914.566	3450
914.68	3313
914.793	3382
914.906	3169
915.019	3131
915.132	3104
915.245	3222
915.358	3245
915.47	3253
915.583	3302
915.696	3329
915.809	3473
915.921	3500
916.034	3302
916.146	3245
916.259	3226
916.371	3420
916.483	3363
916.595	3298
916.708	3367
916.82	3336
916.932	3359
917.044	3367
917.156	3332
917.268	3291
917.38	3325
917.491	3283
917.603	3374
917.715	3473
917.826	3515
917.938	3416
918.049	3287
918.161	3466
918.272	3599
918.384	3610
918.495	3557
918.606	3306
918.717	3291
918.828	3435
918.939	3439
919.05	3329
919.161	3405
919.272	3218
919.383	3275
919.494	3523
919.604	3728
919.715	3542
919.826	3428
919.936	3439
920.047	3591
920.157	3572
920.267	3808
920.378	3648
920.488	3564
920.598	3785
920.708	3983
920.818	3823
920.928	3846
921.038	4074
921.148	4010
921.258	3728
921.368	3625
921.477	3618
921.587	3504
921.697	3507
921.806	3660
921.916	3557
922.025	3431
922.134	3378
922.244	3370
922.353	3458
922.462	3279
922.571	3260
922.68	3097
922.789	3131
922.898	3123
923.007	3119
923.116	3222
923.224	3245
923.333	3241
923.442	3108
923.55	3100
923.659	3169
923.767	3279
923.876	3150
923.984	3237
924.092	3108
924.201	3233
924.309	3218
924.417	3245
924.525	3207
924.633	3275
924.741	3968
924.849	3085
924.956	3268
925.064	3112
925.172	3112
925.279	3108
925.387	3230
925.494	3195
925.602	3397
925.709	3359
925.816	3203
925.924	3321
926.031	3405
926.138	3370
926.245	3389
926.352	3275
926.459	3412
926.566	3515
926.673	3340
926.779	3272
926.886	3283
926.993	3192
927.099	3138
927.206	3131
927.312	3119
927.419	3260
927.525	3207
927.631	3264
927.737	3138
927.843	3142
927.95	3024
928.056	3165
928.162	3203
928.267	3291
928.373	3755
928.479	3355
928.585	3093
928.69	3268
928.796	3310
928.901	3169
929.007	3081
929.112	3207
929.218	3199
929.323	3188
929.428	3157
929.533	3363
929.638	3116
929.743	3180
929.848	3291
929.953	3233
930.058	3135
930.163	2998
930.267	3081
930.372	3214
930.477	3085
930.581	3325
930.685	3218
930.79	3085
930.894	3119
930.998	3161
931.103	3317
931.207	3020
931.311	2956
931.415	2952
931.519	2785
931.623	2826
