Data from test_V78500241_1800.txt Node
Date: Fri Mar 25 16:27:40 CST 2022
User: usil
Spectrometer: V785-0024
Trigger mode: 0
Integration Time (sec): 4.000000E-1
Scans to average: 1
Nonlinearity correction enabled: false
Boxcar width: 0
Storing dark spectrum: false
XAxis mode: Wavelengths
Number of Pixels in Spectrum: 1024
>>>>>Begin Spectral Data<<<<<
801.071	2929
801.214	2960
801.356	2876
801.499	2868
801.641	2864
801.783	2929
801.926	3058
802.068	2986
802.211	2975
802.353	3055
802.496	2963
802.638	3020
802.78	3055
802.923	3066
803.065	2998
803.208	2880
803.35	2883
803.492	2933
803.635	2925
803.777	2807
803.919	2868
804.061	3233
804.204	2952
804.346	2918
804.488	2864
804.63	3005
804.773	2910
804.915	2910
805.057	3070
805.199	2937
805.341	2986
805.483	3017
805.626	3005
805.768	2971
805.91	3070
806.052	3112
806.194	3017
806.336	3226
806.478	3005
806.62	2960
806.762	2948
806.904	3032
807.046	3131
807.188	3009
807.33	2952
807.472	2937
807.614	2944
807.756	3013
807.898	2963
808.04	2895
808.182	2963
808.324	2982
808.465	2895
808.607	2895
808.749	2826
808.891	2864
809.033	2979
809.174	2952
809.316	2891
809.458	2861
809.6	2766
809.741	2762
809.883	2815
810.025	2842
810.166	2842
810.308	2834
810.45	2868
810.591	2769
810.733	2727
810.875	2807
811.016	2788
811.158	2766
811.299	2788
811.441	2944
811.582	2895
811.724	2785
811.865	2792
812.007	2914
812.148	2853
812.29	2834
812.431	2872
812.573	2918
812.714	2986
812.855	3028
812.997	3047
813.138	3081
813.279	2990
813.421	2975
813.562	2952
813.703	2849
813.845	2899
813.986	2788
814.127	2701
814.268	2815
814.41	2849
814.551	2811
814.692	2872
814.833	2811
814.974	2895
815.115	2948
815.256	2815
815.397	2857
815.539	2830
815.68	2762
815.821	2788
815.962	2880
816.103	2941
816.244	2861
816.385	2895
816.526	2975
816.666	2910
816.807	2712
816.948	2872
817.089	2883
817.23	2872
817.371	2762
817.512	2785
817.653	2804
817.793	2819
817.934	2868
818.075	2998
818.216	2967
818.356	3020
818.497	2895
818.638	2746
818.778	2838
818.919	2773
819.06	2727
819.2	2880
819.341	2792
819.481	2804
819.622	2933
819.762	3093
819.903	3051
820.043	2941
820.184	2891
820.324	2895
820.465	3051
820.605	2994
820.746	2990
820.886	2963
821.026	3100
821.167	3184
821.307	3291
821.447	3272
821.588	3279
821.728	3207
821.868	3214
822.008	3093
822.149	3184
822.289	3233
822.429	3131
822.569	3108
822.709	3157
822.849	3043
822.99	3077
823.13	3188
823.27	3233
823.41	3123
823.55	3184
823.69	3180
823.83	3176
823.97	3154
824.11	3039
824.25	3055
824.389	3089
824.529	3150
824.669	3123
824.809	3218
824.949	3283
825.089	3260
825.228	3173
825.368	3032
825.508	2994
825.648	3013
825.787	3058
825.927	3062
826.067	2998
826.206	2952
826.346	3066
826.485	3146
826.625	3135
826.765	3306
826.904	3256
827.044	3062
827.183	2948
827.323	2872
827.462	3017
827.601	2952
827.741	2971
827.88	2994
828.02	2899
828.159	3028
828.298	3093
828.437	3138
828.577	3089
828.716	3245
828.855	3081
828.994	2929
829.134	2914
829.273	2979
829.412	2948
829.551	2918
829.69	2922
829.829	3013
829.968	3180
830.107	3089
830.246	3077
830.385	2952
830.524	2944
830.663	2895
830.802	2804
830.941	2720
831.08	2651
831.219	2823
831.357	2807
831.496	2956
831.635	2807
831.774	2701
831.913	2701
832.051	2590
832.19	2587
832.329	2724
832.467	2568
832.606	2514
832.744	2636
832.883	2640
833.022	2610
833.16	2648
833.299	2716
833.437	2701
833.576	2712
833.714	2750
833.852	2766
833.991	2804
834.129	2857
834.267	2906
834.406	2838
834.544	2918
834.682	2918
834.821	2910
834.959	3142
835.097	2944
835.235	3066
835.373	3013
835.511	3028
835.65	3001
835.788	2963
835.926	2861
836.064	2807
836.202	2880
836.34	3093
836.478	3157
836.615	3108
836.753	3150
836.891	3226
837.029	3188
837.167	3116
837.305	3119
837.443	3047
837.58	3001
837.718	3176
837.856	3085
837.993	3039
838.131	3119
838.269	3146
838.406	3135
838.544	3119
838.681	3001
838.819	2963
838.956	2826
839.094	2887
839.231	2963
839.369	3066
839.506	3420
839.643	3275
839.781	3032
839.918	3020
840.055	3077
840.193	3097
840.33	3112
840.467	3135
840.604	3176
840.742	3469
840.879	3100
841.016	3097
841.153	3154
841.29	3359
841.427	3310
841.564	3272
841.701	3332
841.838	3260
841.975	3237
842.112	3256
842.249	3142
842.385	3089
842.522	3283
842.659	3100
842.796	3036
842.933	3192
843.069	3089
843.206	3097
843.343	3222
843.479	3112
843.616	3184
843.752	2948
843.889	2891
844.025	3131
844.162	2899
844.298	3123
844.435	2979
844.571	2975
844.708	3100
844.844	3207
844.98	3249
845.117	3218
845.253	3093
845.389	3081
845.525	3131
845.661	3097
845.798	3043
845.934	3138
846.07	3097
846.206	3211
846.342	3275
846.478	3245
846.614	3135
846.75	3097
846.886	3058
847.022	3268
847.158	3135
847.294	3253
847.429	3230
847.565	3222
847.701	3477
847.837	3081
847.972	3039
848.108	3180
848.244	3165
848.379	3020
848.515	2979
848.65	2975
848.786	3020
848.921	3009
849.057	3127
849.192	3180
849.328	3108
849.463	3135
849.598	3089
849.734	3070
849.869	2990
850.004	2925
850.14	2982
850.275	2952
850.41	2887
850.545	2937
850.68	2941
850.815	2986
850.95	2963
851.085	3211
851.22	3192
851.355	3066
851.49	3005
851.625	2975
851.76	3036
851.895	2990
852.03	2925
852.165	3081
852.299	3161
852.434	3207
852.569	3192
852.703	3211
852.838	3283
852.973	3325
853.107	3329
853.242	3184
853.376	3112
853.511	2994
853.645	3028
853.78	3287
853.914	3146
854.048	3123
854.183	3097
854.317	3154
854.451	3317
854.585	3123
854.72	3104
854.854	3260
854.988	3085
855.122	3074
855.256	3013
855.39	3135
855.524	3245
855.658	3188
855.792	3199
855.926	3199
856.06	3260
856.194	3264
856.327	3173
856.461	3085
856.595	3112
856.729	3081
856.862	3272
856.996	3192
857.13	3222
857.263	3256
857.397	3298
857.53	3123
857.664	3279
857.797	3249
857.931	3275
858.064	3218
858.197	3211
858.331	3173
858.464	3089
858.597	3032
858.731	3157
858.864	3180
858.997	3093
859.13	3131
859.263	3180
859.396	3192
859.529	3116
859.662	3066
859.795	3081
859.928	3154
860.061	3287
860.194	3294
860.327	3180
860.46	3097
860.592	3268
860.725	3272
860.858	3325
860.99	3135
861.123	3077
861.256	3036
861.388	3150
861.521	3907
861.653	2998
861.786	3020
861.918	3028
862.05	3089
862.183	3100
862.315	3165
862.447	3218
862.58	3112
862.712	2948
862.844	2899
862.976	3028
863.108	3017
863.24	3431
863.372	2872
863.504	2982
863.636	2948
863.768	3043
863.9	2971
864.032	2929
864.164	2982
864.296	3028
864.428	3131
864.559	3112
864.691	3081
864.823	3093
864.954	3066
865.086	3058
865.217	3013
865.349	2933
865.48	2956
865.612	3066
865.743	3173
865.875	2963
866.006	2937
866.137	2986
866.269	2971
866.4	2922
866.531	2979
866.662	2914
866.793	2914
866.924	2922
867.055	2960
867.186	2906
867.317	2880
867.448	2880
867.579	2853
867.71	2861
867.841	2830
867.972	2910
868.103	2910
868.233	2902
868.364	2872
868.495	2914
868.625	3081
868.756	3127
868.886	2998
869.017	3066
869.147	3203
869.278	3180
869.408	3020
869.539	3058
869.669	3097
869.799	3039
869.929	3169
870.06	3142
870.19	3355
870.32	3302
870.45	3325
870.58	3397
870.71	3473
870.84	3424
870.97	3340
871.1	3268
871.23	3488
871.36	3450
871.489	3332
871.619	3397
871.749	3401
871.879	3439
872.008	3534
872.138	3397
872.267	3260
872.397	3135
872.526	3112
872.656	3020
872.785	3104
872.915	3256
873.044	3348
873.173	3218
873.303	3268
873.432	3245
873.561	3264
873.69	3203
873.819	3203
873.948	3241
874.077	3131
874.206	3043
874.335	3112
874.464	3241
874.593	3332
874.722	3245
874.851	3420
874.979	3386
875.108	3332
875.237	3218
875.365	3180
875.494	3157
875.623	3218
875.751	3108
875.88	3119
876.008	3253
876.136	3275
876.265	3382
876.393	3519
876.521	3412
876.65	3389
876.778	3351
876.906	3279
877.034	3222
877.162	3249
877.29	3222
877.418	3272
877.546	3230
877.674	3253
877.802	3249
877.93	3218
878.058	3169
878.185	3112
878.313	3214
878.441	3188
878.568	3081
878.696	3173
878.824	3241
878.951	3329
879.079	3397
879.206	3606
879.333	3431
879.461	3321
879.588	3344
879.715	3485
879.842	3614
879.97	3367
880.097	3146
880.224	3135
880.351	3226
880.478	3211
880.605	3226
880.732	3169
880.859	3428
880.986	3294
881.112	3306
881.239	3195
881.366	3081
881.493	3036
881.619	3070
881.746	3119
881.872	3119
881.999	3108
882.125	3157
882.252	3264
882.378	3310
882.505	3439
882.631	3291
882.757	3180
882.883	3195
883.01	3214
883.136	3157
883.262	3157
883.388	3119
883.514	3313
883.64	3355
883.766	3340
883.892	3195
884.018	3249
884.143	3412
884.269	3587
884.395	3214
884.52	3138
884.646	3207
884.772	3116
884.897	3150
885.023	3195
885.148	3344
885.274	3458
885.399	3351
885.524	3260
885.65	3298
885.775	3306
885.9	3317
886.025	3428
886.15	3424
886.275	3332
886.4	3249
886.525	3313
886.65	3291
886.775	3298
886.9	3488
887.025	3652
887.149	3397
887.274	3264
887.399	3203
887.523	3199
887.648	3150
887.773	3214
887.897	3382
888.021	3420
888.146	3313
888.27	3450
888.395	3511
888.519	3401
888.643	3431
888.767	3450
888.891	3336
889.015	3275
889.139	3268
889.263	3245
889.387	3412
889.511	3511
889.635	3462
889.759	3264
889.883	3291
890.006	3405
890.13	3469
890.254	3272
890.377	3306
890.501	3195
890.624	3207
890.748	3351
890.871	3211
890.995	3074
891.118	3066
891.241	3192
891.364	3230
891.488	3302
891.611	3188
891.734	3256
891.857	3329
891.98	3226
892.103	3329
892.226	3291
892.349	3233
892.471	3150
892.594	3253
892.717	3298
892.839	3332
892.962	3306
893.085	3355
893.207	3313
893.33	3169
893.452	3233
893.575	3302
893.697	3253
893.819	3462
893.941	3507
894.064	3420
894.186	3268
894.308	3321
894.43	3507
894.552	3542
894.674	3492
894.796	3275
894.918	3291
895.04	3294
895.161	3435
895.283	3359
895.405	3332
895.526	3389
895.648	3447
895.769	3428
895.891	3458
896.012	3496
896.134	3458
896.255	3450
896.376	3378
896.498	3325
896.619	3416
896.74	3336
896.861	3424
896.982	3671
897.103	3816
897.224	3591
897.345	3485
897.466	3416
897.587	3496
897.708	3606
897.828	3568
897.949	3416
898.07	3367
898.19	3405
898.311	3591
898.431	3473
898.552	3545
898.672	3603
898.792	3606
898.913	3492
899.033	3439
899.153	3317
899.273	3237
899.393	3321
899.513	3313
899.633	3351
899.753	3336
899.873	3321
899.993	3378
900.113	3367
900.232	3428
900.352	3329
900.472	3291
900.591	3188
900.711	3268
900.83	3287
900.95	3405
901.069	3485
901.189	3336
901.308	3176
901.427	3123
901.546	3180
901.665	3294
901.784	3351
901.904	3233
902.023	3161
902.141	3024
902.26	3005
902.379	3154
902.498	3055
902.617	3093
902.735	3214
902.854	3268
902.973	3199
903.091	3051
903.21	3074
903.328	3157
903.446	3104
903.565	3127
903.683	3192
903.801	3104
903.919	3233
904.038	3272
904.156	3184
904.274	3283
904.392	3230
904.51	3268
904.627	3313
904.745	3420
904.863	3504
904.981	3241
905.098	3226
905.216	3253
905.334	3256
905.451	3321
905.569	3302
905.686	3447
905.803	3485
905.921	3275
906.038	3386
906.155	3332
906.272	3279
906.389	3329
906.506	3222
906.623	3283
906.74	3287
906.857	3184
906.974	3279
907.091	3454
907.208	3526
907.324	3469
907.441	3393
907.557	3241
907.674	3241
907.79	3207
907.907	3249
908.023	3378
908.139	3386
908.256	3302
908.372	3405
908.488	3317
908.604	3260
908.72	3226
908.836	3272
908.952	3256
909.068	3344
909.184	3504
909.3	3405
909.415	3477
909.531	3481
909.647	3268
909.762	3291
909.878	3249
909.993	3367
910.108	3370
910.224	3344
910.339	3412
910.454	3321
910.57	3256
910.685	3222
910.8	3572
910.915	3549
911.03	3412
911.145	3249
911.259	3283
911.374	3355
911.489	3237
911.604	3207
911.718	3142
911.833	3142
911.947	3028
912.062	2975
912.176	3195
912.291	3218
912.405	3233
912.519	3405
912.633	3466
912.748	3317
912.862	3249
912.976	3154
913.09	3081
913.204	3135
913.318	3260
913.431	3332
913.545	3313
913.659	3405
913.772	3332
913.886	3199
914	3203
914.113	3370
914.226	3397
914.34	3378
914.453	3226
914.566	3374
914.68	3298
914.793	3340
914.906	3123
915.019	3131
915.132	3074
915.245	3195
915.358	3211
915.47	3226
915.583	3272
915.696	3340
915.809	3424
915.921	3405
916.034	3264
916.146	3214
916.259	3180
916.371	3401
916.483	3367
916.595	3268
916.708	3355
916.82	3329
916.932	3336
917.044	3332
917.156	3332
917.268	3256
917.38	3275
917.491	3332
917.603	3359
917.715	3447
917.826	3473
917.938	3378
918.049	3306
918.161	3397
918.272	3549
918.384	3549
918.495	3431
918.606	3340
918.717	3275
918.828	3382
918.939	3386
919.05	3264
919.161	3367
919.272	3157
919.383	3264
919.494	3500
919.604	3698
919.715	3481
919.826	3409
919.936	3466
920.047	3622
920.157	3530
920.267	3778
920.378	3644
920.488	3595
920.598	3766
920.708	3937
920.818	3800
920.928	3869
921.038	4006
921.148	3991
921.258	3701
921.368	3572
921.477	3526
921.587	3545
921.697	3469
921.806	3614
921.916	3580
922.025	3389
922.134	3386
922.244	3344
922.353	3416
922.462	3306
922.571	3218
922.68	3093
922.789	3100
922.898	3173
923.007	3112
923.116	3211
923.224	3173
923.333	3180
923.442	3116
923.55	3093
923.659	3135
923.767	3226
923.876	3085
923.984	3256
924.092	3100
924.201	3173
924.309	3218
924.417	3249
924.525	3184
924.633	3241
924.741	4002
924.849	3108
924.956	3313
925.064	3131
925.172	3028
925.279	3112
925.387	3188
925.494	3176
925.602	3363
925.709	3313
925.816	3192
925.924	3302
926.031	3378
926.138	3260
926.245	3409
926.352	3272
926.459	3393
926.566	3469
926.673	3306
926.779	3291
926.886	3207
926.993	3173
927.099	3146
927.206	3123
927.312	3081
927.419	3230
927.525	3256
927.631	3283
927.737	3154
927.843	3119
927.95	3009
928.056	3135
928.162	3165
928.267	3218
928.373	3842
928.479	3306
928.585	3020
928.69	3237
928.796	3287
928.901	3169
929.007	3055
929.112	3195
929.218	3165
929.323	3142
929.428	3127
929.533	3313
929.638	3127
929.743	3211
929.848	3237
929.953	3237
930.058	3127
930.163	3001
930.267	3058
930.372	3211
930.477	3020
930.581	3298
930.685	3203
930.79	3074
930.894	3131
930.998	3104
931.103	3291
931.207	2948
931.311	2963
931.415	2906
931.519	2762
931.623	2800
