Data from test_V78500241_594.txt Node
Date: Fri Mar 25 16:19:19 CST 2022
User: usil
Spectrometer: V785-0024
Trigger mode: 0
Integration Time (sec): 4.000000E-1
Scans to average: 1
Nonlinearity correction enabled: false
Boxcar width: 0
Storing dark spectrum: false
XAxis mode: Wavelengths
Number of Pixels in Spectrum: 1024
>>>>>Begin Spectral Data<<<<<
801.071	2952
801.214	3013
801.356	2925
801.499	2948
801.641	2864
801.783	2937
801.926	3058
802.068	3001
802.211	3047
802.353	3036
802.496	3005
802.638	3039
802.78	3066
802.923	3119
803.065	3032
803.208	2906
803.35	2975
803.492	2948
803.635	2933
803.777	2807
803.919	2887
804.061	3222
804.204	3001
804.346	2929
804.488	2872
804.63	2971
804.773	2929
804.915	2941
805.057	3116
805.199	2937
805.341	3001
805.483	3047
805.626	2979
805.768	2982
805.91	3116
806.052	3123
806.194	3081
806.336	3253
806.478	3070
806.62	2986
806.762	2986
806.904	3070
807.046	3173
807.188	3028
807.33	2933
807.472	3005
807.614	2922
807.756	3024
807.898	2956
808.04	2933
808.182	3017
808.324	2960
808.465	2902
808.607	2902
808.749	2819
808.891	2849
809.033	2998
809.174	2967
809.316	2895
809.458	2929
809.6	2773
809.741	2788
809.883	2750
810.025	2887
810.166	2849
810.308	2853
810.45	2868
810.591	2800
810.733	2785
810.875	2883
811.016	2800
811.158	2769
811.299	2811
811.441	2922
811.582	2941
811.724	2857
811.865	2826
812.007	2948
812.148	2880
812.29	2845
812.431	2902
812.573	2971
812.714	2982
812.855	3062
812.997	3074
813.138	3157
813.279	2986
813.421	2994
813.562	2975
813.703	2891
813.845	2902
813.986	2800
814.127	2785
814.268	2876
814.41	2864
814.551	2838
814.692	2914
814.833	2857
814.974	2937
815.115	2971
815.256	2868
815.397	2796
815.539	2872
815.68	2792
815.821	2819
815.962	2948
816.103	2937
816.244	2883
816.385	2883
816.526	2990
816.666	2941
816.807	2788
816.948	2906
817.089	2914
817.23	2868
817.371	2796
817.512	2838
817.653	2868
817.793	2861
817.934	2906
818.075	2982
818.216	3001
818.356	3028
818.497	2918
818.638	2785
818.778	2830
818.919	2800
819.06	2800
819.2	2872
819.341	2857
819.481	2819
819.622	2941
819.762	3112
819.903	3047
820.043	2910
820.184	2891
820.324	2922
820.465	3062
820.605	3032
820.746	3032
820.886	2975
821.026	3131
821.167	3135
821.307	3260
821.447	3325
821.588	3272
821.728	3222
821.868	3188
822.008	3123
822.149	3199
822.289	3214
822.429	3074
822.569	3074
822.709	3188
822.849	3070
822.99	3093
823.13	3195
823.27	3233
823.41	3123
823.55	3207
823.69	3173
823.83	3173
823.97	3093
824.11	3005
824.25	3017
824.389	3051
824.529	3154
824.669	3074
824.809	3233
824.949	3249
825.089	3218
825.228	3176
825.368	3032
825.508	2990
825.648	2986
825.787	3039
825.927	3005
826.067	2982
826.206	2967
826.346	3058
826.485	3055
826.625	3116
826.765	3264
826.904	3203
827.044	3013
827.183	2952
827.323	2918
827.462	3024
827.601	2918
827.741	2952
827.88	2982
828.02	2853
828.159	2986
828.298	3047
828.437	3116
828.577	3032
828.716	3260
828.855	3089
828.994	2944
829.134	2902
829.273	2941
829.412	2910
829.551	2876
829.69	2899
829.829	3017
829.968	3142
830.107	3005
830.246	3009
830.385	2929
830.524	2880
830.663	2849
830.802	2773
830.941	2667
831.08	2659
831.219	2766
831.357	2735
831.496	2944
831.635	2746
831.774	2632
831.913	2644
832.051	2594
832.19	2575
832.329	2724
832.467	2545
832.606	2495
832.744	2625
832.883	2590
833.022	2575
833.16	2674
833.299	2682
833.437	2724
833.576	2716
833.714	2769
833.852	2766
833.991	2766
834.129	2842
834.267	2830
834.406	2826
834.544	2887
834.682	2853
834.821	2872
834.959	3058
835.097	2933
835.235	3055
835.373	3013
835.511	3036
835.65	2963
835.788	2963
835.926	2883
836.064	2834
836.202	2868
836.34	3116
836.478	3142
836.615	3085
836.753	3146
836.891	3180
837.029	3165
837.167	3138
837.305	3116
837.443	3062
837.58	2971
837.718	3169
837.856	3066
837.993	3074
838.131	3104
838.269	3123
838.406	3112
838.544	3081
838.681	2933
838.819	2933
838.956	2819
839.094	2845
839.231	2929
839.369	3024
839.506	3359
839.643	3211
839.781	3013
839.918	2963
840.055	3074
840.193	3070
840.33	3081
840.467	3116
840.604	3165
840.742	3420
840.879	3070
841.016	3058
841.153	3161
841.29	3340
841.427	3310
841.564	3268
841.701	3287
841.838	3199
841.975	3161
842.112	3211
842.249	3085
842.385	3028
842.522	3241
842.659	3089
842.796	3097
842.933	3104
843.069	3039
843.206	3005
843.343	3192
843.479	3108
843.616	3123
843.752	2906
843.889	2868
844.025	3116
844.162	2876
844.298	3074
844.435	2925
844.571	2895
844.708	3051
844.844	3230
844.98	3253
845.117	3176
845.253	3062
845.389	2986
845.525	3119
845.661	3116
845.798	3036
845.934	3097
846.07	3070
846.206	3260
846.342	3344
846.478	3233
846.614	3081
846.75	3032
846.886	3043
847.022	3256
847.158	3138
847.294	3180
847.429	3214
847.565	3218
847.701	3504
847.837	3028
847.972	2990
848.108	3127
848.244	3135
848.379	3017
848.515	2963
848.65	2944
848.786	2944
848.921	3005
849.057	3085
849.192	3131
849.328	3043
849.463	3135
849.598	3017
849.734	3028
849.869	2975
850.004	2887
850.14	2975
850.275	2922
850.41	2868
850.545	2880
850.68	2948
850.815	2967
850.95	3005
851.085	3192
851.22	3089
851.355	3077
851.49	3001
851.625	2998
851.76	3039
851.895	2937
852.03	2925
852.165	3062
852.299	3112
852.434	3199
852.569	3195
852.703	3192
852.838	3283
852.973	3363
853.107	3351
853.242	3173
853.376	3150
853.511	2994
853.645	3085
853.78	3226
853.914	3173
854.048	3146
854.183	3131
854.317	3173
854.451	3313
854.585	3195
854.72	3116
854.854	3241
854.988	3074
855.122	3138
855.256	3032
855.39	3173
855.524	3306
855.658	3256
855.792	3207
855.926	3245
856.06	3253
856.194	3298
856.327	3195
856.461	3169
856.595	3112
856.729	3112
856.862	3249
856.996	3180
857.13	3268
857.263	3291
857.397	3317
857.53	3176
857.664	3233
857.797	3298
857.931	3283
858.064	3241
858.197	3268
858.331	3192
858.464	3142
858.597	3043
858.731	3184
858.864	3119
858.997	3154
859.13	3150
859.263	3199
859.396	3222
859.529	3127
859.662	3119
859.795	3127
859.928	3188
860.061	3310
860.194	3329
860.327	3199
860.46	3123
860.592	3310
860.725	3279
860.858	3283
860.99	3146
861.123	3047
861.256	3089
861.388	3203
861.521	3740
861.653	3066
861.786	2986
861.918	3024
862.05	3089
862.183	3154
862.315	3184
862.447	3256
862.58	3119
862.712	3009
862.844	2929
862.976	3032
863.108	3047
863.24	3439
863.372	2902
863.504	3005
863.636	3013
863.768	3081
863.9	3001
864.032	2925
864.164	2975
864.296	3081
864.428	3116
864.559	3142
864.691	3131
864.823	3085
864.954	3047
865.086	3055
865.217	3055
865.349	3009
865.48	3032
865.612	3043
865.743	3184
865.875	3043
866.006	3001
866.137	3005
866.269	2979
866.4	2982
866.531	2975
866.662	2948
866.793	2891
866.924	2971
867.055	2986
867.186	2944
867.317	2902
867.448	2872
867.579	2910
867.71	2876
867.841	2868
867.972	2956
868.103	2948
868.233	2922
868.364	2918
868.495	2941
868.625	3100
868.756	3199
868.886	3032
869.017	3020
869.147	3169
869.278	3230
869.408	3093
869.539	3039
869.669	3119
869.799	3089
869.929	3161
870.06	3173
870.19	3405
870.32	3306
870.45	3370
870.58	3389
870.71	3477
870.84	3443
870.97	3359
871.1	3249
871.23	3481
871.36	3458
871.489	3409
871.619	3428
871.749	3466
871.879	3443
872.008	3515
872.138	3359
872.267	3313
872.397	3188
872.526	3123
872.656	3036
872.785	3119
872.915	3310
873.044	3317
873.173	3226
873.303	3317
873.432	3279
873.561	3218
873.69	3233
873.819	3184
873.948	3218
874.077	3150
874.206	3112
874.335	3157
874.464	3211
874.593	3355
874.722	3291
874.851	3420
874.979	3386
875.108	3340
875.237	3226
875.365	3169
875.494	3188
875.623	3245
875.751	3085
875.88	3116
876.008	3207
876.136	3230
876.265	3431
876.393	3542
876.521	3462
876.65	3466
876.778	3363
876.906	3272
877.034	3233
877.162	3256
877.29	3188
877.418	3279
877.546	3256
877.674	3260
877.802	3245
877.93	3230
878.058	3154
878.185	3161
878.313	3233
878.441	3218
878.568	3081
878.696	3203
878.824	3294
878.951	3310
879.079	3488
879.206	3648
879.333	3473
879.461	3363
879.588	3370
879.715	3519
879.842	3614
879.97	3409
880.097	3176
880.224	3127
880.351	3207
880.478	3233
880.605	3249
880.732	3184
880.859	3488
880.986	3344
881.112	3363
881.239	3233
881.366	3093
881.493	3062
881.619	3085
881.746	3074
881.872	3108
881.999	3127
882.125	3188
882.252	3245
882.378	3279
882.505	3412
882.631	3340
882.757	3165
882.883	3218
883.01	3253
883.136	3184
883.262	3089
883.388	3123
883.514	3359
883.64	3409
883.766	3332
883.892	3230
884.018	3253
884.143	3443
884.269	3557
884.395	3233
884.52	3214
884.646	3222
884.772	3142
884.897	3150
885.023	3233
885.148	3359
885.274	3409
885.399	3378
885.524	3287
885.65	3294
885.775	3325
885.9	3317
886.025	3462
886.15	3351
886.275	3302
886.4	3268
886.525	3348
886.65	3291
886.775	3302
886.9	3523
887.025	3667
887.149	3401
887.274	3256
887.399	3199
887.523	3203
887.648	3218
887.773	3268
887.897	3405
888.021	3450
888.146	3287
888.27	3424
888.395	3534
888.519	3450
888.643	3420
888.767	3454
888.891	3313
889.015	3233
889.139	3313
889.263	3233
889.387	3435
889.511	3545
889.635	3485
889.759	3325
889.883	3317
890.006	3416
890.13	3523
890.254	3294
890.377	3363
890.501	3237
890.624	3230
890.748	3306
890.871	3195
890.995	3142
891.118	3085
891.241	3188
891.364	3272
891.488	3336
891.611	3214
891.734	3264
891.857	3321
891.98	3268
892.103	3374
892.226	3294
892.349	3211
892.471	3150
892.594	3287
892.717	3351
892.839	3272
892.962	3325
893.085	3405
893.207	3325
893.33	3161
893.452	3249
893.575	3378
893.697	3279
893.819	3481
893.941	3542
894.064	3439
894.186	3283
894.308	3306
894.43	3439
894.552	3564
894.674	3462
894.796	3268
894.918	3359
895.04	3245
895.161	3416
895.283	3424
895.405	3294
895.526	3401
895.648	3485
895.769	3443
895.891	3477
896.012	3473
896.134	3511
896.255	3435
896.376	3370
896.498	3397
896.619	3428
896.74	3397
896.861	3412
896.982	3690
897.103	3869
897.224	3656
897.345	3530
897.466	3424
897.587	3526
897.708	3603
897.828	3568
897.949	3443
898.07	3401
898.19	3424
898.311	3614
898.431	3500
898.552	3500
898.672	3656
898.792	3591
898.913	3542
899.033	3435
899.153	3340
899.273	3237
899.393	3287
899.513	3306
899.633	3310
899.753	3317
899.873	3355
899.993	3386
900.113	3332
900.232	3367
900.352	3359
900.472	3321
900.591	3249
900.711	3321
900.83	3249
900.95	3409
901.069	3515
901.189	3370
901.308	3161
901.427	3135
901.546	3188
901.665	3340
901.784	3370
901.904	3195
902.023	3176
902.141	3062
902.26	2979
902.379	3104
902.498	3100
902.617	3024
902.735	3226
902.854	3245
902.973	3218
903.091	3062
903.21	3043
903.328	3127
903.446	3119
903.565	3142
903.683	3214
903.801	3127
903.919	3294
904.038	3317
904.156	3188
904.274	3279
904.392	3268
904.51	3325
904.627	3344
904.745	3477
904.863	3507
904.981	3249
905.098	3203
905.216	3283
905.334	3302
905.451	3287
905.569	3329
905.686	3431
905.803	3439
905.921	3310
906.038	3458
906.155	3355
906.272	3283
906.389	3363
906.506	3218
906.623	3256
906.74	3279
906.857	3188
906.974	3268
907.091	3431
907.208	3576
907.324	3469
907.441	3389
907.557	3253
907.674	3226
907.79	3203
907.907	3287
908.023	3378
908.139	3405
908.256	3332
908.372	3363
908.488	3363
908.604	3264
908.72	3226
908.836	3268
908.952	3310
909.068	3325
909.184	3511
909.3	3389
909.415	3496
909.531	3504
909.647	3253
909.762	3317
909.878	3268
909.993	3359
910.108	3340
910.224	3317
910.339	3409
910.454	3351
910.57	3272
910.685	3241
910.8	3591
910.915	3561
911.03	3431
911.145	3294
911.259	3279
911.374	3287
911.489	3241
911.604	3237
911.718	3131
911.833	3173
911.947	2994
912.062	2982
912.176	3192
912.291	3207
912.405	3245
912.519	3458
912.633	3439
912.748	3344
912.862	3272
912.976	3180
913.09	3093
913.204	3142
913.318	3230
913.431	3344
913.545	3294
913.659	3393
913.772	3397
913.886	3203
914	3233
914.113	3340
914.226	3443
914.34	3389
914.453	3222
914.566	3431
914.68	3298
914.793	3348
914.906	3195
915.019	3135
915.132	3074
915.245	3207
915.358	3249
915.47	3214
915.583	3294
915.696	3294
915.809	3386
915.921	3450
916.034	3233
916.146	3260
916.259	3256
916.371	3420
916.483	3374
916.595	3302
916.708	3340
916.82	3351
916.932	3329
917.044	3397
917.156	3393
917.268	3279
917.38	3313
917.491	3313
917.603	3359
917.715	3431
917.826	3431
917.938	3412
918.049	3302
918.161	3454
918.272	3584
918.384	3580
918.495	3523
918.606	3321
918.717	3294
918.828	3389
918.939	3431
919.05	3306
919.161	3382
919.272	3173
919.383	3279
919.494	3492
919.604	3675
919.715	3492
919.826	3397
919.936	3473
920.047	3587
920.157	3542
920.267	3755
920.378	3591
920.488	3595
920.598	3804
920.708	3907
920.818	3827
920.928	3808
921.038	4002
921.148	3994
921.258	3698
921.368	3637
921.477	3584
921.587	3549
921.697	3477
921.806	3644
921.916	3576
922.025	3382
922.134	3401
922.244	3298
922.353	3443
922.462	3310
922.571	3253
922.68	3138
922.789	3070
922.898	3131
923.007	3108
923.116	3203
923.224	3176
923.333	3161
923.442	3138
923.55	3081
923.659	3154
923.767	3192
923.876	3100
923.984	3245
924.092	3112
924.201	3199
924.309	3230
924.417	3272
924.525	3203
924.633	3207
924.741	4063
924.849	3047
924.956	3264
925.064	3093
925.172	3028
925.279	3085
925.387	3237
925.494	3203
925.602	3355
925.709	3336
925.816	3218
925.924	3287
926.031	3363
926.138	3332
926.245	3389
926.352	3272
926.459	3435
926.566	3481
926.673	3344
926.779	3226
926.886	3279
926.993	3173
927.099	3127
927.206	3138
927.312	3161
927.419	3249
927.525	3199
927.631	3275
927.737	3184
927.843	3135
927.95	3055
928.056	3157
928.162	3203
928.267	3260
928.373	3800
928.479	3294
928.585	3081
928.69	3207
928.796	3287
928.901	3199
929.007	3032
929.112	3237
929.218	3180
929.323	3131
929.428	3161
929.533	3321
929.638	3108
929.743	3184
929.848	3222
929.953	3241
930.058	3146
930.163	2998
930.267	3077
930.372	3211
930.477	3020
930.581	3272
930.685	3184
930.79	3066
930.894	3127
930.998	3100
931.103	3294
931.207	2941
931.311	2967
931.415	2925
931.519	2769
931.623	2838
