Data from test_V78500241_1794.txt Node
Date: Fri Mar 25 16:27:37 CST 2022
User: usil
Spectrometer: V785-0024
Trigger mode: 0
Integration Time (sec): 4.000000E-1
Scans to average: 1
Nonlinearity correction enabled: false
Boxcar width: 0
Storing dark spectrum: false
XAxis mode: Wavelengths
Number of Pixels in Spectrum: 1024
>>>>>Begin Spectral Data<<<<<
801.071	2891
801.214	2899
801.356	2853
801.499	2910
801.641	2849
801.783	2906
801.926	3051
802.068	2971
802.211	2979
802.353	3036
802.496	2967
802.638	2960
802.78	3036
802.923	3081
803.065	2998
803.208	2914
803.35	2918
803.492	2914
803.635	2925
803.777	2766
803.919	2864
804.061	3195
804.204	2948
804.346	2929
804.488	2815
804.63	2986
804.773	2883
804.915	2918
805.057	3100
805.199	2910
805.341	2960
805.483	3028
805.626	2960
805.768	2914
805.91	3047
806.052	3070
806.194	3024
806.336	3195
806.478	3005
806.62	2952
806.762	2979
806.904	3036
807.046	3127
807.188	2960
807.33	2891
807.472	2975
807.614	2941
807.756	3005
807.898	2918
808.04	2880
808.182	2971
808.324	2929
808.465	2880
808.607	2902
808.749	2769
808.891	2872
809.033	2971
809.174	2994
809.316	2872
809.458	2876
809.6	2773
809.741	2773
809.883	2750
810.025	2823
810.166	2857
810.308	2807
810.45	2857
810.591	2785
810.733	2766
810.875	2834
811.016	2731
811.158	2743
811.299	2796
811.441	2933
811.582	2895
811.724	2842
811.865	2819
812.007	2880
812.148	2861
812.29	2864
812.431	2937
812.573	2899
812.714	2979
812.855	3058
812.997	3058
813.138	3074
813.279	3017
813.421	3005
813.562	2929
813.703	2872
813.845	2883
813.986	2804
814.127	2720
814.268	2758
814.41	2853
814.551	2777
814.692	2861
814.833	2804
814.974	2883
815.115	2967
815.256	2853
815.397	2819
815.539	2868
815.68	2792
815.821	2796
815.962	2952
816.103	2944
816.244	2902
816.385	2849
816.526	2994
816.666	2902
816.807	2773
816.948	2899
817.089	2891
817.23	2864
817.371	2785
817.512	2781
817.653	2842
817.793	2823
817.934	2883
818.075	2956
818.216	2982
818.356	3013
818.497	2883
818.638	2777
818.778	2804
818.919	2766
819.06	2731
819.2	2895
819.341	2800
819.481	2800
819.622	2914
819.762	3116
819.903	3055
820.043	2952
820.184	2914
820.324	2895
820.465	3001
820.605	2982
820.746	3005
820.886	2933
821.026	3066
821.167	3146
821.307	3245
821.447	3249
821.588	3264
821.728	3218
821.868	3211
822.008	3081
822.149	3192
822.289	3233
822.429	3043
822.569	3085
822.709	3169
822.849	2998
822.99	3062
823.13	3176
823.27	3173
823.41	3089
823.55	3154
823.69	3192
823.83	3180
823.97	3074
824.11	3009
824.25	2986
824.389	3062
824.529	3074
824.669	3039
824.809	3199
824.949	3237
825.089	3180
825.228	3157
825.368	3017
825.508	2960
825.648	2982
825.787	2994
825.927	3066
826.067	2967
826.206	2963
826.346	3066
826.485	3066
826.625	3116
826.765	3256
826.904	3226
827.044	3001
827.183	2906
827.323	2853
827.462	3013
827.601	2918
827.741	2918
827.88	2971
828.02	2872
828.159	2975
828.298	3047
828.437	3097
828.577	3009
828.716	3237
828.855	3036
828.994	2933
829.134	2857
829.273	2902
829.412	2872
829.551	2887
829.69	2857
829.829	2937
829.968	3097
830.107	3013
830.246	2975
830.385	2922
830.524	2864
830.663	2838
830.802	2750
830.941	2670
831.08	2636
831.219	2762
831.357	2754
831.496	2922
831.635	2686
831.774	2644
831.913	2670
832.051	2545
832.19	2568
832.329	2682
832.467	2530
832.606	2446
832.744	2575
832.883	2541
833.022	2613
833.16	2613
833.299	2670
833.437	2667
833.576	2705
833.714	2674
833.852	2750
833.991	2781
834.129	2796
834.267	2834
834.406	2807
834.544	2849
834.682	2845
834.821	2864
834.959	3116
835.097	2895
835.235	3013
835.373	3013
835.511	3001
835.65	2948
835.788	2967
835.926	2804
836.064	2788
836.202	2864
836.34	3085
836.478	3165
836.615	3020
836.753	3112
836.891	3207
837.029	3150
837.167	3074
837.305	3017
837.443	3066
837.58	2948
837.718	3104
837.856	3085
837.993	3009
838.131	3138
838.269	3138
838.406	3024
838.544	3100
838.681	2929
838.819	2918
838.956	2815
839.094	2826
839.231	2902
839.369	3024
839.506	3374
839.643	3180
839.781	3024
839.918	2971
840.055	3028
840.193	3005
840.33	3081
840.467	3047
840.604	3100
840.742	3420
840.879	3093
841.016	3032
841.153	3127
841.29	3325
841.427	3325
841.564	3256
841.701	3272
841.838	3214
841.975	3154
842.112	3218
842.249	3093
842.385	3032
842.522	3279
842.659	3089
842.796	3032
842.933	3104
843.069	3028
843.206	3043
843.343	3154
843.479	3127
843.616	3135
843.752	2918
843.889	2838
844.025	3055
844.162	2868
844.298	3066
844.435	2956
844.571	2918
844.708	3081
844.844	3138
844.98	3218
845.117	3131
845.253	3062
845.389	3009
845.525	3085
845.661	3081
845.798	3055
845.934	3138
846.07	3055
846.206	3214
846.342	3317
846.478	3218
846.614	3081
846.75	3074
846.886	3009
847.022	3226
847.158	3138
847.294	3188
847.429	3237
847.565	3226
847.701	3488
847.837	2994
847.972	2967
848.108	3116
848.244	3131
848.379	2975
848.515	2963
848.65	2918
848.786	2941
848.921	3017
849.057	3108
849.192	3138
849.328	3093
849.463	3081
849.598	3039
849.734	3074
849.869	2982
850.004	2929
850.14	2963
850.275	2906
850.41	2830
850.545	2864
850.68	2906
850.815	2937
850.95	2948
851.085	3192
851.22	3108
851.355	3024
851.49	2986
851.625	3017
851.76	3017
851.895	2914
852.03	2899
852.165	3047
852.299	3116
852.434	3150
852.569	3131
852.703	3176
852.838	3226
852.973	3340
853.107	3283
853.242	3150
853.376	3077
853.511	2982
853.645	3051
853.78	3195
853.914	3116
854.048	3157
854.183	3089
854.317	3138
854.451	3344
854.585	3116
854.72	3089
854.854	3207
854.988	3028
855.122	3097
855.256	2975
855.39	3093
855.524	3233
855.658	3199
855.792	3176
855.926	3180
856.06	3226
856.194	3214
856.327	3169
856.461	3100
856.595	3081
856.729	3112
856.862	3211
856.996	3165
857.13	3199
857.263	3241
857.397	3241
857.53	3135
857.664	3150
857.797	3226
857.931	3279
858.064	3176
858.197	3214
858.331	3116
858.464	3100
858.597	2998
858.731	3116
858.864	3161
858.997	3100
859.13	3150
859.263	3169
859.396	3154
859.529	3123
859.662	3055
859.795	3039
859.928	3097
860.061	3272
860.194	3283
860.327	3123
860.46	3081
860.592	3241
860.725	3272
860.858	3241
860.99	3116
861.123	3047
861.256	3036
861.388	3123
861.521	3854
861.653	3017
861.786	3013
861.918	2994
862.05	3017
862.183	3089
862.315	3150
862.447	3188
862.58	3097
862.712	2952
862.844	2842
862.976	3013
863.108	3028
863.24	3401
863.372	2864
863.504	3024
863.636	2956
863.768	3028
863.9	3009
864.032	2906
864.164	2929
864.296	3047
864.428	3058
864.559	3077
864.691	3077
864.823	3074
864.954	3047
865.086	3043
865.217	2971
865.349	2918
865.48	2956
865.612	3005
865.743	3161
865.875	2982
866.006	2910
866.137	2967
866.269	2975
866.4	2914
866.531	2914
866.662	2922
866.793	2876
866.924	2899
867.055	2952
867.186	2944
867.317	2891
867.448	2868
867.579	2861
867.71	2834
867.841	2845
867.972	2883
868.103	2937
868.233	2868
868.364	2853
868.495	2883
868.625	3100
868.756	3180
868.886	2960
869.017	3009
869.147	3161
869.278	3154
869.408	3039
869.539	3024
869.669	3104
869.799	3036
869.929	3138
870.06	3108
870.19	3302
870.32	3310
870.45	3306
870.58	3389
870.71	3477
870.84	3458
870.97	3313
871.1	3195
871.23	3500
871.36	3447
871.489	3359
871.619	3397
871.749	3397
871.879	3431
872.008	3447
872.138	3363
872.267	3306
872.397	3142
872.526	3119
872.656	3013
872.785	3123
872.915	3241
873.044	3321
873.173	3188
873.303	3211
873.432	3226
873.561	3245
873.69	3157
873.819	3146
873.948	3169
874.077	3127
874.206	3047
874.335	3066
874.464	3207
874.593	3325
874.722	3218
874.851	3367
874.979	3370
875.108	3344
875.237	3184
875.365	3161
875.494	3211
875.623	3222
875.751	3108
875.88	3100
876.008	3230
876.136	3230
876.265	3332
876.393	3534
876.521	3393
876.65	3351
876.778	3325
876.906	3222
877.034	3188
877.162	3184
877.29	3169
877.418	3237
877.546	3237
877.674	3264
877.802	3211
877.93	3226
878.058	3188
878.185	3081
878.313	3184
878.441	3184
878.568	3058
878.696	3142
878.824	3222
878.951	3306
879.079	3447
879.206	3599
879.333	3428
879.461	3317
879.588	3378
879.715	3477
879.842	3587
879.97	3420
880.097	3146
880.224	3169
880.351	3165
880.478	3214
880.605	3214
880.732	3173
880.859	3519
880.986	3283
881.112	3374
881.239	3230
881.366	3081
881.493	3013
881.619	2990
881.746	3097
881.872	3093
881.999	3051
882.125	3161
882.252	3211
882.378	3313
882.505	3393
882.631	3268
882.757	3131
882.883	3237
883.01	3199
883.136	3146
883.262	3066
883.388	3100
883.514	3310
883.64	3393
883.766	3317
883.892	3199
884.018	3169
884.143	3428
884.269	3500
884.395	3199
884.52	3157
884.646	3146
884.772	3097
884.897	3093
885.023	3226
885.148	3302
885.274	3420
885.399	3397
885.524	3256
885.65	3218
885.775	3317
885.9	3264
886.025	3386
886.15	3344
886.275	3272
886.4	3214
886.525	3294
886.65	3294
886.775	3302
886.9	3481
887.025	3610
887.149	3409
887.274	3253
887.399	3184
887.523	3161
887.648	3173
887.773	3195
887.897	3351
888.021	3397
888.146	3253
888.27	3416
888.395	3542
888.519	3447
888.643	3428
888.767	3428
888.891	3325
889.015	3226
889.139	3310
889.263	3214
889.387	3409
889.511	3549
889.635	3382
889.759	3306
889.883	3268
890.006	3397
890.13	3454
890.254	3268
890.377	3348
890.501	3237
890.624	3161
890.748	3268
890.871	3188
890.995	3112
891.118	3093
891.241	3203
891.364	3211
891.488	3332
891.611	3180
891.734	3218
891.857	3253
891.98	3230
892.103	3329
892.226	3272
892.349	3184
892.471	3169
892.594	3260
892.717	3272
892.839	3241
892.962	3268
893.085	3348
893.207	3310
893.33	3157
893.452	3188
893.575	3348
893.697	3245
893.819	3428
893.941	3507
894.064	3466
894.186	3230
894.308	3249
894.43	3397
894.552	3534
894.674	3443
894.796	3245
894.918	3283
895.04	3275
895.161	3405
895.283	3397
895.405	3321
895.526	3370
895.648	3405
895.769	3359
895.891	3488
896.012	3450
896.134	3477
896.255	3428
896.376	3332
896.498	3367
896.619	3435
896.74	3363
896.861	3416
896.982	3663
897.103	3823
897.224	3576
897.345	3473
897.466	3447
897.587	3507
897.708	3599
897.828	3553
897.949	3428
898.07	3325
898.19	3435
898.311	3603
898.431	3428
898.552	3507
898.672	3591
898.792	3595
898.913	3515
899.033	3370
899.153	3279
899.273	3222
899.393	3287
899.513	3332
899.633	3294
899.753	3325
899.873	3332
899.993	3397
900.113	3291
900.232	3363
900.352	3348
900.472	3272
900.591	3222
900.711	3283
900.83	3218
900.95	3397
901.069	3473
901.189	3374
901.308	3150
901.427	3123
901.546	3188
901.665	3298
901.784	3313
901.904	3222
902.023	3184
902.141	3020
902.26	2975
902.379	3138
902.498	3036
902.617	3039
902.735	3230
902.854	3195
902.973	3176
903.091	3051
903.21	3043
903.328	3157
903.446	3116
903.565	3104
903.683	3230
903.801	3138
903.919	3245
904.038	3275
904.156	3131
904.274	3283
904.392	3230
904.51	3279
904.627	3313
904.745	3428
904.863	3466
904.981	3260
905.098	3176
905.216	3256
905.334	3283
905.451	3294
905.569	3306
905.686	3450
905.803	3401
905.921	3241
906.038	3401
906.155	3355
906.272	3268
906.389	3355
906.506	3237
906.623	3256
906.74	3294
906.857	3173
906.974	3184
907.091	3405
907.208	3530
907.324	3481
907.441	3389
907.557	3226
907.674	3268
907.79	3207
907.907	3275
908.023	3363
908.139	3405
908.256	3325
908.372	3363
908.488	3351
908.604	3253
908.72	3222
908.836	3291
908.952	3310
909.068	3355
909.184	3477
909.3	3409
909.415	3492
909.531	3469
909.647	3275
909.762	3291
909.878	3218
909.993	3340
910.108	3336
910.224	3344
910.339	3424
910.454	3321
910.57	3275
910.685	3226
910.8	3591
910.915	3485
911.03	3435
911.145	3256
911.259	3260
911.374	3325
911.489	3233
911.604	3233
911.718	3119
911.833	3123
911.947	3013
912.062	3013
912.176	3161
912.291	3218
912.405	3184
912.519	3435
912.633	3473
912.748	3329
912.862	3249
912.976	3157
913.09	3047
913.204	3184
913.318	3195
913.431	3367
913.545	3306
913.659	3370
913.772	3313
913.886	3203
914	3195
914.113	3363
914.226	3431
914.34	3348
914.453	3233
914.566	3378
914.68	3279
914.793	3294
914.906	3154
915.019	3100
915.132	3081
915.245	3173
915.358	3203
915.47	3233
915.583	3260
915.696	3287
915.809	3389
915.921	3405
916.034	3253
916.146	3249
916.259	3226
916.371	3405
916.483	3355
916.595	3294
916.708	3313
916.82	3317
916.932	3363
917.044	3325
917.156	3329
917.268	3291
917.38	3313
917.491	3306
917.603	3351
917.715	3424
917.826	3450
917.938	3405
918.049	3253
918.161	3416
918.272	3557
918.384	3580
918.495	3500
918.606	3367
918.717	3279
918.828	3393
918.939	3386
919.05	3272
919.161	3378
919.272	3146
919.383	3272
919.494	3458
919.604	3671
919.715	3469
919.826	3431
919.936	3431
920.047	3545
920.157	3561
920.267	3766
920.378	3618
920.488	3568
920.598	3778
920.708	3953
920.818	3797
920.928	3819
921.038	4013
921.148	4025
921.258	3694
921.368	3606
921.477	3572
921.587	3515
921.697	3466
921.806	3633
921.916	3526
922.025	3389
922.134	3329
922.244	3310
922.353	3420
922.462	3260
922.571	3279
922.68	3100
922.789	3108
922.898	3154
923.007	3085
923.116	3188
923.224	3203
923.333	3188
923.442	3093
923.55	3085
923.659	3142
923.767	3226
923.876	3127
923.984	3256
924.092	3112
924.201	3157
924.309	3218
924.417	3245
924.525	3199
924.633	3245
924.741	4040
924.849	3009
924.956	3222
925.064	3119
925.172	3017
925.279	3119
925.387	3203
925.494	3214
925.602	3321
925.709	3306
925.816	3180
925.924	3275
926.031	3359
926.138	3351
926.245	3348
926.352	3222
926.459	3424
926.566	3492
926.673	3291
926.779	3237
926.886	3241
926.993	3150
927.099	3119
927.206	3070
927.312	3112
927.419	3157
927.525	3218
927.631	3291
927.737	3097
927.843	3131
927.95	3043
928.056	3108
928.162	3176
928.267	3249
928.373	3838
928.479	3294
928.585	3077
928.69	3176
928.796	3264
928.901	3173
929.007	3055
929.112	3188
929.218	3207
929.323	3176
929.428	3127
929.533	3332
929.638	3100
929.743	3154
929.848	3302
929.953	3203
930.058	3157
930.163	3051
930.267	3043
930.372	3195
930.477	3043
930.581	3291
930.685	3188
930.79	3043
930.894	3100
930.998	3104
931.103	3264
931.207	2948
931.311	2922
931.415	2922
931.519	2769
931.623	2807
