Data from test_V78500241_791.txt Node
Date: Fri Mar 25 16:20:40 CST 2022
User: usil
Spectrometer: V785-0024
Trigger mode: 0
Integration Time (sec): 4.000000E-1
Scans to average: 1
Nonlinearity correction enabled: false
Boxcar width: 0
Storing dark spectrum: false
XAxis mode: Wavelengths
Number of Pixels in Spectrum: 1024
>>>>>Begin Spectral Data<<<<<
801.071	2952
801.214	2979
801.356	2929
801.499	2941
801.641	2910
801.783	2941
801.926	3085
802.068	2986
802.211	2990
802.353	3039
802.496	2963
802.638	3017
802.78	3032
802.923	3085
803.065	2990
803.208	2895
803.35	2944
803.492	2952
803.635	2971
803.777	2785
803.919	2868
804.061	3195
804.204	2948
804.346	2963
804.488	2842
804.63	3001
804.773	2887
804.915	2906
805.057	3089
805.199	2895
805.341	2979
805.483	3043
805.626	3013
805.768	2994
805.91	3093
806.052	3123
806.194	3032
806.336	3233
806.478	3036
806.62	2948
806.762	2960
806.904	3070
807.046	3157
807.188	3005
807.33	2929
807.472	2986
807.614	2895
807.756	2982
807.898	2944
808.04	2887
808.182	3005
808.324	2986
808.465	2887
808.607	2902
808.749	2788
808.891	2823
809.033	2982
809.174	2971
809.316	2868
809.458	2872
809.6	2796
809.741	2777
809.883	2766
810.025	2819
810.166	2849
810.308	2853
810.45	2845
810.591	2804
810.733	2781
810.875	2842
811.016	2792
811.158	2758
811.299	2845
811.441	2922
811.582	2899
811.724	2853
811.865	2826
812.007	2910
812.148	2887
812.29	2826
812.431	2880
812.573	2975
812.714	2982
812.855	3055
812.997	3077
813.138	3097
813.279	3005
813.421	2990
813.562	2948
813.703	2880
813.845	2902
813.986	2785
814.127	2754
814.268	2823
814.41	2853
814.551	2804
814.692	2899
814.833	2857
814.974	2895
815.115	2963
815.256	2864
815.397	2800
815.539	2849
815.68	2762
815.821	2815
815.962	2967
816.103	2952
816.244	2868
816.385	2868
816.526	2941
816.666	2941
816.807	2766
816.948	2864
817.089	2906
817.23	2864
817.371	2766
817.512	2811
817.653	2849
817.793	2838
817.934	2845
818.075	2956
818.216	2979
818.356	3005
818.497	2883
818.638	2785
818.778	2819
818.919	2811
819.06	2769
819.2	2933
819.341	2834
819.481	2823
819.622	2925
819.762	3097
819.903	3070
820.043	2952
820.184	2925
820.324	2910
820.465	3085
820.605	3028
820.746	3024
820.886	2952
821.026	3108
821.167	3146
821.307	3245
821.447	3260
821.588	3245
821.728	3211
821.868	3180
822.008	3062
822.149	3195
822.289	3233
822.429	3093
822.569	3085
822.709	3207
822.849	2998
822.99	3074
823.13	3214
823.27	3195
823.41	3127
823.55	3176
823.69	3176
823.83	3180
823.97	3077
824.11	2975
824.25	3005
824.389	3081
824.529	3131
824.669	3066
824.809	3195
824.949	3275
825.089	3264
825.228	3154
825.368	3020
825.508	2960
825.648	2982
825.787	3028
825.927	3051
826.067	2960
826.206	2944
826.346	3066
826.485	3070
826.625	3116
826.765	3268
826.904	3222
827.044	2990
827.183	2906
827.323	2883
827.462	2967
827.601	2906
827.741	2929
827.88	2990
828.02	2853
828.159	2982
828.298	3032
828.437	3089
828.577	3062
828.716	3237
828.855	3066
828.994	2872
829.134	2899
829.273	2922
829.412	2891
829.551	2834
829.69	2880
829.829	3024
829.968	3119
830.107	3024
830.246	3005
830.385	2986
830.524	2864
830.663	2849
830.802	2697
830.941	2670
831.08	2667
831.219	2800
831.357	2743
831.496	2971
831.635	2716
831.774	2602
831.913	2636
832.051	2545
832.19	2556
832.329	2697
832.467	2545
832.606	2480
832.744	2590
832.883	2594
833.022	2583
833.16	2629
833.299	2678
833.437	2678
833.576	2674
833.714	2716
833.852	2739
833.991	2777
834.129	2819
834.267	2823
834.406	2796
834.544	2883
834.682	2864
834.821	2857
834.959	3066
835.097	2891
835.235	3081
835.373	2998
835.511	2994
835.65	2937
835.788	2933
835.926	2792
836.064	2796
836.202	2823
836.34	3097
836.478	3165
836.615	3051
836.753	3146
836.891	3199
837.029	3123
837.167	3104
837.305	3036
837.443	3039
837.58	2963
837.718	3119
837.856	3058
837.993	3070
838.131	3070
838.269	3100
838.406	3093
838.544	3081
838.681	2944
838.819	2929
838.956	2826
839.094	2880
839.231	2895
839.369	3043
839.506	3336
839.643	3180
839.781	3036
839.918	2941
840.055	3047
840.193	3020
840.33	3047
840.467	3135
840.604	3154
840.742	3412
840.879	3032
841.016	3066
841.153	3070
841.29	3344
841.427	3294
841.564	3283
841.701	3321
841.838	3161
841.975	3192
842.112	3249
842.249	3043
842.385	3020
842.522	3340
842.659	3074
842.796	3051
842.933	3116
843.069	3036
843.206	3066
843.343	3154
843.479	3123
843.616	3112
843.752	2895
843.889	2872
844.025	3100
844.162	2887
844.298	3097
844.435	2944
844.571	2906
844.708	3055
844.844	3203
844.98	3275
845.117	3180
845.253	3062
845.389	3017
845.525	3119
845.661	3070
845.798	3005
845.934	3108
846.07	3058
846.206	3199
846.342	3279
846.478	3195
846.614	3077
846.75	3020
846.886	3017
847.022	3275
847.158	3127
847.294	3214
847.429	3233
847.565	3241
847.701	3519
847.837	3013
847.972	2998
848.108	3116
848.244	3169
848.379	2956
848.515	2994
848.65	2918
848.786	2967
848.921	3017
849.057	3097
849.192	3154
849.328	3062
849.463	3131
849.598	3055
849.734	3020
849.869	2967
850.004	2933
850.14	2967
850.275	2929
850.41	2826
850.545	2887
850.68	2914
850.815	2967
850.95	2941
851.085	3154
851.22	3085
851.355	3009
851.49	2956
851.625	3039
851.76	2990
851.895	2925
852.03	2891
852.165	3017
852.299	3104
852.434	3180
852.569	3173
852.703	3165
852.838	3222
852.973	3336
853.107	3310
853.242	3154
853.376	3112
853.511	3001
853.645	3024
853.78	3192
853.914	3108
854.048	3089
854.183	3070
854.317	3127
854.451	3272
854.585	3165
854.72	3074
854.854	3173
854.988	3062
855.122	3055
855.256	2975
855.39	3127
855.524	3226
855.658	3173
855.792	3154
855.926	3192
856.06	3203
856.194	3253
856.327	3131
856.461	3051
856.595	3043
856.729	3081
856.862	3169
856.996	3173
857.13	3195
857.263	3233
857.397	3233
857.53	3097
857.664	3241
857.797	3241
857.931	3253
858.064	3146
858.197	3222
858.331	3138
858.464	3077
858.597	3024
858.731	3112
858.864	3108
858.997	3077
859.13	3154
859.263	3184
859.396	3176
859.529	3077
859.662	3055
859.795	3051
859.928	3150
860.061	3264
860.194	3268
860.327	3108
860.46	3081
860.592	3230
860.725	3226
860.858	3256
860.99	3108
861.123	3081
861.256	3055
861.388	3150
861.521	3953
861.653	3036
861.786	2948
861.918	2990
862.05	3047
862.183	3089
862.315	3161
862.447	3154
862.58	3112
862.712	2960
862.844	2891
862.976	2994
863.108	2998
863.24	3317
863.372	2876
863.504	2944
863.636	2910
863.768	3043
863.9	3001
864.032	2883
864.164	2937
864.296	3013
864.428	3058
864.559	3058
864.691	3028
864.823	3036
864.954	3020
865.086	3032
865.217	2979
865.349	2948
865.48	2963
865.612	2975
865.743	3127
865.875	2967
866.006	2941
866.137	2971
866.269	2963
866.4	2929
866.531	2887
866.662	2910
866.793	2895
866.924	2891
867.055	2948
867.186	2910
867.317	2887
867.448	2853
867.579	2834
867.71	2849
867.841	2804
867.972	2914
868.103	2902
868.233	2902
868.364	2849
868.495	2895
868.625	3032
868.756	3161
868.886	2971
869.017	3009
869.147	3176
869.278	3131
869.408	3043
869.539	3005
869.669	3138
869.799	3024
869.929	3154
870.06	3093
870.19	3298
870.32	3291
870.45	3329
870.58	3374
870.71	3431
870.84	3435
870.97	3317
871.1	3218
871.23	3500
871.36	3469
871.489	3351
871.619	3386
871.749	3412
871.879	3393
872.008	3420
872.138	3374
872.267	3279
872.397	3142
872.526	3119
872.656	2975
872.785	3112
872.915	3214
873.044	3294
873.173	3207
873.303	3264
873.432	3249
873.561	3218
873.69	3154
873.819	3154
873.948	3146
874.077	3077
874.206	3013
874.335	3058
874.464	3218
874.593	3332
874.722	3260
874.851	3386
874.979	3348
875.108	3294
875.237	3203
875.365	3184
875.494	3142
875.623	3245
875.751	3051
875.88	3146
876.008	3188
876.136	3222
876.265	3378
876.393	3523
876.521	3363
876.65	3389
876.778	3283
876.906	3222
877.034	3180
877.162	3272
877.29	3203
877.418	3237
877.546	3272
877.674	3230
877.802	3230
877.93	3207
878.058	3093
878.185	3108
878.313	3199
878.441	3214
878.568	3058
878.696	3123
878.824	3233
878.951	3313
879.079	3439
879.206	3614
879.333	3401
879.461	3374
879.588	3332
879.715	3504
879.842	3576
879.97	3363
880.097	3157
880.224	3100
880.351	3173
880.478	3253
880.605	3176
880.732	3131
880.859	3523
880.986	3298
881.112	3275
881.239	3226
881.366	3085
881.493	3009
881.619	3020
881.746	3074
881.872	3100
881.999	3119
882.125	3150
882.252	3268
882.378	3279
882.505	3416
882.631	3272
882.757	3176
882.883	3230
883.01	3211
883.136	3150
883.262	3089
883.388	3093
883.514	3298
883.64	3389
883.766	3329
883.892	3237
884.018	3230
884.143	3424
884.269	3496
884.395	3184
884.52	3146
884.646	3165
884.772	3131
884.897	3119
885.023	3214
885.148	3359
885.274	3370
885.399	3355
885.524	3253
885.65	3241
885.775	3302
885.9	3237
886.025	3393
886.15	3412
886.275	3321
886.4	3218
886.525	3310
886.65	3313
886.775	3256
886.9	3500
887.025	3641
887.149	3393
887.274	3218
887.399	3188
887.523	3173
887.648	3176
887.773	3165
887.897	3382
888.021	3393
888.146	3294
888.27	3435
888.395	3534
888.519	3473
888.643	3458
888.767	3485
888.891	3287
889.015	3264
889.139	3268
889.263	3222
889.387	3386
889.511	3492
889.635	3450
889.759	3283
889.883	3313
890.006	3359
890.13	3511
890.254	3260
890.377	3336
890.501	3199
890.624	3203
890.748	3310
890.871	3146
890.995	3081
891.118	3032
891.241	3211
891.364	3184
891.488	3317
891.611	3146
891.734	3226
891.857	3317
891.98	3230
892.103	3317
892.226	3287
892.349	3188
892.471	3100
892.594	3241
892.717	3291
892.839	3245
892.962	3329
893.085	3351
893.207	3275
893.33	3135
893.452	3180
893.575	3310
893.697	3207
893.819	3515
893.941	3504
894.064	3431
894.186	3245
894.308	3233
894.43	3428
894.552	3507
894.674	3454
894.796	3256
894.918	3329
895.04	3275
895.161	3447
895.283	3409
895.405	3279
895.526	3325
895.648	3382
895.769	3431
895.891	3386
896.012	3492
896.134	3435
896.255	3435
896.376	3393
896.498	3363
896.619	3393
896.74	3332
896.861	3374
896.982	3682
897.103	3812
897.224	3564
897.345	3485
897.466	3473
897.587	3534
897.708	3622
897.828	3519
897.949	3428
898.07	3332
898.19	3409
898.311	3561
898.431	3424
898.552	3511
898.672	3606
898.792	3538
898.913	3515
899.033	3405
899.153	3249
899.273	3226
899.393	3291
899.513	3306
899.633	3325
899.753	3336
899.873	3313
899.993	3340
900.113	3302
900.232	3386
900.352	3298
900.472	3298
900.591	3192
900.711	3275
900.83	3264
900.95	3428
901.069	3492
901.189	3351
901.308	3207
901.427	3112
901.546	3173
901.665	3268
901.784	3336
901.904	3188
902.023	3123
902.141	3039
902.26	3024
902.379	3154
902.498	3062
902.617	3062
902.735	3214
902.854	3188
902.973	3195
903.091	3051
903.21	3055
903.328	3112
903.446	3119
903.565	3081
903.683	3226
903.801	3127
903.919	3233
904.038	3253
904.156	3192
904.274	3287
904.392	3287
904.51	3294
904.627	3313
904.745	3409
904.863	3515
904.981	3230
905.098	3195
905.216	3237
905.334	3279
905.451	3310
905.569	3321
905.686	3409
905.803	3458
905.921	3268
906.038	3397
906.155	3397
906.272	3245
906.389	3325
906.506	3222
906.623	3287
906.74	3253
906.857	3199
906.974	3260
907.091	3473
907.208	3564
907.324	3454
907.441	3344
907.557	3207
907.674	3260
907.79	3222
907.907	3275
908.023	3378
908.139	3336
908.256	3298
908.372	3389
908.488	3332
908.604	3287
908.72	3230
908.836	3260
908.952	3272
909.068	3336
909.184	3477
909.3	3405
909.415	3488
909.531	3458
909.647	3241
909.762	3275
909.878	3291
909.993	3351
910.108	3359
910.224	3283
910.339	3412
910.454	3336
910.57	3279
910.685	3214
910.8	3610
910.915	3500
911.03	3428
911.145	3279
911.259	3272
911.374	3332
911.489	3207
911.604	3230
911.718	3108
911.833	3154
911.947	3009
912.062	2971
912.176	3184
912.291	3195
912.405	3180
912.519	3405
912.633	3458
912.748	3313
912.862	3268
912.976	3161
913.09	3047
913.204	3123
913.318	3222
913.431	3332
913.545	3351
913.659	3416
913.772	3321
913.886	3211
914	3214
914.113	3332
914.226	3435
914.34	3351
914.453	3195
914.566	3386
914.68	3275
914.793	3302
914.906	3123
915.019	3142
915.132	3108
915.245	3131
915.358	3180
915.47	3245
915.583	3218
915.696	3317
915.809	3393
915.921	3450
916.034	3230
916.146	3287
916.259	3211
916.371	3382
916.483	3370
916.595	3283
916.708	3321
916.82	3336
916.932	3374
917.044	3344
917.156	3355
917.268	3253
917.38	3332
917.491	3279
917.603	3344
917.715	3447
917.826	3450
917.938	3378
918.049	3298
918.161	3428
918.272	3618
918.384	3549
918.495	3488
918.606	3321
918.717	3256
918.828	3393
918.939	3447
919.05	3302
919.161	3348
919.272	3157
919.383	3283
919.494	3523
919.604	3671
919.715	3504
919.826	3389
919.936	3466
920.047	3561
920.157	3580
920.267	3785
920.378	3644
920.488	3523
920.598	3827
920.708	3975
920.818	3835
920.928	3861
921.038	4029
921.148	3968
921.258	3690
921.368	3652
921.477	3561
921.587	3564
921.697	3485
921.806	3580
921.916	3507
922.025	3325
922.134	3389
922.244	3313
922.353	3450
922.462	3275
922.571	3230
922.68	3127
922.789	3066
922.898	3157
923.007	3097
923.116	3207
923.224	3184
923.333	3195
923.442	3108
923.55	3112
923.659	3112
923.767	3203
923.876	3138
923.984	3214
924.092	3127
924.201	3203
924.309	3253
924.417	3275
924.525	3188
924.633	3260
924.741	4204
924.849	3055
924.956	3302
925.064	3077
925.172	3039
925.279	3093
925.387	3169
925.494	3195
925.602	3306
925.709	3367
925.816	3184
925.924	3279
926.031	3374
926.138	3272
926.245	3351
926.352	3253
926.459	3416
926.566	3469
926.673	3332
926.779	3256
926.886	3199
926.993	3169
927.099	3165
927.206	3116
927.312	3097
927.419	3207
927.525	3211
927.631	3275
927.737	3142
927.843	3127
927.95	2975
928.056	3135
928.162	3203
928.267	3233
928.373	3770
928.479	3351
928.585	3093
928.69	3176
928.796	3253
928.901	3169
929.007	3032
929.112	3165
929.218	3157
929.323	3142
929.428	3112
929.533	3348
929.638	3142
929.743	3173
929.848	3241
929.953	3180
930.058	3123
930.163	3013
930.267	3043
930.372	3199
930.477	3047
930.581	3302
930.685	3169
930.79	3055
930.894	3154
930.998	3066
931.103	3291
931.207	2960
931.311	2914
931.415	2929
931.519	2777
931.623	2823
