Data from test_V78500241_290.txt Node
Date: Fri Mar 25 16:17:12 CST 2022
User: usil
Spectrometer: V785-0024
Trigger mode: 0
Integration Time (sec): 4.000000E-1
Scans to average: 1
Nonlinearity correction enabled: false
Boxcar width: 0
Storing dark spectrum: false
XAxis mode: Wavelengths
Number of Pixels in Spectrum: 1024
>>>>>Begin Spectral Data<<<<<
801.071	2918
801.214	2952
801.356	2849
801.499	2895
801.641	2830
801.783	2937
801.926	3055
802.068	2986
802.211	3001
802.353	3005
802.496	2971
802.638	2994
802.78	3055
802.923	3085
803.065	2990
803.208	2895
803.35	2887
803.492	2952
803.635	2887
803.777	2758
803.919	2883
804.061	3199
804.204	2929
804.346	2887
804.488	2864
804.63	2994
804.773	2872
804.915	2872
805.057	3058
805.199	2922
805.341	2929
805.483	3055
805.626	3001
805.768	2994
805.91	3100
806.052	3138
806.194	2994
806.336	3214
806.478	3009
806.62	2986
806.762	2956
806.904	3051
807.046	3195
807.188	2982
807.33	2956
807.472	2986
807.614	2883
807.756	3032
807.898	2937
808.04	2883
808.182	2975
808.324	2948
808.465	2853
808.607	2880
808.749	2823
808.891	2823
809.033	2952
809.174	2994
809.316	2899
809.458	2918
809.6	2804
809.741	2781
809.883	2746
810.025	2834
810.166	2853
810.308	2826
810.45	2838
810.591	2773
810.733	2792
810.875	2842
811.016	2754
811.158	2777
811.299	2857
811.441	2941
811.582	2906
811.724	2811
811.865	2792
812.007	2922
812.148	2891
812.29	2842
812.431	2895
812.573	2967
812.714	2941
812.855	3066
812.997	3017
813.138	3081
813.279	2979
813.421	2979
813.562	2941
813.703	2872
813.845	2906
813.986	2766
814.127	2754
814.268	2796
814.41	2853
814.551	2785
814.692	2880
814.833	2819
814.974	2880
815.115	2960
815.256	2849
815.397	2826
815.539	2864
815.68	2800
815.821	2807
815.962	2929
816.103	2918
816.244	2899
816.385	2883
816.526	2937
816.666	2910
816.807	2777
816.948	2880
817.089	2887
817.23	2868
817.371	2762
817.512	2807
817.653	2853
817.793	2826
817.934	2883
818.075	2967
818.216	3001
818.356	3036
818.497	2872
818.638	2800
818.778	2845
818.919	2807
819.06	2750
819.2	2899
819.341	2788
819.481	2826
819.622	2910
819.762	3119
819.903	3062
820.043	2906
820.184	2887
820.324	2899
820.465	3017
820.605	3024
820.746	3051
820.886	2941
821.026	3089
821.167	3157
821.307	3260
821.447	3268
821.588	3233
821.728	3199
821.868	3188
822.008	3077
822.149	3184
822.289	3226
822.429	3089
822.569	3104
822.709	3199
822.849	3020
822.99	3077
823.13	3146
823.27	3188
823.41	3055
823.55	3150
823.69	3097
823.83	3207
823.97	3116
824.11	2990
824.25	2963
824.389	3070
824.529	3112
824.669	3074
824.809	3207
824.949	3237
825.089	3226
825.228	3100
825.368	3024
825.508	2944
825.648	2960
825.787	2986
825.927	3058
826.067	2990
826.206	2986
826.346	3028
826.485	3085
826.625	3104
826.765	3218
826.904	3195
827.044	3013
827.183	2956
827.323	2872
827.462	2960
827.601	2899
827.741	2910
827.88	2922
828.02	2849
828.159	2979
828.298	3039
828.437	3138
828.577	3081
828.716	3226
828.855	3104
828.994	2899
829.134	2880
829.273	2918
829.412	2861
829.551	2849
829.69	2891
829.829	3009
829.968	3116
830.107	3017
830.246	3036
830.385	2902
830.524	2914
830.663	2842
830.802	2716
830.941	2651
831.08	2667
831.219	2769
831.357	2769
831.496	2963
831.635	2724
831.774	2644
831.913	2644
832.051	2533
832.19	2606
832.329	2674
832.467	2530
832.606	2488
832.744	2610
832.883	2598
833.022	2568
833.16	2659
833.299	2712
833.437	2682
833.576	2686
833.714	2682
833.852	2735
833.991	2743
834.129	2849
834.267	2819
834.406	2796
834.544	2891
834.682	2861
834.821	2845
834.959	3085
835.097	2876
835.235	3017
835.373	3017
835.511	3001
835.65	2990
835.788	2941
835.926	2861
836.064	2842
836.202	2823
836.34	3066
836.478	3169
836.615	3047
836.753	3154
836.891	3241
837.029	3184
837.167	3081
837.305	3047
837.443	3062
837.58	2941
837.718	3089
837.856	3036
837.993	3024
838.131	3089
838.269	3138
838.406	3119
838.544	3081
838.681	2922
838.819	2883
838.956	2815
839.094	2815
839.231	2891
839.369	2986
839.506	3397
839.643	3188
839.781	3036
839.918	2963
840.055	3043
840.193	3043
840.33	3077
840.467	3089
840.604	3135
840.742	3382
840.879	3062
841.016	3047
841.153	3108
841.29	3359
841.427	3291
841.564	3249
841.701	3340
841.838	3161
841.975	3173
842.112	3214
842.249	3070
842.385	3066
842.522	3264
842.659	3055
842.796	3039
842.933	3112
843.069	3047
843.206	3051
843.343	3180
843.479	3104
843.616	3138
843.752	2902
843.889	2891
844.025	3112
844.162	2842
844.298	3074
844.435	2941
844.571	2887
844.708	3062
844.844	3222
844.98	3249
845.117	3203
845.253	3032
845.389	3009
845.525	3093
845.661	3104
845.798	3001
845.934	3108
846.07	3043
846.206	3226
846.342	3317
846.478	3184
846.614	3070
846.75	3013
846.886	3058
847.022	3207
847.158	3154
847.294	3211
847.429	3233
847.565	3214
847.701	3481
847.837	3005
847.972	2963
848.108	3146
848.244	3112
848.379	2990
848.515	2929
848.65	2922
848.786	2952
848.921	2990
849.057	3070
849.192	3127
849.328	3047
849.463	3100
849.598	3047
849.734	3032
849.869	2990
850.004	2899
850.14	2944
850.275	2937
850.41	2834
850.545	2891
850.68	2971
850.815	2914
850.95	2994
851.085	3218
851.22	3138
851.355	3058
851.49	3005
851.625	3013
851.76	3028
851.895	2925
852.03	2914
852.165	3043
852.299	3074
852.434	3173
852.569	3116
852.703	3157
852.838	3226
852.973	3329
853.107	3321
853.242	3157
853.376	3097
853.511	3005
853.645	3070
853.78	3256
853.914	3097
854.048	3070
854.183	3085
854.317	3135
854.451	3287
854.585	3066
854.72	3077
854.854	3237
854.988	3032
855.122	3100
855.256	2918
855.39	3112
855.524	3253
855.658	3165
855.792	3112
855.926	3165
856.06	3203
856.194	3253
856.327	3192
856.461	3062
856.595	3062
856.729	3081
856.862	3233
856.996	3165
857.13	3203
857.263	3245
857.397	3283
857.53	3116
857.664	3176
857.797	3256
857.931	3249
858.064	3169
858.197	3184
858.331	3150
858.464	3127
858.597	3001
858.731	3142
858.864	3131
858.997	3036
859.13	3123
859.263	3192
859.396	3192
859.529	3093
859.662	3055
859.795	3055
859.928	3127
860.061	3275
860.194	3272
860.327	3093
860.46	3116
860.592	3260
860.725	3222
860.858	3291
860.99	3093
861.123	2994
861.256	3058
861.388	3138
861.521	3861
861.653	2990
861.786	2937
861.918	2975
862.05	3058
862.183	3074
862.315	3165
862.447	3173
862.58	3066
862.712	2941
862.844	2857
862.976	3039
863.108	2963
863.24	3291
863.372	2838
863.504	2982
863.636	2941
863.768	3039
863.9	2979
864.032	2876
864.164	2948
864.296	3039
864.428	3089
864.559	3085
864.691	3039
864.823	3085
864.954	3047
865.086	3024
865.217	2960
865.349	2937
865.48	3001
865.612	3039
865.743	3135
865.875	3013
866.006	2922
866.137	2956
866.269	2975
866.4	2906
866.531	2914
866.662	2853
866.793	2899
866.924	2910
867.055	2963
867.186	2887
867.317	2891
867.448	2823
867.579	2834
867.71	2830
867.841	2762
867.972	2872
868.103	2906
868.233	2891
868.364	2891
868.495	2857
868.625	3047
868.756	3169
868.886	2948
869.017	3005
869.147	3157
869.278	3135
869.408	3020
869.539	3047
869.669	3085
869.799	3047
869.929	3135
870.06	3097
870.19	3302
870.32	3302
870.45	3291
870.58	3336
870.71	3424
870.84	3447
870.97	3306
871.1	3233
871.23	3485
871.36	3454
871.489	3351
871.619	3420
871.749	3386
871.879	3401
872.008	3469
872.138	3382
872.267	3275
872.397	3108
872.526	3077
872.656	3032
872.785	3131
872.915	3237
873.044	3344
873.173	3188
873.303	3253
873.432	3256
873.561	3287
873.69	3180
873.819	3138
873.948	3192
874.077	3131
874.206	3055
874.335	3142
874.464	3207
874.593	3359
874.722	3272
874.851	3462
874.979	3389
875.108	3374
875.237	3245
875.365	3218
875.494	3173
875.623	3291
875.751	3108
875.88	3150
876.008	3245
876.136	3241
876.265	3439
876.393	3519
876.521	3477
876.65	3420
876.778	3397
876.906	3302
877.034	3226
877.162	3249
877.29	3253
877.418	3283
877.546	3279
877.674	3294
877.802	3291
877.93	3275
878.058	3211
878.185	3138
878.313	3253
878.441	3230
878.568	3123
878.696	3218
878.824	3279
878.951	3344
879.079	3496
879.206	3656
879.333	3488
879.461	3378
879.588	3370
879.715	3534
879.842	3606
879.97	3428
880.097	3195
880.224	3161
880.351	3241
880.478	3279
880.605	3245
880.732	3249
880.859	3542
880.986	3329
881.112	3367
881.239	3237
881.366	3131
881.493	3062
881.619	3051
881.746	3112
881.872	3157
881.999	3146
882.125	3169
882.252	3275
882.378	3355
882.505	3473
882.631	3321
882.757	3192
882.883	3260
883.01	3256
883.136	3176
883.262	3157
883.388	3203
883.514	3348
883.64	3420
883.766	3378
883.892	3222
884.018	3294
884.143	3450
884.269	3622
884.395	3256
884.52	3211
884.646	3207
884.772	3138
884.897	3135
885.023	3260
885.148	3374
885.274	3492
885.399	3370
885.524	3344
885.65	3340
885.775	3363
885.9	3378
886.025	3443
886.15	3424
886.275	3332
886.4	3245
886.525	3370
886.65	3317
886.775	3306
886.9	3538
887.025	3637
887.149	3458
887.274	3294
887.399	3199
887.523	3237
887.648	3211
887.773	3218
887.897	3431
888.021	3462
888.146	3374
888.27	3496
888.395	3580
888.519	3462
888.643	3466
888.767	3500
888.891	3332
889.015	3272
889.139	3329
889.263	3268
889.387	3401
889.511	3545
889.635	3496
889.759	3313
889.883	3317
890.006	3450
890.13	3526
890.254	3287
890.377	3409
890.501	3264
890.624	3203
890.748	3291
890.871	3188
890.995	3131
891.118	3104
891.241	3211
891.364	3256
891.488	3310
891.611	3218
891.734	3291
891.857	3313
891.98	3260
892.103	3355
892.226	3302
892.349	3226
892.471	3154
892.594	3275
892.717	3317
892.839	3272
892.962	3317
893.085	3416
893.207	3340
893.33	3180
893.452	3237
893.575	3401
893.697	3306
893.819	3530
893.941	3553
894.064	3500
894.186	3283
894.308	3272
894.43	3462
894.552	3580
894.674	3477
894.796	3310
894.918	3313
895.04	3329
895.161	3496
895.283	3397
895.405	3359
895.526	3424
895.648	3466
895.769	3447
895.891	3488
896.012	3504
896.134	3496
896.255	3447
896.376	3393
896.498	3355
896.619	3458
896.74	3401
896.861	3431
896.982	3724
897.103	3918
897.224	3641
897.345	3553
897.466	3439
897.587	3564
897.708	3694
897.828	3580
897.949	3473
898.07	3386
898.19	3428
898.311	3618
898.431	3420
898.552	3553
898.672	3629
898.792	3576
898.913	3564
899.033	3462
899.153	3325
899.273	3237
899.393	3340
899.513	3363
899.633	3348
899.753	3370
899.873	3313
899.993	3397
900.113	3367
900.232	3431
900.352	3393
900.472	3329
900.591	3230
900.711	3321
900.83	3253
900.95	3469
901.069	3496
901.189	3416
901.308	3203
901.427	3184
901.546	3222
901.665	3317
901.784	3367
901.904	3237
902.023	3176
902.141	3039
902.26	3005
902.379	3169
902.498	3100
902.617	3097
902.735	3214
902.854	3298
902.973	3214
903.091	3066
903.21	3104
903.328	3207
903.446	3165
903.565	3119
903.683	3218
903.801	3154
903.919	3302
904.038	3313
904.156	3218
904.274	3332
904.392	3329
904.51	3310
904.627	3382
904.745	3466
904.863	3511
904.981	3294
905.098	3222
905.216	3253
905.334	3325
905.451	3317
905.569	3344
905.686	3412
905.803	3481
905.921	3287
906.038	3496
906.155	3363
906.272	3294
906.389	3325
906.506	3264
906.623	3283
906.74	3321
906.857	3211
906.974	3294
907.091	3466
907.208	3644
907.324	3507
907.441	3405
907.557	3264
907.674	3272
907.79	3275
907.907	3321
908.023	3424
908.139	3424
908.256	3348
908.372	3389
908.488	3374
908.604	3275
908.72	3233
908.836	3294
908.952	3325
909.068	3386
909.184	3492
909.3	3443
909.415	3523
909.531	3519
909.647	3325
909.762	3313
909.878	3237
909.993	3374
910.108	3405
910.224	3386
910.339	3466
910.454	3351
910.57	3272
910.685	3268
910.8	3641
910.915	3557
911.03	3447
911.145	3287
911.259	3313
911.374	3363
911.489	3275
911.604	3253
911.718	3142
911.833	3214
911.947	3036
912.062	3047
912.176	3184
912.291	3195
912.405	3222
912.519	3416
912.633	3492
912.748	3344
912.862	3329
912.976	3211
913.09	3089
913.204	3192
913.318	3214
913.431	3378
913.545	3340
913.659	3466
913.772	3367
913.886	3245
914	3214
914.113	3378
914.226	3439
914.34	3382
914.453	3237
914.566	3416
914.68	3287
914.793	3329
914.906	3157
915.019	3112
915.132	3077
915.245	3226
915.358	3253
915.47	3260
915.583	3291
915.696	3367
915.809	3405
915.921	3416
916.034	3260
916.146	3321
916.259	3253
916.371	3409
916.483	3370
916.595	3294
916.708	3336
916.82	3348
916.932	3351
917.044	3389
917.156	3363
917.268	3260
917.38	3336
917.491	3302
917.603	3401
917.715	3485
917.826	3473
917.938	3431
918.049	3306
918.161	3511
918.272	3591
918.384	3564
918.495	3496
918.606	3351
918.717	3291
918.828	3416
918.939	3424
919.05	3329
919.161	3416
919.272	3233
919.383	3306
919.494	3485
919.604	3679
919.715	3534
919.826	3458
919.936	3500
920.047	3637
920.157	3549
920.267	3816
920.378	3618
920.488	3564
920.598	3804
920.708	3983
920.818	3865
920.928	3831
921.038	4082
921.148	3983
921.258	3736
921.368	3667
921.477	3614
921.587	3599
921.697	3466
921.806	3629
921.916	3534
922.025	3382
922.134	3389
922.244	3340
922.353	3462
922.462	3272
922.571	3253
922.68	3123
922.789	3108
922.898	3108
923.007	3154
923.116	3241
923.224	3165
923.333	3192
923.442	3138
923.55	3093
923.659	3142
923.767	3230
923.876	3154
923.984	3230
924.092	3116
924.201	3184
924.309	3272
924.417	3268
924.525	3241
924.633	3272
924.741	4227
924.849	3055
924.956	3233
925.064	3100
925.172	3104
925.279	3112
925.387	3237
925.494	3199
925.602	3363
925.709	3336
925.816	3188
925.924	3310
926.031	3367
926.138	3393
926.245	3420
926.352	3294
926.459	3393
926.566	3466
926.673	3332
926.779	3260
926.886	3283
926.993	3157
927.099	3169
927.206	3119
927.312	3146
927.419	3237
927.525	3214
927.631	3287
927.737	3150
927.843	3157
927.95	3047
928.056	3176
928.162	3207
928.267	3260
928.373	3865
928.479	3306
928.585	3085
928.69	3237
928.796	3268
928.901	3241
929.007	3055
929.112	3230
929.218	3192
929.323	3176
929.428	3161
929.533	3325
929.638	3154
929.743	3211
929.848	3291
929.953	3245
930.058	3135
930.163	3024
930.267	3055
930.372	3226
930.477	3051
930.581	3351
930.685	3207
930.79	3036
930.894	3146
930.998	3138
931.103	3268
931.207	2982
931.311	2929
931.415	2941
931.519	2815
931.623	2845
