Data from test_V78500241_1183.txt Node
Date: Fri Mar 25 16:23:23 CST 2022
User: usil
Spectrometer: V785-0024
Trigger mode: 0
Integration Time (sec): 4.000000E-1
Scans to average: 1
Nonlinearity correction enabled: false
Boxcar width: 0
Storing dark spectrum: false
XAxis mode: Wavelengths
Number of Pixels in Spectrum: 1024
>>>>>Begin Spectral Data<<<<<
801.071	2952
801.214	2994
801.356	2891
801.499	2937
801.641	2902
801.783	2937
801.926	3055
802.068	2998
802.211	2998
802.353	3074
802.496	3017
802.638	3028
802.78	3066
802.923	3116
803.065	3028
803.208	2929
803.35	2933
803.492	2967
803.635	2914
803.777	2788
803.919	2914
804.061	3192
804.204	2933
804.346	2883
804.488	2872
804.63	2967
804.773	2906
804.915	2941
805.057	3138
805.199	2971
805.341	3020
805.483	3074
805.626	3024
805.768	2963
805.91	3127
806.052	3154
806.194	3039
806.336	3268
806.478	3051
806.62	2956
806.762	2975
806.904	3062
807.046	3192
807.188	3024
807.33	2952
807.472	3043
807.614	2956
807.756	2998
807.898	2952
808.04	2922
808.182	2967
808.324	2979
808.465	2906
808.607	2910
808.749	2823
808.891	2861
809.033	2990
809.174	2941
809.316	2922
809.458	2941
809.6	2792
809.741	2792
809.883	2804
810.025	2887
810.166	2853
810.308	2819
810.45	2891
810.591	2826
810.733	2804
810.875	2883
811.016	2766
811.158	2781
811.299	2853
811.441	2910
811.582	2918
811.724	2838
811.865	2849
812.007	2899
812.148	2868
812.29	2872
812.431	2914
812.573	2937
812.714	2986
812.855	3066
812.997	3077
813.138	3150
813.279	3028
813.421	2979
813.562	2960
813.703	2910
813.845	2922
813.986	2838
814.127	2754
814.268	2826
814.41	2887
814.551	2853
814.692	2880
814.833	2857
814.974	2914
815.115	2990
815.256	2849
815.397	2834
815.539	2868
815.68	2796
815.821	2819
815.962	2948
816.103	2922
816.244	2925
816.385	2906
816.526	2975
816.666	2918
816.807	2781
816.948	2937
817.089	2891
817.23	2864
817.371	2796
817.512	2842
817.653	2861
817.793	2872
817.934	2925
818.075	2967
818.216	2990
818.356	3062
818.497	2902
818.638	2807
818.778	2823
818.919	2834
819.06	2724
819.2	2883
819.341	2830
819.481	2811
819.622	2944
819.762	3123
819.903	3043
820.043	2929
820.184	2925
820.324	2902
820.465	3001
820.605	3020
820.746	3055
820.886	2941
821.026	3085
821.167	3173
821.307	3287
821.447	3291
821.588	3256
821.728	3233
821.868	3222
822.008	3089
822.149	3184
822.289	3253
822.429	3028
822.569	3119
822.709	3203
822.849	3055
822.99	3051
823.13	3180
823.27	3211
823.41	3142
823.55	3188
823.69	3165
823.83	3176
823.97	3123
824.11	2990
824.25	2975
824.389	3051
824.529	3131
824.669	3085
824.809	3218
824.949	3249
825.089	3253
825.228	3176
825.368	3020
825.508	2979
825.648	3005
825.787	3017
825.927	3058
826.067	2944
826.206	2960
826.346	3062
826.485	3070
826.625	3131
826.765	3245
826.904	3222
827.044	2975
827.183	2963
827.323	2842
827.462	3020
827.601	2914
827.741	2941
827.88	3005
828.02	2853
828.159	2994
828.298	3077
828.437	3150
828.577	3077
828.716	3253
828.855	3093
828.994	2952
829.134	2880
829.273	2944
829.412	2876
829.551	2891
829.69	2887
829.829	3017
829.968	3161
830.107	3017
830.246	3039
830.385	2948
830.524	2891
830.663	2864
830.802	2731
830.941	2640
831.08	2663
831.219	2762
831.357	2769
831.496	2952
831.635	2766
831.774	2636
831.913	2682
832.051	2571
832.19	2583
832.329	2689
832.467	2587
832.606	2469
832.744	2602
832.883	2598
833.022	2613
833.16	2651
833.299	2724
833.437	2705
833.576	2727
833.714	2712
833.852	2743
833.991	2758
834.129	2872
834.267	2823
834.406	2792
834.544	2868
834.682	2925
834.821	2880
834.959	3062
835.097	2925
835.235	3055
835.373	2994
835.511	3039
835.65	2979
835.788	2937
835.926	2830
836.064	2785
836.202	2868
836.34	3081
836.478	3157
836.615	3036
836.753	3169
836.891	3154
837.029	3150
837.167	3119
837.305	3093
837.443	3066
837.58	2963
837.718	3135
837.856	3089
837.993	3028
838.131	3142
838.269	3089
838.406	3108
838.544	3093
838.681	2944
838.819	2929
838.956	2826
839.094	2834
839.231	2918
839.369	3032
839.506	3367
839.643	3249
839.781	3013
839.918	2994
840.055	3024
840.193	3039
840.33	3051
840.467	3150
840.604	3135
840.742	3412
840.879	3077
841.016	3043
841.153	3119
841.29	3348
841.427	3287
841.564	3241
841.701	3275
841.838	3249
841.975	3203
842.112	3211
842.249	3089
842.385	3043
842.522	3260
842.659	3062
842.796	3070
842.933	3100
843.069	3066
843.206	3058
843.343	3180
843.479	3100
843.616	3138
843.752	2925
843.889	2834
844.025	3051
844.162	2925
844.298	3066
844.435	2982
844.571	2910
844.708	3119
844.844	3188
844.98	3237
845.117	3222
845.253	3066
845.389	3058
845.525	3138
845.661	3108
845.798	3036
845.934	3108
846.07	3036
846.206	3272
846.342	3279
846.478	3222
846.614	3077
846.75	3043
846.886	3051
847.022	3226
847.158	3135
847.294	3203
847.429	3211
847.565	3230
847.701	3450
847.837	3024
847.972	2990
848.108	3169
848.244	3146
848.379	2982
848.515	2952
848.65	2929
848.786	2948
848.921	2994
849.057	3142
849.192	3154
849.328	3062
849.463	3142
849.598	3047
849.734	3066
849.869	2975
850.004	2956
850.14	2979
850.275	2933
850.41	2868
850.545	2906
850.68	2941
850.815	2967
850.95	2998
851.085	3180
851.22	3142
851.355	3020
851.49	3009
851.625	3009
851.76	3028
851.895	2967
852.03	2937
852.165	3097
852.299	3135
852.434	3256
852.569	3214
852.703	3230
852.838	3310
852.973	3363
853.107	3370
853.242	3188
853.376	3119
853.511	3005
853.645	3039
853.78	3302
853.914	3146
854.048	3138
854.183	3093
854.317	3184
854.451	3325
854.585	3173
854.72	3108
854.854	3241
854.988	3085
855.122	3146
855.256	3009
855.39	3154
855.524	3302
855.658	3203
855.792	3230
855.926	3237
856.06	3237
856.194	3287
856.327	3184
856.461	3097
856.595	3127
856.729	3119
856.862	3260
856.996	3180
857.13	3249
857.263	3245
857.397	3294
857.53	3154
857.664	3230
857.797	3268
857.931	3268
858.064	3207
858.197	3275
858.331	3176
858.464	3142
858.597	3028
858.731	3135
858.864	3150
858.997	3127
859.13	3211
859.263	3233
859.396	3245
859.529	3104
859.662	3104
859.795	3097
859.928	3154
860.061	3329
860.194	3344
860.327	3192
860.46	3085
860.592	3302
860.725	3256
860.858	3260
860.99	3127
861.123	3055
861.256	3112
861.388	3131
861.521	3785
861.653	3028
861.786	3066
861.918	3032
862.05	3093
862.183	3127
862.315	3173
862.447	3249
862.58	3104
862.712	3013
862.844	2941
862.976	3066
863.108	3043
863.24	3348
863.372	2914
863.504	3009
863.636	3009
863.768	3077
863.9	3001
864.032	2967
864.164	2952
864.296	3051
864.428	3119
864.559	3100
864.691	3112
864.823	3093
864.954	3055
865.086	3085
865.217	3051
865.349	2990
865.48	3017
865.612	3036
865.743	3180
865.875	2979
866.006	2963
866.137	2979
866.269	2982
866.4	2952
866.531	2979
866.662	2971
866.793	2906
866.924	2906
867.055	3028
867.186	2941
867.317	2910
867.448	2849
867.579	2883
867.71	2880
867.841	2883
867.972	2963
868.103	2918
868.233	2883
868.364	2918
868.495	2910
868.625	3097
868.756	3180
868.886	2998
869.017	3074
869.147	3199
869.278	3176
869.408	3081
869.539	3077
869.669	3135
869.799	3036
869.929	3161
870.06	3119
870.19	3344
870.32	3344
870.45	3294
870.58	3401
870.71	3462
870.84	3462
870.97	3275
871.1	3256
871.23	3492
871.36	3469
871.489	3363
871.619	3416
871.749	3435
871.879	3386
872.008	3515
872.138	3382
872.267	3306
872.397	3169
872.526	3150
872.656	3051
872.785	3131
872.915	3260
873.044	3367
873.173	3291
873.303	3272
873.432	3298
873.561	3256
873.69	3142
873.819	3173
873.948	3245
874.077	3142
874.206	3077
874.335	3100
874.464	3237
874.593	3374
874.722	3294
874.851	3428
874.979	3378
875.108	3329
875.237	3249
875.365	3211
875.494	3154
875.623	3256
875.751	3074
875.88	3154
876.008	3203
876.136	3264
876.265	3401
876.393	3538
876.521	3450
876.65	3405
876.778	3344
876.906	3222
877.034	3211
877.162	3260
877.29	3222
877.418	3283
877.546	3230
877.674	3264
877.802	3294
877.93	3294
878.058	3203
878.185	3077
878.313	3233
878.441	3226
878.568	3085
878.696	3161
878.824	3294
878.951	3306
879.079	3485
879.206	3667
879.333	3477
879.461	3332
879.588	3374
879.715	3523
879.842	3599
879.97	3374
880.097	3176
880.224	3207
880.351	3195
880.478	3291
880.605	3237
880.732	3203
880.859	3507
880.986	3317
881.112	3363
881.239	3237
881.366	3123
881.493	3062
881.619	3085
881.746	3108
881.872	3112
881.999	3154
882.125	3211
882.252	3249
882.378	3336
882.505	3473
882.631	3306
882.757	3218
882.883	3237
883.01	3256
883.136	3180
883.262	3077
883.388	3142
883.514	3321
883.64	3363
883.766	3351
883.892	3203
884.018	3218
884.143	3412
884.269	3542
884.395	3245
884.52	3165
884.646	3176
884.772	3157
884.897	3119
885.023	3226
885.148	3344
885.274	3454
885.399	3420
885.524	3310
885.65	3291
885.775	3317
885.9	3302
886.025	3462
886.15	3382
886.275	3336
886.4	3264
886.525	3336
886.65	3283
886.775	3310
886.9	3549
887.025	3652
887.149	3374
887.274	3268
887.399	3184
887.523	3176
887.648	3203
887.773	3237
887.897	3374
888.021	3416
888.146	3272
888.27	3450
888.395	3538
888.519	3473
888.643	3450
888.767	3454
888.891	3325
889.015	3260
889.139	3287
889.263	3272
889.387	3397
889.511	3526
889.635	3458
889.759	3283
889.883	3302
890.006	3431
890.13	3477
890.254	3256
890.377	3336
890.501	3260
890.624	3199
890.748	3329
890.871	3218
890.995	3112
891.118	3077
891.241	3211
891.364	3241
891.488	3348
891.611	3214
891.734	3237
891.857	3291
891.98	3245
892.103	3329
892.226	3310
892.349	3230
892.471	3123
892.594	3260
892.717	3283
892.839	3256
892.962	3275
893.085	3393
893.207	3336
893.33	3176
893.452	3233
893.575	3393
893.697	3287
893.819	3454
893.941	3557
894.064	3450
894.186	3268
894.308	3283
894.43	3447
894.552	3515
894.674	3469
894.796	3298
894.918	3329
895.04	3310
895.161	3466
895.283	3416
895.405	3359
895.526	3389
895.648	3462
895.769	3428
895.891	3507
896.012	3511
896.134	3507
896.255	3435
896.376	3412
896.498	3397
896.619	3424
896.74	3389
896.861	3443
896.982	3705
897.103	3850
897.224	3572
897.345	3507
897.466	3462
897.587	3485
897.708	3625
897.828	3561
897.949	3435
898.07	3348
898.19	3454
898.311	3614
898.431	3466
898.552	3530
898.672	3633
898.792	3629
898.913	3564
899.033	3458
899.153	3332
899.273	3253
899.393	3306
899.513	3325
899.633	3340
899.753	3340
899.873	3298
899.993	3405
900.113	3374
900.232	3424
900.352	3325
900.472	3344
900.591	3218
900.711	3306
900.83	3226
900.95	3458
901.069	3507
901.189	3389
901.308	3184
901.427	3165
901.546	3188
901.665	3321
901.784	3336
901.904	3233
902.023	3169
902.141	3024
902.26	3001
902.379	3161
902.498	3077
902.617	3081
902.735	3214
902.854	3245
902.973	3226
903.091	3058
903.21	3089
903.328	3135
903.446	3157
903.565	3100
903.683	3218
903.801	3116
903.919	3283
904.038	3317
904.156	3214
904.274	3275
904.392	3291
904.51	3283
904.627	3363
904.745	3439
904.863	3515
904.981	3256
905.098	3211
905.216	3249
905.334	3325
905.451	3298
905.569	3279
905.686	3454
905.803	3439
905.921	3245
906.038	3435
906.155	3355
906.272	3283
906.389	3393
906.506	3241
906.623	3268
906.74	3313
906.857	3199
906.974	3241
907.091	3469
907.208	3576
907.324	3492
907.441	3393
907.557	3298
907.674	3260
907.79	3222
907.907	3268
908.023	3340
908.139	3382
908.256	3397
908.372	3409
908.488	3317
908.604	3260
908.72	3241
908.836	3268
908.952	3310
909.068	3367
909.184	3542
909.3	3389
909.415	3515
909.531	3481
909.647	3249
909.762	3283
909.878	3272
909.993	3424
910.108	3332
910.224	3359
910.339	3397
910.454	3336
910.57	3279
910.685	3249
910.8	3618
910.915	3538
911.03	3435
911.145	3241
911.259	3245
911.374	3386
911.489	3279
911.604	3237
911.718	3123
911.833	3123
911.947	3036
912.062	3013
912.176	3211
912.291	3218
912.405	3241
912.519	3485
912.633	3481
912.748	3382
912.862	3275
912.976	3173
913.09	3077
913.204	3146
913.318	3218
913.431	3332
913.545	3367
913.659	3439
913.772	3325
913.886	3203
914	3207
914.113	3359
914.226	3450
914.34	3370
914.453	3230
914.566	3401
914.68	3256
914.793	3336
914.906	3169
915.019	3142
915.132	3070
915.245	3161
915.358	3211
915.47	3256
915.583	3302
915.696	3294
915.809	3420
915.921	3416
916.034	3272
916.146	3268
916.259	3256
916.371	3386
916.483	3351
916.595	3298
916.708	3325
916.82	3367
916.932	3325
917.044	3363
917.156	3389
917.268	3264
917.38	3325
917.491	3287
917.603	3348
917.715	3481
917.826	3454
917.938	3393
918.049	3253
918.161	3447
918.272	3599
918.384	3561
918.495	3469
918.606	3317
918.717	3272
918.828	3374
918.939	3412
919.05	3332
919.161	3370
919.272	3176
919.383	3294
919.494	3515
919.604	3701
919.715	3504
919.826	3443
919.936	3435
920.047	3557
920.157	3530
920.267	3789
920.378	3641
920.488	3584
920.598	3762
920.708	3911
920.818	3816
920.928	3819
921.038	4017
921.148	3983
921.258	3732
921.368	3641
921.477	3591
921.587	3545
921.697	3454
921.806	3637
921.916	3534
922.025	3389
922.134	3344
922.244	3313
922.353	3412
922.462	3253
922.571	3245
922.68	3127
922.789	3055
922.898	3188
923.007	3089
923.116	3195
923.224	3188
923.333	3154
923.442	3100
923.55	3077
923.659	3093
923.767	3211
923.876	3131
923.984	3249
924.092	3157
924.201	3211
924.309	3226
924.417	3283
924.525	3192
924.633	3233
924.741	3998
924.849	3047
924.956	3226
925.064	3066
925.172	3055
925.279	3097
925.387	3226
925.494	3192
925.602	3351
925.709	3321
925.816	3230
925.924	3260
926.031	3393
926.138	3336
926.245	3344
926.352	3260
926.459	3412
926.566	3450
926.673	3302
926.779	3268
926.886	3294
926.993	3180
927.099	3169
927.206	3138
927.312	3104
927.419	3256
927.525	3173
927.631	3298
927.737	3135
927.843	3142
927.95	3070
928.056	3142
928.162	3199
928.267	3275
928.373	3899
928.479	3306
928.585	3062
928.69	3218
928.796	3291
928.901	3157
929.007	3009
929.112	3218
929.218	3180
929.323	3154
929.428	3188
929.533	3325
929.638	3150
929.743	3176
929.848	3256
929.953	3233
930.058	3116
930.163	2956
930.267	3039
930.372	3192
930.477	3013
930.581	3294
930.685	3195
930.79	3074
930.894	3138
930.998	3112
931.103	3306
931.207	2971
931.311	2937
931.415	2963
931.519	2777
931.623	2788
