Data from test_V78500241_1013.txt Node
Date: Fri Mar 25 16:22:13 CST 2022
User: usil
Spectrometer: V785-0024
Trigger mode: 0
Integration Time (sec): 4.000000E-1
Scans to average: 1
Nonlinearity correction enabled: false
Boxcar width: 0
Storing dark spectrum: false
XAxis mode: Wavelengths
Number of Pixels in Spectrum: 1024
>>>>>Begin Spectral Data<<<<<
801.071	2902
801.214	2948
801.356	2880
801.499	2906
801.641	2861
801.783	2933
801.926	3028
802.068	2982
802.211	2986
802.353	3039
802.496	2963
802.638	2967
802.78	3051
802.923	3066
803.065	2982
803.208	2834
803.35	2918
803.492	2960
803.635	2925
803.777	2743
803.919	2857
804.061	3203
804.204	2929
804.346	2902
804.488	2849
804.63	2990
804.773	2842
804.915	2868
805.057	3089
805.199	2918
805.341	2994
805.483	3017
805.626	3028
805.768	3001
805.91	3055
806.052	3123
806.194	3024
806.336	3214
806.478	3036
806.62	2967
806.762	2948
806.904	3043
807.046	3157
807.188	2960
807.33	2910
807.472	2967
807.614	2872
807.756	2971
807.898	2914
808.04	2910
808.182	2990
808.324	2944
808.465	2891
808.607	2891
808.749	2796
808.891	2830
809.033	2967
809.174	2982
809.316	2880
809.458	2906
809.6	2800
809.741	2769
809.883	2792
810.025	2819
810.166	2838
810.308	2842
810.45	2830
810.591	2743
810.733	2811
810.875	2838
811.016	2781
811.158	2750
811.299	2834
811.441	2902
811.582	2914
811.724	2804
811.865	2823
812.007	2925
812.148	2883
812.29	2815
812.431	2902
812.573	2899
812.714	2941
812.855	3047
812.997	3081
813.138	3127
813.279	3013
813.421	2975
813.562	2941
813.703	2872
813.845	2906
813.986	2811
814.127	2743
814.268	2788
814.41	2815
814.551	2785
814.692	2845
814.833	2804
814.974	2910
815.115	2982
815.256	2815
815.397	2849
815.539	2834
815.68	2811
815.821	2815
815.962	2933
816.103	2925
816.244	2876
816.385	2864
816.526	2929
816.666	2899
816.807	2758
816.948	2876
817.089	2925
817.23	2880
817.371	2773
817.512	2781
817.653	2819
817.793	2815
817.934	2868
818.075	2990
818.216	3009
818.356	3062
818.497	2876
818.638	2811
818.778	2777
818.919	2777
819.06	2762
819.2	2872
819.341	2834
819.481	2800
819.622	2910
819.762	3100
819.903	3036
820.043	2925
820.184	2891
820.324	2925
820.465	3024
820.605	2994
820.746	3017
820.886	2891
821.026	3097
821.167	3176
821.307	3241
821.447	3283
821.588	3218
821.728	3222
821.868	3150
822.008	3089
822.149	3165
822.289	3195
822.429	3055
822.569	3070
822.709	3165
822.849	3047
822.99	3051
823.13	3157
823.27	3211
823.41	3066
823.55	3123
823.69	3161
823.83	3161
823.97	3093
824.11	2986
824.25	2971
824.389	3058
824.529	3116
824.669	3062
824.809	3173
824.949	3279
825.089	3245
825.228	3176
825.368	2982
825.508	2998
825.648	2952
825.787	2990
825.927	2990
826.067	2979
826.206	2982
826.346	3066
826.485	3085
826.625	3100
826.765	3249
826.904	3184
827.044	3013
827.183	2918
827.323	2826
827.462	3017
827.601	2937
827.741	2899
827.88	2960
828.02	2864
828.159	2918
828.298	3020
828.437	3119
828.577	3024
828.716	3226
828.855	3043
828.994	2902
829.134	2872
829.273	2956
829.412	2853
829.551	2861
829.69	2910
829.829	2967
829.968	3138
830.107	2982
830.246	2986
830.385	2918
830.524	2876
830.663	2796
830.802	2712
830.941	2648
831.08	2629
831.219	2750
831.357	2769
831.496	2944
831.635	2727
831.774	2648
831.913	2651
832.051	2549
832.19	2568
832.329	2693
832.467	2514
832.606	2495
832.744	2560
832.883	2583
833.022	2583
833.16	2655
833.299	2686
833.437	2663
833.576	2682
833.714	2693
833.852	2701
833.991	2731
834.129	2868
834.267	2800
834.406	2777
834.544	2853
834.682	2857
834.821	2849
834.959	3081
835.097	2937
835.235	3081
835.373	3017
835.511	3017
835.65	2944
835.788	2967
835.926	2849
836.064	2796
836.202	2834
836.34	3127
836.478	3173
836.615	3051
836.753	3116
836.891	3226
837.029	3157
837.167	3142
837.305	3047
837.443	3039
837.58	2963
837.718	3173
837.856	3036
837.993	3009
838.131	3116
838.269	3123
838.406	3108
838.544	3081
838.681	2914
838.819	2922
838.956	2788
839.094	2838
839.231	2925
839.369	2982
839.506	3382
839.643	3176
839.781	3043
839.918	2933
840.055	3028
840.193	3028
840.33	3058
840.467	3081
840.604	3176
840.742	3420
840.879	3028
841.016	3047
841.153	3127
841.29	3306
841.427	3283
841.564	3218
841.701	3287
841.838	3218
841.975	3165
842.112	3176
842.249	3085
842.385	3077
842.522	3260
842.659	3070
842.796	3062
842.933	3104
843.069	3032
843.206	3024
843.343	3157
843.479	3089
843.616	3131
843.752	2918
843.889	2864
844.025	3085
844.162	2883
844.298	3066
844.435	2960
844.571	2887
844.708	3085
844.844	3207
844.98	3230
845.117	3173
845.253	3055
845.389	3001
845.525	3055
845.661	3093
845.798	2979
845.934	3116
846.07	3024
846.206	3222
846.342	3302
846.478	3173
846.614	3081
846.75	3074
846.886	3032
847.022	3245
847.158	3131
847.294	3195
847.429	3245
847.565	3218
847.701	3473
847.837	3039
847.972	2975
848.108	3135
848.244	3150
848.379	2994
848.515	2963
848.65	2876
848.786	2967
848.921	3028
849.057	3051
849.192	3154
849.328	3066
849.463	3123
849.598	3085
849.734	3001
849.869	2967
850.004	2902
850.14	2952
850.275	2899
850.41	2838
850.545	2864
850.68	2899
850.815	2918
850.95	2956
851.085	3211
851.22	3089
851.355	3013
851.49	2960
851.625	2967
851.76	3005
851.895	2937
852.03	2914
852.165	3055
852.299	3077
852.434	3157
852.569	3104
852.703	3203
852.838	3230
852.973	3291
853.107	3291
853.242	3184
853.376	3070
853.511	2971
853.645	3043
853.78	3218
853.914	3108
854.048	3138
854.183	3097
854.317	3131
854.451	3253
854.585	3108
854.72	3066
854.854	3188
854.988	3009
855.122	3104
855.256	2975
855.39	3112
855.524	3199
855.658	3207
855.792	3142
855.926	3176
856.06	3218
856.194	3253
856.327	3165
856.461	3070
856.595	3066
856.729	3100
856.862	3233
856.996	3192
857.13	3188
857.263	3218
857.397	3268
857.53	3112
857.664	3203
857.797	3218
857.931	3203
858.064	3161
858.197	3195
858.331	3108
858.464	3097
858.597	2982
858.731	3119
858.864	3119
858.997	3074
859.13	3135
859.263	3119
859.396	3203
859.529	3089
859.662	3097
859.795	3032
859.928	3142
860.061	3233
860.194	3264
860.327	3157
860.46	3089
860.592	3249
860.725	3207
860.858	3226
860.99	3093
861.123	3032
861.256	3009
861.388	3150
861.521	3812
861.653	2986
861.786	2986
861.918	2971
862.05	3032
862.183	3116
862.315	3138
862.447	3169
862.58	3093
862.712	2922
862.844	2895
862.976	2990
863.108	2975
863.24	3397
863.372	2864
863.504	2971
863.636	2975
863.768	3028
863.9	2971
864.032	2864
864.164	2918
864.296	3001
864.428	3093
864.559	3081
864.691	3081
864.823	3047
864.954	3047
865.086	3001
865.217	2963
865.349	2975
865.48	2990
865.612	2994
865.743	3127
865.875	2967
866.006	2963
866.137	2994
866.269	2929
866.4	2929
866.531	2963
866.662	2857
866.793	2887
866.924	2902
867.055	2944
867.186	2899
867.317	2861
867.448	2823
867.579	2830
867.71	2819
867.841	2788
867.972	2887
868.103	2887
868.233	2880
868.364	2895
868.495	2891
868.625	3077
868.756	3195
868.886	2971
869.017	3009
869.147	3146
869.278	3157
869.408	3062
869.539	3024
869.669	3081
869.799	3039
869.929	3135
870.06	3074
870.19	3283
870.32	3283
870.45	3287
870.58	3363
870.71	3439
870.84	3469
870.97	3283
871.1	3214
871.23	3485
871.36	3420
871.489	3367
871.619	3363
871.749	3409
871.879	3428
872.008	3496
872.138	3340
872.267	3245
872.397	3131
872.526	3074
872.656	3017
872.785	3089
872.915	3275
873.044	3275
873.173	3218
873.303	3249
873.432	3275
873.561	3230
873.69	3123
873.819	3157
873.948	3192
874.077	3108
874.206	3032
874.335	3077
874.464	3195
874.593	3332
874.722	3222
874.851	3374
874.979	3325
875.108	3329
875.237	3157
875.365	3150
875.494	3180
875.623	3230
875.751	3100
875.88	3093
876.008	3169
876.136	3226
876.265	3355
876.393	3469
876.521	3420
876.65	3416
876.778	3298
876.906	3260
877.034	3173
877.162	3207
877.29	3138
877.418	3249
877.546	3233
877.674	3253
877.802	3207
877.93	3207
878.058	3154
878.185	3108
878.313	3207
878.441	3195
878.568	3089
878.696	3112
878.824	3226
878.951	3291
879.079	3439
879.206	3633
879.333	3416
879.461	3321
879.588	3370
879.715	3454
879.842	3580
879.97	3370
880.097	3184
880.224	3142
880.351	3203
880.478	3211
880.605	3157
880.732	3195
880.859	3496
880.986	3275
881.112	3287
881.239	3180
881.366	3100
881.493	3009
881.619	2990
881.746	2990
881.872	3108
881.999	3104
882.125	3131
882.252	3218
882.378	3313
882.505	3431
882.631	3268
882.757	3173
882.883	3233
883.01	3253
883.136	3161
883.262	3062
883.388	3138
883.514	3329
883.64	3348
883.766	3279
883.892	3180
884.018	3256
884.143	3424
884.269	3504
884.395	3176
884.52	3127
884.646	3173
884.772	3123
884.897	3123
885.023	3211
885.148	3325
885.274	3443
885.399	3348
885.524	3294
885.65	3287
885.775	3275
885.9	3272
886.025	3393
886.15	3336
886.275	3272
886.4	3264
886.525	3294
886.65	3241
886.775	3218
886.9	3481
887.025	3618
887.149	3420
887.274	3241
887.399	3188
887.523	3169
887.648	3203
887.773	3199
887.897	3374
888.021	3405
888.146	3264
888.27	3424
888.395	3500
888.519	3405
888.643	3439
888.767	3462
888.891	3310
889.015	3214
889.139	3287
889.263	3241
889.387	3374
889.511	3519
889.635	3435
889.759	3237
889.883	3294
890.006	3359
890.13	3450
890.254	3275
890.377	3310
890.501	3203
890.624	3165
890.748	3310
890.871	3233
890.995	3116
891.118	3070
891.241	3184
891.364	3218
891.488	3332
891.611	3154
891.734	3207
891.857	3256
891.98	3226
892.103	3348
892.226	3256
892.349	3195
892.471	3135
892.594	3241
892.717	3287
892.839	3272
892.962	3256
893.085	3321
893.207	3260
893.33	3184
893.452	3230
893.575	3329
893.697	3249
893.819	3469
893.941	3485
894.064	3454
894.186	3272
894.308	3260
894.43	3409
894.552	3519
894.674	3450
894.796	3287
894.918	3313
895.04	3298
895.161	3382
895.283	3386
895.405	3260
895.526	3359
895.648	3428
895.769	3420
895.891	3409
896.012	3473
896.134	3447
896.255	3397
896.376	3409
896.498	3344
896.619	3412
896.74	3344
896.861	3401
896.982	3698
897.103	3800
897.224	3599
897.345	3519
897.466	3416
897.587	3511
897.708	3584
897.828	3572
897.949	3435
898.07	3329
898.19	3382
898.311	3557
898.431	3454
898.552	3515
898.672	3606
898.792	3564
898.913	3500
899.033	3428
899.153	3268
899.273	3214
899.393	3260
899.513	3313
899.633	3287
899.753	3351
899.873	3317
899.993	3397
900.113	3310
900.232	3363
900.352	3355
900.472	3275
900.591	3211
900.711	3249
900.83	3226
900.95	3412
901.069	3443
901.189	3336
901.308	3146
901.427	3131
901.546	3218
901.665	3272
901.784	3336
901.904	3199
902.023	3173
902.141	2990
902.26	2998
902.379	3123
902.498	3047
902.617	3036
902.735	3195
902.854	3199
902.973	3203
903.091	3097
903.21	3085
903.328	3157
903.446	3089
903.565	3100
903.683	3199
903.801	3119
903.919	3256
904.038	3260
904.156	3195
904.274	3279
904.392	3272
904.51	3291
904.627	3302
904.745	3428
904.863	3515
904.981	3279
905.098	3173
905.216	3264
905.334	3275
905.451	3329
905.569	3340
905.686	3401
905.803	3450
905.921	3241
906.038	3439
906.155	3344
906.272	3253
906.389	3306
906.506	3211
906.623	3237
906.74	3283
906.857	3176
906.974	3253
907.091	3424
907.208	3584
907.324	3500
907.441	3359
907.557	3260
907.674	3176
907.79	3169
907.907	3298
908.023	3313
908.139	3386
908.256	3279
908.372	3363
908.488	3386
908.604	3245
908.72	3264
908.836	3291
908.952	3264
909.068	3348
909.184	3450
909.3	3378
909.415	3523
909.531	3450
909.647	3249
909.762	3321
909.878	3298
909.993	3370
910.108	3321
910.224	3306
910.339	3386
910.454	3298
910.57	3306
910.685	3241
910.8	3580
910.915	3523
911.03	3447
911.145	3256
911.259	3249
911.374	3313
911.489	3233
911.604	3226
911.718	3119
911.833	3131
911.947	3032
912.062	3013
912.176	3146
912.291	3142
912.405	3222
912.519	3401
912.633	3481
912.748	3332
912.862	3245
912.976	3146
913.09	3062
913.204	3154
913.318	3195
913.431	3348
913.545	3329
913.659	3401
913.772	3359
913.886	3233
914	3218
914.113	3340
914.226	3431
914.34	3378
914.453	3233
914.566	3420
914.68	3306
914.793	3310
914.906	3142
915.019	3116
915.132	3043
915.245	3180
915.358	3157
915.47	3203
915.583	3283
915.696	3298
915.809	3401
915.921	3431
916.034	3245
916.146	3249
916.259	3245
916.371	3374
916.483	3378
916.595	3264
916.708	3321
916.82	3294
916.932	3340
917.044	3351
917.156	3325
917.268	3256
917.38	3275
917.491	3306
917.603	3374
917.715	3450
917.826	3462
917.938	3329
918.049	3272
918.161	3424
918.272	3580
918.384	3530
918.495	3458
918.606	3294
918.717	3256
918.828	3344
918.939	3412
919.05	3294
919.161	3374
919.272	3165
919.383	3245
919.494	3443
919.604	3701
919.715	3488
919.826	3435
919.936	3473
920.047	3584
920.157	3549
920.267	3808
920.378	3610
920.488	3568
920.598	3800
920.708	3903
920.818	3789
920.928	3812
921.038	4013
921.148	4025
921.258	3740
921.368	3622
921.477	3568
921.587	3557
921.697	3439
921.806	3648
921.916	3553
922.025	3363
922.134	3313
922.244	3302
922.353	3386
922.462	3291
922.571	3207
922.68	3097
922.789	3017
922.898	3142
923.007	3104
923.116	3230
923.224	3173
923.333	3188
923.442	3066
923.55	3081
923.659	3154
923.767	3207
923.876	3146
923.984	3233
924.092	3097
924.201	3184
924.309	3184
924.417	3253
924.525	3203
924.633	3226
924.741	4200
924.849	3036
924.956	3268
925.064	3108
925.172	3024
925.279	3093
925.387	3180
925.494	3195
925.602	3378
925.709	3321
925.816	3146
925.924	3298
926.031	3367
926.138	3306
926.245	3382
926.352	3237
926.459	3416
926.566	3454
926.673	3313
926.779	3241
926.886	3241
926.993	3142
927.099	3104
927.206	3116
927.312	3100
927.419	3230
927.525	3226
927.631	3249
927.737	3173
927.843	3146
927.95	3024
928.056	3154
928.162	3195
928.267	3241
928.373	3857
928.479	3291
928.585	3043
928.69	3180
928.796	3279
928.901	3135
929.007	3058
929.112	3203
929.218	3180
929.323	3142
929.428	3154
929.533	3325
929.638	3097
929.743	3161
929.848	3253
929.953	3211
930.058	3165
930.163	3001
930.267	3028
930.372	3230
930.477	3024
930.581	3298
930.685	3173
930.79	3039
930.894	3100
930.998	3077
931.103	3272
931.207	2975
931.311	2979
931.415	2914
931.519	2781
931.623	2807
