Data from test_V78500241_1370.txt Node
Date: Fri Mar 25 16:24:41 CST 2022
User: usil
Spectrometer: V785-0024
Trigger mode: 0
Integration Time (sec): 4.000000E-1
Scans to average: 1
Nonlinearity correction enabled: false
Boxcar width: 0
Storing dark spectrum: false
XAxis mode: Wavelengths
Number of Pixels in Spectrum: 1024
>>>>>Begin Spectral Data<<<<<
801.071	2922
801.214	2918
801.356	2872
801.499	2914
801.641	2883
801.783	2910
801.926	3028
802.068	3001
802.211	2956
802.353	3005
802.496	2971
802.638	2986
802.78	3043
802.923	3066
803.065	2986
803.208	2895
803.35	2914
803.492	2948
803.635	2902
803.777	2743
803.919	2876
804.061	3192
804.204	2929
804.346	2922
804.488	2823
804.63	2963
804.773	2914
804.915	2895
805.057	3051
805.199	2906
805.341	2963
805.483	3028
805.626	2994
805.768	3005
805.91	3055
806.052	3085
806.194	3028
806.336	3230
806.478	3001
806.62	2979
806.762	2956
806.904	3055
807.046	3119
807.188	2952
807.33	2910
807.472	3005
807.614	2925
807.756	2979
807.898	2925
808.04	2876
808.182	2956
808.324	2963
808.465	2872
808.607	2864
808.749	2800
808.891	2834
809.033	2994
809.174	2956
809.316	2883
809.458	2899
809.6	2777
809.741	2766
809.883	2777
810.025	2838
810.166	2868
810.308	2834
810.45	2880
810.591	2754
810.733	2788
810.875	2781
811.016	2754
811.158	2727
811.299	2819
811.441	2887
811.582	2887
811.724	2788
811.865	2823
812.007	2887
812.148	2830
812.29	2853
812.431	2880
812.573	2891
812.714	2937
812.855	3066
812.997	3066
813.138	3123
813.279	2998
813.421	2971
813.562	2925
813.703	2864
813.845	2899
813.986	2788
814.127	2720
814.268	2845
814.41	2830
814.551	2788
814.692	2880
814.833	2830
814.974	2868
815.115	2937
815.256	2861
815.397	2796
815.539	2853
815.68	2800
815.821	2807
815.962	2941
816.103	2944
816.244	2849
816.385	2861
816.526	2967
816.666	2910
816.807	2758
816.948	2887
817.089	2933
817.23	2872
817.371	2766
817.512	2800
817.653	2826
817.793	2838
817.934	2883
818.075	2971
818.216	2952
818.356	3020
818.497	2910
818.638	2781
818.778	2785
818.919	2785
819.06	2762
819.2	2891
819.341	2792
819.481	2800
819.622	2922
819.762	3074
819.903	3024
820.043	2895
820.184	2902
820.324	2895
820.465	3032
820.605	3001
820.746	3009
820.886	2918
821.026	3108
821.167	3211
821.307	3214
821.447	3306
821.588	3256
821.728	3211
821.868	3237
822.008	3058
822.149	3161
822.289	3233
822.429	3074
822.569	3066
822.709	3127
822.849	3036
822.99	3036
823.13	3100
823.27	3203
823.41	3085
823.55	3112
823.69	3123
823.83	3199
823.97	3093
824.11	3001
824.25	2971
824.389	3081
824.529	3089
824.669	3043
824.809	3222
824.949	3275
825.089	3195
825.228	3135
825.368	2990
825.508	2948
825.648	2998
825.787	2994
825.927	2994
826.067	2960
826.206	2963
826.346	3089
826.485	3104
826.625	3108
826.765	3268
826.904	3188
827.044	3020
827.183	2933
827.323	2868
827.462	2998
827.601	2906
827.741	2891
827.88	2963
828.02	2830
828.159	2971
828.298	3039
828.437	3119
828.577	3024
828.716	3207
828.855	3074
828.994	2914
829.134	2868
829.273	2891
829.412	2868
829.551	2861
829.69	2864
829.829	2933
829.968	3150
830.107	2994
830.246	3036
830.385	2887
830.524	2864
830.663	2792
830.802	2720
830.941	2655
831.08	2648
831.219	2739
831.357	2750
831.496	2914
831.635	2739
831.774	2617
831.913	2667
832.051	2503
832.19	2571
832.329	2678
832.467	2552
832.606	2499
832.744	2545
832.883	2560
833.022	2571
833.16	2655
833.299	2659
833.437	2648
833.576	2701
833.714	2727
833.852	2731
833.991	2746
834.129	2800
834.267	2849
834.406	2785
834.544	2849
834.682	2857
834.821	2895
834.959	3020
835.097	2899
835.235	3055
835.373	2982
835.511	3020
835.65	2986
835.788	2975
835.926	2826
836.064	2815
836.202	2842
836.34	3066
836.478	3123
836.615	3032
836.753	3108
836.891	3188
837.029	3165
837.167	3100
837.305	3077
837.443	3032
837.58	2960
837.718	3108
837.856	3070
837.993	3028
838.131	3116
838.269	3081
838.406	3150
838.544	3116
838.681	2941
838.819	2899
838.956	2792
839.094	2849
839.231	2941
839.369	3028
839.506	3348
839.643	3188
839.781	3028
839.918	2948
840.055	3043
840.193	3017
840.33	3036
840.467	3074
840.604	3150
840.742	3397
840.879	3024
841.016	3058
841.153	3074
841.29	3332
841.427	3283
841.564	3275
841.701	3298
841.838	3226
841.975	3138
842.112	3218
842.249	3089
842.385	3066
842.522	3283
842.659	3100
842.796	3055
842.933	3085
843.069	3055
843.206	3039
843.343	3195
843.479	3062
843.616	3157
843.752	2895
843.889	2853
844.025	3070
844.162	2880
844.298	3074
844.435	2956
844.571	2857
844.708	3055
844.844	3173
844.98	3260
845.117	3199
845.253	3032
845.389	3009
845.525	3123
845.661	3077
845.798	3032
845.934	3112
846.07	3013
846.206	3211
846.342	3291
846.478	3218
846.614	3062
846.75	3062
846.886	3017
847.022	3249
847.158	3131
847.294	3188
847.429	3237
847.565	3203
847.701	3492
847.837	3032
847.972	2952
848.108	3146
848.244	3127
848.379	2960
848.515	2922
848.65	2925
848.786	2963
848.921	3032
849.057	3119
849.192	3169
849.328	3051
849.463	3146
849.598	3055
849.734	3062
849.869	2998
850.004	2902
850.14	2956
850.275	2895
850.41	2807
850.545	2876
850.68	2956
850.815	2933
850.95	2971
851.085	3203
851.22	3104
851.355	3043
851.49	2941
851.625	2990
851.76	3005
851.895	2883
852.03	2895
852.165	3024
852.299	3123
852.434	3192
852.569	3138
852.703	3176
852.838	3245
852.973	3351
853.107	3325
853.242	3150
853.376	3100
853.511	2960
853.645	3039
853.78	3226
853.914	3104
854.048	3066
854.183	3058
854.317	3142
854.451	3283
854.585	3104
854.72	3074
854.854	3214
854.988	3039
855.122	3066
855.256	2975
855.39	3097
855.524	3218
855.658	3211
855.792	3131
855.926	3157
856.06	3260
856.194	3233
856.327	3165
856.461	3058
856.595	3081
856.729	3085
856.862	3184
856.996	3150
857.13	3173
857.263	3173
857.397	3253
857.53	3127
857.664	3176
857.797	3226
857.931	3226
858.064	3146
858.197	3249
858.331	3112
858.464	3062
858.597	3013
858.731	3131
858.864	3135
858.997	3112
859.13	3123
859.263	3188
859.396	3222
859.529	3081
859.662	3062
859.795	2998
859.928	3150
860.061	3211
860.194	3268
860.327	3165
860.46	3066
860.592	3241
860.725	3245
860.858	3230
860.99	3097
861.123	3077
861.256	3036
861.388	3150
861.521	3770
861.653	2971
861.786	2982
861.918	2986
862.05	3020
862.183	3097
862.315	3138
862.447	3154
862.58	3077
862.712	2902
862.844	2876
862.976	2967
863.108	2990
863.24	3264
863.372	2826
863.504	2956
863.636	2902
863.768	3009
863.9	2986
864.032	2857
864.164	2933
864.296	2975
864.428	3070
864.559	3104
864.691	3097
864.823	3043
864.954	3013
865.086	3062
865.217	2975
865.349	2986
865.48	2956
865.612	3005
865.743	3100
865.875	2967
866.006	2952
866.137	2971
866.269	2933
866.4	2933
866.531	2899
866.662	2872
866.793	2868
866.924	2910
867.055	2948
867.186	2891
867.317	2864
867.448	2834
867.579	2857
867.71	2845
867.841	2838
867.972	2876
868.103	2899
868.233	2861
868.364	2880
868.495	2895
868.625	3047
868.756	3157
868.886	2994
869.017	3017
869.147	3142
869.278	3154
869.408	3074
869.539	3020
869.669	3081
869.799	3051
869.929	3157
870.06	3074
870.19	3348
870.32	3275
870.45	3260
870.58	3378
870.71	3428
870.84	3469
870.97	3317
871.1	3218
871.23	3473
871.36	3412
871.489	3355
871.619	3378
871.749	3431
871.879	3431
872.008	3466
872.138	3332
872.267	3275
872.397	3176
872.526	3074
872.656	2963
872.785	3070
872.915	3192
873.044	3336
873.173	3233
873.303	3272
873.432	3222
873.561	3195
873.69	3142
873.819	3154
873.948	3157
874.077	3112
874.206	3005
874.335	3077
874.464	3211
874.593	3359
874.722	3253
874.851	3363
874.979	3340
875.108	3279
875.237	3195
875.365	3169
875.494	3180
875.623	3264
875.751	3093
875.88	3085
876.008	3138
876.136	3199
876.265	3340
876.393	3507
876.521	3428
876.65	3378
876.778	3325
876.906	3283
877.034	3188
877.162	3211
877.29	3192
877.418	3241
877.546	3230
877.674	3237
877.802	3214
877.93	3218
878.058	3142
878.185	3085
878.313	3241
878.441	3245
878.568	3055
878.696	3154
878.824	3253
878.951	3279
879.079	3454
879.206	3606
879.333	3428
879.461	3344
879.588	3351
879.715	3435
879.842	3614
879.97	3382
880.097	3180
880.224	3093
880.351	3180
880.478	3214
880.605	3199
880.732	3142
880.859	3447
880.986	3317
881.112	3321
881.239	3214
881.366	3093
881.493	3032
881.619	2994
881.746	3047
881.872	3093
881.999	3119
882.125	3131
882.252	3199
882.378	3272
882.505	3450
882.631	3321
882.757	3173
882.883	3207
883.01	3226
883.136	3146
883.262	3074
883.388	3108
883.514	3294
883.64	3389
883.766	3283
883.892	3146
884.018	3233
884.143	3405
884.269	3549
884.395	3199
884.52	3157
884.646	3176
884.772	3104
884.897	3127
885.023	3161
885.148	3321
885.274	3428
885.399	3386
885.524	3275
885.65	3272
885.775	3310
885.9	3287
886.025	3431
886.15	3332
886.275	3260
886.4	3222
886.525	3275
886.65	3249
886.775	3294
886.9	3492
887.025	3610
887.149	3382
887.274	3237
887.399	3173
887.523	3199
887.648	3207
887.773	3184
887.897	3351
888.021	3367
888.146	3298
888.27	3428
888.395	3534
888.519	3428
888.643	3412
888.767	3458
888.891	3325
889.015	3253
889.139	3291
889.263	3199
889.387	3382
889.511	3511
889.635	3424
889.759	3302
889.883	3291
890.006	3370
890.13	3466
890.254	3283
890.377	3351
890.501	3199
890.624	3203
890.748	3294
890.871	3165
890.995	3131
891.118	3043
891.241	3195
891.364	3249
891.488	3317
891.611	3218
891.734	3230
891.857	3279
891.98	3192
892.103	3351
892.226	3241
892.349	3207
892.471	3131
892.594	3226
892.717	3279
892.839	3268
892.962	3283
893.085	3321
893.207	3306
893.33	3146
893.452	3226
893.575	3291
893.697	3233
893.819	3466
893.941	3500
894.064	3454
894.186	3298
894.308	3256
894.43	3454
894.552	3542
894.674	3443
894.796	3287
894.918	3329
895.04	3302
895.161	3443
895.283	3348
895.405	3298
895.526	3355
895.648	3439
895.769	3412
895.891	3450
896.012	3504
896.134	3511
896.255	3447
896.376	3355
896.498	3321
896.619	3447
896.74	3336
896.861	3431
896.982	3679
897.103	3835
897.224	3591
897.345	3492
897.466	3409
897.587	3511
897.708	3648
897.828	3504
897.949	3409
898.07	3370
898.19	3363
898.311	3561
898.431	3431
898.552	3515
898.672	3599
898.792	3564
898.913	3469
899.033	3389
899.153	3325
899.273	3226
899.393	3317
899.513	3329
899.633	3325
899.753	3363
899.873	3302
899.993	3359
900.113	3294
900.232	3389
900.352	3317
900.472	3272
900.591	3222
900.711	3275
900.83	3222
900.95	3439
901.069	3492
901.189	3367
901.308	3157
901.427	3108
901.546	3176
901.665	3317
901.784	3329
901.904	3188
902.023	3165
902.141	3032
902.26	2986
902.379	3142
902.498	3062
902.617	3070
902.735	3203
902.854	3233
902.973	3207
903.091	3043
903.21	3036
903.328	3100
903.446	3108
903.565	3097
903.683	3180
903.801	3146
903.919	3233
904.038	3325
904.156	3154
904.274	3279
904.392	3302
904.51	3283
904.627	3306
904.745	3454
904.863	3507
904.981	3241
905.098	3165
905.216	3230
905.334	3325
905.451	3279
905.569	3325
905.686	3435
905.803	3420
905.921	3294
906.038	3405
906.155	3363
906.272	3264
906.389	3317
906.506	3226
906.623	3222
906.74	3264
906.857	3173
906.974	3294
907.091	3477
907.208	3584
907.324	3481
907.441	3344
907.557	3211
907.674	3237
907.79	3218
907.907	3268
908.023	3397
908.139	3363
908.256	3275
908.372	3367
908.488	3389
908.604	3268
908.72	3249
908.836	3272
908.952	3253
909.068	3317
909.184	3511
909.3	3348
909.415	3473
909.531	3439
909.647	3245
909.762	3283
909.878	3275
909.993	3325
910.108	3298
910.224	3340
910.339	3374
910.454	3325
910.57	3321
910.685	3241
910.8	3561
910.915	3496
911.03	3401
911.145	3291
911.259	3256
911.374	3317
911.489	3222
911.604	3230
911.718	3100
911.833	3123
911.947	2990
912.062	3009
912.176	3161
912.291	3165
912.405	3207
912.519	3420
912.633	3462
912.748	3306
912.862	3241
912.976	3176
913.09	3051
913.204	3138
913.318	3218
913.431	3336
913.545	3332
913.659	3389
913.772	3298
913.886	3222
914	3214
914.113	3351
914.226	3405
914.34	3370
914.453	3226
914.566	3401
914.68	3287
914.793	3329
914.906	3112
915.019	3112
915.132	3036
915.245	3150
915.358	3218
915.47	3218
915.583	3260
915.696	3268
915.809	3382
915.921	3439
916.034	3218
916.146	3245
916.259	3214
916.371	3386
916.483	3386
916.595	3268
916.708	3359
916.82	3317
916.932	3332
917.044	3348
917.156	3374
917.268	3230
917.38	3298
917.491	3310
917.603	3355
917.715	3416
917.826	3431
917.938	3359
918.049	3275
918.161	3393
918.272	3576
918.384	3576
918.495	3526
918.606	3298
918.717	3291
918.828	3367
918.939	3370
919.05	3302
919.161	3378
919.272	3195
919.383	3302
919.494	3534
919.604	3698
919.715	3431
919.826	3447
919.936	3428
920.047	3603
920.157	3538
920.267	3766
920.378	3603
920.488	3519
920.598	3770
920.708	3949
920.818	3827
920.928	3835
921.038	4010
921.148	3987
921.258	3709
921.368	3591
921.477	3576
921.587	3504
921.697	3443
921.806	3584
921.916	3507
922.025	3386
922.134	3374
922.244	3359
922.353	3405
922.462	3310
922.571	3226
922.68	3108
922.789	3055
922.898	3119
923.007	3108
923.116	3203
923.224	3176
923.333	3176
923.442	3070
923.55	3116
923.659	3112
923.767	3195
923.876	3157
923.984	3256
924.092	3116
924.201	3207
924.309	3211
924.417	3222
924.525	3146
924.633	3222
924.741	4029
924.849	3039
924.956	3260
925.064	3119
925.172	3058
925.279	3100
925.387	3195
925.494	3214
925.602	3370
925.709	3313
925.816	3211
925.924	3317
926.031	3359
926.138	3325
926.245	3336
926.352	3233
926.459	3431
926.566	3481
926.673	3336
926.779	3283
926.886	3256
926.993	3138
927.099	3135
927.206	3112
927.312	3100
927.419	3211
927.525	3192
927.631	3275
927.737	3138
927.843	3104
927.95	2975
928.056	3150
928.162	3146
928.267	3256
928.373	3899
928.479	3306
928.585	3077
928.69	3226
928.796	3264
928.901	3184
929.007	3047
929.112	3211
929.218	3192
929.323	3150
929.428	3135
929.533	3321
929.638	3123
929.743	3173
929.848	3253
929.953	3195
930.058	3157
930.163	3036
930.267	3036
930.372	3218
930.477	3005
930.581	3344
930.685	3142
930.79	3074
930.894	3138
930.998	3077
931.103	3279
931.207	2952
931.311	2948
931.415	2941
931.519	2773
931.623	2815
