Data from test_V78500241_1467.txt Node
Date: Fri Mar 25 16:25:21 CST 2022
User: usil
Spectrometer: V785-0024
Trigger mode: 0
Integration Time (sec): 4.000000E-1
Scans to average: 1
Nonlinearity correction enabled: false
Boxcar width: 0
Storing dark spectrum: false
XAxis mode: Wavelengths
Number of Pixels in Spectrum: 1024
>>>>>Begin Spectral Data<<<<<
801.071	2922
801.214	2933
801.356	2868
801.499	2895
801.641	2857
801.783	2883
801.926	3055
802.068	2982
802.211	2979
802.353	3024
802.496	2982
802.638	2952
802.78	3020
802.923	3089
803.065	2986
803.208	2899
803.35	2948
803.492	2944
803.635	2899
803.777	2720
803.919	2857
804.061	3199
804.204	2956
804.346	2906
804.488	2872
804.63	2944
804.773	2868
804.915	2906
805.057	3077
805.199	2910
805.341	2979
805.483	3043
805.626	2990
805.768	2990
805.91	3093
806.052	3077
806.194	3024
806.336	3188
806.478	3036
806.62	2925
806.762	2982
806.904	3047
807.046	3146
807.188	2975
807.33	2918
807.472	2975
807.614	2906
807.756	2986
807.898	2925
808.04	2899
808.182	2994
808.324	2933
808.465	2899
808.607	2872
808.749	2796
808.891	2853
809.033	3005
809.174	2956
809.316	2861
809.458	2883
809.6	2800
809.741	2769
809.883	2754
810.025	2834
810.166	2883
810.308	2826
810.45	2849
810.591	2746
810.733	2781
810.875	2857
811.016	2777
811.158	2800
811.299	2819
811.441	2941
811.582	2883
811.724	2796
811.865	2842
812.007	2902
812.148	2834
812.29	2834
812.431	2914
812.573	2941
812.714	2960
812.855	3051
812.997	3047
813.138	3112
813.279	2975
813.421	2982
813.562	2918
813.703	2895
813.845	2891
813.986	2788
814.127	2720
814.268	2834
814.41	2826
814.551	2853
814.692	2864
814.833	2800
814.974	2960
815.115	2941
815.256	2849
815.397	2819
815.539	2876
815.68	2785
815.821	2781
815.962	2933
816.103	2956
816.244	2895
816.385	2849
816.526	2982
816.666	2933
816.807	2739
816.948	2899
817.089	2925
817.23	2849
817.371	2777
817.512	2811
817.653	2826
817.793	2842
817.934	2895
818.075	2952
818.216	3005
818.356	3032
818.497	2880
818.638	2819
818.778	2807
818.919	2781
819.06	2743
819.2	2872
819.341	2830
819.481	2781
819.622	2914
819.762	3070
819.903	3039
820.043	2922
820.184	2922
820.324	2918
820.465	2979
820.605	3005
820.746	3005
820.886	2922
821.026	3066
821.167	3173
821.307	3233
821.447	3264
821.588	3264
821.728	3195
821.868	3199
822.008	3074
822.149	3192
822.289	3211
822.429	3058
822.569	3112
822.709	3127
822.849	3066
822.99	3062
823.13	3146
823.27	3199
823.41	3127
823.55	3157
823.69	3127
823.83	3154
823.97	3074
824.11	3009
824.25	2994
824.389	3077
824.529	3123
824.669	3070
824.809	3169
824.949	3283
825.089	3241
825.228	3154
825.368	3028
825.508	2979
825.648	2933
825.787	3017
825.927	3009
826.067	2967
826.206	2933
826.346	3039
826.485	3093
826.625	3108
826.765	3256
826.904	3192
827.044	2971
827.183	2944
827.323	2868
827.462	2967
827.601	2914
827.741	2899
827.88	2941
828.02	2876
828.159	2994
828.298	3036
828.437	3127
828.577	3028
828.716	3230
828.855	3089
828.994	2914
829.134	2887
829.273	2899
829.412	2857
829.551	2815
829.69	2891
829.829	2963
829.968	3119
830.107	3001
830.246	3017
830.385	2925
830.524	2876
830.663	2807
830.802	2720
830.941	2670
831.08	2659
831.219	2739
831.357	2731
831.496	2979
831.635	2708
831.774	2663
831.913	2667
832.051	2537
832.19	2511
832.329	2670
832.467	2541
832.606	2446
832.744	2564
832.883	2568
833.022	2583
833.16	2674
833.299	2682
833.437	2705
833.576	2705
833.714	2708
833.852	2701
833.991	2724
834.129	2826
834.267	2800
834.406	2788
834.544	2868
834.682	2895
834.821	2891
834.959	3032
835.097	2918
835.235	3066
835.373	2975
835.511	3001
835.65	2952
835.788	2956
835.926	2838
836.064	2773
836.202	2864
836.34	3104
836.478	3135
836.615	3062
836.753	3123
836.891	3176
837.029	3150
837.167	3135
837.305	3081
837.443	3043
837.58	2944
837.718	3116
837.856	3062
837.993	3024
838.131	3085
838.269	3112
838.406	3112
838.544	3093
838.681	2902
838.819	2891
838.956	2804
839.094	2830
839.231	2902
839.369	3017
839.506	3348
839.643	3203
839.781	2994
839.918	2914
840.055	3032
840.193	3062
840.33	3047
840.467	3066
840.604	3131
840.742	3401
840.879	3020
841.016	3020
841.153	3108
841.29	3344
841.427	3313
841.564	3249
841.701	3317
841.838	3199
841.975	3154
842.112	3214
842.249	3051
842.385	3013
842.522	3199
842.659	3081
842.796	3032
842.933	3100
843.069	3047
843.206	3028
843.343	3161
843.479	3112
843.616	3127
843.752	2914
843.889	2887
844.025	3070
844.162	2861
844.298	3055
844.435	2899
844.571	2941
844.708	3070
844.844	3184
844.98	3241
845.117	3192
845.253	3009
845.389	3009
845.525	3127
845.661	3131
845.798	2986
845.934	3108
846.07	3058
846.206	3230
846.342	3329
846.478	3184
846.614	3043
846.75	3055
846.886	3024
847.022	3260
847.158	3131
847.294	3195
847.429	3230
847.565	3203
847.701	3462
847.837	3039
847.972	2982
848.108	3138
848.244	3104
848.379	3017
848.515	2914
848.65	2941
848.786	2982
848.921	3017
849.057	3081
849.192	3146
849.328	3039
849.463	3100
849.598	3047
849.734	3020
849.869	2986
850.004	2910
850.14	2941
850.275	2906
850.41	2830
850.545	2876
850.68	2929
850.815	2941
850.95	2960
851.085	3176
851.22	3097
851.355	3028
851.49	2990
851.625	2982
851.76	2971
851.895	2925
852.03	2902
852.165	2990
852.299	3104
852.434	3211
852.569	3093
852.703	3165
852.838	3249
852.973	3363
853.107	3344
853.242	3157
853.376	3077
853.511	2960
853.645	3028
853.78	3253
853.914	3070
854.048	3138
854.183	3051
854.317	3142
854.451	3279
854.585	3108
854.72	3093
854.854	3203
854.988	3066
855.122	3093
855.256	2967
855.39	3131
855.524	3241
855.658	3161
855.792	3131
855.926	3173
856.06	3211
856.194	3241
856.327	3157
856.461	3089
856.595	3089
856.729	3097
856.862	3173
856.996	3180
857.13	3169
857.263	3214
857.397	3291
857.53	3116
857.664	3157
857.797	3207
857.931	3245
858.064	3138
858.197	3211
858.331	3123
858.464	3108
858.597	3047
858.731	3112
858.864	3074
858.997	3089
859.13	3135
859.263	3154
859.396	3184
859.529	3047
859.662	3074
859.795	3062
859.928	3146
860.061	3260
860.194	3249
860.327	3108
860.46	3089
860.592	3199
860.725	3230
860.858	3218
860.99	3116
861.123	3024
861.256	3032
861.388	3150
861.521	3835
861.653	2994
861.786	2998
861.918	2990
862.05	3077
862.183	3104
862.315	3150
862.447	3226
862.58	3077
862.712	2952
862.844	2857
862.976	3047
863.108	3043
863.24	3313
863.372	2868
863.504	2956
863.636	2963
863.768	2971
863.9	2960
864.032	2925
864.164	2914
864.296	3001
864.428	3081
864.559	3119
864.691	3036
864.823	3066
864.954	3013
865.086	3055
865.217	2952
865.349	2948
865.48	2982
865.612	3009
865.743	3135
865.875	2975
866.006	2941
866.137	2941
866.269	2899
866.4	2883
866.531	2941
866.662	2887
866.793	2918
866.924	2914
867.055	3013
867.186	2910
867.317	2891
867.448	2819
867.579	2857
867.71	2834
867.841	2826
867.972	2910
868.103	2887
868.233	2845
868.364	2861
868.495	2887
868.625	3116
868.756	3138
868.886	2941
869.017	2979
869.147	3188
869.278	3135
869.408	3032
869.539	3009
869.669	3100
869.799	3028
869.929	3169
870.06	3089
870.19	3348
870.32	3264
870.45	3279
870.58	3348
870.71	3462
870.84	3447
870.97	3283
871.1	3249
871.23	3462
871.36	3428
871.489	3355
871.619	3374
871.749	3401
871.879	3420
872.008	3488
872.138	3359
872.267	3279
872.397	3169
872.526	3093
872.656	3043
872.785	3070
872.915	3245
873.044	3310
873.173	3203
873.303	3233
873.432	3249
873.561	3211
873.69	3176
873.819	3119
873.948	3173
874.077	3074
874.206	3009
874.335	3108
874.464	3214
874.593	3348
874.722	3207
874.851	3374
874.979	3340
875.108	3348
875.237	3165
875.365	3142
875.494	3188
875.623	3230
875.751	3062
875.88	3097
876.008	3146
876.136	3203
876.265	3325
876.393	3496
876.521	3409
876.65	3363
876.778	3298
876.906	3249
877.034	3154
877.162	3226
877.29	3192
877.418	3256
877.546	3233
877.674	3211
877.802	3264
877.93	3211
878.058	3127
878.185	3089
878.313	3192
878.441	3233
878.568	3058
878.696	3165
878.824	3230
878.951	3329
879.079	3424
879.206	3587
879.333	3412
879.461	3302
879.588	3355
879.715	3473
879.842	3614
879.97	3386
880.097	3150
880.224	3097
880.351	3176
880.478	3207
880.605	3154
880.732	3192
880.859	3481
880.986	3253
881.112	3355
881.239	3222
881.366	3119
881.493	3074
881.619	2975
881.746	3070
881.872	3055
881.999	3055
882.125	3154
882.252	3283
882.378	3298
882.505	3435
882.631	3294
882.757	3169
882.883	3195
883.01	3214
883.136	3165
883.262	3055
883.388	3081
883.514	3321
883.64	3355
883.766	3294
883.892	3173
884.018	3222
884.143	3435
884.269	3488
884.395	3199
884.52	3169
884.646	3154
884.772	3165
884.897	3070
885.023	3203
885.148	3329
885.274	3412
885.399	3363
885.524	3249
885.65	3283
885.775	3283
885.9	3268
886.025	3412
886.15	3340
886.275	3275
886.4	3264
886.525	3283
886.65	3268
886.775	3256
886.9	3458
887.025	3625
887.149	3401
887.274	3214
887.399	3173
887.523	3180
887.648	3169
887.773	3180
887.897	3374
888.021	3389
888.146	3317
888.27	3416
888.395	3507
888.519	3435
888.643	3458
888.767	3454
888.891	3336
889.015	3214
889.139	3325
889.263	3233
889.387	3386
889.511	3492
889.635	3412
889.759	3291
889.883	3287
890.006	3363
890.13	3523
890.254	3287
890.377	3348
890.501	3211
890.624	3176
890.748	3291
890.871	3188
890.995	3097
891.118	3055
891.241	3173
891.364	3230
891.488	3310
891.611	3195
891.734	3211
891.857	3306
891.98	3230
892.103	3359
892.226	3260
892.349	3192
892.471	3108
892.594	3256
892.717	3283
892.839	3264
892.962	3268
893.085	3321
893.207	3291
893.33	3116
893.452	3180
893.575	3355
893.697	3268
893.819	3447
893.941	3530
894.064	3492
894.186	3275
894.308	3268
894.43	3405
894.552	3549
894.674	3466
894.796	3245
894.918	3332
895.04	3321
895.161	3420
895.283	3351
895.405	3302
895.526	3363
895.648	3412
895.769	3420
895.891	3473
896.012	3481
896.134	3477
896.255	3428
896.376	3389
896.498	3351
896.619	3412
896.74	3363
896.861	3378
896.982	3652
897.103	3842
897.224	3561
897.345	3496
897.466	3412
897.587	3538
897.708	3652
897.828	3530
897.949	3428
898.07	3310
898.19	3397
898.311	3595
898.431	3439
898.552	3500
898.672	3595
898.792	3564
898.913	3542
899.033	3382
899.153	3264
899.273	3218
899.393	3272
899.513	3294
899.633	3310
899.753	3332
899.873	3268
899.993	3374
900.113	3340
900.232	3359
900.352	3317
900.472	3279
900.591	3169
900.711	3279
900.83	3195
900.95	3454
901.069	3496
901.189	3363
901.308	3184
901.427	3127
901.546	3146
901.665	3294
901.784	3313
901.904	3253
902.023	3119
902.141	3047
902.26	2967
902.379	3116
902.498	3081
902.617	3058
902.735	3165
902.854	3230
902.973	3169
903.091	3020
903.21	3066
903.328	3116
903.446	3116
903.565	3138
903.683	3192
903.801	3104
903.919	3218
904.038	3294
904.156	3180
904.274	3306
904.392	3233
904.51	3275
904.627	3340
904.745	3401
904.863	3485
904.981	3275
905.098	3127
905.216	3207
905.334	3310
905.451	3268
905.569	3336
905.686	3435
905.803	3439
905.921	3253
906.038	3420
906.155	3344
906.272	3298
906.389	3329
906.506	3180
906.623	3249
906.74	3268
906.857	3226
906.974	3226
907.091	3469
907.208	3542
907.324	3443
907.441	3405
907.557	3169
907.674	3226
907.79	3214
907.907	3264
908.023	3412
908.139	3382
908.256	3321
908.372	3382
908.488	3340
908.604	3241
908.72	3195
908.836	3321
908.952	3294
909.068	3340
909.184	3496
909.3	3401
909.415	3542
909.531	3454
909.647	3230
909.762	3313
909.878	3294
909.993	3332
910.108	3355
910.224	3355
910.339	3367
910.454	3313
910.57	3294
910.685	3241
910.8	3584
910.915	3515
911.03	3450
911.145	3272
911.259	3260
911.374	3313
911.489	3230
911.604	3218
911.718	3123
911.833	3138
911.947	3009
912.062	2967
912.176	3157
912.291	3188
912.405	3230
912.519	3401
912.633	3428
912.748	3355
912.862	3253
912.976	3150
913.09	3062
913.204	3100
913.318	3214
913.431	3317
913.545	3310
913.659	3416
913.772	3336
913.886	3211
914	3195
914.113	3389
914.226	3401
914.34	3401
914.453	3268
914.566	3428
914.68	3302
914.793	3317
914.906	3154
915.019	3081
915.132	3039
915.245	3146
915.358	3203
915.47	3218
915.583	3253
915.696	3287
915.809	3435
915.921	3454
916.034	3256
916.146	3226
916.259	3180
916.371	3389
916.483	3340
916.595	3233
916.708	3317
916.82	3313
916.932	3317
917.044	3329
917.156	3329
917.268	3253
917.38	3298
917.491	3294
917.603	3367
917.715	3416
917.826	3462
917.938	3351
918.049	3302
918.161	3420
918.272	3549
918.384	3553
918.495	3481
918.606	3348
918.717	3287
918.828	3363
918.939	3374
919.05	3302
919.161	3367
919.272	3180
919.383	3260
919.494	3492
919.604	3682
919.715	3462
919.826	3348
919.936	3443
920.047	3564
920.157	3545
920.267	3816
920.378	3599
920.488	3584
920.598	3770
920.708	4029
920.818	3797
920.928	3838
921.038	3998
921.148	4013
921.258	3682
921.368	3629
921.477	3538
921.587	3564
921.697	3466
921.806	3675
921.916	3519
922.025	3370
922.134	3348
922.244	3283
922.353	3428
922.462	3272
922.571	3199
922.68	3119
922.789	3100
922.898	3161
923.007	3055
923.116	3173
923.224	3119
923.333	3180
923.442	3066
923.55	3093
923.659	3142
923.767	3226
923.876	3089
923.984	3241
924.092	3112
924.201	3199
924.309	3237
924.417	3272
924.525	3169
924.633	3222
924.741	4147
924.849	3043
924.956	3233
925.064	3104
925.172	3020
925.279	3089
925.387	3199
925.494	3165
925.602	3367
925.709	3298
925.816	3165
925.924	3268
926.031	3397
926.138	3317
926.245	3321
926.352	3298
926.459	3363
926.566	3492
926.673	3329
926.779	3253
926.886	3214
926.993	3127
927.099	3135
927.206	3089
927.312	3112
927.419	3233
927.525	3169
927.631	3268
927.737	3123
927.843	3146
927.95	3043
928.056	3123
928.162	3154
928.267	3230
928.373	3770
928.479	3291
928.585	3055
928.69	3214
928.796	3279
928.901	3184
929.007	3074
929.112	3230
929.218	3195
929.323	3127
929.428	3135
929.533	3351
929.638	3093
929.743	3184
929.848	3317
929.953	3195
930.058	3150
930.163	3001
930.267	3043
930.372	3195
930.477	3058
930.581	3317
930.685	3192
930.79	3051
930.894	3100
930.998	3085
931.103	3264
931.207	2967
931.311	2971
931.415	2925
931.519	2762
931.623	2815
