Data from test_V78500241_542.txt Node
Date: Fri Mar 25 16:18:57 CST 2022
User: usil
Spectrometer: V785-0024
Trigger mode: 0
Integration Time (sec): 4.000000E-1
Scans to average: 1
Nonlinearity correction enabled: false
Boxcar width: 0
Storing dark spectrum: false
XAxis mode: Wavelengths
Number of Pixels in Spectrum: 1024
>>>>>Begin Spectral Data<<<<<
801.071	2948
801.214	2975
801.356	2868
801.499	2918
801.641	2895
801.783	2956
801.926	3077
802.068	2963
802.211	3020
802.353	3013
802.496	3009
802.638	3020
802.78	3070
802.923	3093
803.065	3001
803.208	2880
803.35	2922
803.492	2925
803.635	2933
803.777	2804
803.919	2883
804.061	3249
804.204	2941
804.346	2895
804.488	2849
804.63	2994
804.773	2891
804.915	2937
805.057	3055
805.199	2952
805.341	3017
805.483	3070
805.626	3028
805.768	2982
805.91	3085
806.052	3081
806.194	3036
806.336	3237
806.478	3005
806.62	2944
806.762	2994
806.904	3089
807.046	3176
807.188	2979
807.33	2937
807.472	2975
807.614	2922
807.756	2975
807.898	2922
808.04	2861
808.182	2971
808.324	2971
808.465	2876
808.607	2887
808.749	2830
808.891	2868
809.033	2994
809.174	2990
809.316	2891
809.458	2880
809.6	2766
809.741	2826
809.883	2781
810.025	2853
810.166	2838
810.308	2845
810.45	2864
810.591	2777
810.733	2807
810.875	2842
811.016	2746
811.158	2804
811.299	2834
811.441	2925
811.582	2925
811.724	2849
811.865	2819
812.007	2929
812.148	2910
812.29	2861
812.431	2902
812.573	2948
812.714	2998
812.855	3047
812.997	3032
813.138	3157
813.279	2998
813.421	2982
813.562	2979
813.703	2861
813.845	2941
813.986	2762
814.127	2754
814.268	2849
814.41	2842
814.551	2819
814.692	2887
814.833	2815
814.974	2929
815.115	2986
815.256	2826
815.397	2819
815.539	2838
815.68	2758
815.821	2792
815.962	2952
816.103	2906
816.244	2876
816.385	2864
816.526	2929
816.666	2937
816.807	2777
816.948	2891
817.089	2960
817.23	2864
817.371	2781
817.512	2811
817.653	2861
817.793	2842
817.934	2849
818.075	2941
818.216	3001
818.356	3009
818.497	2922
818.638	2819
818.778	2838
818.919	2823
819.06	2781
819.2	2891
819.341	2826
819.481	2834
819.622	2929
819.762	3097
819.903	3085
820.043	2956
820.184	2906
820.324	2883
820.465	2986
820.605	3070
820.746	3024
820.886	2944
821.026	3108
821.167	3154
821.307	3279
821.447	3321
821.588	3237
821.728	3195
821.868	3233
822.008	3085
822.149	3226
822.289	3237
822.429	3085
822.569	3112
822.709	3207
822.849	3013
822.99	3066
823.13	3142
823.27	3176
823.41	3123
823.55	3135
823.69	3161
823.83	3237
823.97	3089
824.11	3024
824.25	3001
824.389	3043
824.529	3138
824.669	3051
824.809	3233
824.949	3237
825.089	3253
825.228	3165
825.368	3009
825.508	2963
825.648	2948
825.787	3013
825.927	3039
826.067	2963
826.206	2963
826.346	3032
826.485	3085
826.625	3108
826.765	3264
826.904	3230
827.044	3013
827.183	2941
827.323	2861
827.462	3039
827.601	2956
827.741	2902
827.88	2944
828.02	2853
828.159	2986
828.298	3043
828.437	3108
828.577	3024
828.716	3253
828.855	3055
828.994	2906
829.134	2899
829.273	2891
829.412	2880
829.551	2838
829.69	2906
829.829	2986
829.968	3135
830.107	3020
830.246	3051
830.385	2963
830.524	2914
830.663	2800
830.802	2705
830.941	2651
831.08	2640
831.219	2792
831.357	2766
831.496	2971
831.635	2720
831.774	2667
831.913	2667
832.051	2545
832.19	2575
832.329	2705
832.467	2514
832.606	2484
832.744	2564
832.883	2575
833.022	2587
833.16	2682
833.299	2693
833.437	2667
833.576	2674
833.714	2716
833.852	2731
833.991	2750
834.129	2788
834.267	2830
834.406	2800
834.544	2880
834.682	2891
834.821	2891
834.959	3081
835.097	2883
835.235	3043
835.373	3028
835.511	3039
835.65	2998
835.788	2941
835.926	2819
836.064	2807
836.202	2868
836.34	3112
836.478	3180
836.615	3028
836.753	3161
836.891	3211
837.029	3135
837.167	3074
837.305	3051
837.443	3039
837.58	2982
837.718	3085
837.856	3058
837.993	3020
838.131	3097
838.269	3081
838.406	3066
838.544	3074
838.681	2941
838.819	2895
838.956	2819
839.094	2800
839.231	2918
839.369	3036
839.506	3393
839.643	3199
839.781	2986
839.918	2956
840.055	3058
840.193	3047
840.33	3066
840.467	3108
840.604	3157
840.742	3439
840.879	3028
841.016	3066
841.153	3104
841.29	3317
841.427	3310
841.564	3298
841.701	3310
841.838	3218
841.975	3222
842.112	3233
842.249	3077
842.385	3020
842.522	3237
842.659	3097
842.796	3055
842.933	3093
843.069	3055
843.206	3032
843.343	3176
843.479	3074
843.616	3127
843.752	2910
843.889	2880
844.025	3066
844.162	2891
844.298	3093
844.435	2929
844.571	2941
844.708	3047
844.844	3176
844.98	3237
845.117	3165
845.253	3051
845.389	2982
845.525	3093
845.661	3066
845.798	3020
845.934	3089
846.07	3024
846.206	3260
846.342	3321
846.478	3226
846.614	3074
846.75	3085
846.886	3009
847.022	3256
847.158	3123
847.294	3214
847.429	3199
847.565	3195
847.701	3507
847.837	3024
847.972	2998
848.108	3165
848.244	3161
848.379	2990
848.515	2925
848.65	2914
848.786	2960
848.921	3005
849.057	3119
849.192	3161
849.328	3058
849.463	3097
849.598	3077
849.734	3039
849.869	2967
850.004	2910
850.14	2952
850.275	2922
850.41	2838
850.545	2887
850.68	2918
850.815	2948
850.95	2982
851.085	3233
851.22	3089
851.355	3039
851.49	2986
851.625	3001
851.76	3017
851.895	2922
852.03	2929
852.165	3024
852.299	3066
852.434	3161
852.569	3131
852.703	3192
852.838	3253
852.973	3325
853.107	3355
853.242	3135
853.376	3116
853.511	2990
853.645	3047
853.78	3192
853.914	3100
854.048	3097
854.183	3085
854.317	3119
854.451	3283
854.585	3119
854.72	3119
854.854	3184
854.988	3051
855.122	3104
855.256	3005
855.39	3116
855.524	3214
855.658	3184
855.792	3161
855.926	3176
856.06	3241
856.194	3237
856.327	3154
856.461	3081
856.595	3081
856.729	3097
856.862	3245
856.996	3146
857.13	3207
857.263	3195
857.397	3294
857.53	3074
857.664	3218
857.797	3237
857.931	3275
858.064	3195
858.197	3192
858.331	3135
858.464	3112
858.597	3032
858.731	3138
858.864	3119
858.997	3100
859.13	3123
859.263	3161
859.396	3176
859.529	3070
859.662	3108
859.795	3028
859.928	3123
860.061	3291
860.194	3283
860.327	3157
860.46	3089
860.592	3249
860.725	3222
860.858	3226
860.99	3108
861.123	3013
861.256	3032
861.388	3135
861.521	3930
861.653	3036
861.786	3001
861.918	3001
862.05	3085
862.183	3066
862.315	3112
862.447	3214
862.58	3089
862.712	2910
862.844	2857
862.976	3055
863.108	2975
863.24	3462
863.372	2872
863.504	2956
863.636	2960
863.768	3039
863.9	2998
864.032	2941
864.164	2899
864.296	3020
864.428	3074
864.559	3093
864.691	3077
864.823	3024
864.954	3036
865.086	3039
865.217	2975
865.349	2952
865.48	2979
865.612	3024
865.743	3195
865.875	2956
866.006	2948
866.137	2960
866.269	2902
866.4	2971
866.531	2948
866.662	2887
866.793	2876
866.924	2895
867.055	2994
867.186	2941
867.317	2906
867.448	2819
867.579	2815
867.71	2811
867.841	2834
867.972	2914
868.103	2902
868.233	2899
868.364	2857
868.495	2899
868.625	3062
868.756	3188
868.886	2986
869.017	3051
869.147	3176
869.278	3161
869.408	3032
869.539	3028
869.669	3093
869.799	3043
869.929	3150
870.06	3100
870.19	3306
870.32	3294
870.45	3275
870.58	3382
870.71	3473
870.84	3473
870.97	3230
871.1	3211
871.23	3462
871.36	3485
871.489	3359
871.619	3405
871.749	3401
871.879	3504
872.008	3454
872.138	3317
872.267	3264
872.397	3116
872.526	3081
872.656	2986
872.785	3104
872.915	3268
873.044	3313
873.173	3260
873.303	3203
873.432	3275
873.561	3230
873.69	3165
873.819	3100
873.948	3207
874.077	3131
874.206	3013
874.335	3062
874.464	3218
874.593	3351
874.722	3241
874.851	3405
874.979	3325
875.108	3348
875.237	3150
875.365	3176
875.494	3108
875.623	3260
875.751	3104
875.88	3108
876.008	3161
876.136	3222
876.265	3367
876.393	3526
876.521	3462
876.65	3416
876.778	3294
876.906	3214
877.034	3192
877.162	3226
877.29	3180
877.418	3211
877.546	3207
877.674	3211
877.802	3226
877.93	3188
878.058	3127
878.185	3085
878.313	3222
878.441	3192
878.568	3058
878.696	3154
878.824	3260
878.951	3275
879.079	3439
879.206	3568
879.333	3485
879.461	3351
879.588	3325
879.715	3431
879.842	3606
879.97	3382
880.097	3188
880.224	3097
880.351	3173
880.478	3180
880.605	3188
880.732	3218
880.859	3504
880.986	3253
881.112	3302
881.239	3226
881.366	3097
881.493	3032
881.619	2994
881.746	3047
881.872	3097
881.999	3097
882.125	3146
882.252	3237
882.378	3283
882.505	3473
882.631	3275
882.757	3127
882.883	3173
883.01	3222
883.136	3169
883.262	3097
883.388	3100
883.514	3298
883.64	3329
883.766	3310
883.892	3207
884.018	3241
884.143	3393
884.269	3538
884.395	3199
884.52	3169
884.646	3135
884.772	3081
884.897	3108
885.023	3188
885.148	3340
885.274	3401
885.399	3317
885.524	3291
885.65	3268
885.775	3332
885.9	3272
886.025	3405
886.15	3344
886.275	3253
886.4	3253
886.525	3310
886.65	3249
886.775	3249
886.9	3515
887.025	3633
887.149	3420
887.274	3233
887.399	3138
887.523	3214
887.648	3180
887.773	3211
887.897	3359
888.021	3401
888.146	3272
888.27	3439
888.395	3496
888.519	3443
888.643	3416
888.767	3428
888.891	3317
889.015	3241
889.139	3268
889.263	3237
889.387	3393
889.511	3492
889.635	3424
889.759	3294
889.883	3279
890.006	3409
890.13	3447
890.254	3291
890.377	3291
890.501	3173
890.624	3184
890.748	3321
890.871	3154
890.995	3070
891.118	3081
891.241	3142
891.364	3211
891.488	3275
891.611	3173
891.734	3203
891.857	3294
891.98	3275
892.103	3332
892.226	3256
892.349	3207
892.471	3116
892.594	3260
892.717	3249
892.839	3249
892.962	3279
893.085	3340
893.207	3287
893.33	3146
893.452	3188
893.575	3359
893.697	3233
893.819	3462
893.941	3553
894.064	3454
894.186	3226
894.308	3291
894.43	3428
894.552	3515
894.674	3469
894.796	3260
894.918	3325
895.04	3249
895.161	3431
895.283	3378
895.405	3287
895.526	3367
895.648	3412
895.769	3462
895.891	3481
896.012	3473
896.134	3462
896.255	3409
896.376	3378
896.498	3340
896.619	3435
896.74	3348
896.861	3424
896.982	3671
897.103	3838
897.224	3629
897.345	3507
897.466	3420
897.587	3473
897.708	3625
897.828	3526
897.949	3412
898.07	3321
898.19	3382
898.311	3549
898.431	3450
898.552	3481
898.672	3625
898.792	3549
898.913	3538
899.033	3416
899.153	3291
899.273	3188
899.393	3268
899.513	3298
899.633	3329
899.753	3313
899.873	3332
899.993	3355
900.113	3294
900.232	3378
900.352	3313
900.472	3268
900.591	3214
900.711	3306
900.83	3260
900.95	3397
901.069	3496
901.189	3351
901.308	3173
901.427	3116
901.546	3180
901.665	3275
901.784	3310
901.904	3218
902.023	3169
902.141	3020
902.26	3028
902.379	3123
902.498	3077
902.617	3036
902.735	3214
902.854	3211
902.973	3211
903.091	3032
903.21	3058
903.328	3127
903.446	3104
903.565	3089
903.683	3176
903.801	3135
903.919	3253
904.038	3260
904.156	3146
904.274	3272
904.392	3233
904.51	3294
904.627	3321
904.745	3473
904.863	3477
904.981	3283
905.098	3150
905.216	3241
905.334	3268
905.451	3306
905.569	3283
905.686	3435
905.803	3469
905.921	3306
906.038	3401
906.155	3359
906.272	3249
906.389	3374
906.506	3256
906.623	3294
906.74	3253
906.857	3180
906.974	3237
907.091	3424
907.208	3557
907.324	3466
907.441	3374
907.557	3218
907.674	3245
907.79	3203
907.907	3230
908.023	3344
908.139	3378
908.256	3287
908.372	3386
908.488	3348
908.604	3249
908.72	3222
908.836	3294
908.952	3283
909.068	3355
909.184	3443
909.3	3412
909.415	3515
909.531	3450
909.647	3275
909.762	3272
909.878	3260
909.993	3348
910.108	3287
910.224	3382
910.339	3359
910.454	3340
910.57	3310
910.685	3256
910.8	3584
910.915	3515
911.03	3443
911.145	3283
911.259	3268
911.374	3291
911.489	3241
911.604	3218
911.718	3116
911.833	3119
911.947	3017
912.062	2990
912.176	3142
912.291	3165
912.405	3188
912.519	3447
912.633	3416
912.748	3348
912.862	3272
912.976	3154
913.09	3051
913.204	3093
913.318	3226
913.431	3336
913.545	3329
913.659	3420
913.772	3302
913.886	3233
914	3218
914.113	3344
914.226	3393
914.34	3382
914.453	3226
914.566	3401
914.68	3302
914.793	3306
914.906	3138
915.019	3116
915.132	3100
915.245	3176
915.358	3195
915.47	3199
915.583	3253
915.696	3279
915.809	3401
915.921	3450
916.034	3264
916.146	3272
916.259	3211
916.371	3367
916.483	3382
916.595	3279
916.708	3310
916.82	3313
916.932	3321
917.044	3317
917.156	3374
917.268	3249
917.38	3317
917.491	3275
917.603	3355
917.715	3424
917.826	3500
917.938	3355
918.049	3245
918.161	3466
918.272	3633
918.384	3580
918.495	3488
918.606	3386
918.717	3264
918.828	3374
918.939	3428
919.05	3325
919.161	3344
919.272	3192
919.383	3306
919.494	3507
919.604	3671
919.715	3466
919.826	3462
919.936	3450
920.047	3587
920.157	3572
920.267	3774
920.378	3667
920.488	3564
920.598	3800
920.708	3953
920.818	3800
920.928	3835
921.038	4055
921.148	3994
921.258	3759
921.368	3667
921.477	3591
921.587	3534
921.697	3466
921.806	3618
921.916	3572
922.025	3332
922.134	3336
922.244	3310
922.353	3401
922.462	3264
922.571	3226
922.68	3146
922.789	3089
922.898	3123
923.007	3127
923.116	3214
923.224	3135
923.333	3150
923.442	3070
923.55	3097
923.659	3116
923.767	3192
923.876	3112
923.984	3199
924.092	3104
924.201	3192
924.309	3214
924.417	3275
924.525	3203
924.633	3214
924.741	4044
924.849	3043
924.956	3256
925.064	3097
925.172	3066
925.279	3047
925.387	3199
925.494	3188
925.602	3359
925.709	3325
925.816	3188
925.924	3283
926.031	3412
926.138	3340
926.245	3374
926.352	3272
926.459	3405
926.566	3431
926.673	3332
926.779	3260
926.886	3237
926.993	3180
927.099	3127
927.206	3116
927.312	3119
927.419	3218
927.525	3199
927.631	3340
927.737	3142
927.843	3112
927.95	3020
928.056	3135
928.162	3169
928.267	3233
928.373	3793
928.479	3329
928.585	3100
928.69	3188
928.796	3260
928.901	3154
929.007	3028
929.112	3207
929.218	3173
929.323	3165
929.428	3100
929.533	3348
929.638	3108
929.743	3199
929.848	3222
929.953	3230
930.058	3150
930.163	2994
930.267	3028
930.372	3214
930.477	3047
930.581	3325
930.685	3157
930.79	3066
930.894	3119
930.998	3112
931.103	3264
931.207	2933
931.311	2948
931.415	2944
931.519	2788
931.623	2773
