Data from test_V78500241_731.txt Node
Date: Fri Mar 25 16:20:16 CST 2022
User: usil
Spectrometer: V785-0024
Trigger mode: 0
Integration Time (sec): 4.000000E-1
Scans to average: 1
Nonlinearity correction enabled: false
Boxcar width: 0
Storing dark spectrum: false
XAxis mode: Wavelengths
Number of Pixels in Spectrum: 1024
>>>>>Begin Spectral Data<<<<<
801.071	2880
801.214	2960
801.356	2864
801.499	2895
801.641	2838
801.783	2895
801.926	3036
802.068	2952
802.211	2967
802.353	3009
802.496	2952
802.638	2986
802.78	3039
802.923	3047
803.065	2998
803.208	2883
803.35	2895
803.492	2902
803.635	2918
803.777	2758
803.919	2842
804.061	3211
804.204	2902
804.346	2899
804.488	2853
804.63	2979
804.773	2853
804.915	2906
805.057	3085
805.199	2944
805.341	2967
805.483	3005
805.626	2979
805.768	2971
805.91	3055
806.052	3100
806.194	3017
806.336	3203
806.478	3028
806.62	2967
806.762	2960
806.904	3047
807.046	3142
807.188	2975
807.33	2906
807.472	2956
807.614	2914
807.756	2971
807.898	2922
808.04	2861
808.182	3005
808.324	2910
808.465	2857
808.607	2902
808.749	2804
808.891	2853
809.033	2944
809.174	2944
809.316	2922
809.458	2864
809.6	2781
809.741	2788
809.883	2743
810.025	2849
810.166	2842
810.308	2811
810.45	2819
810.591	2739
810.733	2769
810.875	2834
811.016	2762
811.158	2743
811.299	2804
811.441	2910
811.582	2914
811.724	2815
811.865	2819
812.007	2914
812.148	2872
812.29	2849
812.431	2887
812.573	2922
812.714	2948
812.855	3066
812.997	3039
813.138	3112
813.279	2982
813.421	3005
813.562	2948
813.703	2876
813.845	2895
813.986	2769
814.127	2727
814.268	2853
814.41	2792
814.551	2807
814.692	2872
814.833	2804
814.974	2872
815.115	2979
815.256	2788
815.397	2853
815.539	2845
815.68	2785
815.821	2804
815.962	2899
816.103	2933
816.244	2880
816.385	2883
816.526	2944
816.666	2910
816.807	2777
816.948	2902
817.089	2899
817.23	2864
817.371	2750
817.512	2800
817.653	2857
817.793	2800
817.934	2868
818.075	2929
818.216	2982
818.356	3062
818.497	2864
818.638	2785
818.778	2826
818.919	2773
819.06	2781
819.2	2864
819.341	2785
819.481	2823
819.622	2910
819.762	3112
819.903	3058
820.043	2887
820.184	2906
820.324	2891
820.465	3009
820.605	3028
820.746	2986
820.886	2925
821.026	3085
821.167	3146
821.307	3249
821.447	3264
821.588	3260
821.728	3180
821.868	3192
822.008	3062
822.149	3169
822.289	3237
822.429	3074
822.569	3108
822.709	3169
822.849	3020
822.99	3066
823.13	3180
823.27	3211
823.41	3093
823.55	3138
823.69	3154
823.83	3188
823.97	3104
824.11	2990
824.25	3020
824.389	3051
824.529	3116
824.669	3028
824.809	3218
824.949	3214
825.089	3188
825.228	3165
825.368	2994
825.508	2960
825.648	3005
825.787	2990
825.927	3028
826.067	2960
826.206	2967
826.346	3017
826.485	3051
826.625	3116
826.765	3291
826.904	3214
827.044	3001
827.183	2906
827.323	2857
827.462	2998
827.601	2948
827.741	2941
827.88	2960
828.02	2891
828.159	3013
828.298	3043
828.437	3127
828.577	3058
828.716	3237
828.855	3119
828.994	2918
829.134	2887
829.273	2922
829.412	2925
829.551	2914
829.69	2906
829.829	2998
829.968	3142
830.107	3047
830.246	3024
830.385	2922
830.524	2891
830.663	2842
830.802	2754
830.941	2678
831.08	2689
831.219	2788
831.357	2785
831.496	2982
831.635	2762
831.774	2724
831.913	2697
832.051	2598
832.19	2590
832.329	2727
832.467	2545
832.606	2507
832.744	2640
832.883	2663
833.022	2613
833.16	2659
833.299	2739
833.437	2724
833.576	2758
833.714	2754
833.852	2773
833.991	2804
834.129	2872
834.267	2864
834.406	2834
834.544	2902
834.682	2929
834.821	2952
834.959	3135
835.097	2948
835.235	3119
835.373	3032
835.511	3074
835.65	3013
835.788	2975
835.926	2845
836.064	2864
836.202	2857
836.34	3127
836.478	3218
836.615	3097
836.753	3214
836.891	3192
837.029	3169
837.167	3165
837.305	3131
837.443	3051
837.58	2990
837.718	3184
837.856	3116
837.993	3077
838.131	3176
838.269	3161
838.406	3154
838.544	3157
838.681	2960
838.819	2933
838.956	2872
839.094	2864
839.231	2956
839.369	3081
839.506	3412
839.643	3264
839.781	3047
839.918	2963
840.055	3062
840.193	3055
840.33	3100
840.467	3112
840.604	3195
840.742	3450
840.879	3089
841.016	3123
841.153	3119
841.29	3370
841.427	3302
841.564	3283
841.701	3325
841.838	3237
841.975	3184
842.112	3241
842.249	3131
842.385	3024
842.522	3264
842.659	3138
842.796	3104
842.933	3127
843.069	3093
843.206	3081
843.343	3207
843.479	3127
843.616	3161
843.752	2937
843.889	2906
844.025	3104
844.162	2922
844.298	3108
844.435	2982
844.571	2960
844.708	3135
844.844	3184
844.98	3310
845.117	3192
845.253	3081
845.389	3032
845.525	3146
845.661	3127
845.798	3070
845.934	3169
846.07	3062
846.206	3237
846.342	3325
846.478	3241
846.614	3112
846.75	3089
846.886	3036
847.022	3268
847.158	3142
847.294	3222
847.429	3272
847.565	3249
847.701	3507
847.837	3077
847.972	3036
848.108	3195
848.244	3188
848.379	3047
848.515	2941
848.65	2982
848.786	2979
848.921	3020
849.057	3135
849.192	3173
849.328	3097
849.463	3146
849.598	3089
849.734	3055
849.869	3036
850.004	2960
850.14	2990
850.275	2929
850.41	2868
850.545	2895
850.68	2967
850.815	2952
850.95	2998
851.085	3218
851.22	3138
851.355	3047
851.49	3013
851.625	3020
851.76	2994
851.895	2952
852.03	2933
852.165	3077
852.299	3157
852.434	3230
852.569	3157
852.703	3199
852.838	3264
852.973	3397
853.107	3378
853.242	3131
853.376	3097
853.511	3005
853.645	3070
853.78	3207
853.914	3138
854.048	3116
854.183	3138
854.317	3169
854.451	3321
854.585	3089
854.72	3127
854.854	3253
854.988	3070
855.122	3104
855.256	2998
855.39	3161
855.524	3241
855.658	3222
855.792	3161
855.926	3222
856.06	3283
856.194	3302
856.327	3211
856.461	3089
856.595	3077
856.729	3104
856.862	3207
856.996	3192
857.13	3230
857.263	3268
857.397	3279
857.53	3169
857.664	3192
857.797	3279
857.931	3291
858.064	3188
858.197	3260
858.331	3157
858.464	3142
858.597	3005
858.731	3150
858.864	3161
858.997	3077
859.13	3203
859.263	3207
859.396	3218
859.529	3146
859.662	3100
859.795	3070
859.928	3154
860.061	3268
860.194	3291
860.327	3131
860.46	3081
860.592	3264
860.725	3272
860.858	3291
860.99	3150
861.123	3074
861.256	3081
861.388	3161
861.521	3861
861.653	3017
861.786	3032
861.918	2998
862.05	3100
862.183	3112
862.315	3192
862.447	3256
862.58	3119
862.712	2990
862.844	2895
862.976	3051
863.108	3051
863.24	3477
863.372	2902
863.504	3017
863.636	2982
863.768	3089
863.9	3005
864.032	2971
864.164	2994
864.296	3062
864.428	3089
864.559	3093
864.691	3108
864.823	3055
864.954	3051
865.086	3108
865.217	3036
865.349	2967
865.48	2998
865.612	3062
865.743	3169
865.875	3020
866.006	2944
866.137	3001
866.269	2922
866.4	2982
866.531	2971
866.662	2918
866.793	2914
866.924	2899
867.055	2994
867.186	2937
867.317	2910
867.448	2864
867.579	2906
867.71	2876
867.841	2838
867.972	2975
868.103	2914
868.233	2880
868.364	2925
868.495	2948
868.625	3119
868.756	3195
868.886	2963
869.017	3028
869.147	3161
869.278	3211
869.408	3089
869.539	3013
869.669	3108
869.799	3058
869.929	3142
870.06	3184
870.19	3370
870.32	3306
870.45	3332
870.58	3378
870.71	3515
870.84	3466
870.97	3302
871.1	3283
871.23	3477
871.36	3515
871.489	3355
871.619	3428
871.749	3450
871.879	3458
872.008	3515
872.138	3389
872.267	3355
872.397	3176
872.526	3138
872.656	3036
872.785	3150
872.915	3237
873.044	3332
873.173	3237
873.303	3272
873.432	3214
873.561	3287
873.69	3195
873.819	3138
873.948	3226
874.077	3150
874.206	3039
874.335	3097
874.464	3233
874.593	3310
874.722	3279
874.851	3367
874.979	3367
875.108	3332
875.237	3176
875.365	3188
875.494	3150
875.623	3279
875.751	3062
875.88	3104
876.008	3222
876.136	3230
876.265	3359
876.393	3553
876.521	3443
876.65	3428
876.778	3332
876.906	3260
877.034	3199
877.162	3264
877.29	3214
877.418	3245
877.546	3241
877.674	3249
877.802	3268
877.93	3222
878.058	3188
878.185	3112
878.313	3218
878.441	3237
878.568	3108
878.696	3226
878.824	3245
878.951	3332
879.079	3492
879.206	3625
879.333	3450
879.461	3340
879.588	3374
879.715	3511
879.842	3587
879.97	3386
880.097	3173
880.224	3116
880.351	3195
880.478	3245
880.605	3226
880.732	3211
880.859	3538
880.986	3321
881.112	3332
881.239	3195
881.366	3119
881.493	3047
881.619	3047
881.746	3112
881.872	3081
881.999	3089
882.125	3165
882.252	3260
882.378	3287
882.505	3450
882.631	3264
882.757	3184
882.883	3233
883.01	3253
883.136	3146
883.262	3123
883.388	3131
883.514	3340
883.64	3393
883.766	3355
883.892	3233
884.018	3241
884.143	3412
884.269	3568
884.395	3241
884.52	3169
884.646	3214
884.772	3138
884.897	3100
885.023	3195
885.148	3344
885.274	3431
885.399	3359
885.524	3317
885.65	3264
885.775	3298
885.9	3306
886.025	3477
886.15	3359
886.275	3249
886.4	3214
886.525	3325
886.65	3310
886.775	3306
886.9	3523
887.025	3656
887.149	3420
887.274	3275
887.399	3245
887.523	3241
887.648	3169
887.773	3203
887.897	3393
888.021	3424
888.146	3359
888.27	3443
888.395	3523
888.519	3439
888.643	3469
888.767	3485
888.891	3310
889.015	3283
889.139	3291
889.263	3291
889.387	3439
889.511	3515
889.635	3500
889.759	3272
889.883	3332
890.006	3435
890.13	3523
890.254	3294
890.377	3386
890.501	3233
890.624	3222
890.748	3306
890.871	3199
890.995	3116
891.118	3097
891.241	3230
891.364	3222
891.488	3313
891.611	3199
891.734	3233
891.857	3279
891.98	3272
892.103	3355
892.226	3306
892.349	3245
892.471	3108
892.594	3249
892.717	3264
892.839	3272
892.962	3302
893.085	3370
893.207	3336
893.33	3176
893.452	3180
893.575	3344
893.697	3249
893.819	3511
893.941	3511
894.064	3462
894.186	3294
894.308	3279
894.43	3450
894.552	3526
894.674	3496
894.796	3279
894.918	3279
895.04	3317
895.161	3431
895.283	3397
895.405	3298
895.526	3367
895.648	3458
895.769	3431
895.891	3477
896.012	3488
896.134	3481
896.255	3447
896.376	3405
896.498	3363
896.619	3428
896.74	3370
896.861	3431
896.982	3686
897.103	3835
897.224	3603
897.345	3530
897.466	3409
897.587	3488
897.708	3656
897.828	3557
897.949	3473
898.07	3359
898.19	3393
898.311	3564
898.431	3454
898.552	3496
898.672	3656
898.792	3557
898.913	3564
899.033	3389
899.153	3310
899.273	3241
899.393	3310
899.513	3291
899.633	3321
899.753	3367
899.873	3321
899.993	3393
900.113	3340
900.232	3416
900.352	3348
900.472	3313
900.591	3188
900.711	3268
900.83	3237
900.95	3416
901.069	3526
901.189	3355
901.308	3207
901.427	3127
901.546	3195
901.665	3298
901.784	3359
901.904	3230
902.023	3142
902.141	3005
902.26	2998
902.379	3150
902.498	3055
902.617	3062
902.735	3230
902.854	3249
902.973	3176
903.091	3089
903.21	3085
903.328	3165
903.446	3039
903.565	3093
903.683	3203
903.801	3077
903.919	3283
904.038	3272
904.156	3214
904.274	3325
904.392	3275
904.51	3317
904.627	3363
904.745	3462
904.863	3473
904.981	3272
905.098	3188
905.216	3218
905.334	3268
905.451	3287
905.569	3313
905.686	3469
905.803	3458
905.921	3237
906.038	3428
906.155	3359
906.272	3264
906.389	3310
906.506	3245
906.623	3287
906.74	3268
906.857	3192
906.974	3260
907.091	3443
907.208	3564
907.324	3504
907.441	3382
907.557	3237
907.674	3207
907.79	3253
907.907	3264
908.023	3378
908.139	3405
908.256	3332
908.372	3378
908.488	3348
908.604	3253
908.72	3268
908.836	3241
908.952	3222
909.068	3298
909.184	3485
909.3	3428
909.415	3477
909.531	3454
909.647	3294
909.762	3313
909.878	3275
909.993	3355
910.108	3340
910.224	3393
910.339	3409
910.454	3355
910.57	3283
910.685	3233
910.8	3587
910.915	3587
911.03	3431
911.145	3260
911.259	3321
911.374	3302
911.489	3287
911.604	3207
911.718	3138
911.833	3161
911.947	3043
912.062	2963
912.176	3161
912.291	3180
912.405	3222
912.519	3469
912.633	3488
912.748	3332
912.862	3241
912.976	3195
913.09	3051
913.204	3131
913.318	3226
913.431	3310
913.545	3329
913.659	3416
913.772	3325
913.886	3275
914	3207
914.113	3397
914.226	3439
914.34	3370
914.453	3211
914.566	3382
914.68	3260
914.793	3329
914.906	3146
915.019	3104
915.132	3085
915.245	3176
915.358	3230
915.47	3211
915.583	3283
915.696	3287
915.809	3386
915.921	3428
916.034	3275
916.146	3287
916.259	3245
916.371	3355
916.483	3374
916.595	3264
916.708	3355
916.82	3344
916.932	3321
917.044	3351
917.156	3336
917.268	3253
917.38	3294
917.491	3291
917.603	3321
917.715	3458
917.826	3454
917.938	3378
918.049	3241
918.161	3401
918.272	3568
918.384	3564
918.495	3485
918.606	3344
918.717	3283
918.828	3428
918.939	3424
919.05	3325
919.161	3374
919.272	3199
919.383	3302
919.494	3507
919.604	3675
919.715	3511
919.826	3405
919.936	3458
920.047	3591
920.157	3564
920.267	3827
920.378	3603
920.488	3557
920.598	3751
920.708	3968
920.818	3838
920.928	3816
921.038	4032
921.148	3949
921.258	3728
921.368	3644
921.477	3534
921.587	3538
921.697	3492
921.806	3618
921.916	3534
922.025	3367
922.134	3382
922.244	3298
922.353	3416
922.462	3275
922.571	3199
922.68	3058
922.789	3081
922.898	3154
923.007	3127
923.116	3214
923.224	3150
923.333	3199
923.442	3119
923.55	3074
923.659	3154
923.767	3150
923.876	3135
923.984	3253
924.092	3108
924.201	3173
924.309	3203
924.417	3230
924.525	3195
924.633	3275
924.741	4139
924.849	3051
924.956	3245
925.064	3119
925.172	3036
925.279	3081
925.387	3192
925.494	3218
925.602	3351
925.709	3336
925.816	3188
925.924	3283
926.031	3389
926.138	3351
926.245	3348
926.352	3272
926.459	3428
926.566	3447
926.673	3344
926.779	3253
926.886	3256
926.993	3161
927.099	3138
927.206	3146
927.312	3112
927.419	3214
927.525	3180
927.631	3283
927.737	3169
927.843	3089
927.95	3013
928.056	3165
928.162	3157
928.267	3230
928.373	3876
928.479	3332
928.585	3108
928.69	3218
928.796	3249
928.901	3173
929.007	3032
929.112	3184
929.218	3169
929.323	3112
929.428	3146
929.533	3355
929.638	3138
929.743	3165
929.848	3222
929.953	3195
930.058	3154
930.163	3017
930.267	3051
930.372	3222
930.477	3005
930.581	3306
930.685	3165
930.79	3051
930.894	3104
930.998	3085
931.103	3256
931.207	2941
931.311	2937
931.415	2948
931.519	2754
931.623	2777
