Data from test_V78500241_263.txt Node
Date: Fri Mar 25 16:17:01 CST 2022
User: usil
Spectrometer: V785-0024
Trigger mode: 0
Integration Time (sec): 4.000000E-1
Scans to average: 1
Nonlinearity correction enabled: false
Boxcar width: 0
Storing dark spectrum: false
XAxis mode: Wavelengths
Number of Pixels in Spectrum: 1024
>>>>>Begin Spectral Data<<<<<
801.071	2925
801.214	2956
801.356	2883
801.499	2914
801.641	2876
801.783	2937
801.926	3051
802.068	2986
802.211	2944
802.353	3020
802.496	2960
802.638	2979
802.78	3024
802.923	3062
803.065	2967
803.208	2899
803.35	2948
803.492	2963
803.635	2952
803.777	2785
803.919	2849
804.061	3226
804.204	2990
804.346	2891
804.488	2857
804.63	2971
804.773	2880
804.915	2902
805.057	3047
805.199	2967
805.341	2952
805.483	3074
805.626	2952
805.768	2971
805.91	3074
806.052	3085
806.194	3017
806.336	3230
806.478	3009
806.62	2975
806.762	2956
806.904	3066
807.046	3169
807.188	2990
807.33	2914
807.472	2994
807.614	2944
807.756	2982
807.898	2925
808.04	2906
808.182	2979
808.324	2922
808.465	2872
808.607	2872
808.749	2781
808.891	2861
809.033	2979
809.174	2963
809.316	2933
809.458	2899
809.6	2758
809.741	2777
809.883	2792
810.025	2857
810.166	2838
810.308	2857
810.45	2872
810.591	2777
810.733	2785
810.875	2834
811.016	2777
811.158	2762
811.299	2807
811.441	2922
811.582	2872
811.724	2826
811.865	2826
812.007	2910
812.148	2857
812.29	2842
812.431	2914
812.573	2899
812.714	2941
812.855	3055
812.997	3070
813.138	3127
813.279	3047
813.421	2971
813.562	2910
813.703	2899
813.845	2883
813.986	2766
814.127	2731
814.268	2826
814.41	2853
814.551	2807
814.692	2868
814.833	2842
814.974	2914
815.115	2933
815.256	2861
815.397	2826
815.539	2868
815.68	2777
815.821	2796
815.962	2967
816.103	2922
816.244	2872
816.385	2868
816.526	2998
816.666	2914
816.807	2762
816.948	2872
817.089	2883
817.23	2857
817.371	2800
817.512	2796
817.653	2830
817.793	2849
817.934	2880
818.075	2994
818.216	2994
818.356	3024
818.497	2880
818.638	2796
818.778	2823
818.919	2792
819.06	2781
819.2	2883
819.341	2792
819.481	2781
819.622	2914
819.762	3100
819.903	3032
820.043	2906
820.184	2883
820.324	2910
820.465	3005
820.605	2994
820.746	3043
820.886	2929
821.026	3108
821.167	3161
821.307	3256
821.447	3302
821.588	3253
821.728	3188
821.868	3176
822.008	3085
822.149	3203
822.289	3207
822.429	3081
822.569	3093
822.709	3218
822.849	3058
822.99	3066
823.13	3154
823.27	3207
823.41	3131
823.55	3154
823.69	3123
823.83	3188
823.97	3093
824.11	2986
824.25	2979
824.389	3032
824.529	3131
824.669	3055
824.809	3176
824.949	3256
825.089	3241
825.228	3176
825.368	2975
825.508	2971
825.648	2990
825.787	3017
825.927	3001
826.067	2925
826.206	3005
826.346	3032
826.485	3089
826.625	3169
826.765	3287
826.904	3203
827.044	2982
827.183	2960
827.323	2891
827.462	2967
827.601	2933
827.741	2937
827.88	2944
828.02	2872
828.159	2979
828.298	3055
828.437	3089
828.577	3032
828.716	3211
828.855	3051
828.994	2922
829.134	2876
829.273	2929
829.412	2883
829.551	2868
829.69	2849
829.829	2998
829.968	3119
830.107	3024
830.246	3055
830.385	2948
830.524	2864
830.663	2845
830.802	2746
830.941	2636
831.08	2651
831.219	2754
831.357	2773
831.496	2925
831.635	2705
831.774	2617
831.913	2651
832.051	2537
832.19	2549
832.329	2670
832.467	2549
832.606	2465
832.744	2587
832.883	2571
833.022	2552
833.16	2663
833.299	2712
833.437	2670
833.576	2674
833.714	2743
833.852	2727
833.991	2762
834.129	2830
834.267	2807
834.406	2785
834.544	2845
834.682	2880
834.821	2868
834.959	3028
835.097	2868
835.235	3089
835.373	3001
835.511	3024
835.65	2967
835.788	2971
835.926	2830
836.064	2811
836.202	2830
836.34	3119
836.478	3138
836.615	3070
836.753	3089
836.891	3184
837.029	3150
837.167	3123
837.305	3104
837.443	3028
837.58	2956
837.718	3123
837.856	3055
837.993	3020
838.131	3123
838.269	3127
838.406	3112
838.544	3051
838.681	2933
838.819	2929
838.956	2845
839.094	2864
839.231	2864
839.369	2998
839.506	3336
839.643	3218
839.781	3024
839.918	2963
840.055	3070
840.193	3005
840.33	3070
840.467	3089
840.604	3161
840.742	3393
840.879	3066
841.016	3039
841.153	3100
841.29	3351
841.427	3313
841.564	3249
841.701	3313
841.838	3207
841.975	3161
842.112	3195
842.249	3074
842.385	3047
842.522	3268
842.659	3066
842.796	3028
842.933	3104
843.069	3039
843.206	3009
843.343	3192
843.479	3081
843.616	3100
843.752	2872
843.889	2864
844.025	3055
844.162	2861
844.298	3081
844.435	2956
844.571	2899
844.708	3085
844.844	3222
844.98	3237
845.117	3180
845.253	3055
845.389	2994
845.525	3081
845.661	3074
845.798	3032
845.934	3131
846.07	3013
846.206	3188
846.342	3340
846.478	3241
846.614	3077
846.75	3051
846.886	3020
847.022	3245
847.158	3157
847.294	3211
847.429	3245
847.565	3195
847.701	3462
847.837	3039
847.972	2986
848.108	3123
848.244	3127
848.379	3017
848.515	2933
848.65	2906
848.786	2956
848.921	3036
849.057	3127
849.192	3135
849.328	3043
849.463	3116
849.598	3047
849.734	3062
849.869	2941
850.004	2906
850.14	2956
850.275	2933
850.41	2845
850.545	2883
850.68	2925
850.815	2971
850.95	2967
851.085	3184
851.22	3112
851.355	3032
851.49	3020
851.625	3005
851.76	2998
851.895	2960
852.03	2910
852.165	3039
852.299	3127
852.434	3222
852.569	3138
852.703	3180
852.838	3264
852.973	3291
853.107	3291
853.242	3146
853.376	3093
853.511	2994
853.645	3051
853.78	3211
853.914	3116
854.048	3104
854.183	3097
854.317	3100
854.451	3279
854.585	3123
854.72	3119
854.854	3230
854.988	3055
855.122	3028
855.256	2994
855.39	3157
855.524	3241
855.658	3180
855.792	3161
855.926	3192
856.06	3237
856.194	3214
856.327	3169
856.461	3077
856.595	3081
856.729	3070
856.862	3222
856.996	3192
857.13	3214
857.263	3245
857.397	3272
857.53	3116
857.664	3192
857.797	3188
857.931	3264
858.064	3142
858.197	3207
858.331	3081
858.464	3077
858.597	2994
858.731	3116
858.864	3127
858.997	3051
859.13	3157
859.263	3146
859.396	3241
859.529	3074
859.662	3062
859.795	3028
859.928	3131
860.061	3253
860.194	3298
860.327	3097
860.46	3100
860.592	3249
860.725	3237
860.858	3230
860.99	3089
861.123	3058
861.256	3066
861.388	3157
861.521	3899
861.653	3024
861.786	2982
861.918	2963
862.05	3062
862.183	3085
862.315	3169
862.447	3211
862.58	3089
862.712	2937
862.844	2883
862.976	3066
863.108	3005
863.24	3294
863.372	2887
863.504	2967
863.636	2929
863.768	2990
863.9	2998
864.032	2895
864.164	2937
864.296	3028
864.428	3089
864.559	3097
864.691	3081
864.823	3070
864.954	3017
865.086	3074
865.217	2979
865.349	2906
865.48	2975
865.612	3005
865.743	3142
865.875	2998
866.006	2948
866.137	2979
866.269	2941
866.4	2941
866.531	2910
866.662	2864
866.793	2891
866.924	2929
867.055	2933
867.186	2956
867.317	2887
867.448	2830
867.579	2849
867.71	2861
867.841	2823
867.972	2891
868.103	2925
868.233	2872
868.364	2876
868.495	2891
868.625	3077
868.756	3142
868.886	2960
869.017	3009
869.147	3142
869.278	3157
869.408	3081
869.539	3020
869.669	3138
869.799	3039
869.929	3119
870.06	3100
870.19	3306
870.32	3302
870.45	3302
870.58	3401
870.71	3416
870.84	3469
870.97	3275
871.1	3249
871.23	3473
871.36	3466
871.489	3359
871.619	3412
871.749	3435
871.879	3447
872.008	3485
872.138	3321
872.267	3275
872.397	3150
872.526	3093
872.656	2979
872.785	3093
872.915	3253
873.044	3310
873.173	3207
873.303	3222
873.432	3214
873.561	3253
873.69	3184
873.819	3176
873.948	3233
874.077	3089
874.206	3051
874.335	3077
874.464	3195
874.593	3359
874.722	3249
874.851	3405
874.979	3348
875.108	3332
875.237	3165
875.365	3123
875.494	3138
875.623	3226
875.751	3093
875.88	3150
876.008	3180
876.136	3237
876.265	3367
876.393	3454
876.521	3386
876.65	3412
876.778	3351
876.906	3253
877.034	3222
877.162	3230
877.29	3176
877.418	3241
877.546	3260
877.674	3237
877.802	3256
877.93	3256
878.058	3135
878.185	3119
878.313	3207
878.441	3173
878.568	3077
878.696	3131
878.824	3230
878.951	3298
879.079	3397
879.206	3603
879.333	3443
879.461	3329
879.588	3348
879.715	3519
879.842	3606
879.97	3389
880.097	3173
880.224	3093
880.351	3180
880.478	3195
880.605	3211
880.732	3199
880.859	3481
880.986	3313
881.112	3279
881.239	3188
881.366	3104
881.493	3047
881.619	3039
881.746	3020
881.872	3058
881.999	3119
882.125	3165
882.252	3237
882.378	3298
882.505	3412
882.631	3275
882.757	3142
882.883	3203
883.01	3249
883.136	3165
883.262	3116
883.388	3112
883.514	3310
883.64	3370
883.766	3298
883.892	3173
884.018	3207
884.143	3439
884.269	3549
884.395	3184
884.52	3188
884.646	3150
884.772	3097
884.897	3119
885.023	3176
885.148	3306
885.274	3431
885.399	3336
885.524	3268
885.65	3214
885.775	3336
885.9	3291
886.025	3435
886.15	3378
886.275	3298
886.4	3245
886.525	3325
886.65	3226
886.775	3268
886.9	3496
887.025	3599
887.149	3412
887.274	3249
887.399	3188
887.523	3237
887.648	3146
887.773	3180
887.897	3355
888.021	3435
888.146	3256
888.27	3431
888.395	3523
888.519	3393
888.643	3466
888.767	3443
888.891	3321
889.015	3245
889.139	3283
889.263	3275
889.387	3401
889.511	3534
889.635	3447
889.759	3291
889.883	3294
890.006	3389
890.13	3447
890.254	3268
890.377	3306
890.501	3211
890.624	3150
890.748	3306
890.871	3173
890.995	3085
891.118	3081
891.241	3176
891.364	3218
891.488	3313
891.611	3192
891.734	3195
891.857	3241
891.98	3245
892.103	3306
892.226	3313
892.349	3195
892.471	3142
892.594	3222
892.717	3279
892.839	3256
892.962	3283
893.085	3336
893.207	3256
893.33	3127
893.452	3199
893.575	3344
893.697	3226
893.819	3473
893.941	3496
894.064	3458
894.186	3218
894.308	3275
894.43	3428
894.552	3496
894.674	3488
894.796	3268
894.918	3340
895.04	3287
895.161	3454
895.283	3401
895.405	3298
895.526	3344
895.648	3447
895.769	3405
895.891	3488
896.012	3443
896.134	3496
896.255	3397
896.376	3405
896.498	3386
896.619	3416
896.74	3374
896.861	3443
896.982	3698
897.103	3888
897.224	3580
897.345	3614
897.466	3450
897.587	3534
897.708	3606
897.828	3576
897.949	3435
898.07	3321
898.19	3431
898.311	3610
898.431	3477
898.552	3481
898.672	3629
898.792	3614
898.913	3557
899.033	3450
899.153	3306
899.273	3241
899.393	3302
899.513	3348
899.633	3348
899.753	3405
899.873	3370
899.993	3428
900.113	3374
900.232	3447
900.352	3367
900.472	3332
900.591	3287
900.711	3317
900.83	3317
900.95	3469
901.069	3488
901.189	3386
901.308	3203
901.427	3165
901.546	3230
901.665	3340
901.784	3351
901.904	3245
902.023	3207
902.141	3074
902.26	3009
902.379	3180
902.498	3127
902.617	3112
902.735	3245
902.854	3298
902.973	3264
903.091	3047
903.21	3131
903.328	3169
903.446	3138
903.565	3135
903.683	3256
903.801	3165
903.919	3256
904.038	3355
904.156	3237
904.274	3393
904.392	3302
904.51	3351
904.627	3325
904.745	3488
904.863	3511
904.981	3302
905.098	3195
905.216	3268
905.334	3329
905.451	3378
905.569	3367
905.686	3469
905.803	3511
905.921	3294
906.038	3466
906.155	3412
906.272	3329
906.389	3409
906.506	3260
906.623	3310
906.74	3313
906.857	3203
906.974	3291
907.091	3469
907.208	3584
907.324	3473
907.441	3431
907.557	3287
907.674	3283
907.79	3237
907.907	3294
908.023	3428
908.139	3420
908.256	3397
908.372	3378
908.488	3378
908.604	3313
908.72	3264
908.836	3321
908.952	3363
909.068	3359
909.184	3523
909.3	3450
909.415	3549
909.531	3488
909.647	3294
909.762	3355
909.878	3325
909.993	3386
910.108	3401
910.224	3351
910.339	3443
910.454	3367
910.57	3332
910.685	3302
910.8	3641
910.915	3572
911.03	3477
911.145	3283
911.259	3302
911.374	3336
911.489	3306
911.604	3294
911.718	3157
911.833	3203
911.947	3104
912.062	3024
912.176	3169
912.291	3184
912.405	3268
912.519	3466
912.633	3523
912.748	3363
912.862	3313
912.976	3214
913.09	3085
913.204	3161
913.318	3230
913.431	3336
913.545	3397
913.659	3397
913.772	3386
913.886	3245
914	3253
914.113	3409
914.226	3443
914.34	3363
914.453	3218
914.566	3447
914.68	3317
914.793	3348
914.906	3184
915.019	3142
915.132	3089
915.245	3192
915.358	3245
915.47	3264
915.583	3291
915.696	3336
915.809	3515
915.921	3424
916.034	3291
916.146	3287
916.259	3253
916.371	3382
916.483	3431
916.595	3317
916.708	3363
916.82	3378
916.932	3416
917.044	3374
917.156	3378
917.268	3313
917.38	3332
917.491	3287
917.603	3412
917.715	3466
917.826	3488
917.938	3412
918.049	3264
918.161	3469
918.272	3572
918.384	3587
918.495	3538
918.606	3389
918.717	3313
918.828	3443
918.939	3443
919.05	3363
919.161	3374
919.272	3203
919.383	3325
919.494	3545
919.604	3740
919.715	3576
919.826	3424
919.936	3488
920.047	3614
920.157	3591
920.267	3766
920.378	3610
920.488	3625
920.598	3800
920.708	4017
920.818	3899
920.928	3842
921.038	4082
921.148	4036
921.258	3781
921.368	3641
921.477	3644
921.587	3599
921.697	3504
921.806	3675
921.916	3595
922.025	3416
922.134	3412
922.244	3340
922.353	3462
922.462	3325
922.571	3272
922.68	3154
922.789	3112
922.898	3176
923.007	3123
923.116	3256
923.224	3203
923.333	3222
923.442	3135
923.55	3116
923.659	3142
923.767	3214
923.876	3150
923.984	3272
924.092	3131
924.201	3211
924.309	3294
924.417	3294
924.525	3218
924.633	3283
924.741	4249
924.849	3058
924.956	3302
925.064	3161
925.172	3097
925.279	3112
925.387	3180
925.494	3233
925.602	3382
925.709	3348
925.816	3222
925.924	3355
926.031	3428
926.138	3393
926.245	3409
926.352	3298
926.459	3428
926.566	3485
926.673	3370
926.779	3249
926.886	3279
926.993	3188
927.099	3173
927.206	3135
927.312	3165
927.419	3245
927.525	3233
927.631	3340
927.737	3146
927.843	3138
927.95	3081
928.056	3161
928.162	3233
928.267	3298
928.373	3915
928.479	3325
928.585	3100
928.69	3241
928.796	3325
928.901	3199
929.007	3104
929.112	3268
929.218	3199
929.323	3184
929.428	3184
929.533	3355
929.638	3173
929.743	3218
929.848	3306
929.953	3226
930.058	3157
930.163	3024
930.267	3081
930.372	3195
930.477	3043
930.581	3321
930.685	3195
930.79	3085
930.894	3131
930.998	3085
931.103	3310
931.207	2998
931.311	2956
931.415	2937
931.519	2830
931.623	2845
