Data from test_V78500241_836.txt Node
Date: Fri Mar 25 16:20:59 CST 2022
User: usil
Spectrometer: V785-0024
Trigger mode: 0
Integration Time (sec): 4.000000E-1
Scans to average: 1
Nonlinearity correction enabled: false
Boxcar width: 0
Storing dark spectrum: false
XAxis mode: Wavelengths
Number of Pixels in Spectrum: 1024
>>>>>Begin Spectral Data<<<<<
801.071	2872
801.214	2929
801.356	2876
801.499	2918
801.641	2857
801.783	2922
801.926	3017
802.068	2944
802.211	2998
802.353	3005
802.496	2960
802.638	3009
802.78	3013
802.923	3058
803.065	3013
803.208	2887
803.35	2929
803.492	2902
803.635	2933
803.777	2758
803.919	2861
804.061	3131
804.204	2956
804.346	2891
804.488	2849
804.63	2990
804.773	2864
804.915	2910
805.057	3104
805.199	2906
805.341	2986
805.483	3036
805.626	2986
805.768	2948
805.91	3062
806.052	3112
806.194	2982
806.336	3245
806.478	3028
806.62	2937
806.762	2975
806.904	3058
807.046	3150
807.188	3001
807.33	2906
807.472	2982
807.614	2895
807.756	2982
807.898	2944
808.04	2925
808.182	2975
808.324	2952
808.465	2895
808.607	2880
808.749	2785
808.891	2861
809.033	2944
809.174	2944
809.316	2861
809.458	2883
809.6	2769
809.741	2773
809.883	2792
810.025	2861
810.166	2861
810.308	2849
810.45	2864
810.591	2773
810.733	2781
810.875	2838
811.016	2811
811.158	2743
811.299	2823
811.441	2883
811.582	2899
811.724	2788
811.865	2861
812.007	2922
812.148	2895
812.29	2834
812.431	2857
812.573	2979
812.714	2933
812.855	3032
812.997	3020
813.138	3119
813.279	2986
813.421	2963
813.562	2929
813.703	2861
813.845	2906
813.986	2792
814.127	2766
814.268	2781
814.41	2815
814.551	2796
814.692	2899
814.833	2830
814.974	2883
815.115	2944
815.256	2819
815.397	2823
815.539	2861
815.68	2762
815.821	2754
815.962	2948
816.103	2948
816.244	2849
816.385	2876
816.526	2979
816.666	2941
816.807	2731
816.948	2895
817.089	2895
817.23	2842
817.371	2796
817.512	2788
817.653	2838
817.793	2830
817.934	2853
818.075	2944
818.216	2975
818.356	3017
818.497	2880
818.638	2800
818.778	2792
818.919	2823
819.06	2762
819.2	2883
819.341	2815
819.481	2819
819.622	2910
819.762	3104
819.903	3051
820.043	2895
820.184	2914
820.324	2895
820.465	3005
820.605	3009
820.746	2990
820.886	2914
821.026	3104
821.167	3184
821.307	3230
821.447	3302
821.588	3207
821.728	3218
821.868	3169
822.008	3077
822.149	3184
822.289	3237
822.429	3074
822.569	3055
822.709	3180
822.849	3051
822.99	3089
823.13	3135
823.27	3188
823.41	3116
823.55	3180
823.69	3169
823.83	3203
823.97	3108
824.11	2994
824.25	2963
824.389	3051
824.529	3131
824.669	3058
824.809	3176
824.949	3249
825.089	3211
825.228	3127
825.368	2990
825.508	2925
825.648	2948
825.787	3020
825.927	3024
826.067	2956
826.206	2944
826.346	3047
826.485	3062
826.625	3104
826.765	3222
826.904	3207
827.044	2982
827.183	2941
827.323	2849
827.462	2963
827.601	2880
827.741	2895
827.88	2937
828.02	2830
828.159	2960
828.298	3032
828.437	3062
828.577	3032
828.716	3226
828.855	3108
828.994	2902
829.134	2857
829.273	2933
829.412	2872
829.551	2861
829.69	2891
829.829	2967
829.968	3123
830.107	3020
830.246	3024
830.385	2929
830.524	2861
830.663	2769
830.802	2758
830.941	2621
831.08	2617
831.219	2746
831.357	2777
831.496	2929
831.635	2750
831.774	2655
831.913	2674
832.051	2495
832.19	2556
832.329	2708
832.467	2499
832.606	2480
832.744	2552
832.883	2571
833.022	2590
833.16	2613
833.299	2682
833.437	2686
833.576	2682
833.714	2743
833.852	2766
833.991	2766
834.129	2834
834.267	2796
834.406	2800
834.544	2800
834.682	2849
834.821	2868
834.959	3047
835.097	2891
835.235	3058
835.373	2990
835.511	2979
835.65	2944
835.788	2895
835.926	2857
836.064	2811
836.202	2857
836.34	3123
836.478	3131
836.615	3043
836.753	3127
836.891	3169
837.029	3161
837.167	3112
837.305	3070
837.443	3036
837.58	2944
837.718	3055
837.856	3062
837.993	2990
838.131	3135
838.269	3138
838.406	3074
838.544	3028
838.681	2918
838.819	2906
838.956	2804
839.094	2807
839.231	2906
839.369	3005
839.506	3382
839.643	3199
839.781	2994
839.918	2986
840.055	3013
840.193	3039
840.33	3062
840.467	3081
840.604	3131
840.742	3409
840.879	3024
841.016	3066
841.153	3112
841.29	3351
841.427	3256
841.564	3237
841.701	3306
841.838	3214
841.975	3157
842.112	3195
842.249	3077
842.385	3036
842.522	3245
842.659	3055
842.796	3020
842.933	3097
843.069	3017
843.206	3009
843.343	3199
843.479	3104
843.616	3161
843.752	2910
843.889	2815
844.025	3028
844.162	2864
844.298	3108
844.435	2929
844.571	2910
844.708	3051
844.844	3161
844.98	3226
845.117	3165
845.253	3055
845.389	3028
845.525	3077
845.661	3077
845.798	3020
845.934	3138
846.07	3047
846.206	3211
846.342	3264
846.478	3253
846.614	3085
846.75	3055
846.886	2986
847.022	3207
847.158	3104
847.294	3154
847.429	3260
847.565	3226
847.701	3439
847.837	3055
847.972	2986
848.108	3173
848.244	3116
848.379	2986
848.515	2933
848.65	2937
848.786	2971
848.921	2990
849.057	3104
849.192	3116
849.328	3032
849.463	3097
849.598	3081
849.734	3017
849.869	2960
850.004	2929
850.14	2982
850.275	2918
850.41	2861
850.545	2899
850.68	2918
850.815	2937
850.95	2944
851.085	3161
851.22	3066
851.355	2994
851.49	2948
851.625	3001
851.76	3009
851.895	2941
852.03	2868
852.165	3013
852.299	3085
852.434	3207
852.569	3116
852.703	3146
852.838	3211
852.973	3336
853.107	3332
853.242	3077
853.376	3085
853.511	2956
853.645	3028
853.78	3203
853.914	3104
854.048	3138
854.183	3058
854.317	3135
854.451	3264
854.585	3116
854.72	3062
854.854	3184
854.988	3051
855.122	3077
855.256	2960
855.39	3062
855.524	3249
855.658	3161
855.792	3142
855.926	3169
856.06	3249
856.194	3249
856.327	3104
856.461	3093
856.595	3036
856.729	3119
856.862	3184
856.996	3154
857.13	3173
857.263	3211
857.397	3283
857.53	3119
857.664	3154
857.797	3249
857.931	3214
858.064	3142
858.197	3233
858.331	3100
858.464	3062
858.597	3001
858.731	3135
858.864	3104
858.997	3074
859.13	3119
859.263	3112
859.396	3207
859.529	3066
859.662	3055
859.795	3043
859.928	3138
860.061	3218
860.194	3310
860.327	3135
860.46	3062
860.592	3188
860.725	3184
860.858	3237
860.99	3074
861.123	3013
861.256	3051
861.388	3165
861.521	3888
861.653	3009
861.786	2998
861.918	3005
862.05	3062
862.183	3062
862.315	3119
862.447	3150
862.58	3085
862.712	2929
862.844	2857
862.976	3036
863.108	3028
863.24	3302
863.372	2845
863.504	2956
863.636	2933
863.768	3009
863.9	2963
864.032	2902
864.164	2880
864.296	2986
864.428	3055
864.559	3104
864.691	3024
864.823	3051
864.954	3009
865.086	3005
865.217	2963
865.349	2963
865.48	2963
865.612	3058
865.743	3127
865.875	2975
866.006	2937
866.137	3013
866.269	2952
866.4	2933
866.531	2857
866.662	2918
866.793	2826
866.924	2910
867.055	2982
867.186	2960
867.317	2899
867.448	2830
867.579	2830
867.71	2819
867.841	2792
867.972	2906
868.103	2880
868.233	2880
868.364	2880
868.495	2864
868.625	3039
868.756	3188
868.886	2967
869.017	3036
869.147	3146
869.278	3165
869.408	3017
869.539	3005
869.669	3089
869.799	2994
869.929	3146
870.06	3097
870.19	3313
870.32	3279
870.45	3310
870.58	3344
870.71	3439
870.84	3439
870.97	3253
871.1	3233
871.23	3485
871.36	3431
871.489	3351
871.619	3420
871.749	3370
871.879	3454
872.008	3416
872.138	3340
872.267	3264
872.397	3135
872.526	3108
872.656	2998
872.785	3104
872.915	3207
873.044	3287
873.173	3211
873.303	3218
873.432	3237
873.561	3222
873.69	3176
873.819	3112
873.948	3207
874.077	3097
874.206	2990
874.335	3043
874.464	3211
874.593	3340
874.722	3241
874.851	3363
874.979	3302
875.108	3306
875.237	3161
875.365	3176
875.494	3154
875.623	3214
875.751	3085
875.88	3108
876.008	3211
876.136	3233
876.265	3348
876.393	3507
876.521	3428
876.65	3401
876.778	3325
876.906	3245
877.034	3195
877.162	3207
877.29	3173
877.418	3218
877.546	3241
877.674	3230
877.802	3214
877.93	3226
878.058	3123
878.185	3127
878.313	3203
878.441	3188
878.568	3043
878.696	3123
878.824	3226
878.951	3279
879.079	3401
879.206	3656
879.333	3424
879.461	3344
879.588	3378
879.715	3481
879.842	3599
879.97	3389
880.097	3180
880.224	3119
880.351	3203
880.478	3230
880.605	3173
880.732	3218
880.859	3526
880.986	3298
881.112	3332
881.239	3211
881.366	3100
881.493	3104
881.619	3013
881.746	3123
881.872	3119
881.999	3085
882.125	3199
882.252	3249
882.378	3275
882.505	3450
882.631	3272
882.757	3157
882.883	3214
883.01	3256
883.136	3214
883.262	3165
883.388	3161
883.514	3367
883.64	3450
883.766	3332
883.892	3233
884.018	3306
884.143	3477
884.269	3530
884.395	3253
884.52	3173
884.646	3233
884.772	3135
884.897	3123
885.023	3272
885.148	3370
885.274	3458
885.399	3374
885.524	3351
885.65	3317
885.775	3367
885.9	3302
886.025	3443
886.15	3439
886.275	3351
886.4	3260
886.525	3329
886.65	3306
886.775	3340
886.9	3507
887.025	3713
887.149	3477
887.274	3291
887.399	3230
887.523	3256
887.648	3203
887.773	3230
887.897	3386
888.021	3435
888.146	3306
888.27	3481
888.395	3576
888.519	3447
888.643	3481
888.767	3500
888.891	3393
889.015	3287
889.139	3313
889.263	3298
889.387	3416
889.511	3587
889.635	3473
889.759	3294
889.883	3340
890.006	3435
890.13	3557
890.254	3321
890.377	3348
890.501	3245
890.624	3195
890.748	3348
890.871	3184
890.995	3142
891.118	3123
891.241	3199
891.364	3237
891.488	3332
891.611	3218
891.734	3253
891.857	3351
891.98	3272
892.103	3374
892.226	3317
892.349	3233
892.471	3123
892.594	3272
892.717	3355
892.839	3279
892.962	3321
893.085	3412
893.207	3306
893.33	3176
893.452	3214
893.575	3412
893.697	3275
893.819	3504
893.941	3542
894.064	3496
894.186	3298
894.308	3302
894.43	3473
894.552	3561
894.674	3534
894.796	3310
894.918	3340
895.04	3336
895.161	3447
895.283	3431
895.405	3294
895.526	3386
895.648	3481
895.769	3458
895.891	3473
896.012	3515
896.134	3435
896.255	3435
896.376	3405
896.498	3374
896.619	3450
896.74	3332
896.861	3443
896.982	3713
897.103	3896
897.224	3622
897.345	3526
897.466	3473
897.587	3534
897.708	3652
897.828	3549
897.949	3485
898.07	3363
898.19	3447
898.311	3595
898.431	3500
898.552	3542
898.672	3614
898.792	3622
898.913	3530
899.033	3401
899.153	3325
899.273	3279
899.393	3302
899.513	3344
899.633	3355
899.753	3351
899.873	3370
899.993	3393
900.113	3359
900.232	3412
900.352	3409
900.472	3294
900.591	3237
900.711	3310
900.83	3268
900.95	3424
901.069	3515
901.189	3409
901.308	3192
901.427	3176
901.546	3199
901.665	3370
901.784	3363
901.904	3203
902.023	3161
902.141	3066
902.26	3005
902.379	3142
902.498	3112
902.617	3085
902.735	3218
902.854	3287
902.973	3192
903.091	3028
903.21	3077
903.328	3146
903.446	3142
903.565	3085
903.683	3195
903.801	3154
903.919	3348
904.038	3317
904.156	3146
904.274	3287
904.392	3264
904.51	3294
904.627	3370
904.745	3435
904.863	3530
904.981	3310
905.098	3214
905.216	3264
905.334	3321
905.451	3355
905.569	3367
905.686	3443
905.803	3443
905.921	3313
906.038	3458
906.155	3420
906.272	3332
906.389	3367
906.506	3245
906.623	3264
906.74	3298
906.857	3233
906.974	3294
907.091	3462
907.208	3561
907.324	3477
907.441	3397
907.557	3237
907.674	3256
907.79	3264
907.907	3329
908.023	3409
908.139	3363
908.256	3401
908.372	3374
908.488	3401
908.604	3298
908.72	3283
908.836	3306
908.952	3313
909.068	3325
909.184	3485
909.3	3420
909.415	3561
909.531	3526
909.647	3268
909.762	3321
909.878	3264
909.993	3397
910.108	3401
910.224	3370
910.339	3447
910.454	3355
910.57	3313
910.685	3287
910.8	3595
910.915	3553
911.03	3481
911.145	3287
911.259	3279
911.374	3336
911.489	3268
911.604	3272
911.718	3131
911.833	3199
911.947	3066
912.062	3017
912.176	3188
912.291	3218
912.405	3260
912.519	3481
912.633	3538
912.748	3374
912.862	3294
912.976	3199
913.09	3116
913.204	3192
913.318	3249
913.431	3393
913.545	3348
913.659	3416
913.772	3340
913.886	3279
914	3245
914.113	3378
914.226	3405
914.34	3370
914.453	3264
914.566	3397
914.68	3279
914.793	3317
914.906	3165
915.019	3150
915.132	3085
915.245	3199
915.358	3291
915.47	3253
915.583	3313
915.696	3310
915.809	3397
915.921	3424
916.034	3291
916.146	3272
916.259	3237
916.371	3378
916.483	3397
916.595	3317
916.708	3359
916.82	3351
916.932	3374
917.044	3382
917.156	3363
917.268	3291
917.38	3310
917.491	3340
917.603	3397
917.715	3454
917.826	3469
917.938	3424
918.049	3294
918.161	3447
918.272	3580
918.384	3618
918.495	3534
918.606	3393
918.717	3317
918.828	3386
918.939	3439
919.05	3336
919.161	3359
919.272	3241
919.383	3260
919.494	3538
919.604	3682
919.715	3519
919.826	3454
919.936	3469
920.047	3614
920.157	3587
920.267	3808
920.378	3656
920.488	3603
920.598	3812
920.708	3960
920.818	3880
920.928	3861
921.038	4082
921.148	4029
921.258	3724
921.368	3671
921.477	3614
921.587	3572
921.697	3500
921.806	3648
921.916	3519
922.025	3382
922.134	3359
922.244	3302
922.353	3420
922.462	3268
922.571	3233
922.68	3138
922.789	3077
922.898	3161
923.007	3135
923.116	3264
923.224	3199
923.333	3226
923.442	3131
923.55	3081
923.659	3138
923.767	3241
923.876	3173
923.984	3264
924.092	3142
924.201	3165
924.309	3260
924.417	3291
924.525	3226
924.633	3249
924.741	4059
924.849	3074
924.956	3272
925.064	3127
925.172	3074
925.279	3119
925.387	3233
925.494	3207
925.602	3382
925.709	3325
925.816	3214
925.924	3329
926.031	3374
926.138	3374
926.245	3382
926.352	3279
926.459	3443
926.566	3469
926.673	3321
926.779	3287
926.886	3245
926.993	3157
927.099	3146
927.206	3142
927.312	3127
927.419	3268
927.525	3245
927.631	3264
927.737	3180
927.843	3142
927.95	3032
928.056	3180
928.162	3192
928.267	3260
928.373	3751
928.479	3313
928.585	3058
928.69	3222
928.796	3268
928.901	3176
929.007	3081
929.112	3222
929.218	3169
929.323	3157
929.428	3165
929.533	3348
929.638	3138
929.743	3169
929.848	3287
929.953	3245
930.058	3154
930.163	3020
930.267	3066
930.372	3207
930.477	3020
930.581	3351
930.685	3161
930.79	3093
930.894	3112
930.998	3077
931.103	3298
931.207	2979
931.311	2960
931.415	2956
931.519	2785
931.623	2807
