Data from test_V78500241_671.txt Node
Date: Fri Mar 25 16:19:51 CST 2022
User: usil
Spectrometer: V785-0024
Trigger mode: 0
Integration Time (sec): 4.000000E-1
Scans to average: 1
Nonlinearity correction enabled: false
Boxcar width: 0
Storing dark spectrum: false
XAxis mode: Wavelengths
Number of Pixels in Spectrum: 1024
>>>>>Begin Spectral Data<<<<<
801.071	2902
801.214	2925
801.356	2830
801.499	2872
801.641	2906
801.783	2887
801.926	2998
802.068	2979
802.211	3013
802.353	3047
802.496	2952
802.638	3017
802.78	3036
802.923	3097
803.065	3005
803.208	2880
803.35	2944
803.492	2982
803.635	2902
803.777	2754
803.919	2842
804.061	3211
804.204	2963
804.346	2902
804.488	2826
804.63	2963
804.773	2906
804.915	2910
805.057	3081
805.199	2906
805.341	2967
805.483	2998
805.626	3017
805.768	2963
805.91	3055
806.052	3085
806.194	3024
806.336	3214
806.478	3005
806.62	2967
806.762	2967
806.904	3081
807.046	3169
807.188	2944
807.33	2902
807.472	3001
807.614	2933
807.756	2952
807.898	2922
808.04	2937
808.182	2971
808.324	2948
808.465	2902
808.607	2895
808.749	2788
808.891	2876
809.033	2994
809.174	2952
809.316	2887
809.458	2876
809.6	2788
809.741	2781
809.883	2750
810.025	2838
810.166	2842
810.308	2811
810.45	2857
810.591	2773
810.733	2754
810.875	2868
811.016	2758
811.158	2739
811.299	2819
811.441	2910
811.582	2922
811.724	2826
811.865	2807
812.007	2891
812.148	2838
812.29	2834
812.431	2895
812.573	2956
812.714	2944
812.855	3047
812.997	3070
813.138	3108
813.279	3020
813.421	2963
813.562	2933
813.703	2868
813.845	2883
813.986	2777
814.127	2724
814.268	2849
814.41	2872
814.551	2781
814.692	2845
814.833	2766
814.974	2872
815.115	2948
815.256	2853
815.397	2823
815.539	2872
815.68	2773
815.821	2796
815.962	2925
816.103	2929
816.244	2883
816.385	2845
816.526	2925
816.666	2933
816.807	2750
816.948	2876
817.089	2895
817.23	2823
817.371	2758
817.512	2800
817.653	2834
817.793	2838
817.934	2861
818.075	2963
818.216	2998
818.356	3032
818.497	2849
818.638	2800
818.778	2815
818.919	2807
819.06	2754
819.2	2891
819.341	2792
819.481	2815
819.622	2899
819.762	3112
819.903	3009
820.043	2880
820.184	2845
820.324	2895
820.465	3020
820.605	2975
820.746	3017
820.886	2941
821.026	3085
821.167	3161
821.307	3230
821.447	3260
821.588	3222
821.728	3192
821.868	3199
822.008	3043
822.149	3180
822.289	3211
822.429	3089
822.569	3131
822.709	3169
822.849	3039
822.99	3070
823.13	3123
823.27	3222
823.41	3112
823.55	3173
823.69	3142
823.83	3173
823.97	3085
824.11	2998
824.25	2963
824.389	3077
824.529	3085
824.669	3074
824.809	3184
824.949	3233
825.089	3203
825.228	3131
825.368	2990
825.508	2967
825.648	2990
825.787	2994
825.927	3024
826.067	2948
826.206	2982
826.346	3036
826.485	3108
826.625	3112
826.765	3260
826.904	3192
827.044	2956
827.183	2933
827.323	2876
827.462	2956
827.601	2941
827.741	2948
827.88	2960
828.02	2857
828.159	2963
828.298	3047
828.437	3112
828.577	3017
828.716	3233
828.855	3066
828.994	2925
829.134	2887
829.273	2937
829.412	2853
829.551	2838
829.69	2902
829.829	3005
829.968	3097
830.107	2990
830.246	2994
830.385	2933
830.524	2887
830.663	2807
830.802	2720
830.941	2686
831.08	2621
831.219	2785
831.357	2781
831.496	2998
831.635	2678
831.774	2670
831.913	2674
832.051	2533
832.19	2571
832.329	2659
832.467	2511
832.606	2476
832.744	2579
832.883	2606
833.022	2587
833.16	2617
833.299	2682
833.437	2678
833.576	2670
833.714	2682
833.852	2739
833.991	2743
834.129	2842
834.267	2823
834.406	2792
834.544	2857
834.682	2838
834.821	2842
834.959	3074
835.097	2906
835.235	3058
835.373	2994
835.511	3017
835.65	2994
835.788	2941
835.926	2785
836.064	2823
836.202	2834
836.34	3093
836.478	3150
836.615	3009
836.753	3146
836.891	3180
837.029	3146
837.167	3097
837.305	3081
837.443	3017
837.58	2971
837.718	3131
837.856	3028
837.993	3043
838.131	3135
838.269	3108
838.406	3077
838.544	3077
838.681	2914
838.819	2910
838.956	2796
839.094	2849
839.231	2918
839.369	2982
839.506	3378
839.643	3207
839.781	3020
839.918	2941
840.055	3047
840.193	2994
840.33	3043
840.467	3116
840.604	3138
840.742	3412
840.879	3051
841.016	3077
841.153	3093
841.29	3340
841.427	3291
841.564	3237
841.701	3310
841.838	3199
841.975	3184
842.112	3226
842.249	3028
842.385	3032
842.522	3211
842.659	3085
842.796	3005
842.933	3066
843.069	3051
843.206	3066
843.343	3169
843.479	3085
843.616	3135
843.752	2899
843.889	2876
844.025	3055
844.162	2887
844.298	3055
844.435	2922
844.571	2910
844.708	3074
844.844	3184
844.98	3214
845.117	3173
845.253	3085
845.389	2990
845.525	3108
845.661	3097
845.798	2990
845.934	3108
846.07	3039
846.206	3237
846.342	3294
846.478	3237
846.614	3119
846.75	3032
846.886	3051
847.022	3226
847.158	3154
847.294	3176
847.429	3268
847.565	3180
847.701	3481
847.837	3032
847.972	2948
848.108	3165
848.244	3123
848.379	2982
848.515	2914
848.65	2956
848.786	2952
848.921	3013
849.057	3074
849.192	3127
849.328	3089
849.463	3119
849.598	3070
849.734	3024
849.869	2960
850.004	2906
850.14	2948
850.275	2906
850.41	2849
850.545	2895
850.68	2952
850.815	2910
850.95	2994
851.085	3192
851.22	3077
851.355	3051
851.49	2982
851.625	3013
851.76	2986
851.895	2891
852.03	2933
852.165	2986
852.299	3138
852.434	3154
852.569	3138
852.703	3169
852.838	3264
852.973	3348
853.107	3325
853.242	3131
853.376	3074
853.511	2929
853.645	3062
853.78	3207
853.914	3097
854.048	3070
854.183	3070
854.317	3135
854.451	3268
854.585	3127
854.72	3104
854.854	3203
854.988	3058
855.122	3074
855.256	2960
855.39	3085
855.524	3260
855.658	3192
855.792	3127
855.926	3192
856.06	3222
856.194	3253
856.327	3116
856.461	3047
856.595	3043
856.729	3066
856.862	3192
856.996	3165
857.13	3165
857.263	3199
857.397	3245
857.53	3127
857.664	3154
857.797	3249
857.931	3260
858.064	3142
858.197	3211
858.331	3081
858.464	3093
858.597	3024
858.731	3097
858.864	3184
858.997	3085
859.13	3138
859.263	3116
859.396	3207
859.529	3085
859.662	3081
859.795	3036
859.928	3161
860.061	3230
860.194	3260
860.327	3135
860.46	3100
860.592	3203
860.725	3184
860.858	3218
860.99	3081
861.123	3020
861.256	3051
861.388	3123
861.521	3854
861.653	3005
861.786	2990
861.918	3020
862.05	3017
862.183	3074
862.315	3116
862.447	3188
862.58	3070
862.712	2899
862.844	2883
862.976	3028
863.108	3005
863.24	3420
863.372	2861
863.504	2963
863.636	2929
863.768	3055
863.9	2990
864.032	2872
864.164	2906
864.296	3017
864.428	3070
864.559	3112
864.691	3039
864.823	3135
864.954	3032
865.086	3020
865.217	3001
865.349	2910
865.48	2975
865.612	3013
865.743	3119
865.875	2994
866.006	2963
866.137	2963
866.269	2975
866.4	2910
866.531	2872
866.662	2887
866.793	2891
866.924	2914
867.055	2941
867.186	2906
867.317	2891
867.448	2811
867.579	2838
867.71	2834
867.841	2792
867.972	2861
868.103	2925
868.233	2883
868.364	2864
868.495	2914
868.625	3089
868.756	3176
868.886	2960
869.017	2986
869.147	3207
869.278	3173
869.408	3024
869.539	3028
869.669	3089
869.799	2998
869.929	3112
870.06	3108
870.19	3325
870.32	3287
870.45	3245
870.58	3355
870.71	3428
870.84	3420
870.97	3302
871.1	3233
871.23	3454
871.36	3431
871.489	3332
871.619	3420
871.749	3382
871.879	3439
872.008	3466
872.138	3336
872.267	3249
872.397	3112
872.526	3074
872.656	2986
872.785	3077
872.915	3233
873.044	3287
873.173	3222
873.303	3260
873.432	3226
873.561	3260
873.69	3176
873.819	3142
873.948	3169
874.077	3062
874.206	3093
874.335	3081
874.464	3211
874.593	3321
874.722	3207
874.851	3401
874.979	3355
875.108	3306
875.237	3207
875.365	3138
875.494	3119
875.623	3230
875.751	3028
875.88	3093
876.008	3173
876.136	3233
876.265	3351
876.393	3492
876.521	3409
876.65	3386
876.778	3329
876.906	3253
877.034	3211
877.162	3230
877.29	3199
877.418	3249
877.546	3237
877.674	3226
877.802	3211
877.93	3207
878.058	3131
878.185	3097
878.313	3207
878.441	3230
878.568	3062
878.696	3138
878.824	3245
878.951	3336
879.079	3443
879.206	3641
879.333	3405
879.461	3321
879.588	3310
879.715	3466
879.842	3568
879.97	3355
880.097	3127
880.224	3123
880.351	3203
880.478	3203
880.605	3214
880.732	3184
880.859	3473
880.986	3298
881.112	3283
881.239	3173
881.366	3131
881.493	3024
881.619	3036
881.746	3077
881.872	3085
881.999	3055
882.125	3157
882.252	3218
882.378	3302
882.505	3405
882.631	3275
882.757	3131
882.883	3207
883.01	3253
883.136	3161
883.262	3097
883.388	3104
883.514	3317
883.64	3340
883.766	3336
883.892	3218
884.018	3211
884.143	3351
884.269	3519
884.395	3218
884.52	3199
884.646	3203
884.772	3119
884.897	3089
885.023	3211
885.148	3332
885.274	3431
885.399	3344
885.524	3268
885.65	3256
885.775	3340
885.9	3298
886.025	3420
886.15	3363
886.275	3321
886.4	3241
886.525	3256
886.65	3294
886.775	3294
886.9	3504
887.025	3663
887.149	3401
887.274	3268
887.399	3150
887.523	3226
887.648	3188
887.773	3161
887.897	3374
888.021	3386
888.146	3230
888.27	3412
888.395	3553
888.519	3447
888.643	3450
888.767	3431
888.891	3329
889.015	3260
889.139	3283
889.263	3237
889.387	3370
889.511	3466
889.635	3435
889.759	3283
889.883	3313
890.006	3367
890.13	3492
890.254	3237
890.377	3355
890.501	3199
890.624	3173
890.748	3325
890.871	3211
890.995	3138
891.118	3062
891.241	3214
891.364	3233
891.488	3291
891.611	3176
891.734	3188
891.857	3249
891.98	3256
892.103	3325
892.226	3264
892.349	3218
892.471	3157
892.594	3283
892.717	3233
892.839	3241
892.962	3253
893.085	3401
893.207	3302
893.33	3173
893.452	3150
893.575	3325
893.697	3249
893.819	3450
893.941	3492
894.064	3443
894.186	3226
894.308	3306
894.43	3447
894.552	3515
894.674	3469
894.796	3264
894.918	3332
895.04	3332
895.161	3420
895.283	3378
895.405	3306
895.526	3332
895.648	3405
895.769	3405
895.891	3473
896.012	3481
896.134	3462
896.255	3389
896.376	3412
896.498	3344
896.619	3401
896.74	3344
896.861	3420
896.982	3652
897.103	3854
897.224	3557
897.345	3469
897.466	3412
897.587	3492
897.708	3610
897.828	3557
897.949	3435
898.07	3329
898.19	3443
898.311	3603
898.431	3428
898.552	3534
898.672	3561
898.792	3572
898.913	3519
899.033	3393
899.153	3287
899.273	3222
899.393	3294
899.513	3310
899.633	3283
899.753	3348
899.873	3294
899.993	3386
900.113	3348
900.232	3393
900.352	3302
900.472	3260
900.591	3195
900.711	3275
900.83	3226
900.95	3447
901.069	3454
901.189	3332
901.308	3195
901.427	3146
901.546	3218
901.665	3268
901.784	3332
901.904	3260
902.023	3116
902.141	2990
902.26	2975
902.379	3104
902.498	3081
902.617	3047
902.735	3230
902.854	3241
902.973	3195
903.091	3066
903.21	3043
903.328	3112
903.446	3093
903.565	3104
903.683	3188
903.801	3157
903.919	3211
904.038	3287
904.156	3150
904.274	3317
904.392	3233
904.51	3310
904.627	3306
904.745	3428
904.863	3469
904.981	3245
905.098	3146
905.216	3249
905.334	3298
905.451	3291
905.569	3294
905.686	3416
905.803	3431
905.921	3283
906.038	3359
906.155	3348
906.272	3291
906.389	3321
906.506	3192
906.623	3237
906.74	3272
906.857	3195
906.974	3279
907.091	3488
907.208	3580
907.324	3458
907.441	3397
907.557	3241
907.674	3226
907.79	3218
907.907	3275
908.023	3393
908.139	3389
908.256	3306
908.372	3382
908.488	3374
908.604	3272
908.72	3211
908.836	3287
908.952	3272
909.068	3313
909.184	3477
909.3	3378
909.415	3507
909.531	3435
909.647	3287
909.762	3275
909.878	3249
909.993	3344
910.108	3344
910.224	3325
910.339	3409
910.454	3374
910.57	3294
910.685	3218
910.8	3568
910.915	3519
911.03	3447
911.145	3291
911.259	3272
911.374	3268
911.489	3222
911.604	3218
911.718	3100
911.833	3138
911.947	2960
912.062	2982
912.176	3173
912.291	3173
912.405	3199
912.519	3431
912.633	3477
912.748	3317
912.862	3283
912.976	3154
913.09	3097
913.204	3119
913.318	3199
913.431	3313
913.545	3378
913.659	3401
913.772	3310
913.886	3211
914	3195
914.113	3321
914.226	3367
914.34	3363
914.453	3218
914.566	3416
914.68	3260
914.793	3294
914.906	3104
915.019	3051
915.132	3077
915.245	3176
915.358	3173
915.47	3214
915.583	3260
915.696	3306
915.809	3401
915.921	3443
916.034	3291
916.146	3260
916.259	3237
916.371	3409
916.483	3359
916.595	3268
916.708	3313
916.82	3351
916.932	3344
917.044	3329
917.156	3344
917.268	3241
917.38	3325
917.491	3279
917.603	3355
917.715	3420
917.826	3496
917.938	3370
918.049	3241
918.161	3431
918.272	3584
918.384	3568
918.495	3515
918.606	3351
918.717	3291
918.828	3370
918.939	3401
919.05	3310
919.161	3370
919.272	3173
919.383	3302
919.494	3500
919.604	3698
919.715	3447
919.826	3420
919.936	3435
920.047	3591
920.157	3572
920.267	3755
920.378	3591
920.488	3549
920.598	3789
920.708	3937
920.818	3857
920.928	3831
921.038	4021
921.148	3998
921.258	3698
921.368	3644
921.477	3580
921.587	3568
921.697	3462
921.806	3622
921.916	3469
922.025	3378
922.134	3367
922.244	3287
922.353	3401
922.462	3241
922.571	3241
922.68	3081
922.789	3047
922.898	3119
923.007	3142
923.116	3207
923.224	3127
923.333	3192
923.442	3104
923.55	3085
923.659	3116
923.767	3203
923.876	3108
923.984	3233
924.092	3077
924.201	3203
924.309	3233
924.417	3222
924.525	3188
924.633	3287
924.741	4032
924.849	3093
924.956	3294
925.064	3093
925.172	3047
925.279	3070
925.387	3173
925.494	3218
925.602	3370
925.709	3313
925.816	3142
925.924	3272
926.031	3405
926.138	3325
926.245	3340
926.352	3222
926.459	3428
926.566	3492
926.673	3321
926.779	3233
926.886	3222
926.993	3138
927.099	3119
927.206	3077
927.312	3108
927.419	3203
927.525	3203
927.631	3237
927.737	3142
927.843	3108
927.95	3028
928.056	3161
928.162	3195
928.267	3218
928.373	3747
928.479	3287
928.585	3070
928.69	3233
928.796	3249
928.901	3195
929.007	3032
929.112	3211
929.218	3203
929.323	3154
929.428	3157
929.533	3329
929.638	3142
929.743	3157
929.848	3222
929.953	3199
930.058	3138
930.163	2986
930.267	3051
930.372	3199
930.477	3047
930.581	3313
930.685	3173
930.79	3043
930.894	3116
930.998	3097
931.103	3279
931.207	2960
931.311	2956
931.415	2952
931.519	2785
931.623	2826
