Data from test_V78500241_686.txt Node
Date: Fri Mar 25 16:19:57 CST 2022
User: usil
Spectrometer: V785-0024
Trigger mode: 0
Integration Time (sec): 4.000000E-1
Scans to average: 1
Nonlinearity correction enabled: false
Boxcar width: 0
Storing dark spectrum: false
XAxis mode: Wavelengths
Number of Pixels in Spectrum: 1024
>>>>>Begin Spectral Data<<<<<
801.071	2868
801.214	2906
801.356	2853
801.499	2868
801.641	2861
801.783	2910
801.926	3009
802.068	2937
802.211	2982
802.353	3024
802.496	2952
802.638	2994
802.78	3028
802.923	3074
803.065	2971
803.208	2891
803.35	2872
803.492	2956
803.635	2883
803.777	2743
803.919	2857
804.061	3176
804.204	2952
804.346	2891
804.488	2868
804.63	3013
804.773	2826
804.915	2864
805.057	3066
805.199	2937
805.341	2933
805.483	3024
805.626	3005
805.768	2975
805.91	3093
806.052	3081
806.194	3047
806.336	3222
806.478	3009
806.62	2971
806.762	2960
806.904	3039
807.046	3135
807.188	3001
807.33	2880
807.472	3005
807.614	2902
807.756	2979
807.898	2906
808.04	2895
808.182	2960
808.324	2960
808.465	2845
808.607	2895
808.749	2769
808.891	2819
809.033	2971
809.174	2975
809.316	2883
809.458	2895
809.6	2769
809.741	2762
809.883	2762
810.025	2853
810.166	2838
810.308	2807
810.45	2861
810.591	2800
810.733	2785
810.875	2823
811.016	2785
811.158	2769
811.299	2830
811.441	2891
811.582	2887
811.724	2819
811.865	2826
812.007	2906
812.148	2872
812.29	2807
812.431	2891
812.573	2937
812.714	2944
812.855	3047
812.997	3055
813.138	3138
813.279	3005
813.421	2986
813.562	2963
813.703	2902
813.845	2861
813.986	2800
814.127	2766
814.268	2819
814.41	2830
814.551	2807
814.692	2880
814.833	2842
814.974	2887
815.115	2944
815.256	2804
815.397	2807
815.539	2857
815.68	2769
815.821	2777
815.962	2960
816.103	2937
816.244	2887
816.385	2891
816.526	2929
816.666	2902
816.807	2739
816.948	2918
817.089	2918
817.23	2895
817.371	2807
817.512	2769
817.653	2804
817.793	2800
817.934	2891
818.075	2929
818.216	2979
818.356	3001
818.497	2899
818.638	2777
818.778	2800
818.919	2781
819.06	2746
819.2	2902
819.341	2826
819.481	2769
819.622	2914
819.762	3074
819.903	3005
820.043	2895
820.184	2929
820.324	2891
820.465	3032
820.605	3047
820.746	3032
820.886	2925
821.026	3077
821.167	3146
821.307	3237
821.447	3317
821.588	3230
821.728	3199
821.868	3176
822.008	3043
822.149	3108
822.289	3222
822.429	3085
822.569	3093
822.709	3173
822.849	3051
822.99	3066
823.13	3142
823.27	3192
823.41	3119
823.55	3116
823.69	3154
823.83	3165
823.97	3077
824.11	3009
824.25	2986
824.389	3077
824.529	3100
824.669	3055
824.809	3180
824.949	3260
825.089	3195
825.228	3184
825.368	2975
825.508	2975
825.648	2975
825.787	2986
825.927	3039
826.067	2948
826.206	2952
826.346	3047
826.485	3074
826.625	3116
826.765	3279
826.904	3188
827.044	3017
827.183	2918
827.323	2857
827.462	2982
827.601	2933
827.741	2906
827.88	2933
828.02	2830
828.159	2929
828.298	3001
828.437	3104
828.577	3051
828.716	3249
828.855	3055
828.994	2902
829.134	2868
829.273	2902
829.412	2895
829.551	2853
829.69	2922
829.829	2990
829.968	3131
830.107	3009
830.246	3043
830.385	2918
830.524	2853
830.663	2800
830.802	2743
830.941	2629
831.08	2644
831.219	2766
831.357	2773
831.496	2929
831.635	2743
831.774	2640
831.913	2655
832.051	2537
832.19	2590
832.329	2708
832.467	2537
832.606	2492
832.744	2549
832.883	2579
833.022	2556
833.16	2621
833.299	2678
833.437	2659
833.576	2693
833.714	2735
833.852	2708
833.991	2773
834.129	2823
834.267	2830
834.406	2815
834.544	2872
834.682	2883
834.821	2868
834.959	3066
835.097	2899
835.235	3058
835.373	2994
835.511	3020
835.65	2971
835.788	2937
835.926	2807
836.064	2819
836.202	2842
836.34	3093
836.478	3157
836.615	3047
836.753	3116
836.891	3195
837.029	3104
837.167	3097
837.305	3066
837.443	3036
837.58	2967
837.718	3074
837.856	3097
837.993	3013
838.131	3112
838.269	3131
838.406	3100
838.544	3081
838.681	2967
838.819	2941
838.956	2796
839.094	2804
839.231	2887
839.369	3009
839.506	3348
839.643	3199
839.781	3055
839.918	2952
840.055	3020
840.193	3036
840.33	3066
840.467	3123
840.604	3104
840.742	3397
840.879	3036
841.016	3036
841.153	3112
841.29	3287
841.427	3291
841.564	3249
841.701	3291
841.838	3207
841.975	3195
842.112	3192
842.249	3074
842.385	3032
842.522	3245
842.659	3077
842.796	3097
842.933	3081
843.069	3036
843.206	3051
843.343	3154
843.479	3100
843.616	3123
843.752	2880
843.889	2853
844.025	3081
844.162	2861
844.298	3097
844.435	2967
844.571	2899
844.708	3077
844.844	3192
844.98	3222
845.117	3203
845.253	3043
845.389	3013
845.525	3081
845.661	3077
845.798	2986
845.934	3138
846.07	3070
846.206	3203
846.342	3294
846.478	3207
846.614	3055
846.75	3043
846.886	3005
847.022	3275
847.158	3112
847.294	3226
847.429	3237
847.565	3192
847.701	3454
847.837	3032
847.972	2944
848.108	3161
848.244	3112
848.379	2960
848.515	2906
848.65	2922
848.786	2971
848.921	3024
849.057	3074
849.192	3203
849.328	3058
849.463	3089
849.598	3062
849.734	3013
849.869	2979
850.004	2891
850.14	2967
850.275	2891
850.41	2830
850.545	2914
850.68	2941
850.815	2941
850.95	2967
851.085	3192
851.22	3108
851.355	3020
851.49	2956
851.625	2994
851.76	3020
851.895	2895
852.03	2899
852.165	3032
852.299	3070
852.434	3165
852.569	3135
852.703	3199
852.838	3256
852.973	3363
853.107	3310
853.242	3119
853.376	3093
853.511	2967
853.645	2998
853.78	3222
853.914	3135
854.048	3135
854.183	3081
854.317	3154
854.451	3237
854.585	3089
854.72	3089
854.854	3211
854.988	3009
855.122	3097
855.256	2960
855.39	3123
855.524	3264
855.658	3192
855.792	3169
855.926	3150
856.06	3165
856.194	3218
856.327	3131
856.461	3093
856.595	3081
856.729	3081
856.862	3230
856.996	3146
857.13	3161
857.263	3184
857.397	3275
857.53	3085
857.664	3203
857.797	3218
857.931	3268
858.064	3142
858.197	3218
858.331	3157
858.464	3047
858.597	2952
858.731	3112
858.864	3135
858.997	3070
859.13	3154
859.263	3184
859.396	3188
859.529	3066
859.662	3097
859.795	3047
859.928	3108
860.061	3256
860.194	3291
860.327	3119
860.46	3100
860.592	3233
860.725	3245
860.858	3237
860.99	3100
861.123	3051
861.256	3036
861.388	3131
861.521	3972
861.653	3009
861.786	2971
861.918	3005
862.05	3066
862.183	3104
862.315	3127
862.447	3184
862.58	3070
862.712	2952
862.844	2891
862.976	3005
863.108	3005
863.24	3393
863.372	2857
863.504	2982
863.636	2933
863.768	3081
863.9	2960
864.032	2899
864.164	2941
864.296	3028
864.428	3032
864.559	3081
864.691	3085
864.823	3036
864.954	3032
865.086	3066
865.217	2979
865.349	2960
865.48	3013
865.612	2998
865.743	3127
865.875	2998
866.006	2933
866.137	2937
866.269	2941
866.4	2937
866.531	2899
866.662	2887
866.793	2906
866.924	2872
867.055	2994
867.186	2925
867.317	2872
867.448	2842
867.579	2815
867.71	2849
867.841	2811
867.972	2906
868.103	2895
868.233	2895
868.364	2845
868.495	2906
868.625	3062
868.756	3161
868.886	2963
869.017	2982
869.147	3135
869.278	3165
869.408	3051
869.539	3055
869.669	3112
869.799	3043
869.929	3142
870.06	3089
870.19	3302
870.32	3279
870.45	3355
870.58	3355
870.71	3435
870.84	3412
870.97	3279
871.1	3214
871.23	3473
871.36	3462
871.489	3340
871.619	3382
871.749	3454
871.879	3424
872.008	3439
872.138	3313
872.267	3283
872.397	3157
872.526	3070
872.656	2994
872.785	3077
872.915	3245
873.044	3291
873.173	3211
873.303	3230
873.432	3264
873.561	3245
873.69	3142
873.819	3116
873.948	3207
874.077	3081
874.206	3009
874.335	3074
874.464	3207
874.593	3386
874.722	3230
874.851	3382
874.979	3382
875.108	3310
875.237	3237
875.365	3127
875.494	3157
875.623	3253
875.751	3051
875.88	3085
876.008	3214
876.136	3230
876.265	3344
876.393	3488
876.521	3412
876.65	3424
876.778	3332
876.906	3268
877.034	3199
877.162	3203
877.29	3188
877.418	3260
877.546	3237
877.674	3291
877.802	3230
877.93	3192
878.058	3131
878.185	3104
878.313	3192
878.441	3203
878.568	3055
878.696	3150
878.824	3203
878.951	3313
879.079	3412
879.206	3614
879.333	3458
879.461	3329
879.588	3389
879.715	3477
879.842	3622
879.97	3378
880.097	3188
880.224	3116
880.351	3218
880.478	3226
880.605	3233
880.732	3157
880.859	3485
880.986	3313
881.112	3302
881.239	3180
881.366	3116
881.493	3028
881.619	3024
881.746	3055
881.872	3085
881.999	3089
882.125	3119
882.252	3233
882.378	3306
882.505	3412
882.631	3294
882.757	3112
882.883	3218
883.01	3211
883.136	3138
883.262	3066
883.388	3123
883.514	3313
883.64	3405
883.766	3287
883.892	3176
884.018	3226
884.143	3435
884.269	3519
884.395	3199
884.52	3180
884.646	3154
884.772	3116
884.897	3097
885.023	3214
885.148	3344
885.274	3401
885.399	3340
885.524	3253
885.65	3256
885.775	3294
885.9	3264
886.025	3424
886.15	3359
886.275	3302
886.4	3253
886.525	3272
886.65	3256
886.775	3249
886.9	3519
887.025	3622
887.149	3462
887.274	3222
887.399	3207
887.523	3195
887.648	3184
887.773	3180
887.897	3351
888.021	3428
888.146	3310
888.27	3447
888.395	3515
888.519	3447
888.643	3431
888.767	3435
888.891	3302
889.015	3245
889.139	3256
889.263	3195
889.387	3389
889.511	3447
889.635	3435
889.759	3279
889.883	3306
890.006	3401
890.13	3485
890.254	3294
890.377	3287
890.501	3211
890.624	3192
890.748	3325
890.871	3161
890.995	3070
891.118	3093
891.241	3226
891.364	3226
891.488	3332
891.611	3207
891.734	3237
891.857	3268
891.98	3230
892.103	3359
892.226	3283
892.349	3184
892.471	3127
892.594	3211
892.717	3283
892.839	3306
892.962	3306
893.085	3386
893.207	3287
893.33	3097
893.452	3192
893.575	3359
893.697	3245
893.819	3496
893.941	3553
894.064	3450
894.186	3302
894.308	3256
894.43	3412
894.552	3492
894.674	3488
894.796	3214
894.918	3310
895.04	3302
895.161	3416
895.283	3393
895.405	3279
895.526	3355
895.648	3458
895.769	3363
895.891	3462
896.012	3450
896.134	3447
896.255	3405
896.376	3359
896.498	3340
896.619	3397
896.74	3344
896.861	3405
896.982	3690
897.103	3842
897.224	3587
897.345	3500
897.466	3447
897.587	3466
897.708	3629
897.828	3534
897.949	3469
898.07	3317
898.19	3412
898.311	3564
898.431	3447
898.552	3496
898.672	3557
898.792	3610
898.913	3553
899.033	3431
899.153	3283
899.273	3195
899.393	3260
899.513	3340
899.633	3310
899.753	3374
899.873	3306
899.993	3332
900.113	3355
900.232	3412
900.352	3351
900.472	3279
900.591	3256
900.711	3283
900.83	3230
900.95	3389
901.069	3504
901.189	3340
901.308	3135
901.427	3119
901.546	3173
901.665	3310
901.784	3287
901.904	3199
902.023	3165
902.141	3039
902.26	2967
902.379	3108
902.498	3077
902.617	3020
902.735	3237
902.854	3230
902.973	3203
903.091	3047
903.21	3089
903.328	3108
903.446	3123
903.565	3081
903.683	3173
903.801	3138
903.919	3260
904.038	3256
904.156	3157
904.274	3279
904.392	3207
904.51	3275
904.627	3291
904.745	3412
904.863	3549
904.981	3233
905.098	3150
905.216	3207
905.334	3287
905.451	3291
905.569	3291
905.686	3447
905.803	3435
905.921	3245
906.038	3424
906.155	3321
906.272	3291
906.389	3336
906.506	3157
906.623	3237
906.74	3302
906.857	3169
906.974	3249
907.091	3405
907.208	3584
907.324	3469
907.441	3367
907.557	3195
907.674	3192
907.79	3230
907.907	3294
908.023	3401
908.139	3401
908.256	3294
908.372	3389
908.488	3344
908.604	3256
908.72	3272
908.836	3260
908.952	3291
909.068	3283
909.184	3485
909.3	3405
909.415	3485
909.531	3469
909.647	3306
909.762	3287
909.878	3214
909.993	3382
910.108	3332
910.224	3321
910.339	3378
910.454	3329
910.57	3298
910.685	3249
910.8	3591
910.915	3523
911.03	3412
911.145	3241
911.259	3256
911.374	3310
911.489	3207
911.604	3203
911.718	3127
911.833	3138
911.947	3047
912.062	2963
912.176	3192
912.291	3157
912.405	3203
912.519	3447
912.633	3466
912.748	3359
912.862	3249
912.976	3157
913.09	3058
913.204	3173
913.318	3226
913.431	3321
913.545	3355
913.659	3374
913.772	3336
913.886	3245
914	3226
914.113	3344
914.226	3389
914.34	3409
914.453	3207
914.566	3450
914.68	3264
914.793	3310
914.906	3150
915.019	3066
915.132	3093
915.245	3165
915.358	3195
915.47	3230
915.583	3279
915.696	3291
915.809	3378
915.921	3454
916.034	3272
916.146	3207
916.259	3218
916.371	3431
916.483	3386
916.595	3294
916.708	3340
916.82	3340
916.932	3355
917.044	3340
917.156	3344
917.268	3279
917.38	3302
917.491	3287
917.603	3351
917.715	3462
917.826	3462
917.938	3378
918.049	3310
918.161	3412
918.272	3542
918.384	3576
918.495	3462
918.606	3317
918.717	3268
918.828	3359
918.939	3435
919.05	3321
919.161	3355
919.272	3195
919.383	3256
919.494	3523
919.604	3667
919.715	3488
919.826	3386
919.936	3439
920.047	3584
920.157	3549
920.267	3755
920.378	3603
920.488	3595
920.598	3778
920.708	3953
920.818	3816
920.928	3850
921.038	4010
921.148	3979
921.258	3698
921.368	3637
921.477	3561
921.587	3534
921.697	3488
921.806	3625
921.916	3553
922.025	3359
922.134	3351
922.244	3321
922.353	3428
922.462	3272
922.571	3203
922.68	3131
922.789	3085
922.898	3135
923.007	3093
923.116	3207
923.224	3131
923.333	3165
923.442	3077
923.55	3066
923.659	3154
923.767	3218
923.876	3104
923.984	3218
924.092	3116
924.201	3169
924.309	3192
924.417	3230
924.525	3161
924.633	3226
924.741	4025
924.849	3058
924.956	3287
925.064	3093
925.172	3043
925.279	3131
925.387	3192
925.494	3161
925.602	3374
925.709	3306
925.816	3173
925.924	3272
926.031	3340
926.138	3329
926.245	3367
926.352	3230
926.459	3393
926.566	3416
926.673	3329
926.779	3233
926.886	3256
926.993	3127
927.099	3112
927.206	3081
927.312	3100
927.419	3195
927.525	3195
927.631	3272
927.737	3146
927.843	3119
927.95	3005
928.056	3165
928.162	3176
928.267	3253
928.373	3835
928.479	3302
928.585	3085
928.69	3222
928.796	3241
928.901	3176
929.007	3024
929.112	3218
929.218	3165
929.323	3161
929.428	3142
929.533	3344
929.638	3116
929.743	3169
929.848	3268
929.953	3207
930.058	3184
930.163	2979
930.267	3036
930.372	3157
930.477	3039
930.581	3275
930.685	3154
930.79	3047
930.894	3157
930.998	3108
931.103	3260
931.207	3001
931.311	2956
931.415	2937
931.519	2762
931.623	2792
