Data from test_V78500241_480.txt Node
Date: Fri Mar 25 16:18:31 CST 2022
User: usil
Spectrometer: V785-0024
Trigger mode: 0
Integration Time (sec): 4.000000E-1
Scans to average: 1
Nonlinearity correction enabled: false
Boxcar width: 0
Storing dark spectrum: false
XAxis mode: Wavelengths
Number of Pixels in Spectrum: 1024
>>>>>Begin Spectral Data<<<<<
801.071	2914
801.214	2937
801.356	2857
801.499	2838
801.641	2853
801.783	2914
801.926	3024
802.068	2952
802.211	2975
802.353	3028
802.496	2910
802.638	3017
802.78	3036
802.923	3070
803.065	3009
803.208	2845
803.35	2880
803.492	2929
803.635	2941
803.777	2758
803.919	2853
804.061	3184
804.204	2944
804.346	2876
804.488	2853
804.63	2967
804.773	2861
804.915	2960
805.057	3100
805.199	2937
805.341	2944
805.483	3036
805.626	2982
805.768	2967
805.91	3077
806.052	3104
806.194	2998
806.336	3222
806.478	2982
806.62	2971
806.762	2963
806.904	3036
807.046	3135
807.188	3009
807.33	2902
807.472	2948
807.614	2857
807.756	2998
807.898	2906
808.04	2918
808.182	2963
808.324	2902
808.465	2868
808.607	2864
808.749	2750
808.891	2864
809.033	2994
809.174	2952
809.316	2914
809.458	2876
809.6	2773
809.741	2769
809.883	2739
810.025	2792
810.166	2861
810.308	2842
810.45	2842
810.591	2788
810.733	2758
810.875	2819
811.016	2735
811.158	2781
811.299	2781
811.441	2895
811.582	2918
811.724	2796
811.865	2796
812.007	2902
812.148	2845
812.29	2838
812.431	2906
812.573	2925
812.714	2937
812.855	3032
812.997	3062
813.138	3146
813.279	2990
813.421	2963
813.562	2937
813.703	2842
813.845	2880
813.986	2792
814.127	2762
814.268	2826
814.41	2823
814.551	2792
814.692	2868
814.833	2830
814.974	2880
815.115	2929
815.256	2819
815.397	2781
815.539	2830
815.68	2777
815.821	2804
815.962	2902
816.103	2864
816.244	2853
816.385	2842
816.526	2986
816.666	2906
816.807	2735
816.948	2872
817.089	2902
817.23	2845
817.371	2762
817.512	2785
817.653	2853
817.793	2796
817.934	2838
818.075	2929
818.216	2956
818.356	2994
818.497	2876
818.638	2766
818.778	2811
818.919	2781
819.06	2758
819.2	2883
819.341	2800
819.481	2792
819.622	2922
819.762	3051
819.903	3024
820.043	2899
820.184	2902
820.324	2887
820.465	3017
820.605	3005
820.746	3020
820.886	2925
821.026	3062
821.167	3157
821.307	3233
821.447	3264
821.588	3233
821.728	3211
821.868	3176
822.008	3028
822.149	3150
822.289	3188
822.429	3108
822.569	3093
822.709	3218
822.849	3032
822.99	3020
823.13	3157
823.27	3207
823.41	3093
823.55	3157
823.69	3097
823.83	3146
823.97	3108
824.11	2990
824.25	2960
824.389	3077
824.529	3070
824.669	3043
824.809	3184
824.949	3218
825.089	3218
825.228	3176
825.368	2986
825.508	2979
825.648	2990
825.787	2982
825.927	3028
826.067	2979
826.206	2948
826.346	3024
826.485	3036
826.625	3104
826.765	3272
826.904	3230
827.044	2990
827.183	2952
827.323	2887
827.462	3043
827.601	2918
827.741	2914
827.88	2979
828.02	2853
828.159	2956
828.298	3074
828.437	3142
828.577	3089
828.716	3287
828.855	3112
828.994	2941
829.134	2880
829.273	2948
829.412	2857
829.551	2895
829.69	2925
829.829	2990
829.968	3142
830.107	3039
830.246	3089
830.385	2948
830.524	2922
830.663	2868
830.802	2762
830.941	2720
831.08	2640
831.219	2796
831.357	2811
831.496	2975
831.635	2743
831.774	2667
831.913	2678
832.051	2579
832.19	2621
832.329	2682
832.467	2560
832.606	2495
832.744	2648
832.883	2625
833.022	2621
833.16	2674
833.299	2727
833.437	2735
833.576	2708
833.714	2739
833.852	2781
833.991	2842
834.129	2876
834.267	2834
834.406	2830
834.544	2910
834.682	2906
834.821	2937
834.959	3074
835.097	2948
835.235	3108
835.373	3077
835.511	3074
835.65	2975
835.788	2998
835.926	2872
836.064	2845
836.202	2849
836.34	3157
836.478	3211
836.615	3108
836.753	3188
836.891	3218
837.029	3218
837.167	3157
837.305	3116
837.443	3119
837.58	3013
837.718	3161
837.856	3089
837.993	3055
838.131	3165
838.269	3173
838.406	3127
838.544	3146
838.681	2971
838.819	2971
838.956	2857
839.094	2834
839.231	2933
839.369	3104
839.506	3450
839.643	3241
839.781	3051
839.918	3017
840.055	3058
840.193	3055
840.33	3089
840.467	3119
840.604	3192
840.742	3469
840.879	3081
841.016	3070
841.153	3180
841.29	3344
841.427	3340
841.564	3302
841.701	3359
841.838	3237
841.975	3176
842.112	3256
842.249	3131
842.385	3058
842.522	3283
842.659	3135
842.796	3097
842.933	3085
843.069	3085
843.206	3055
843.343	3207
843.479	3138
843.616	3165
843.752	2906
843.889	2910
844.025	3142
844.162	2902
844.298	3138
844.435	2944
844.571	2937
844.708	3100
844.844	3218
844.98	3260
845.117	3211
845.253	3100
845.389	3001
845.525	3116
845.661	3146
845.798	3020
845.934	3146
846.07	3089
846.206	3283
846.342	3363
846.478	3264
846.614	3085
846.75	3093
846.886	3051
847.022	3249
847.158	3188
847.294	3192
847.429	3329
847.565	3241
847.701	3507
847.837	3051
847.972	3028
848.108	3150
848.244	3142
848.379	3043
848.515	2967
848.65	2937
848.786	3009
848.921	3032
849.057	3138
849.192	3150
849.328	3074
849.463	3119
849.598	3074
849.734	3036
849.869	3005
850.004	2956
850.14	2986
850.275	2925
850.41	2922
850.545	2902
850.68	2956
850.815	3001
850.95	2998
851.085	3199
851.22	3119
851.355	3058
851.49	3020
851.625	3055
851.76	3043
851.895	2948
852.03	2925
852.165	3085
852.299	3138
852.434	3211
852.569	3176
852.703	3192
852.838	3253
852.973	3389
853.107	3367
853.242	3131
853.376	3116
853.511	3024
853.645	3062
853.78	3275
853.914	3104
854.048	3142
854.183	3089
854.317	3184
854.451	3310
854.585	3173
854.72	3100
854.854	3245
854.988	3077
855.122	3131
855.256	3009
855.39	3127
855.524	3279
855.658	3184
855.792	3173
855.926	3237
856.06	3260
856.194	3329
856.327	3161
856.461	3100
856.595	3112
856.729	3119
856.862	3264
856.996	3161
857.13	3203
857.263	3230
857.397	3253
857.53	3165
857.664	3233
857.797	3260
857.931	3283
858.064	3195
858.197	3230
858.331	3161
858.464	3119
858.597	3024
858.731	3131
858.864	3188
858.997	3089
859.13	3211
859.263	3218
859.396	3199
859.529	3123
859.662	3093
859.795	3104
859.928	3176
860.061	3321
860.194	3329
860.327	3142
860.46	3097
860.592	3260
860.725	3291
860.858	3283
860.99	3176
861.123	3058
861.256	3070
861.388	3161
861.521	3842
861.653	3051
861.786	3005
861.918	3028
862.05	3066
862.183	3135
862.315	3188
862.447	3218
862.58	3119
862.712	2975
862.844	2880
862.976	3074
863.108	3001
863.24	3325
863.372	2902
863.504	2982
863.636	2956
863.768	3074
863.9	3009
864.032	2944
864.164	2944
864.296	3062
864.428	3123
864.559	3123
864.691	3066
864.823	3104
864.954	3032
865.086	3024
865.217	3051
865.349	2979
865.48	3001
865.612	3051
865.743	3176
865.875	3005
866.006	2956
866.137	3001
866.269	3009
866.4	2963
866.531	2941
866.662	2899
866.793	2891
866.924	2925
867.055	3001
867.186	2956
867.317	2902
867.448	2876
867.579	2872
867.71	2887
867.841	2891
867.972	2902
868.103	2929
868.233	2902
868.364	2906
868.495	2922
868.625	3119
868.756	3226
868.886	2990
869.017	3055
869.147	3180
869.278	3180
869.408	3055
869.539	3024
869.669	3150
869.799	3066
869.929	3127
870.06	3123
870.19	3329
870.32	3272
870.45	3325
870.58	3374
870.71	3488
870.84	3473
870.97	3329
871.1	3233
871.23	3530
871.36	3462
871.489	3340
871.619	3420
871.749	3416
871.879	3447
872.008	3492
872.138	3370
872.267	3310
872.397	3150
872.526	3138
872.656	3070
872.785	3093
872.915	3230
873.044	3363
873.173	3222
873.303	3260
873.432	3264
873.561	3272
873.69	3203
873.819	3176
873.948	3218
874.077	3123
874.206	3093
874.335	3112
874.464	3237
874.593	3355
874.722	3249
874.851	3389
874.979	3359
875.108	3382
875.237	3211
875.365	3195
875.494	3161
875.623	3264
875.751	3116
875.88	3119
876.008	3230
876.136	3268
876.265	3378
876.393	3519
876.521	3439
876.65	3458
876.778	3355
876.906	3253
877.034	3203
877.162	3230
877.29	3161
877.418	3260
877.546	3260
877.674	3264
877.802	3264
877.93	3253
878.058	3176
878.185	3093
878.313	3180
878.441	3222
878.568	3100
878.696	3135
878.824	3253
878.951	3329
879.079	3466
879.206	3660
879.333	3435
879.461	3363
879.588	3370
879.715	3553
879.842	3637
879.97	3405
880.097	3195
880.224	3119
880.351	3211
880.478	3241
880.605	3199
880.732	3199
880.859	3519
880.986	3313
881.112	3367
881.239	3233
881.366	3119
881.493	3036
881.619	3032
881.746	3100
881.872	3108
881.999	3154
882.125	3176
882.252	3272
882.378	3317
882.505	3443
882.631	3298
882.757	3161
882.883	3214
883.01	3203
883.136	3176
883.262	3138
883.388	3119
883.514	3336
883.64	3370
883.766	3344
883.892	3184
884.018	3264
884.143	3393
884.269	3553
884.395	3245
884.52	3161
884.646	3195
884.772	3138
884.897	3116
885.023	3222
885.148	3332
885.274	3443
885.399	3386
885.524	3294
885.65	3291
885.775	3332
885.9	3298
886.025	3462
886.15	3367
886.275	3279
886.4	3245
886.525	3306
886.65	3279
886.775	3260
886.9	3515
887.025	3625
887.149	3409
887.274	3306
887.399	3188
887.523	3222
887.648	3169
887.773	3222
887.897	3386
888.021	3393
888.146	3313
888.27	3473
888.395	3534
888.519	3454
888.643	3424
888.767	3481
888.891	3306
889.015	3253
889.139	3268
889.263	3272
889.387	3420
889.511	3549
889.635	3443
889.759	3253
889.883	3302
890.006	3378
890.13	3507
890.254	3294
890.377	3370
890.501	3245
890.624	3203
890.748	3306
890.871	3184
890.995	3138
891.118	3089
891.241	3203
891.364	3245
891.488	3344
891.611	3222
891.734	3192
891.857	3310
891.98	3230
892.103	3336
892.226	3272
892.349	3222
892.471	3123
892.594	3275
892.717	3313
892.839	3306
892.962	3294
893.085	3370
893.207	3310
893.33	3169
893.452	3241
893.575	3298
893.697	3272
893.819	3473
893.941	3507
894.064	3439
894.186	3256
894.308	3256
894.43	3473
894.552	3576
894.674	3496
894.796	3279
894.918	3302
895.04	3298
895.161	3439
895.283	3382
895.405	3287
895.526	3370
895.648	3420
895.769	3409
895.891	3488
896.012	3454
896.134	3485
896.255	3405
896.376	3409
896.498	3382
896.619	3447
896.74	3370
896.861	3405
896.982	3690
897.103	3876
897.224	3591
897.345	3538
897.466	3416
897.587	3454
897.708	3644
897.828	3606
897.949	3431
898.07	3382
898.19	3424
898.311	3591
898.431	3416
898.552	3519
898.672	3561
898.792	3584
898.913	3549
899.033	3378
899.153	3298
899.273	3192
899.393	3310
899.513	3332
899.633	3287
899.753	3344
899.873	3336
899.993	3386
900.113	3321
900.232	3359
900.352	3351
900.472	3302
900.591	3245
900.711	3302
900.83	3241
900.95	3439
901.069	3519
901.189	3393
901.308	3173
901.427	3165
901.546	3161
901.665	3313
901.784	3370
901.904	3199
902.023	3176
902.141	3024
902.26	3032
902.379	3176
902.498	3074
902.617	3047
902.735	3233
902.854	3241
902.973	3199
903.091	3055
903.21	3089
903.328	3184
903.446	3161
903.565	3138
903.683	3230
903.801	3146
903.919	3306
904.038	3325
904.156	3207
904.274	3321
904.392	3264
904.51	3329
904.627	3382
904.745	3431
904.863	3523
904.981	3294
905.098	3230
905.216	3272
905.334	3336
905.451	3355
905.569	3340
905.686	3481
905.803	3477
905.921	3348
906.038	3477
906.155	3412
906.272	3310
906.389	3382
906.506	3268
906.623	3279
906.74	3317
906.857	3214
906.974	3283
907.091	3473
907.208	3618
907.324	3485
907.441	3435
907.557	3249
907.674	3287
907.79	3253
907.907	3336
908.023	3447
908.139	3367
908.256	3374
908.372	3466
908.488	3367
908.604	3306
908.72	3310
908.836	3363
908.952	3294
909.068	3363
909.184	3504
909.3	3409
909.415	3507
909.531	3519
909.647	3363
909.762	3359
909.878	3306
909.993	3428
910.108	3416
910.224	3397
910.339	3397
910.454	3359
910.57	3310
910.685	3302
910.8	3625
910.915	3587
911.03	3492
911.145	3329
911.259	3313
911.374	3374
911.489	3256
911.604	3249
911.718	3176
911.833	3154
911.947	3077
912.062	3039
912.176	3218
912.291	3226
912.405	3233
912.519	3435
912.633	3553
912.748	3363
912.862	3325
912.976	3245
913.09	3097
913.204	3165
913.318	3264
913.431	3351
913.545	3370
913.659	3481
913.772	3389
913.886	3245
914	3218
914.113	3397
914.226	3492
914.34	3420
914.453	3230
914.566	3431
914.68	3302
914.793	3321
914.906	3214
915.019	3203
915.132	3138
915.245	3214
915.358	3207
915.47	3264
915.583	3313
915.696	3336
915.809	3420
915.921	3469
916.034	3298
916.146	3294
916.259	3268
916.371	3450
916.483	3428
916.595	3306
916.708	3332
916.82	3340
916.932	3355
917.044	3393
917.156	3340
917.268	3298
917.38	3321
917.491	3367
917.603	3443
917.715	3435
917.826	3511
917.938	3424
918.049	3294
918.161	3469
918.272	3644
918.384	3606
918.495	3485
918.606	3359
918.717	3294
918.828	3424
918.939	3466
919.05	3351
919.161	3420
919.272	3176
919.383	3340
919.494	3557
919.604	3728
919.715	3511
919.826	3462
919.936	3488
920.047	3606
920.157	3629
920.267	3778
920.378	3644
920.488	3606
920.598	3816
920.708	3983
920.818	3838
920.928	3842
921.038	4055
921.148	4048
921.258	3728
921.368	3698
921.477	3618
921.587	3614
921.697	3477
921.806	3660
921.916	3553
922.025	3370
922.134	3363
922.244	3329
922.353	3454
922.462	3317
922.571	3260
922.68	3138
922.789	3047
922.898	3157
923.007	3173
923.116	3260
923.224	3222
923.333	3199
923.442	3192
923.55	3135
923.659	3188
923.767	3283
923.876	3142
923.984	3268
924.092	3142
924.201	3256
924.309	3226
924.417	3287
924.525	3195
924.633	3260
924.741	4040
924.849	3085
924.956	3268
925.064	3131
925.172	3116
925.279	3112
925.387	3245
925.494	3226
925.602	3378
925.709	3348
925.816	3226
925.924	3363
926.031	3428
926.138	3344
926.245	3386
926.352	3291
926.459	3431
926.566	3485
926.673	3351
926.779	3256
926.886	3268
926.993	3165
927.099	3173
927.206	3116
927.312	3154
927.419	3279
927.525	3188
927.631	3272
927.737	3184
927.843	3154
927.95	3062
928.056	3150
928.162	3230
928.267	3275
928.373	3797
928.479	3367
928.585	3093
928.69	3207
928.796	3249
928.901	3184
929.007	3047
929.112	3233
929.218	3230
929.323	3165
929.428	3169
929.533	3351
929.638	3157
929.743	3214
929.848	3313
929.953	3237
930.058	3192
930.163	3043
930.267	3077
930.372	3230
930.477	3066
930.581	3329
930.685	3207
930.79	3093
930.894	3138
930.998	3085
931.103	3336
931.207	2998
931.311	2952
931.415	2941
931.519	2796
931.623	2868
