Data from test_V78500241_323.txt Node
Date: Fri Mar 25 16:17:26 CST 2022
User: usil
Spectrometer: V785-0024
Trigger mode: 0
Integration Time (sec): 4.000000E-1
Scans to average: 1
Nonlinearity correction enabled: false
Boxcar width: 0
Storing dark spectrum: false
XAxis mode: Wavelengths
Number of Pixels in Spectrum: 1024
>>>>>Begin Spectral Data<<<<<
801.071	2906
801.214	2986
801.356	2895
801.499	2925
801.641	2899
801.783	2963
801.926	3085
802.068	2982
802.211	3028
802.353	3116
802.496	2990
802.638	2990
802.78	3108
802.923	3093
803.065	3043
803.208	2937
803.35	2929
803.492	2982
803.635	2956
803.777	2746
803.919	2872
804.061	3218
804.204	2971
804.346	2960
804.488	2853
804.63	3005
804.773	2925
804.915	2944
805.057	3108
805.199	2963
805.341	2967
805.483	3097
805.626	3047
805.768	2990
805.91	3135
806.052	3165
806.194	3100
806.336	3245
806.478	3062
806.62	3005
806.762	3032
806.904	3116
807.046	3207
807.188	3039
807.33	2922
807.472	3028
807.614	2910
807.756	3032
807.898	2963
808.04	2944
808.182	3009
808.324	3009
808.465	2914
808.607	2918
808.749	2857
808.891	2876
809.033	3009
809.174	3036
809.316	2902
809.458	2902
809.6	2788
809.741	2834
809.883	2800
810.025	2887
810.166	2891
810.308	2910
810.45	2899
810.591	2792
810.733	2815
810.875	2883
811.016	2800
811.158	2804
811.299	2842
811.441	2963
811.582	2937
811.724	2876
811.865	2880
812.007	2956
812.148	2902
812.29	2891
812.431	2902
812.573	2971
812.714	3009
812.855	3097
812.997	3077
813.138	3169
813.279	3028
813.421	3032
813.562	3028
813.703	2941
813.845	2948
813.986	2800
814.127	2804
814.268	2849
814.41	2853
814.551	2868
814.692	2872
814.833	2838
814.974	2929
815.115	3005
815.256	2899
815.397	2834
815.539	2876
815.68	2823
815.821	2842
815.962	2990
816.103	2952
816.244	2914
816.385	2899
816.526	2971
816.666	2956
816.807	2773
816.948	2925
817.089	2956
817.23	2895
817.371	2826
817.512	2796
817.653	2864
817.793	2872
817.934	2899
818.075	2998
818.216	3070
818.356	3036
818.497	2906
818.638	2849
818.778	2891
818.919	2826
819.06	2773
819.2	2941
819.341	2834
819.481	2861
819.622	2956
819.762	3123
819.903	3058
820.043	2967
820.184	2956
820.324	2937
820.465	3036
820.605	3043
820.746	3020
820.886	2975
821.026	3138
821.167	3154
821.307	3291
821.447	3291
821.588	3256
821.728	3237
821.868	3249
822.008	3100
822.149	3195
822.289	3260
822.429	3127
822.569	3108
822.709	3226
822.849	3070
822.99	3097
823.13	3241
823.27	3245
823.41	3169
823.55	3195
823.69	3165
823.83	3245
823.97	3146
824.11	3032
824.25	3047
824.389	3104
824.529	3180
824.669	3093
824.809	3249
824.949	3302
825.089	3264
825.228	3161
825.368	3081
825.508	2990
825.648	3020
825.787	3074
825.927	3074
826.067	3043
826.206	2975
826.346	3077
826.485	3058
826.625	3138
826.765	3291
826.904	3214
827.044	2998
827.183	2971
827.323	2891
827.462	2975
827.601	2925
827.741	2937
827.88	2967
828.02	2868
828.159	3017
828.298	3043
828.437	3154
828.577	3100
828.716	3283
828.855	3097
828.994	2933
829.134	2967
829.273	2963
829.412	2925
829.551	2849
829.69	2899
829.829	3009
829.968	3142
830.107	3062
830.246	3036
830.385	2948
830.524	2933
830.663	2849
830.802	2773
830.941	2667
831.08	2697
831.219	2811
831.357	2826
831.496	2986
831.635	2750
831.774	2731
831.913	2682
832.051	2564
832.19	2636
832.329	2731
832.467	2579
832.606	2495
832.744	2621
832.883	2602
833.022	2632
833.16	2693
833.299	2727
833.437	2712
833.576	2712
833.714	2739
833.852	2743
833.991	2792
834.129	2838
834.267	2872
834.406	2815
834.544	2902
834.682	2925
834.821	2887
834.959	3089
835.097	2944
835.235	3104
835.373	3055
835.511	3028
835.65	2986
835.788	2990
835.926	2861
836.064	2838
836.202	2868
836.34	3123
836.478	3180
836.615	3081
836.753	3173
836.891	3253
837.029	3188
837.167	3154
837.305	3062
837.443	3051
837.58	2986
837.718	3154
837.856	3116
837.993	3051
838.131	3165
838.269	3127
838.406	3112
838.544	3100
838.681	2963
838.819	2956
838.956	2842
839.094	2857
839.231	2979
839.369	3051
839.506	3397
839.643	3249
839.781	3005
839.918	3001
840.055	3066
840.193	3051
840.33	3085
840.467	3112
840.604	3154
840.742	3439
840.879	3089
841.016	3097
841.153	3154
841.29	3367
841.427	3348
841.564	3264
841.701	3302
841.838	3279
841.975	3241
842.112	3218
842.249	3051
842.385	3066
842.522	3268
842.659	3135
842.796	3074
842.933	3150
843.069	3066
843.206	3047
843.343	3184
843.479	3131
843.616	3138
843.752	2857
843.889	2883
844.025	3077
844.162	2937
844.298	3112
844.435	2994
844.571	2933
844.708	3119
844.844	3233
844.98	3233
845.117	3230
845.253	3062
845.389	3009
845.525	3150
845.661	3135
845.798	3070
845.934	3157
846.07	3070
846.206	3245
846.342	3321
846.478	3241
846.614	3077
846.75	3032
846.886	3039
847.022	3249
847.158	3146
847.294	3226
847.429	3260
847.565	3241
847.701	3530
847.837	3043
847.972	2994
848.108	3161
848.244	3131
848.379	3020
848.515	2967
848.65	2952
848.786	3001
848.921	3039
849.057	3131
849.192	3184
849.328	3074
849.463	3154
849.598	3066
849.734	3043
849.869	2960
850.004	2925
850.14	3001
850.275	2925
850.41	2876
850.545	2941
850.68	2929
850.815	2960
850.95	3005
851.085	3192
851.22	3108
851.355	3036
851.49	3020
851.625	3001
851.76	3028
851.895	2925
852.03	2929
852.165	3036
852.299	3116
852.434	3199
852.569	3184
852.703	3199
852.838	3256
852.973	3351
853.107	3374
853.242	3192
853.376	3093
853.511	2982
853.645	3066
853.78	3222
853.914	3135
854.048	3108
854.183	3112
854.317	3165
854.451	3287
854.585	3173
854.72	3085
854.854	3237
854.988	3097
855.122	3085
855.256	3032
855.39	3081
855.524	3283
855.658	3192
855.792	3157
855.926	3214
856.06	3256
856.194	3287
856.327	3169
856.461	3123
856.595	3135
856.729	3097
856.862	3222
856.996	3176
857.13	3211
857.263	3207
857.397	3287
857.53	3112
857.664	3180
857.797	3256
857.931	3245
858.064	3165
858.197	3241
858.331	3138
858.464	3135
858.597	3009
858.731	3119
858.864	3135
858.997	3116
859.13	3150
859.263	3199
859.396	3157
859.529	3123
859.662	3074
859.795	3058
859.928	3184
860.061	3302
860.194	3287
860.327	3169
860.46	3093
860.592	3245
860.725	3260
860.858	3253
860.99	3116
861.123	3066
861.256	3070
861.388	3150
861.521	3869
861.653	3043
861.786	2994
861.918	3036
862.05	3081
862.183	3077
862.315	3173
862.447	3218
862.58	3165
862.712	2975
862.844	2895
862.976	3017
863.108	2982
863.24	3317
863.372	2906
863.504	2990
863.636	2960
863.768	3047
863.9	2975
864.032	2941
864.164	2986
864.296	2982
864.428	3123
864.559	3077
864.691	3089
864.823	3093
864.954	3028
865.086	3051
865.217	2975
865.349	2922
865.48	3001
865.612	3005
865.743	3165
865.875	3001
866.006	2986
866.137	2971
866.269	2975
866.4	2960
866.531	2971
866.662	2948
866.793	2910
866.924	2937
867.055	3005
867.186	2933
867.317	2899
867.448	2853
867.579	2868
867.71	2880
867.841	2834
867.972	2910
868.103	2918
868.233	2937
868.364	2910
868.495	2918
868.625	3081
868.756	3188
868.886	2975
869.017	3005
869.147	3165
869.278	3203
869.408	3039
869.539	3009
869.669	3119
869.799	3043
869.929	3138
870.06	3119
870.19	3336
870.32	3313
870.45	3321
870.58	3367
870.71	3443
870.84	3450
870.97	3291
871.1	3253
871.23	3507
871.36	3443
871.489	3363
871.619	3431
871.749	3378
871.879	3431
872.008	3469
872.138	3389
872.267	3306
872.397	3116
872.526	3100
872.656	3062
872.785	3100
872.915	3237
873.044	3325
873.173	3214
873.303	3306
873.432	3249
873.561	3283
873.69	3188
873.819	3161
873.948	3192
874.077	3146
874.206	3043
874.335	3097
874.464	3222
874.593	3321
874.722	3283
874.851	3397
874.979	3310
875.108	3306
875.237	3184
875.365	3199
875.494	3146
875.623	3249
875.751	3089
875.88	3146
876.008	3188
876.136	3230
876.265	3389
876.393	3526
876.521	3420
876.65	3405
876.778	3283
876.906	3287
877.034	3230
877.162	3249
877.29	3241
877.418	3272
877.546	3249
877.674	3279
877.802	3260
877.93	3226
878.058	3150
878.185	3123
878.313	3218
878.441	3199
878.568	3081
878.696	3188
878.824	3256
878.951	3264
879.079	3428
879.206	3648
879.333	3428
879.461	3325
879.588	3370
879.715	3466
879.842	3599
879.97	3393
880.097	3188
880.224	3157
880.351	3169
880.478	3222
880.605	3218
880.732	3226
880.859	3519
880.986	3306
881.112	3363
881.239	3230
881.366	3104
881.493	3043
881.619	3058
881.746	3077
881.872	3089
881.999	3123
882.125	3119
882.252	3275
882.378	3306
882.505	3469
882.631	3260
882.757	3165
882.883	3253
883.01	3230
883.136	3180
883.262	3108
883.388	3100
883.514	3298
883.64	3363
883.766	3317
883.892	3188
884.018	3249
884.143	3416
884.269	3530
884.395	3192
884.52	3169
884.646	3195
884.772	3119
884.897	3131
885.023	3207
885.148	3306
885.274	3454
885.399	3336
885.524	3298
885.65	3241
885.775	3310
885.9	3317
886.025	3424
886.15	3359
886.275	3317
886.4	3264
886.525	3302
886.65	3306
886.775	3294
886.9	3504
887.025	3652
887.149	3374
887.274	3275
887.399	3157
887.523	3203
887.648	3169
887.773	3195
887.897	3382
888.021	3401
888.146	3275
888.27	3416
888.395	3538
888.519	3431
888.643	3428
888.767	3473
888.891	3321
889.015	3279
889.139	3275
889.263	3260
889.387	3435
889.511	3526
889.635	3469
889.759	3298
889.883	3291
890.006	3382
890.13	3439
890.254	3302
890.377	3336
890.501	3188
890.624	3188
890.748	3310
890.871	3207
890.995	3116
891.118	3074
891.241	3222
891.364	3245
891.488	3260
891.611	3184
891.734	3233
891.857	3325
891.98	3275
892.103	3351
892.226	3298
892.349	3192
892.471	3097
892.594	3256
892.717	3317
892.839	3249
892.962	3298
893.085	3332
893.207	3260
893.33	3173
893.452	3195
893.575	3340
893.697	3237
893.819	3469
893.941	3496
894.064	3500
894.186	3256
894.308	3306
894.43	3450
894.552	3553
894.674	3462
894.796	3287
894.918	3348
895.04	3279
895.161	3447
895.283	3386
895.405	3317
895.526	3348
895.648	3409
895.769	3443
895.891	3473
896.012	3542
896.134	3454
896.255	3447
896.376	3374
896.498	3370
896.619	3466
896.74	3412
896.861	3428
896.982	3652
897.103	3846
897.224	3603
897.345	3496
897.466	3431
897.587	3481
897.708	3591
897.828	3557
897.949	3439
898.07	3367
898.19	3393
898.311	3576
898.431	3469
898.552	3557
898.672	3587
898.792	3584
898.913	3519
899.033	3416
899.153	3313
899.273	3203
899.393	3283
899.513	3325
899.633	3325
899.753	3359
899.873	3310
899.993	3363
900.113	3336
900.232	3363
900.352	3336
900.472	3317
900.591	3230
900.711	3344
900.83	3245
900.95	3386
901.069	3469
901.189	3340
901.308	3195
901.427	3161
901.546	3180
901.665	3306
901.784	3340
901.904	3165
902.023	3157
902.141	3009
902.26	3001
902.379	3123
902.498	3104
902.617	3028
902.735	3230
902.854	3237
902.973	3218
903.091	3055
903.21	3100
903.328	3203
903.446	3108
903.565	3108
903.683	3214
903.801	3127
903.919	3214
904.038	3291
904.156	3184
904.274	3294
904.392	3287
904.51	3287
904.627	3340
904.745	3466
904.863	3466
904.981	3249
905.098	3154
905.216	3237
905.334	3298
905.451	3321
905.569	3294
905.686	3401
905.803	3431
905.921	3321
906.038	3405
906.155	3348
906.272	3294
906.389	3332
906.506	3260
906.623	3264
906.74	3272
906.857	3207
906.974	3272
907.091	3416
907.208	3534
907.324	3469
907.441	3332
907.557	3249
907.674	3253
907.79	3218
907.907	3249
908.023	3336
908.139	3370
908.256	3344
908.372	3313
908.488	3386
908.604	3260
908.72	3230
908.836	3329
908.952	3279
909.068	3344
909.184	3462
909.3	3370
909.415	3466
909.531	3443
909.647	3287
909.762	3306
909.878	3253
909.993	3420
910.108	3302
910.224	3363
910.339	3397
910.454	3325
910.57	3313
910.685	3268
910.8	3603
910.915	3553
911.03	3454
911.145	3291
911.259	3294
911.374	3321
911.489	3256
911.604	3211
911.718	3097
911.833	3180
911.947	3036
912.062	3024
912.176	3157
912.291	3173
912.405	3256
912.519	3405
912.633	3477
912.748	3317
912.862	3260
912.976	3203
913.09	3039
913.204	3150
913.318	3218
913.431	3332
913.545	3348
913.659	3420
913.772	3340
913.886	3188
914	3207
914.113	3329
914.226	3370
914.34	3370
914.453	3230
914.566	3367
914.68	3291
914.793	3313
914.906	3131
915.019	3119
915.132	3081
915.245	3211
915.358	3176
915.47	3226
915.583	3249
915.696	3325
915.809	3382
915.921	3447
916.034	3275
916.146	3226
916.259	3230
916.371	3370
916.483	3374
916.595	3241
916.708	3355
916.82	3321
916.932	3348
917.044	3348
917.156	3374
917.268	3211
917.38	3287
917.491	3317
917.603	3378
917.715	3439
917.826	3469
917.938	3363
918.049	3287
918.161	3405
918.272	3576
918.384	3553
918.495	3511
918.606	3359
918.717	3272
918.828	3401
918.939	3420
919.05	3306
919.161	3351
919.272	3199
919.383	3329
919.494	3511
919.604	3690
919.715	3458
919.826	3431
919.936	3469
920.047	3599
920.157	3568
920.267	3747
920.378	3637
920.488	3606
920.598	3778
920.708	3956
920.818	3804
920.928	3800
921.038	4017
921.148	4013
921.258	3736
921.368	3648
921.477	3606
921.587	3526
921.697	3412
921.806	3606
921.916	3462
922.025	3340
922.134	3382
922.244	3321
922.353	3431
922.462	3260
922.571	3241
922.68	3131
922.789	3108
922.898	3108
923.007	3100
923.116	3180
923.224	3211
923.333	3222
923.442	3089
923.55	3119
923.659	3116
923.767	3214
923.876	3131
923.984	3272
924.092	3100
924.201	3195
924.309	3222
924.417	3260
924.525	3184
924.633	3222
924.741	4215
924.849	3024
924.956	3291
925.064	3127
925.172	2998
925.279	3066
925.387	3226
925.494	3207
925.602	3363
925.709	3332
925.816	3218
925.924	3268
926.031	3374
926.138	3317
926.245	3348
926.352	3245
926.459	3450
926.566	3450
926.673	3348
926.779	3218
926.886	3241
926.993	3169
927.099	3119
927.206	3131
927.312	3119
927.419	3245
927.525	3199
927.631	3245
927.737	3169
927.843	3081
927.95	3036
928.056	3135
928.162	3211
928.267	3283
928.373	3880
928.479	3287
928.585	3093
928.69	3184
928.796	3279
928.901	3173
929.007	3047
929.112	3157
929.218	3192
929.323	3127
929.428	3180
929.533	3317
929.638	3123
929.743	3203
929.848	3272
929.953	3230
930.058	3154
930.163	3013
930.267	3051
930.372	3207
930.477	3024
930.581	3283
930.685	3199
930.79	3024
930.894	3108
930.998	3123
931.103	3306
931.207	2963
931.311	2925
931.415	2941
931.519	2727
931.623	2845
