Data from test_V78500241_640.txt Node
Date: Fri Mar 25 16:19:38 CST 2022
User: usil
Spectrometer: V785-0024
Trigger mode: 0
Integration Time (sec): 4.000000E-1
Scans to average: 1
Nonlinearity correction enabled: false
Boxcar width: 0
Storing dark spectrum: false
XAxis mode: Wavelengths
Number of Pixels in Spectrum: 1024
>>>>>Begin Spectral Data<<<<<
801.071	2914
801.214	2975
801.356	2922
801.499	2891
801.641	2914
801.783	2982
801.926	3074
802.068	2975
802.211	3051
802.353	3070
802.496	2956
802.638	3024
802.78	3017
802.923	3074
803.065	3032
803.208	2922
803.35	2967
803.492	2914
803.635	2971
803.777	2800
803.919	2857
804.061	3199
804.204	2960
804.346	2948
804.488	2811
804.63	2998
804.773	2857
804.915	2933
805.057	3093
805.199	2960
805.341	2979
805.483	3055
805.626	3028
805.768	2990
805.91	3085
806.052	3085
806.194	3039
806.336	3237
806.478	3032
806.62	2982
806.762	2998
806.904	3039
807.046	3161
807.188	2990
807.33	2948
807.472	3017
807.614	2883
807.756	3024
807.898	2899
808.04	2933
808.182	3017
808.324	2944
808.465	2883
808.607	2914
808.749	2826
808.891	2842
809.033	2998
809.174	2967
809.316	2906
809.458	2922
809.6	2777
809.741	2754
809.883	2826
810.025	2838
810.166	2857
810.308	2849
810.45	2883
810.591	2823
810.733	2785
810.875	2842
811.016	2807
811.158	2777
811.299	2838
811.441	2952
811.582	2918
811.724	2853
811.865	2834
812.007	2887
812.148	2883
812.29	2853
812.431	2922
812.573	2975
812.714	2952
812.855	3043
812.997	3047
813.138	3097
813.279	3017
813.421	3001
813.562	2960
813.703	2887
813.845	2895
813.986	2781
814.127	2750
814.268	2819
814.41	2864
814.551	2834
814.692	2838
814.833	2811
814.974	2899
815.115	2967
815.256	2861
815.397	2823
815.539	2845
815.68	2750
815.821	2845
815.962	2990
816.103	2937
816.244	2906
816.385	2872
816.526	2952
816.666	2944
816.807	2769
816.948	2895
817.089	2902
817.23	2899
817.371	2811
817.512	2834
817.653	2819
817.793	2842
817.934	2872
818.075	2982
818.216	2990
818.356	3032
818.497	2883
818.638	2807
818.778	2815
818.919	2826
819.06	2773
819.2	2891
819.341	2815
819.481	2815
819.622	2941
819.762	3108
819.903	3051
820.043	2922
820.184	2922
820.324	2902
820.465	3043
820.605	2990
820.746	3013
820.886	2914
821.026	3116
821.167	3222
821.307	3256
821.447	3287
821.588	3218
821.728	3211
821.868	3188
822.008	3093
822.149	3199
822.289	3241
822.429	3077
822.569	3108
822.709	3176
822.849	3017
822.99	3058
823.13	3173
823.27	3222
823.41	3077
823.55	3165
823.69	3173
823.83	3157
823.97	3077
824.11	2990
824.25	3017
824.389	3047
824.529	3112
824.669	3032
824.809	3203
824.949	3260
825.089	3233
825.228	3199
825.368	3032
825.508	2914
825.648	3001
825.787	2998
825.927	3036
826.067	3001
826.206	2960
826.346	3070
826.485	3081
826.625	3127
826.765	3264
826.904	3226
827.044	3001
827.183	2960
827.323	2880
827.462	2982
827.601	2914
827.741	2941
827.88	2963
828.02	2887
828.159	2963
828.298	3051
828.437	3123
828.577	3058
828.716	3241
828.855	3119
828.994	2937
829.134	2876
829.273	2922
829.412	2876
829.551	2883
829.69	2872
829.829	2986
829.968	3131
830.107	3020
830.246	3055
830.385	2944
830.524	2868
830.663	2830
830.802	2773
830.941	2674
831.08	2629
831.219	2800
831.357	2773
831.496	2960
831.635	2712
831.774	2644
831.913	2659
832.051	2541
832.19	2579
832.329	2648
832.467	2530
832.606	2499
832.744	2552
832.883	2606
833.022	2575
833.16	2648
833.299	2644
833.437	2708
833.576	2667
833.714	2727
833.852	2769
833.991	2785
834.129	2872
834.267	2872
834.406	2800
834.544	2872
834.682	2887
834.821	2861
834.959	3093
835.097	2952
835.235	3070
835.373	2982
835.511	3039
835.65	2948
835.788	2975
835.926	2857
836.064	2819
836.202	2823
836.34	3077
836.478	3146
836.615	3036
836.753	3176
836.891	3184
837.029	3150
837.167	3104
837.305	3058
837.443	3032
837.58	2941
837.718	3074
837.856	3093
837.993	3039
838.131	3089
838.269	3081
838.406	3074
838.544	3093
838.681	2925
838.819	2933
838.956	2838
839.094	2861
839.231	2925
839.369	2998
839.506	3409
839.643	3169
839.781	3013
839.918	2956
840.055	3036
840.193	3062
840.33	3066
840.467	3108
840.604	3154
840.742	3397
840.879	3051
841.016	3043
841.153	3116
841.29	3329
841.427	3283
841.564	3291
841.701	3291
841.838	3237
841.975	3173
842.112	3188
842.249	3089
842.385	3039
842.522	3226
842.659	3077
842.796	3051
842.933	3085
843.069	3024
843.206	3066
843.343	3192
843.479	3116
843.616	3169
843.752	2883
843.889	2872
844.025	3070
844.162	2864
844.298	3074
844.435	2956
844.571	2918
844.708	3089
844.844	3184
844.98	3256
845.117	3222
845.253	3074
845.389	3001
845.525	3097
845.661	3100
845.798	3032
845.934	3123
846.07	3074
846.206	3230
846.342	3329
846.478	3241
846.614	3123
846.75	3028
846.886	2998
847.022	3226
847.158	3142
847.294	3207
847.429	3222
847.565	3214
847.701	3492
847.837	3043
847.972	3017
848.108	3169
848.244	3142
848.379	2986
848.515	2990
848.65	2967
848.786	2944
848.921	3005
849.057	3085
849.192	3142
849.328	3058
849.463	3116
849.598	3093
849.734	3028
849.869	2998
850.004	2933
850.14	2952
850.275	2899
850.41	2872
850.545	2891
850.68	2910
850.815	2998
850.95	2979
851.085	3192
851.22	3077
851.355	3055
851.49	2971
851.625	2994
851.76	2990
851.895	2895
852.03	2910
852.165	3043
852.299	3089
852.434	3138
852.569	3154
852.703	3142
852.838	3211
852.973	3344
853.107	3332
853.242	3142
853.376	3039
853.511	2952
853.645	3051
853.78	3253
853.914	3089
854.048	3089
854.183	3085
854.317	3146
854.451	3302
854.585	3146
854.72	3089
854.854	3180
854.988	3074
855.122	3131
855.256	2982
855.39	3104
855.524	3241
855.658	3192
855.792	3142
855.926	3203
856.06	3230
856.194	3230
856.327	3157
856.461	3062
856.595	3077
856.729	3116
856.862	3218
856.996	3150
857.13	3184
857.263	3192
857.397	3298
857.53	3081
857.664	3211
857.797	3230
857.931	3245
858.064	3123
858.197	3249
858.331	3169
858.464	3085
858.597	3017
858.731	3104
858.864	3127
858.997	3077
859.13	3157
859.263	3192
859.396	3241
859.529	3051
859.662	3077
859.795	3047
859.928	3131
860.061	3260
860.194	3279
860.327	3108
860.46	3077
860.592	3237
860.725	3272
860.858	3237
860.99	3142
861.123	3077
861.256	3043
861.388	3157
861.521	3903
861.653	3013
861.786	2967
861.918	2994
862.05	3032
862.183	3116
862.315	3135
862.447	3173
862.58	3085
862.712	2979
862.844	2887
862.976	3043
863.108	3020
863.24	3420
863.372	2861
863.504	2960
863.636	2944
863.768	3051
863.9	2960
864.032	2906
864.164	2941
864.296	2986
864.428	3104
864.559	3089
864.691	3058
864.823	3070
864.954	3005
865.086	3001
865.217	2979
865.349	2971
865.48	2971
865.612	2979
865.743	3135
865.875	2990
866.006	2941
866.137	2956
866.269	2956
866.4	2933
866.531	2876
866.662	2891
866.793	2899
866.924	2929
867.055	2975
867.186	2937
867.317	2910
867.448	2826
867.579	2842
867.71	2834
867.841	2830
867.972	2880
868.103	2906
868.233	2883
868.364	2887
868.495	2895
868.625	3097
868.756	3154
868.886	2956
869.017	3032
869.147	3169
869.278	3150
869.408	3058
869.539	3028
869.669	3112
869.799	3039
869.929	3131
870.06	3097
870.19	3291
870.32	3272
870.45	3260
870.58	3355
870.71	3420
870.84	3420
870.97	3272
871.1	3249
871.23	3462
871.36	3447
871.489	3344
871.619	3405
871.749	3431
871.879	3378
872.008	3500
872.138	3374
872.267	3268
872.397	3169
872.526	3123
872.656	3009
872.785	3062
872.915	3218
873.044	3306
873.173	3226
873.303	3184
873.432	3253
873.561	3222
873.69	3138
873.819	3108
873.948	3199
874.077	3097
874.206	3043
874.335	3055
874.464	3233
874.593	3351
874.722	3253
874.851	3367
874.979	3344
875.108	3298
875.237	3218
875.365	3119
875.494	3146
875.623	3241
875.751	3112
875.88	3123
876.008	3192
876.136	3203
876.265	3382
876.393	3507
876.521	3409
876.65	3374
876.778	3321
876.906	3230
877.034	3165
877.162	3241
877.29	3154
877.418	3256
877.546	3283
877.674	3241
877.802	3245
877.93	3218
878.058	3127
878.185	3085
878.313	3237
878.441	3184
878.568	3108
878.696	3119
878.824	3230
878.951	3302
879.079	3466
879.206	3610
879.333	3412
879.461	3310
879.588	3359
879.715	3504
879.842	3610
879.97	3348
880.097	3127
880.224	3123
880.351	3207
880.478	3195
880.605	3165
880.732	3150
880.859	3492
880.986	3317
881.112	3310
881.239	3180
881.366	3062
881.493	3009
881.619	2979
881.746	3058
881.872	3070
881.999	3108
882.125	3146
882.252	3249
882.378	3268
882.505	3458
882.631	3241
882.757	3161
882.883	3214
883.01	3245
883.136	3150
883.262	3089
883.388	3108
883.514	3291
883.64	3355
883.766	3306
883.892	3180
884.018	3241
884.143	3409
884.269	3511
884.395	3180
884.52	3127
884.646	3207
884.772	3089
884.897	3104
885.023	3188
885.148	3302
885.274	3435
885.399	3336
885.524	3230
885.65	3287
885.775	3348
885.9	3249
886.025	3412
886.15	3355
886.275	3298
886.4	3241
886.525	3268
886.65	3233
886.775	3260
886.9	3485
887.025	3648
887.149	3393
887.274	3230
887.399	3199
887.523	3165
887.648	3161
887.773	3199
887.897	3386
888.021	3393
888.146	3313
888.27	3420
888.395	3526
888.519	3447
888.643	3454
888.767	3466
888.891	3306
889.015	3233
889.139	3256
889.263	3249
889.387	3389
889.511	3485
889.635	3435
889.759	3291
889.883	3306
890.006	3370
890.13	3469
890.254	3264
890.377	3382
890.501	3184
890.624	3214
890.748	3279
890.871	3184
890.995	3074
891.118	3009
891.241	3192
891.364	3199
891.488	3279
891.611	3203
891.734	3226
891.857	3332
891.98	3188
892.103	3340
892.226	3253
892.349	3230
892.471	3112
892.594	3241
892.717	3260
892.839	3264
892.962	3283
893.085	3367
893.207	3294
893.33	3146
893.452	3249
893.575	3340
893.697	3264
893.819	3450
893.941	3488
894.064	3469
894.186	3264
894.308	3241
894.43	3443
894.552	3519
894.674	3473
894.796	3256
894.918	3275
895.04	3279
895.161	3443
895.283	3370
895.405	3287
895.526	3382
895.648	3454
895.769	3416
895.891	3428
896.012	3447
896.134	3469
896.255	3405
896.376	3348
896.498	3363
896.619	3431
896.74	3359
896.861	3397
896.982	3717
897.103	3861
897.224	3610
897.345	3515
897.466	3382
897.587	3462
897.708	3587
897.828	3523
897.949	3447
898.07	3313
898.19	3435
898.311	3614
898.431	3447
898.552	3492
898.672	3538
898.792	3553
898.913	3526
899.033	3424
899.153	3348
899.273	3214
899.393	3283
899.513	3329
899.633	3306
899.753	3332
899.873	3275
899.993	3321
900.113	3336
900.232	3386
900.352	3336
900.472	3272
900.591	3180
900.711	3294
900.83	3214
900.95	3450
901.069	3511
901.189	3363
901.308	3173
901.427	3127
901.546	3146
901.665	3321
901.784	3317
901.904	3199
902.023	3138
902.141	3013
902.26	2982
902.379	3123
902.498	3058
902.617	3093
902.735	3188
902.854	3211
902.973	3218
903.091	3051
903.21	3062
903.328	3112
903.446	3100
903.565	3119
903.683	3203
903.801	3119
903.919	3207
904.038	3291
904.156	3157
904.274	3306
904.392	3241
904.51	3298
904.627	3310
904.745	3431
904.863	3500
904.981	3241
905.098	3173
905.216	3207
905.334	3291
905.451	3294
905.569	3275
905.686	3424
905.803	3424
905.921	3306
906.038	3378
906.155	3313
906.272	3313
906.389	3329
906.506	3218
906.623	3279
906.74	3226
906.857	3207
906.974	3230
907.091	3466
907.208	3534
907.324	3485
907.441	3424
907.557	3218
907.674	3226
907.79	3207
907.907	3249
908.023	3359
908.139	3359
908.256	3302
908.372	3351
908.488	3344
908.604	3245
908.72	3222
908.836	3268
908.952	3302
909.068	3321
909.184	3481
909.3	3374
909.415	3485
909.531	3450
909.647	3260
909.762	3241
909.878	3275
909.993	3374
910.108	3348
910.224	3397
910.339	3405
910.454	3325
910.57	3306
910.685	3241
910.8	3572
910.915	3530
911.03	3439
911.145	3287
911.259	3283
911.374	3291
911.489	3253
911.604	3203
911.718	3119
911.833	3127
911.947	3036
912.062	2986
912.176	3192
912.291	3188
912.405	3199
912.519	3431
912.633	3477
912.748	3355
912.862	3264
912.976	3180
913.09	3039
913.204	3157
913.318	3211
913.431	3321
913.545	3340
913.659	3424
913.772	3336
913.886	3214
914	3188
914.113	3351
914.226	3378
914.34	3351
914.453	3173
914.566	3435
914.68	3283
914.793	3310
914.906	3108
915.019	3116
915.132	3043
915.245	3169
915.358	3222
915.47	3226
915.583	3272
915.696	3264
915.809	3401
915.921	3401
916.034	3253
916.146	3260
916.259	3222
916.371	3374
916.483	3428
916.595	3260
916.708	3325
916.82	3332
916.932	3325
917.044	3329
917.156	3367
917.268	3256
917.38	3332
917.491	3245
917.603	3348
917.715	3412
917.826	3420
917.938	3348
918.049	3294
918.161	3458
918.272	3549
918.384	3561
918.495	3485
918.606	3329
918.717	3279
918.828	3397
918.939	3397
919.05	3317
919.161	3336
919.272	3203
919.383	3256
919.494	3496
919.604	3648
919.715	3485
919.826	3420
919.936	3431
920.047	3561
920.157	3557
920.267	3724
920.378	3618
920.488	3477
920.598	3804
920.708	3972
920.818	3842
920.928	3808
921.038	4010
921.148	4002
921.258	3682
921.368	3622
921.477	3568
921.587	3564
921.697	3443
921.806	3614
921.916	3557
922.025	3359
922.134	3329
922.244	3348
922.353	3431
922.462	3260
922.571	3222
922.68	3104
922.789	3043
922.898	3108
923.007	3135
923.116	3195
923.224	3154
923.333	3157
923.442	3074
923.55	3097
923.659	3154
923.767	3203
923.876	3108
923.984	3218
924.092	3100
924.201	3195
924.309	3230
924.417	3279
924.525	3199
924.633	3214
924.741	4006
924.849	3039
924.956	3230
925.064	3119
925.172	3032
925.279	3123
925.387	3192
925.494	3211
925.602	3389
925.709	3321
925.816	3180
925.924	3279
926.031	3355
926.138	3325
926.245	3359
926.352	3245
926.459	3401
926.566	3454
926.673	3329
926.779	3249
926.886	3230
926.993	3150
927.099	3112
927.206	3116
927.312	3104
927.419	3230
927.525	3150
927.631	3222
927.737	3165
927.843	3119
927.95	3020
928.056	3123
928.162	3165
928.267	3230
928.373	3778
928.479	3287
928.585	3058
928.69	3249
928.796	3233
928.901	3199
929.007	3070
929.112	3207
929.218	3138
929.323	3188
929.428	3157
929.533	3329
929.638	3089
929.743	3173
929.848	3256
929.953	3199
930.058	3180
930.163	3009
930.267	3055
930.372	3214
930.477	3043
930.581	3332
930.685	3176
930.79	3013
930.894	3123
930.998	3085
931.103	3264
931.207	2941
931.311	2960
931.415	2960
931.519	2819
931.623	2796
