Data from test_V78500241_1630.txt Node
Date: Fri Mar 25 16:26:29 CST 2022
User: usil
Spectrometer: V785-0024
Trigger mode: 0
Integration Time (sec): 4.000000E-1
Scans to average: 1
Nonlinearity correction enabled: false
Boxcar width: 0
Storing dark spectrum: false
XAxis mode: Wavelengths
Number of Pixels in Spectrum: 1024
>>>>>Begin Spectral Data<<<<<
801.071	2895
801.214	2963
801.356	2868
801.499	2861
801.641	2834
801.783	2906
801.926	3055
802.068	2975
802.211	3001
802.353	3017
802.496	2971
802.638	3009
802.78	3055
802.923	3070
803.065	2990
803.208	2929
803.35	2918
803.492	2956
803.635	2925
803.777	2758
803.919	2853
804.061	3226
804.204	2929
804.346	2914
804.488	2845
804.63	3001
804.773	2872
804.915	2902
805.057	3070
805.199	2925
805.341	2998
805.483	3058
805.626	3001
805.768	2956
805.91	3100
806.052	3112
806.194	3001
806.336	3253
806.478	3028
806.62	2925
806.762	2956
806.904	3032
807.046	3188
807.188	2982
807.33	2883
807.472	2986
807.614	2914
807.756	2963
807.898	2925
808.04	2861
808.182	2986
808.324	2952
808.465	2922
808.607	2883
808.749	2807
808.891	2823
809.033	2982
809.174	2986
809.316	2838
809.458	2899
809.6	2743
809.741	2746
809.883	2796
810.025	2845
810.166	2861
810.308	2819
810.45	2842
810.591	2758
810.733	2792
810.875	2800
811.016	2739
811.158	2766
811.299	2807
811.441	2902
811.582	2922
811.724	2834
811.865	2830
812.007	2902
812.148	2883
812.29	2845
812.431	2895
812.573	2944
812.714	2979
812.855	3062
812.997	3028
813.138	3116
813.279	2982
813.421	2994
813.562	2975
813.703	2872
813.845	2887
813.986	2758
814.127	2731
814.268	2838
814.41	2853
814.551	2804
814.692	2838
814.833	2838
814.974	2876
815.115	2956
815.256	2830
815.397	2819
815.539	2845
815.68	2800
815.821	2815
815.962	2933
816.103	2910
816.244	2887
816.385	2853
816.526	2963
816.666	2925
816.807	2758
816.948	2899
817.089	2891
817.23	2815
817.371	2796
817.512	2815
817.653	2830
817.793	2762
817.934	2868
818.075	2963
818.216	2975
818.356	2998
818.497	2876
818.638	2800
818.778	2823
818.919	2796
819.06	2766
819.2	2925
819.341	2781
819.481	2762
819.622	2906
819.762	3093
819.903	3074
820.043	2895
820.184	2899
820.324	2910
820.465	3020
820.605	2986
820.746	3028
820.886	2918
821.026	3077
821.167	3161
821.307	3230
821.447	3241
821.588	3245
821.728	3207
821.868	3195
822.008	3070
822.149	3169
822.289	3195
822.429	3108
822.569	3058
822.709	3154
822.849	3005
822.99	3066
823.13	3173
823.27	3222
823.41	3104
823.55	3150
823.69	3116
823.83	3230
823.97	3127
824.11	2979
824.25	2994
824.389	3039
824.529	3127
824.669	3058
824.809	3207
824.949	3253
825.089	3211
825.228	3150
825.368	3020
825.508	2960
825.648	2971
825.787	2979
825.927	3013
826.067	2979
826.206	2956
826.346	3024
826.485	3055
826.625	3062
826.765	3226
826.904	3211
827.044	2967
827.183	2948
827.323	2853
827.462	3028
827.601	2914
827.741	2933
827.88	2944
828.02	2826
828.159	2975
828.298	3001
828.437	3089
828.577	3058
828.716	3241
828.855	3100
828.994	2899
829.134	2872
829.273	2887
829.412	2842
829.551	2849
829.69	2891
829.829	2952
829.968	3135
830.107	3020
830.246	3036
830.385	2906
830.524	2845
830.663	2823
830.802	2750
830.941	2644
831.08	2648
831.219	2735
831.357	2731
831.496	2899
831.635	2720
831.774	2629
831.913	2663
832.051	2545
832.19	2571
832.329	2640
832.467	2568
832.606	2484
832.744	2594
832.883	2583
833.022	2556
833.16	2632
833.299	2674
833.437	2693
833.576	2712
833.714	2739
833.852	2746
833.991	2746
834.129	2807
834.267	2830
834.406	2800
834.544	2830
834.682	2849
834.821	2853
834.959	3074
835.097	2906
835.235	3066
835.373	2975
835.511	3047
835.65	2933
835.788	2941
835.926	2834
836.064	2792
836.202	2849
836.34	3081
836.478	3138
836.615	3017
836.753	3123
836.891	3199
837.029	3116
837.167	3104
837.305	3089
837.443	3017
837.58	2906
837.718	3119
837.856	3043
837.993	3039
838.131	3085
838.269	3066
838.406	3119
838.544	3074
838.681	2933
838.819	2914
838.956	2807
839.094	2826
839.231	2914
839.369	3024
839.506	3374
839.643	3233
839.781	2990
839.918	2948
840.055	3039
840.193	3055
840.33	3070
840.467	3077
840.604	3146
840.742	3340
840.879	3062
841.016	3036
841.153	3074
841.29	3329
841.427	3310
841.564	3256
841.701	3275
841.838	3207
841.975	3188
842.112	3184
842.249	3093
842.385	3017
842.522	3241
842.659	3093
842.796	3009
842.933	3089
843.069	3047
843.206	3043
843.343	3180
843.479	3112
843.616	3165
843.752	2895
843.889	2868
844.025	3070
844.162	2887
844.298	3085
844.435	2944
844.571	2937
844.708	3089
844.844	3188
844.98	3207
845.117	3184
845.253	3032
845.389	3005
845.525	3112
845.661	3097
845.798	3001
845.934	3093
846.07	3051
846.206	3211
846.342	3298
846.478	3233
846.614	3104
846.75	3047
846.886	2998
847.022	3226
847.158	3116
847.294	3188
847.429	3218
847.565	3218
847.701	3485
847.837	3058
847.972	2986
848.108	3142
848.244	3161
848.379	2963
848.515	2948
848.65	2933
848.786	2960
848.921	2982
849.057	3100
849.192	3135
849.328	3047
849.463	3108
849.598	3032
849.734	3043
849.869	2960
850.004	2910
850.14	2941
850.275	2910
850.41	2845
850.545	2872
850.68	2918
850.815	2944
850.95	2967
851.085	3176
851.22	3081
851.355	3013
851.49	3001
851.625	2998
851.76	2986
851.895	2933
852.03	2891
852.165	3024
852.299	3127
852.434	3176
852.569	3135
852.703	3161
852.838	3253
852.973	3317
853.107	3298
853.242	3180
853.376	3081
853.511	2998
853.645	3005
853.78	3184
853.914	3112
854.048	3131
854.183	3047
854.317	3119
854.451	3249
854.585	3138
854.72	3074
854.854	3207
854.988	3017
855.122	3085
855.256	2990
855.39	3150
855.524	3173
855.658	3184
855.792	3157
855.926	3207
856.06	3253
856.194	3272
856.327	3138
856.461	3062
856.595	3077
856.729	3036
856.862	3192
856.996	3157
857.13	3173
857.263	3207
857.397	3279
857.53	3146
857.664	3199
857.797	3218
857.931	3260
858.064	3192
858.197	3203
858.331	3127
858.464	3074
858.597	3036
858.731	3093
858.864	3085
858.997	3081
859.13	3131
859.263	3142
859.396	3195
859.529	3131
859.662	3104
859.795	3081
859.928	3127
860.061	3298
860.194	3291
860.327	3131
860.46	3066
860.592	3268
860.725	3283
860.858	3230
860.99	3058
861.123	3051
861.256	3036
861.388	3150
861.521	3835
861.653	3005
861.786	2956
861.918	2990
862.05	3047
862.183	3081
862.315	3131
862.447	3173
862.58	3104
862.712	2971
862.844	2842
862.976	3074
863.108	2982
863.24	3329
863.372	2876
863.504	2971
863.636	2963
863.768	3047
863.9	2956
864.032	2922
864.164	2986
864.296	2994
864.428	3112
864.559	3081
864.691	3028
864.823	3028
864.954	3017
865.086	3062
865.217	2971
865.349	2948
865.48	2944
865.612	3036
865.743	3142
865.875	2941
866.006	2937
866.137	2956
866.269	2967
866.4	2948
866.531	2902
866.662	2857
866.793	2918
866.924	2864
867.055	2990
867.186	2895
867.317	2883
867.448	2853
867.579	2830
867.71	2880
867.841	2807
867.972	2864
868.103	2880
868.233	2880
868.364	2842
868.495	2906
868.625	3055
868.756	3176
868.886	2963
869.017	3001
869.147	3150
869.278	3100
869.408	3047
869.539	2994
869.669	3093
869.799	3051
869.929	3108
870.06	3108
870.19	3291
870.32	3264
870.45	3291
870.58	3367
870.71	3447
870.84	3431
870.97	3245
871.1	3260
871.23	3462
871.36	3428
871.489	3367
871.619	3355
871.749	3412
871.879	3469
872.008	3443
872.138	3348
872.267	3287
872.397	3154
872.526	3085
872.656	3032
872.785	3097
872.915	3275
873.044	3310
873.173	3195
873.303	3256
873.432	3233
873.561	3249
873.69	3176
873.819	3142
873.948	3180
874.077	3108
874.206	3097
874.335	3051
874.464	3218
874.593	3325
874.722	3268
874.851	3389
874.979	3321
875.108	3298
875.237	3192
875.365	3150
875.494	3176
875.623	3222
875.751	3047
875.88	3093
876.008	3188
876.136	3218
876.265	3351
876.393	3526
876.521	3382
876.65	3370
876.778	3351
876.906	3256
877.034	3192
877.162	3233
877.29	3161
877.418	3237
877.546	3218
877.674	3222
877.802	3211
877.93	3237
878.058	3150
878.185	3051
878.313	3173
878.441	3245
878.568	3089
878.696	3142
878.824	3233
878.951	3283
879.079	3416
879.206	3553
879.333	3401
879.461	3332
879.588	3351
879.715	3443
879.842	3595
879.97	3363
880.097	3123
880.224	3100
880.351	3203
880.478	3192
880.605	3199
880.732	3154
880.859	3485
880.986	3256
881.112	3321
881.239	3188
881.366	3093
881.493	3036
881.619	3009
881.746	3081
881.872	3077
881.999	3119
882.125	3150
882.252	3283
882.378	3287
882.505	3420
882.631	3249
882.757	3161
882.883	3211
883.01	3249
883.136	3131
883.262	3089
883.388	3119
883.514	3306
883.64	3348
883.766	3348
883.892	3161
884.018	3222
884.143	3405
884.269	3507
884.395	3192
884.52	3157
884.646	3169
884.772	3150
884.897	3097
885.023	3161
885.148	3348
885.274	3412
885.399	3386
885.524	3291
885.65	3287
885.775	3310
885.9	3241
886.025	3412
886.15	3340
886.275	3275
886.4	3226
886.525	3313
886.65	3272
886.775	3313
886.9	3488
887.025	3591
887.149	3389
887.274	3260
887.399	3173
887.523	3199
887.648	3180
887.773	3207
887.897	3370
888.021	3405
888.146	3325
888.27	3428
888.395	3538
888.519	3409
888.643	3458
888.767	3420
888.891	3310
889.015	3233
889.139	3310
889.263	3245
889.387	3351
889.511	3523
889.635	3416
889.759	3256
889.883	3272
890.006	3405
890.13	3469
890.254	3260
890.377	3317
890.501	3218
890.624	3203
890.748	3321
890.871	3188
890.995	3097
891.118	3062
891.241	3176
891.364	3176
891.488	3275
891.611	3226
891.734	3245
891.857	3264
891.98	3222
892.103	3306
892.226	3306
892.349	3173
892.471	3116
892.594	3199
892.717	3291
892.839	3264
892.962	3313
893.085	3336
893.207	3260
893.33	3142
893.452	3184
893.575	3329
893.697	3195
893.819	3450
893.941	3492
894.064	3431
894.186	3249
894.308	3249
894.43	3431
894.552	3542
894.674	3466
894.796	3291
894.918	3302
895.04	3298
895.161	3397
895.283	3348
895.405	3298
895.526	3370
895.648	3416
895.769	3409
895.891	3477
896.012	3500
896.134	3431
896.255	3420
896.376	3374
896.498	3386
896.619	3424
896.74	3397
896.861	3397
896.982	3644
897.103	3846
897.224	3587
897.345	3458
897.466	3420
897.587	3424
897.708	3572
897.828	3549
897.949	3443
898.07	3363
898.19	3382
898.311	3572
898.431	3428
898.552	3523
898.672	3557
898.792	3584
898.913	3538
899.033	3382
899.153	3275
899.273	3180
899.393	3287
899.513	3279
899.633	3294
899.753	3317
899.873	3283
899.993	3355
900.113	3329
900.232	3313
900.352	3336
900.472	3279
900.591	3192
900.711	3272
900.83	3207
900.95	3420
901.069	3561
901.189	3329
901.308	3165
901.427	3165
901.546	3184
901.665	3283
901.784	3317
901.904	3203
902.023	3150
902.141	2990
902.26	3013
902.379	3154
902.498	3093
902.617	3032
902.735	3199
902.854	3203
902.973	3161
903.091	3066
903.21	3074
903.328	3119
903.446	3131
903.565	3100
903.683	3211
903.801	3093
903.919	3214
904.038	3283
904.156	3165
904.274	3325
904.392	3237
904.51	3268
904.627	3287
904.745	3439
904.863	3469
904.981	3245
905.098	3165
905.216	3203
905.334	3291
905.451	3291
905.569	3310
905.686	3416
905.803	3420
905.921	3317
906.038	3370
906.155	3355
906.272	3287
906.389	3317
906.506	3245
906.623	3249
906.74	3264
906.857	3207
906.974	3260
907.091	3454
907.208	3553
907.324	3454
907.441	3393
907.557	3253
907.674	3226
907.79	3195
907.907	3279
908.023	3393
908.139	3420
908.256	3336
908.372	3355
908.488	3355
908.604	3211
908.72	3192
908.836	3275
908.952	3245
909.068	3321
909.184	3458
909.3	3389
909.415	3488
909.531	3458
909.647	3275
909.762	3279
909.878	3241
909.993	3374
910.108	3332
910.224	3310
910.339	3374
910.454	3317
910.57	3226
910.685	3241
910.8	3599
910.915	3500
911.03	3439
911.145	3241
911.259	3310
911.374	3321
911.489	3245
911.604	3222
911.718	3097
911.833	3112
911.947	3009
912.062	2994
912.176	3173
912.291	3192
912.405	3173
912.519	3431
912.633	3477
912.748	3374
912.862	3283
912.976	3112
913.09	3055
913.204	3142
913.318	3218
913.431	3310
913.545	3329
913.659	3405
913.772	3298
913.886	3173
914	3173
914.113	3344
914.226	3393
914.34	3363
914.453	3260
914.566	3401
914.68	3291
914.793	3283
914.906	3131
915.019	3127
915.132	3036
915.245	3192
915.358	3192
915.47	3214
915.583	3287
915.696	3291
915.809	3363
915.921	3405
916.034	3245
916.146	3268
916.259	3199
916.371	3397
916.483	3336
916.595	3233
916.708	3272
916.82	3340
916.932	3340
917.044	3348
917.156	3336
917.268	3233
917.38	3268
917.491	3256
917.603	3340
917.715	3431
917.826	3443
917.938	3378
918.049	3279
918.161	3409
918.272	3526
918.384	3576
918.495	3469
918.606	3329
918.717	3298
918.828	3340
918.939	3409
919.05	3279
919.161	3344
919.272	3188
919.383	3283
919.494	3519
919.604	3682
919.715	3485
919.826	3412
919.936	3481
920.047	3545
920.157	3568
920.267	3846
920.378	3553
920.488	3526
920.598	3728
920.708	3956
920.818	3819
920.928	3804
921.038	4044
921.148	3979
921.258	3728
921.368	3614
921.477	3572
921.587	3511
921.697	3481
921.806	3625
921.916	3511
922.025	3355
922.134	3378
922.244	3275
922.353	3428
922.462	3329
922.571	3256
922.68	3161
922.789	3081
922.898	3157
923.007	3112
923.116	3249
923.224	3192
923.333	3207
923.442	3100
923.55	3142
923.659	3165
923.767	3256
923.876	3119
923.984	3249
924.092	3138
924.201	3222
924.309	3256
924.417	3275
924.525	3256
924.633	3245
924.741	4196
924.849	3119
924.956	3359
925.064	3135
925.172	3077
925.279	3123
925.387	3230
925.494	3214
925.602	3382
925.709	3325
925.816	3245
925.924	3332
926.031	3439
926.138	3321
926.245	3374
926.352	3321
926.459	3447
926.566	3504
926.673	3367
926.779	3306
926.886	3283
926.993	3203
927.099	3176
927.206	3169
927.312	3157
927.419	3298
927.525	3264
927.631	3317
927.737	3199
927.843	3150
927.95	3070
928.056	3165
928.162	3222
928.267	3264
928.373	3869
928.479	3332
928.585	3131
928.69	3302
928.796	3317
928.901	3203
929.007	3055
929.112	3241
929.218	3249
929.323	3195
929.428	3207
929.533	3367
929.638	3165
929.743	3218
929.848	3291
929.953	3275
930.058	3192
930.163	3074
930.267	3089
930.372	3249
930.477	3085
930.581	3317
930.685	3237
930.79	3127
930.894	3161
930.998	3123
931.103	3329
931.207	2956
931.311	3005
931.415	2963
931.519	2845
931.623	2838
