Data from test_V78500241_1409.txt Node
Date: Fri Mar 25 16:24:57 CST 2022
User: usil
Spectrometer: V785-0024
Trigger mode: 0
Integration Time (sec): 4.000000E-1
Scans to average: 1
Nonlinearity correction enabled: false
Boxcar width: 0
Storing dark spectrum: false
XAxis mode: Wavelengths
Number of Pixels in Spectrum: 1024
>>>>>Begin Spectral Data<<<<<
801.071	2929
801.214	2941
801.356	2853
801.499	2925
801.641	2807
801.783	2922
801.926	3028
802.068	2975
802.211	2986
802.353	3001
802.496	2925
802.638	2994
802.78	3020
802.923	3074
803.065	3005
803.208	2906
803.35	2918
803.492	2937
803.635	2914
803.777	2743
803.919	2838
804.061	3169
804.204	2925
804.346	2902
804.488	2830
804.63	2967
804.773	2845
804.915	2887
805.057	3039
805.199	2937
805.341	2971
805.483	3017
805.626	3009
805.768	2952
805.91	3104
806.052	3108
806.194	3028
806.336	3226
806.478	3005
806.62	2986
806.762	2952
806.904	3032
807.046	3180
807.188	2937
807.33	2922
807.472	2963
807.614	2876
807.756	2982
807.898	2891
808.04	2899
808.182	3017
808.324	2941
808.465	2861
808.607	2895
808.749	2796
808.891	2838
809.033	2937
809.174	2944
809.316	2880
809.458	2883
809.6	2773
809.741	2754
809.883	2769
810.025	2842
810.166	2845
810.308	2823
810.45	2838
810.591	2785
810.733	2724
810.875	2796
811.016	2773
811.158	2739
811.299	2769
811.441	2906
811.582	2918
811.724	2788
811.865	2815
812.007	2887
812.148	2849
812.29	2861
812.431	2876
812.573	2948
812.714	2960
812.855	3028
812.997	3047
813.138	3097
813.279	2982
813.421	2971
813.562	2963
813.703	2861
813.845	2891
813.986	2750
814.127	2727
814.268	2804
814.41	2826
814.551	2777
814.692	2895
814.833	2785
814.974	2895
815.115	2933
815.256	2819
815.397	2792
815.539	2834
815.68	2762
815.821	2777
815.962	2899
816.103	2876
816.244	2891
816.385	2876
816.526	2952
816.666	2876
816.807	2739
816.948	2853
817.089	2906
817.23	2826
817.371	2781
817.512	2804
817.653	2838
817.793	2826
817.934	2861
818.075	2929
818.216	2998
818.356	3009
818.497	2849
818.638	2746
818.778	2796
818.919	2800
819.06	2766
819.2	2853
819.341	2807
819.481	2796
819.622	2880
819.762	3055
819.903	2975
820.043	2910
820.184	2883
820.324	2895
820.465	3009
820.605	3005
820.746	3028
820.886	2872
821.026	3097
821.167	3161
821.307	3237
821.447	3291
821.588	3222
821.728	3199
821.868	3146
822.008	3058
822.149	3180
822.289	3192
822.429	3077
822.569	3066
822.709	3195
822.849	2998
822.99	3028
823.13	3138
823.27	3161
823.41	3097
823.55	3119
823.69	3116
823.83	3203
823.97	3077
824.11	3013
824.25	2979
824.389	3058
824.529	3077
824.669	3055
824.809	3180
824.949	3233
825.089	3230
825.228	3154
825.368	3024
825.508	2960
825.648	2956
825.787	2986
825.927	2986
826.067	2986
826.206	2956
826.346	3036
826.485	3066
826.625	3146
826.765	3237
826.904	3218
827.044	3043
827.183	2918
827.323	2857
827.462	2982
827.601	2922
827.741	2944
827.88	2971
828.02	2902
828.159	3005
828.298	3047
828.437	3131
828.577	3055
828.716	3241
828.855	3081
828.994	2914
829.134	2925
829.273	2952
829.412	2891
829.551	2876
829.69	2948
829.829	3020
829.968	3157
830.107	3043
830.246	3055
830.385	2967
830.524	2880
830.663	2838
830.802	2739
830.941	2697
831.08	2708
831.219	2815
831.357	2800
831.496	2990
831.635	2720
831.774	2682
831.913	2644
832.051	2610
832.19	2636
832.329	2727
832.467	2598
832.606	2511
832.744	2606
832.883	2621
833.022	2602
833.16	2689
833.299	2750
833.437	2739
833.576	2712
833.714	2769
833.852	2766
833.991	2804
834.129	2880
834.267	2887
834.406	2804
834.544	2922
834.682	2925
834.821	2883
834.959	3097
835.097	2933
835.235	3097
835.373	3051
835.511	3051
835.65	2998
835.788	2982
835.926	2914
836.064	2845
836.202	2883
836.34	3123
836.478	3218
836.615	3123
836.753	3165
836.891	3256
837.029	3169
837.167	3161
837.305	3097
837.443	3039
837.58	2990
837.718	3154
837.856	3089
837.993	3089
838.131	3176
838.269	3146
838.406	3123
838.544	3093
838.681	2963
838.819	2990
838.956	2868
839.094	2853
839.231	2929
839.369	3051
839.506	3405
839.643	3218
839.781	2994
839.918	2975
840.055	3089
840.193	3097
840.33	3085
840.467	3138
840.604	3184
840.742	3458
840.879	3074
841.016	3058
841.153	3138
841.29	3351
841.427	3340
841.564	3279
841.701	3332
841.838	3195
841.975	3214
842.112	3268
842.249	3135
842.385	3070
842.522	3302
842.659	3112
842.796	3127
842.933	3146
843.069	3077
843.206	3062
843.343	3180
843.479	3104
843.616	3173
843.752	2933
843.889	2914
844.025	3157
844.162	2880
844.298	3093
844.435	2998
844.571	2960
844.708	3089
844.844	3256
844.98	3279
845.117	3218
845.253	3074
845.389	3066
845.525	3142
845.661	3142
845.798	3047
845.934	3146
846.07	3097
846.206	3237
846.342	3329
846.478	3272
846.614	3131
846.75	3097
846.886	3058
847.022	3245
847.158	3169
847.294	3245
847.429	3256
847.565	3260
847.701	3553
847.837	3051
847.972	3032
848.108	3188
848.244	3154
848.379	3028
848.515	2990
848.65	2944
848.786	2971
848.921	3009
849.057	3123
849.192	3138
849.328	3100
849.463	3119
849.598	3077
849.734	3047
849.869	2994
850.004	2937
850.14	3028
850.275	2914
850.41	2868
850.545	2906
850.68	2963
850.815	2990
850.95	2986
851.085	3237
851.22	3154
851.355	3062
851.49	2998
851.625	3058
851.76	3058
851.895	2937
852.03	2944
852.165	3062
852.299	3116
852.434	3192
852.569	3169
852.703	3222
852.838	3302
852.973	3409
853.107	3359
853.242	3154
853.376	3104
853.511	3005
853.645	3009
853.78	3275
853.914	3146
854.048	3104
854.183	3066
854.317	3192
854.451	3310
854.585	3165
854.72	3150
854.854	3222
854.988	3093
855.122	3108
855.256	3013
855.39	3119
855.524	3249
855.658	3245
855.792	3112
855.926	3203
856.06	3268
856.194	3302
856.327	3150
856.461	3066
856.595	3085
856.729	3135
856.862	3253
856.996	3180
857.13	3256
857.263	3226
857.397	3329
857.53	3135
857.664	3211
857.797	3249
857.931	3272
858.064	3184
858.197	3253
858.331	3195
858.464	3097
858.597	3032
858.731	3138
858.864	3165
858.997	3097
859.13	3176
859.263	3207
859.396	3237
859.529	3138
859.662	3104
859.795	3047
859.928	3188
860.061	3279
860.194	3306
860.327	3146
860.46	3081
860.592	3272
860.725	3268
860.858	3291
860.99	3108
861.123	3074
861.256	3074
861.388	3127
861.521	3778
861.653	3058
861.786	3013
861.918	2998
862.05	3089
862.183	3108
862.315	3165
862.447	3214
862.58	3150
862.712	2979
862.844	2887
862.976	3089
863.108	3039
863.24	3367
863.372	2895
863.504	2960
863.636	2982
863.768	3036
863.9	2979
864.032	2956
864.164	3001
864.296	3039
864.428	3146
864.559	3100
864.691	3097
864.823	3070
864.954	3028
865.086	3066
865.217	3013
865.349	2979
865.48	3017
865.612	3024
865.743	3180
865.875	2975
866.006	3005
866.137	2982
866.269	2971
866.4	2982
866.531	2944
866.662	2922
866.793	2868
866.924	2933
867.055	2986
867.186	2910
867.317	2906
867.448	2876
867.579	2887
867.71	2883
867.841	2868
867.972	2941
868.103	2895
868.233	2918
868.364	2910
868.495	2910
868.625	3116
868.756	3188
868.886	2963
869.017	3047
869.147	3184
869.278	3180
869.408	3074
869.539	3070
869.669	3116
869.799	3074
869.929	3131
870.06	3097
870.19	3370
870.32	3355
870.45	3310
870.58	3370
870.71	3488
870.84	3473
870.97	3313
871.1	3249
871.23	3496
871.36	3435
871.489	3386
871.619	3443
871.749	3473
871.879	3477
872.008	3450
872.138	3359
872.267	3272
872.397	3176
872.526	3123
872.656	3039
872.785	3100
872.915	3237
873.044	3313
873.173	3275
873.303	3256
873.432	3268
873.561	3230
873.69	3169
873.819	3169
873.948	3192
874.077	3123
874.206	3051
874.335	3123
874.464	3230
874.593	3409
874.722	3283
874.851	3412
874.979	3351
875.108	3336
875.237	3184
875.365	3161
875.494	3222
875.623	3287
875.751	3085
875.88	3157
876.008	3207
876.136	3241
876.265	3378
876.393	3504
876.521	3450
876.65	3401
876.778	3367
876.906	3256
877.034	3233
877.162	3192
877.29	3203
877.418	3264
877.546	3241
877.674	3268
877.802	3233
877.93	3218
878.058	3161
878.185	3142
878.313	3233
878.441	3233
878.568	3077
878.696	3165
878.824	3256
878.951	3302
879.079	3507
879.206	3580
879.333	3416
879.461	3332
879.588	3367
879.715	3519
879.842	3625
879.97	3405
880.097	3142
880.224	3146
880.351	3192
880.478	3245
880.605	3203
880.732	3218
880.859	3511
880.986	3336
881.112	3344
881.239	3218
881.366	3119
881.493	3013
881.619	3036
881.746	3104
881.872	3089
881.999	3131
882.125	3157
882.252	3230
882.378	3264
882.505	3416
882.631	3275
882.757	3169
882.883	3203
883.01	3253
883.136	3165
883.262	3127
883.388	3104
883.514	3321
883.64	3374
883.766	3367
883.892	3184
884.018	3287
884.143	3393
884.269	3564
884.395	3233
884.52	3169
884.646	3184
884.772	3119
884.897	3127
885.023	3249
885.148	3325
885.274	3412
885.399	3397
885.524	3260
885.65	3283
885.775	3351
885.9	3264
886.025	3462
886.15	3428
886.275	3340
886.4	3249
886.525	3340
886.65	3310
886.775	3298
886.9	3534
887.025	3633
887.149	3435
887.274	3291
887.399	3195
887.523	3173
887.648	3176
887.773	3188
887.897	3378
888.021	3424
888.146	3294
888.27	3431
888.395	3545
888.519	3428
888.643	3454
888.767	3458
888.891	3344
889.015	3272
889.139	3298
889.263	3279
889.387	3447
889.511	3511
889.635	3424
889.759	3272
889.883	3260
890.006	3363
890.13	3511
890.254	3279
890.377	3355
890.501	3199
890.624	3188
890.748	3329
890.871	3199
890.995	3112
891.118	3119
891.241	3192
891.364	3264
891.488	3344
891.611	3195
891.734	3241
891.857	3306
891.98	3249
892.103	3370
892.226	3302
892.349	3230
892.471	3119
892.594	3249
892.717	3287
892.839	3268
892.962	3313
893.085	3374
893.207	3310
893.33	3192
893.452	3218
893.575	3344
893.697	3283
893.819	3443
893.941	3466
894.064	3511
894.186	3287
894.308	3275
894.43	3450
894.552	3557
894.674	3412
894.796	3275
894.918	3310
895.04	3275
895.161	3416
895.283	3393
895.405	3306
895.526	3367
895.648	3466
895.769	3439
895.891	3488
896.012	3439
896.134	3485
896.255	3382
896.376	3393
896.498	3374
896.619	3435
896.74	3367
896.861	3409
896.982	3694
897.103	3808
897.224	3584
897.345	3492
897.466	3450
897.587	3504
897.708	3584
897.828	3542
897.949	3416
898.07	3332
898.19	3397
898.311	3599
898.431	3477
898.552	3500
898.672	3587
898.792	3561
898.913	3534
899.033	3397
899.153	3317
899.273	3218
899.393	3306
899.513	3344
899.633	3325
899.753	3298
899.873	3306
899.993	3355
900.113	3329
900.232	3412
900.352	3374
900.472	3332
900.591	3188
900.711	3291
900.83	3195
900.95	3416
901.069	3492
901.189	3329
901.308	3157
901.427	3142
901.546	3188
901.665	3302
901.784	3367
901.904	3230
902.023	3173
902.141	3032
902.26	3043
902.379	3127
902.498	3100
902.617	3081
902.735	3218
902.854	3245
902.973	3233
903.091	3055
903.21	3093
903.328	3176
903.446	3157
903.565	3142
903.683	3249
903.801	3169
903.919	3279
904.038	3329
904.156	3161
904.274	3283
904.392	3298
904.51	3329
904.627	3370
904.745	3469
904.863	3526
904.981	3302
905.098	3188
905.216	3272
905.334	3310
905.451	3340
905.569	3409
905.686	3458
905.803	3481
905.921	3336
906.038	3458
906.155	3389
906.272	3294
906.389	3355
906.506	3306
906.623	3306
906.74	3321
906.857	3249
906.974	3302
907.091	3492
907.208	3625
907.324	3530
907.441	3439
907.557	3241
907.674	3317
907.79	3218
907.907	3329
908.023	3428
908.139	3439
908.256	3367
908.372	3420
908.488	3401
908.604	3348
908.72	3279
908.836	3294
908.952	3317
909.068	3428
909.184	3492
909.3	3424
909.415	3561
909.531	3515
909.647	3310
909.762	3294
909.878	3340
909.993	3420
910.108	3340
910.224	3382
910.339	3443
910.454	3382
910.57	3355
910.685	3287
910.8	3610
910.915	3553
911.03	3511
911.145	3279
911.259	3283
911.374	3310
911.489	3283
911.604	3245
911.718	3161
911.833	3211
911.947	3089
912.062	3047
912.176	3214
912.291	3241
912.405	3249
912.519	3447
912.633	3507
912.748	3374
912.862	3317
912.976	3207
913.09	3097
913.204	3180
913.318	3275
913.431	3409
913.545	3359
913.659	3469
913.772	3374
913.886	3268
914	3214
914.113	3382
914.226	3454
914.34	3409
914.453	3230
914.566	3466
914.68	3363
914.793	3359
914.906	3173
915.019	3176
915.132	3138
915.245	3222
915.358	3222
915.47	3275
915.583	3287
915.696	3302
915.809	3454
915.921	3462
916.034	3294
916.146	3294
916.259	3275
916.371	3420
916.483	3393
916.595	3348
916.708	3363
916.82	3393
916.932	3355
917.044	3370
917.156	3382
917.268	3279
917.38	3367
917.491	3306
917.603	3416
917.715	3473
917.826	3500
917.938	3405
918.049	3317
918.161	3450
918.272	3644
918.384	3603
918.495	3511
918.606	3359
918.717	3340
918.828	3397
918.939	3466
919.05	3321
919.161	3401
919.272	3230
919.383	3283
919.494	3553
919.604	3698
919.715	3523
919.826	3462
919.936	3466
920.047	3622
920.157	3564
920.267	3797
920.378	3610
920.488	3637
920.598	3781
920.708	4010
920.818	3827
920.928	3880
921.038	4048
921.148	4044
921.258	3713
921.368	3667
921.477	3599
921.587	3599
921.697	3473
921.806	3656
921.916	3530
922.025	3344
922.134	3401
922.244	3344
922.353	3405
922.462	3298
922.571	3222
922.68	3150
922.789	3119
922.898	3176
923.007	3138
923.116	3272
923.224	3207
923.333	3249
923.442	3127
923.55	3116
923.659	3169
923.767	3241
923.876	3142
923.984	3291
924.092	3142
924.201	3199
924.309	3253
924.417	3287
924.525	3218
924.633	3283
924.741	4204
924.849	3093
924.956	3306
925.064	3131
925.172	3066
925.279	3142
925.387	3233
925.494	3233
925.602	3363
925.709	3367
925.816	3230
925.924	3313
926.031	3397
926.138	3367
926.245	3382
926.352	3279
926.459	3420
926.566	3492
926.673	3321
926.779	3268
926.886	3268
926.993	3188
927.099	3154
927.206	3154
927.312	3119
927.419	3241
927.525	3256
927.631	3340
927.737	3180
927.843	3119
927.95	3077
928.056	3127
928.162	3218
928.267	3294
928.373	3930
928.479	3351
928.585	3119
928.69	3241
928.796	3317
928.901	3192
929.007	3097
929.112	3256
929.218	3226
929.323	3173
929.428	3176
929.533	3325
929.638	3135
929.743	3184
929.848	3291
929.953	3230
930.058	3192
930.163	3058
930.267	3058
930.372	3245
930.477	3043
930.581	3340
930.685	3218
930.79	3112
930.894	3161
930.998	3157
931.103	3332
931.207	2990
931.311	2979
931.415	2982
931.519	2811
931.623	2823
