Data from test_V78500241_249.txt Node
Date: Fri Mar 25 16:16:55 CST 2022
User: usil
Spectrometer: V785-0024
Trigger mode: 0
Integration Time (sec): 4.000000E-1
Scans to average: 1
Nonlinearity correction enabled: false
Boxcar width: 0
Storing dark spectrum: false
XAxis mode: Wavelengths
Number of Pixels in Spectrum: 1024
>>>>>Begin Spectral Data<<<<<
801.071	2906
801.214	2994
801.356	2902
801.499	2902
801.641	2876
801.783	2956
801.926	3066
802.068	2975
802.211	3001
802.353	3039
802.496	2986
802.638	2994
802.78	3017
802.923	3116
803.065	3032
803.208	2914
803.35	2960
803.492	2956
803.635	2971
803.777	2785
803.919	2902
804.061	3199
804.204	2925
804.346	2906
804.488	2845
804.63	3036
804.773	2880
804.915	2948
805.057	3127
805.199	2937
805.341	3005
805.483	3074
805.626	3036
805.768	2967
805.91	3108
806.052	3112
806.194	3116
806.336	3237
806.478	3047
806.62	2967
806.762	3009
806.904	3058
807.046	3199
807.188	3001
807.33	2941
807.472	3001
807.614	2929
807.756	3005
807.898	2925
808.04	2922
808.182	3020
808.324	2963
808.465	2880
808.607	2906
808.749	2788
808.891	2861
809.033	2982
809.174	3013
809.316	2887
809.458	2899
809.6	2811
809.741	2807
809.883	2788
810.025	2872
810.166	2864
810.308	2849
810.45	2864
810.591	2819
810.733	2823
810.875	2838
811.016	2785
811.158	2777
811.299	2834
811.441	2937
811.582	2914
811.724	2857
811.865	2861
812.007	2925
812.148	2902
812.29	2872
812.431	2918
812.573	2952
812.714	3001
812.855	3058
812.997	3047
813.138	3161
813.279	3062
813.421	3017
813.562	2963
813.703	2906
813.845	2895
813.986	2792
814.127	2758
814.268	2807
814.41	2868
814.551	2826
814.692	2887
814.833	2842
814.974	2906
815.115	2922
815.256	2834
815.397	2876
815.539	2853
815.68	2800
815.821	2823
815.962	2937
816.103	2948
816.244	2876
816.385	2883
816.526	3005
816.666	2925
816.807	2731
816.948	2891
817.089	2944
817.23	2849
817.371	2777
817.512	2853
817.653	2861
817.793	2834
817.934	2887
818.075	2960
818.216	3005
818.356	3017
818.497	2902
818.638	2830
818.778	2868
818.919	2815
819.06	2800
819.2	2883
819.341	2845
819.481	2834
819.622	2960
819.762	3131
819.903	3055
820.043	2895
820.184	2929
820.324	2899
820.465	3058
820.605	2998
820.746	3051
820.886	2956
821.026	3097
821.167	3176
821.307	3298
821.447	3332
821.588	3207
821.728	3249
821.868	3180
822.008	3089
822.149	3142
822.289	3272
822.429	3119
822.569	3093
822.709	3218
822.849	3097
822.99	3070
823.13	3195
823.27	3230
823.41	3157
823.55	3180
823.69	3161
823.83	3226
823.97	3097
824.11	3001
824.25	3017
824.389	3093
824.529	3081
824.669	3089
824.809	3184
824.949	3275
825.089	3237
825.228	3188
825.368	3020
825.508	2963
825.648	2982
825.787	3024
825.927	2998
826.067	2998
826.206	2982
826.346	3066
826.485	3085
826.625	3123
826.765	3279
826.904	3249
827.044	3001
827.183	2941
827.323	2826
827.462	3017
827.601	2937
827.741	2944
827.88	2975
828.02	2876
828.159	2979
828.298	3089
828.437	3123
828.577	3028
828.716	3218
828.855	3081
828.994	2948
829.134	2956
829.273	2933
829.412	2868
829.551	2876
829.69	2876
829.829	3005
829.968	3123
830.107	2975
830.246	3077
830.385	2944
830.524	2914
830.663	2826
830.802	2754
830.941	2682
831.08	2682
831.219	2800
831.357	2777
831.496	2998
831.635	2689
831.774	2667
831.913	2667
832.051	2587
832.19	2610
832.329	2701
832.467	2549
832.606	2488
832.744	2579
832.883	2583
833.022	2617
833.16	2678
833.299	2663
833.437	2724
833.576	2724
833.714	2766
833.852	2796
833.991	2754
834.129	2845
834.267	2819
834.406	2781
834.544	2902
834.682	2910
834.821	2864
834.959	3066
835.097	2922
835.235	3097
835.373	2994
835.511	3039
835.65	2963
835.788	2994
835.926	2845
836.064	2815
836.202	2838
836.34	3131
836.478	3154
836.615	3066
836.753	3123
836.891	3184
837.029	3176
837.167	3135
837.305	3119
837.443	3066
837.58	2956
837.718	3119
837.856	3047
837.993	3001
838.131	3100
838.269	3131
838.406	3074
838.544	3097
838.681	2952
838.819	2910
838.956	2826
839.094	2849
839.231	2937
839.369	3085
839.506	3389
839.643	3222
839.781	3005
839.918	2960
840.055	3047
840.193	3074
840.33	3066
840.467	3108
840.604	3146
840.742	3435
840.879	3028
841.016	3077
841.153	3146
841.29	3325
841.427	3294
841.564	3264
841.701	3329
841.838	3237
841.975	3173
842.112	3256
842.249	3104
842.385	3032
842.522	3264
842.659	3116
842.796	3085
842.933	3070
843.069	3009
843.206	3043
843.343	3180
843.479	3146
843.616	3184
843.752	2925
843.889	2906
844.025	3077
844.162	2914
844.298	3093
844.435	2925
844.571	2929
844.708	3058
844.844	3199
844.98	3230
845.117	3241
845.253	3043
845.389	3005
845.525	3123
845.661	3112
845.798	2994
845.934	3123
846.07	3062
846.206	3214
846.342	3348
846.478	3230
846.614	3104
846.75	3085
846.886	3047
847.022	3237
847.158	3135
847.294	3226
847.429	3241
847.565	3268
847.701	3485
847.837	3020
847.972	3009
848.108	3195
848.244	3104
848.379	3055
848.515	2975
848.65	2956
848.786	2990
848.921	3009
849.057	3089
849.192	3195
849.328	3100
849.463	3131
849.598	3058
849.734	3062
849.869	3013
850.004	2918
850.14	3005
850.275	2952
850.41	2883
850.545	2891
850.68	2933
850.815	2963
850.95	2975
851.085	3195
851.22	3116
851.355	3047
851.49	2994
851.625	3009
851.76	3020
851.895	2906
852.03	2944
852.165	3058
852.299	3123
852.434	3207
852.569	3097
852.703	3184
852.838	3294
852.973	3336
853.107	3363
853.242	3169
853.376	3119
853.511	2952
853.645	3058
853.78	3241
853.914	3161
854.048	3131
854.183	3085
854.317	3108
854.451	3287
854.585	3142
854.72	3123
854.854	3184
854.988	3062
855.122	3123
855.256	2967
855.39	3138
855.524	3260
855.658	3230
855.792	3154
855.926	3184
856.06	3176
856.194	3275
856.327	3161
856.461	3074
856.595	3093
856.729	3089
856.862	3211
856.996	3169
857.13	3222
857.263	3245
857.397	3256
857.53	3165
857.664	3211
857.797	3241
857.931	3264
858.064	3154
858.197	3241
858.331	3123
858.464	3108
858.597	3013
858.731	3119
858.864	3169
858.997	3085
859.13	3150
859.263	3165
859.396	3176
859.529	3116
859.662	3116
859.795	3055
859.928	3127
860.061	3279
860.194	3294
860.327	3169
860.46	3070
860.592	3211
860.725	3222
860.858	3230
860.99	3100
861.123	3062
861.256	3081
861.388	3157
861.521	3869
861.653	3020
861.786	3020
861.918	3039
862.05	3055
862.183	3142
862.315	3135
862.447	3195
862.58	3116
862.712	2933
862.844	2864
862.976	3055
863.108	2979
863.24	3329
863.372	2857
863.504	2971
863.636	2979
863.768	3028
863.9	2952
864.032	2914
864.164	2956
864.296	3032
864.428	3077
864.559	3077
864.691	3058
864.823	3055
864.954	3062
865.086	3077
865.217	2994
865.349	2941
865.48	2979
865.612	3024
865.743	3169
865.875	3001
866.006	2979
866.137	3001
866.269	2990
866.4	2960
866.531	2960
866.662	2914
866.793	2883
866.924	2910
867.055	2952
867.186	2925
867.317	2857
867.448	2857
867.579	2880
867.71	2830
867.841	2834
867.972	2910
868.103	2895
868.233	2895
868.364	2887
868.495	2906
868.625	3104
868.756	3138
868.886	2929
869.017	3047
869.147	3184
869.278	3154
869.408	3017
869.539	3032
869.669	3097
869.799	3032
869.929	3135
870.06	3085
870.19	3344
870.32	3310
870.45	3302
870.58	3378
870.71	3469
870.84	3473
870.97	3275
871.1	3264
871.23	3466
871.36	3462
871.489	3340
871.619	3397
871.749	3416
871.879	3416
872.008	3481
872.138	3389
872.267	3325
872.397	3119
872.526	3100
872.656	2990
872.785	3074
872.915	3272
873.044	3325
873.173	3233
873.303	3241
873.432	3256
873.561	3260
873.69	3180
873.819	3154
873.948	3192
874.077	3097
874.206	3024
874.335	3081
874.464	3211
874.593	3351
874.722	3272
874.851	3374
874.979	3370
875.108	3336
875.237	3230
875.365	3157
875.494	3184
875.623	3249
875.751	3055
875.88	3093
876.008	3165
876.136	3249
876.265	3370
876.393	3473
876.521	3439
876.65	3389
876.778	3348
876.906	3214
877.034	3211
877.162	3264
877.29	3169
877.418	3253
877.546	3233
877.674	3241
877.802	3218
877.93	3211
878.058	3154
878.185	3112
878.313	3237
878.441	3207
878.568	3104
878.696	3180
878.824	3283
878.951	3275
879.079	3431
879.206	3656
879.333	3424
879.461	3363
879.588	3351
879.715	3458
879.842	3622
879.97	3435
880.097	3161
880.224	3135
880.351	3180
880.478	3199
880.605	3188
880.732	3218
880.859	3504
880.986	3340
881.112	3359
881.239	3230
881.366	3131
881.493	2998
881.619	2994
881.746	3062
881.872	3100
881.999	3127
882.125	3146
882.252	3237
882.378	3256
882.505	3397
882.631	3294
882.757	3165
882.883	3214
883.01	3237
883.136	3131
883.262	3138
883.388	3138
883.514	3317
883.64	3355
883.766	3302
883.892	3207
884.018	3260
884.143	3447
884.269	3568
884.395	3253
884.52	3173
884.646	3199
884.772	3195
884.897	3112
885.023	3211
885.148	3317
885.274	3416
885.399	3374
885.524	3268
885.65	3260
885.775	3340
885.9	3306
886.025	3454
886.15	3370
886.275	3313
886.4	3256
886.525	3313
886.65	3310
886.775	3264
886.9	3542
887.025	3637
887.149	3428
887.274	3241
887.399	3192
887.523	3176
887.648	3184
887.773	3218
887.897	3393
888.021	3409
888.146	3344
888.27	3416
888.395	3530
888.519	3439
888.643	3488
888.767	3466
888.891	3310
889.015	3298
889.139	3306
889.263	3199
889.387	3405
889.511	3504
889.635	3477
889.759	3294
889.883	3283
890.006	3409
890.13	3534
890.254	3283
890.377	3355
890.501	3188
890.624	3214
890.748	3306
890.871	3176
890.995	3104
891.118	3074
891.241	3195
891.364	3226
891.488	3317
891.611	3192
891.734	3237
891.857	3264
891.98	3291
892.103	3344
892.226	3291
892.349	3237
892.471	3146
892.594	3233
892.717	3298
892.839	3233
892.962	3272
893.085	3336
893.207	3272
893.33	3123
893.452	3233
893.575	3382
893.697	3264
893.819	3511
893.941	3523
894.064	3454
894.186	3302
894.308	3253
894.43	3469
894.552	3523
894.674	3504
894.796	3268
894.918	3340
895.04	3310
895.161	3389
895.283	3382
895.405	3313
895.526	3367
895.648	3435
895.769	3386
895.891	3462
896.012	3485
896.134	3519
896.255	3397
896.376	3374
896.498	3363
896.619	3420
896.74	3355
896.861	3393
896.982	3705
897.103	3835
897.224	3606
897.345	3515
897.466	3450
897.587	3557
897.708	3622
897.828	3553
897.949	3439
898.07	3370
898.19	3412
898.311	3629
898.431	3473
898.552	3481
898.672	3561
898.792	3553
898.913	3530
899.033	3439
899.153	3268
899.273	3214
899.393	3294
899.513	3348
899.633	3325
899.753	3344
899.873	3298
899.993	3405
900.113	3329
900.232	3397
900.352	3374
900.472	3294
900.591	3237
900.711	3317
900.83	3249
900.95	3401
901.069	3504
901.189	3332
901.308	3154
901.427	3142
901.546	3218
901.665	3279
901.784	3329
901.904	3256
902.023	3157
902.141	2994
902.26	2998
902.379	3131
902.498	3089
902.617	3058
902.735	3211
902.854	3222
902.973	3222
903.091	3085
903.21	3055
903.328	3165
903.446	3127
903.565	3131
903.683	3214
903.801	3116
903.919	3245
904.038	3294
904.156	3195
904.274	3317
904.392	3291
904.51	3294
904.627	3310
904.745	3462
904.863	3500
904.981	3268
905.098	3161
905.216	3253
905.334	3313
905.451	3306
905.569	3340
905.686	3409
905.803	3447
905.921	3275
906.038	3447
906.155	3393
906.272	3287
906.389	3306
906.506	3237
906.623	3272
906.74	3260
906.857	3184
906.974	3291
907.091	3424
907.208	3591
907.324	3481
907.441	3401
907.557	3214
907.674	3241
907.79	3203
907.907	3253
908.023	3416
908.139	3367
908.256	3279
908.372	3374
908.488	3325
908.604	3241
908.72	3241
908.836	3294
908.952	3275
909.068	3370
909.184	3488
909.3	3405
909.415	3458
909.531	3488
909.647	3298
909.762	3294
909.878	3264
909.993	3363
910.108	3306
910.224	3355
910.339	3401
910.454	3348
910.57	3306
910.685	3233
910.8	3553
910.915	3580
911.03	3428
911.145	3253
911.259	3298
911.374	3329
911.489	3294
911.604	3199
911.718	3138
911.833	3131
911.947	3043
912.062	2990
912.176	3123
912.291	3165
912.405	3173
912.519	3424
912.633	3458
912.748	3329
912.862	3291
912.976	3173
913.09	3077
913.204	3131
913.318	3218
913.431	3298
913.545	3340
913.659	3401
913.772	3363
913.886	3245
914	3199
914.113	3420
914.226	3420
914.34	3348
914.453	3169
914.566	3439
914.68	3294
914.793	3332
914.906	3150
915.019	3131
915.132	3062
915.245	3157
915.358	3214
915.47	3268
915.583	3272
915.696	3302
915.809	3428
915.921	3386
916.034	3230
916.146	3291
916.259	3237
916.371	3397
916.483	3397
916.595	3268
916.708	3359
916.82	3367
916.932	3332
917.044	3336
917.156	3348
917.268	3268
917.38	3310
917.491	3272
917.603	3370
917.715	3515
917.826	3477
917.938	3405
918.049	3302
918.161	3409
918.272	3561
918.384	3557
918.495	3496
918.606	3332
918.717	3249
918.828	3370
918.939	3412
919.05	3287
919.161	3351
919.272	3176
919.383	3321
919.494	3500
919.604	3717
919.715	3500
919.826	3405
919.936	3466
920.047	3584
920.157	3542
920.267	3785
920.378	3595
920.488	3584
920.598	3812
920.708	3979
920.818	3850
920.928	3899
921.038	4036
921.148	4051
921.258	3705
921.368	3652
921.477	3618
921.587	3530
921.697	3462
921.806	3660
921.916	3545
922.025	3348
922.134	3389
922.244	3340
922.353	3435
922.462	3256
922.571	3218
922.68	3104
922.789	3104
922.898	3157
923.007	3138
923.116	3188
923.224	3173
923.333	3203
923.442	3058
923.55	3108
923.659	3146
923.767	3203
923.876	3146
923.984	3226
924.092	3104
924.201	3176
924.309	3222
924.417	3264
924.525	3188
924.633	3226
924.741	4200
924.849	3058
924.956	3260
925.064	3104
925.172	3039
925.279	3119
925.387	3184
925.494	3203
925.602	3374
925.709	3325
925.816	3188
925.924	3302
926.031	3378
926.138	3329
926.245	3420
926.352	3245
926.459	3416
926.566	3500
926.673	3313
926.779	3264
926.886	3256
926.993	3176
927.099	3173
927.206	3104
927.312	3127
927.419	3222
927.525	3207
927.631	3302
927.737	3146
927.843	3173
927.95	3039
928.056	3142
928.162	3184
928.267	3291
928.373	3850
928.479	3294
928.585	3089
928.69	3237
928.796	3275
928.901	3146
929.007	3062
929.112	3203
929.218	3138
929.323	3157
929.428	3165
929.533	3313
929.638	3127
929.743	3195
929.848	3256
929.953	3253
930.058	3131
930.163	3017
930.267	3062
930.372	3192
930.477	3077
930.581	3310
930.685	3207
930.79	3051
930.894	3154
930.998	3119
931.103	3313
931.207	2960
931.311	2944
931.415	2929
931.519	2777
931.623	2834
