Data from test_V78500241_1903.txt Node
Date: Fri Mar 25 16:28:23 CST 2022
User: usil
Spectrometer: V785-0024
Trigger mode: 0
Integration Time (sec): 4.000000E-1
Scans to average: 1
Nonlinearity correction enabled: false
Boxcar width: 0
Storing dark spectrum: false
XAxis mode: Wavelengths
Number of Pixels in Spectrum: 1024
>>>>>Begin Spectral Data<<<<<
801.071	2975
801.214	2956
801.356	2891
801.499	2925
801.641	2899
801.783	2902
801.926	3055
802.068	2967
802.211	2998
802.353	3066
802.496	2986
802.638	3001
802.78	3058
802.923	3089
803.065	2998
803.208	2887
803.35	2967
803.492	2925
803.635	2952
803.777	2796
803.919	2864
804.061	3218
804.204	3001
804.346	2910
804.488	2857
804.63	2971
804.773	2910
804.915	2914
805.057	3123
805.199	2952
805.341	2971
805.483	3070
805.626	3047
805.768	2986
805.91	3097
806.052	3142
806.194	3058
806.336	3256
806.478	3062
806.62	2975
806.762	2998
806.904	3097
807.046	3218
807.188	3032
807.33	2933
807.472	3009
807.614	2933
807.756	2998
807.898	2929
808.04	2937
808.182	3001
808.324	2986
808.465	2876
808.607	2876
808.749	2823
808.891	2876
809.033	2963
809.174	3028
809.316	2933
809.458	2887
809.6	2762
809.741	2804
809.883	2750
810.025	2861
810.166	2868
810.308	2845
810.45	2876
810.591	2792
810.733	2739
810.875	2868
811.016	2781
811.158	2758
811.299	2826
811.441	2944
811.582	2891
811.724	2857
811.865	2815
812.007	2887
812.148	2880
812.29	2880
812.431	2883
812.573	2944
812.714	2948
812.855	3047
812.997	3058
813.138	3116
813.279	3013
813.421	2994
813.562	2967
813.703	2876
813.845	2868
813.986	2792
814.127	2754
814.268	2880
814.41	2880
814.551	2826
814.692	2872
814.833	2823
814.974	2910
815.115	2956
815.256	2853
815.397	2845
815.539	2876
815.68	2788
815.821	2796
815.962	2929
816.103	2910
816.244	2857
816.385	2868
816.526	2975
816.666	2929
816.807	2762
816.948	2876
817.089	2948
817.23	2853
817.371	2792
817.512	2807
817.653	2849
817.793	2838
817.934	2922
818.075	2956
818.216	2990
818.356	3039
818.497	2937
818.638	2804
818.778	2842
818.919	2807
819.06	2762
819.2	2899
819.341	2811
819.481	2796
819.622	2929
819.762	3146
819.903	3043
820.043	2922
820.184	2929
820.324	2902
820.465	3024
820.605	3001
820.746	3051
820.886	2929
821.026	3131
821.167	3192
821.307	3256
821.447	3279
821.588	3211
821.728	3226
821.868	3211
822.008	3062
822.149	3188
822.289	3199
822.429	3085
822.569	3074
822.709	3195
822.849	3001
822.99	3039
823.13	3180
823.27	3230
823.41	3119
823.55	3173
823.69	3173
823.83	3211
823.97	3097
824.11	3013
824.25	3017
824.389	3032
824.529	3108
824.669	3047
824.809	3176
824.949	3264
825.089	3214
825.228	3207
825.368	3009
825.508	2967
825.648	2956
825.787	3020
825.927	3020
826.067	2941
826.206	2963
826.346	3070
826.485	3085
826.625	3112
826.765	3241
826.904	3192
827.044	2979
827.183	2902
827.323	2853
827.462	2979
827.601	2918
827.741	2933
827.88	2922
828.02	2880
828.159	3013
828.298	3013
828.437	3104
828.577	3047
828.716	3256
828.855	3085
828.994	2910
829.134	2914
829.273	2925
829.412	2895
829.551	2861
829.69	2899
829.829	2986
829.968	3100
830.107	3036
830.246	2990
830.385	2941
830.524	2872
830.663	2830
830.802	2731
830.941	2697
831.08	2617
831.219	2739
831.357	2769
831.496	2963
831.635	2724
831.774	2606
831.913	2663
832.051	2530
832.19	2598
832.329	2689
832.467	2537
832.606	2484
832.744	2568
832.883	2606
833.022	2575
833.16	2663
833.299	2693
833.437	2693
833.576	2686
833.714	2735
833.852	2724
833.991	2785
834.129	2842
834.267	2849
834.406	2815
834.544	2864
834.682	2895
834.821	2823
834.959	3043
835.097	2918
835.235	3066
835.373	3013
835.511	3005
835.65	2944
835.788	2918
835.926	2804
836.064	2815
836.202	2845
836.34	3112
836.478	3146
836.615	3062
836.753	3146
836.891	3214
837.029	3169
837.167	3112
837.305	3070
837.443	3017
837.58	2944
837.718	3165
837.856	3070
837.993	3005
838.131	3123
838.269	3104
838.406	3100
838.544	3070
838.681	2914
838.819	2899
838.956	2815
839.094	2838
839.231	2922
839.369	3055
839.506	3389
839.643	3195
839.781	3043
839.918	2975
840.055	3005
840.193	3058
840.33	3028
840.467	3108
840.604	3154
840.742	3397
840.879	3055
841.016	3047
841.153	3123
841.29	3287
841.427	3348
841.564	3283
841.701	3291
841.838	3218
841.975	3154
842.112	3192
842.249	3108
842.385	3058
842.522	3260
842.659	3089
842.796	3062
842.933	3123
843.069	3020
843.206	3077
843.343	3157
843.479	3081
843.616	3176
843.752	2906
843.889	2918
844.025	3058
844.162	2902
844.298	3108
844.435	2971
844.571	2876
844.708	3077
844.844	3199
844.98	3226
845.117	3184
845.253	2994
845.389	3009
845.525	3100
845.661	3089
845.798	3024
845.934	3104
846.07	3039
846.206	3214
846.342	3291
846.478	3207
846.614	3070
846.75	3058
846.886	3047
847.022	3260
847.158	3108
847.294	3192
847.429	3230
847.565	3207
847.701	3469
847.837	3043
847.972	3013
848.108	3184
848.244	3123
848.379	2998
848.515	2933
848.65	2963
848.786	2941
848.921	3005
849.057	3116
849.192	3131
849.328	3043
849.463	3081
849.598	3077
849.734	3055
849.869	2956
850.004	2925
850.14	2967
850.275	2902
850.41	2868
850.545	2918
850.68	2922
850.815	2963
850.95	2982
851.085	3180
851.22	3100
851.355	3074
851.49	2963
851.625	3005
851.76	2998
851.895	2960
852.03	2944
852.165	3051
852.299	3116
852.434	3188
852.569	3146
852.703	3173
852.838	3241
852.973	3336
853.107	3382
853.242	3161
853.376	3089
853.511	3005
853.645	3074
853.78	3249
853.914	3154
854.048	3135
854.183	3097
854.317	3146
854.451	3336
854.585	3165
854.72	3100
854.854	3268
854.988	3097
855.122	3165
855.256	3013
855.39	3150
855.524	3298
855.658	3188
855.792	3218
855.926	3253
856.06	3268
856.194	3317
856.327	3207
856.461	3058
856.595	3135
856.729	3108
856.862	3230
856.996	3211
857.13	3249
857.263	3272
857.397	3317
857.53	3165
857.664	3199
857.797	3264
857.931	3306
858.064	3230
858.197	3264
858.331	3131
858.464	3180
858.597	3017
858.731	3165
858.864	3150
858.997	3123
859.13	3203
859.263	3188
859.396	3226
859.529	3142
859.662	3142
859.795	3093
859.928	3180
860.061	3351
860.194	3279
860.327	3173
860.46	3135
860.592	3268
860.725	3291
860.858	3283
860.99	3112
861.123	3085
861.256	3081
861.388	3176
861.521	3876
861.653	3077
861.786	3032
861.918	3028
862.05	3100
862.183	3142
862.315	3184
862.447	3241
862.58	3104
862.712	2941
862.844	2902
862.976	3051
863.108	3051
863.24	3344
863.372	2948
863.504	3024
863.636	3001
863.768	3058
863.9	3020
864.032	2960
864.164	2975
864.296	3036
864.428	3100
864.559	3150
864.691	3093
864.823	3123
864.954	3081
865.086	3074
865.217	3001
865.349	3005
865.48	3009
865.612	3028
865.743	3195
865.875	3013
866.006	2982
866.137	3001
866.269	2986
866.4	2967
866.531	2967
866.662	2944
866.793	2929
866.924	2929
867.055	2990
867.186	2960
867.317	2925
867.448	2887
867.579	2872
867.71	2883
867.841	2883
867.972	2941
868.103	2918
868.233	2944
868.364	2883
868.495	2944
868.625	3112
868.756	3195
868.886	2982
869.017	3043
869.147	3199
869.278	3176
869.408	3051
869.539	3062
869.669	3135
869.799	3093
869.929	3199
870.06	3108
870.19	3348
870.32	3325
870.45	3302
870.58	3428
870.71	3466
870.84	3469
870.97	3325
871.1	3287
871.23	3504
871.36	3504
871.489	3374
871.619	3469
871.749	3416
871.879	3443
872.008	3466
872.138	3344
872.267	3329
872.397	3138
872.526	3104
872.656	3047
872.785	3100
872.915	3260
873.044	3298
873.173	3291
873.303	3287
873.432	3241
873.561	3241
873.69	3180
873.819	3184
873.948	3214
874.077	3146
874.206	3074
874.335	3138
874.464	3268
874.593	3405
874.722	3264
874.851	3431
874.979	3386
875.108	3386
875.237	3230
875.365	3173
875.494	3192
875.623	3287
875.751	3112
875.88	3146
876.008	3211
876.136	3260
876.265	3416
876.393	3526
876.521	3428
876.65	3409
876.778	3378
876.906	3275
877.034	3218
877.162	3275
877.29	3173
877.418	3279
877.546	3310
877.674	3245
877.802	3302
877.93	3230
878.058	3222
878.185	3116
878.313	3195
878.441	3272
878.568	3116
878.696	3169
878.824	3302
878.951	3340
879.079	3466
879.206	3633
879.333	3507
879.461	3431
879.588	3374
879.715	3500
879.842	3599
879.97	3435
880.097	3176
880.224	3127
880.351	3195
880.478	3249
880.605	3253
880.732	3218
880.859	3469
880.986	3336
881.112	3351
881.239	3195
881.366	3131
881.493	3058
881.619	3043
881.746	3112
881.872	3135
881.999	3150
882.125	3157
882.252	3256
882.378	3313
882.505	3435
882.631	3302
882.757	3161
882.883	3291
883.01	3241
883.136	3180
883.262	3116
883.388	3127
883.514	3378
883.64	3348
883.766	3317
883.892	3222
884.018	3294
884.143	3458
884.269	3561
884.395	3230
884.52	3211
884.646	3226
884.772	3146
884.897	3146
885.023	3214
885.148	3355
885.274	3420
885.399	3386
885.524	3321
885.65	3283
885.775	3340
885.9	3275
886.025	3477
886.15	3378
886.275	3332
886.4	3264
886.525	3344
886.65	3260
886.775	3306
886.9	3538
887.025	3701
887.149	3431
887.274	3256
887.399	3173
887.523	3226
887.648	3211
887.773	3199
887.897	3431
888.021	3416
888.146	3306
888.27	3458
888.395	3549
888.519	3435
888.643	3477
888.767	3447
888.891	3325
889.015	3264
889.139	3321
889.263	3294
889.387	3412
889.511	3519
889.635	3450
889.759	3283
889.883	3329
890.006	3397
890.13	3466
890.254	3287
890.377	3363
890.501	3207
890.624	3203
890.748	3302
890.871	3245
890.995	3161
891.118	3043
891.241	3188
891.364	3214
891.488	3302
891.611	3184
891.734	3230
891.857	3298
891.98	3256
892.103	3378
892.226	3256
892.349	3253
892.471	3116
892.594	3256
892.717	3294
892.839	3279
892.962	3306
893.085	3363
893.207	3313
893.33	3169
893.452	3264
893.575	3348
893.697	3253
893.819	3450
893.941	3523
894.064	3481
894.186	3294
894.308	3287
894.43	3439
894.552	3568
894.674	3473
894.796	3256
894.918	3336
895.04	3313
895.161	3435
895.283	3386
895.405	3336
895.526	3389
895.648	3409
895.769	3431
895.891	3462
896.012	3504
896.134	3496
896.255	3420
896.376	3424
896.498	3416
896.619	3450
896.74	3378
896.861	3405
896.982	3736
897.103	3861
897.224	3618
897.345	3534
897.466	3485
897.587	3523
897.708	3648
897.828	3526
897.949	3507
898.07	3344
898.19	3428
898.311	3606
898.431	3424
898.552	3523
898.672	3610
898.792	3610
898.913	3523
899.033	3443
899.153	3279
899.273	3233
899.393	3283
899.513	3329
899.633	3336
899.753	3355
899.873	3332
899.993	3439
900.113	3325
900.232	3397
900.352	3355
900.472	3294
900.591	3211
900.711	3302
900.83	3310
900.95	3405
901.069	3500
901.189	3359
901.308	3253
901.427	3161
901.546	3203
901.665	3336
901.784	3332
901.904	3211
902.023	3169
902.141	3043
902.26	3013
902.379	3142
902.498	3097
902.617	3097
902.735	3211
902.854	3272
902.973	3241
903.091	3116
903.21	3070
903.328	3169
903.446	3123
903.565	3104
903.683	3218
903.801	3108
903.919	3233
904.038	3291
904.156	3211
904.274	3272
904.392	3272
904.51	3279
904.627	3386
904.745	3428
904.863	3523
904.981	3302
905.098	3188
905.216	3268
905.334	3317
905.451	3283
905.569	3306
905.686	3447
905.803	3485
905.921	3340
906.038	3439
906.155	3386
906.272	3317
906.389	3389
906.506	3230
906.623	3302
906.74	3294
906.857	3180
906.974	3249
907.091	3439
907.208	3549
907.324	3515
907.441	3409
907.557	3253
907.674	3222
907.79	3230
907.907	3279
908.023	3420
908.139	3378
908.256	3340
908.372	3389
908.488	3351
908.604	3291
908.72	3260
908.836	3310
908.952	3268
909.068	3382
909.184	3473
909.3	3405
909.415	3511
909.531	3504
909.647	3233
909.762	3294
909.878	3272
909.993	3374
910.108	3363
910.224	3351
910.339	3367
910.454	3370
910.57	3306
910.685	3283
910.8	3606
910.915	3549
911.03	3488
911.145	3249
911.259	3294
911.374	3306
911.489	3268
911.604	3279
911.718	3154
911.833	3135
911.947	3024
912.062	3017
912.176	3184
912.291	3165
912.405	3207
912.519	3405
912.633	3481
912.748	3332
912.862	3268
912.976	3154
913.09	3093
913.204	3157
913.318	3226
913.431	3332
913.545	3313
913.659	3443
913.772	3340
913.886	3192
914	3211
914.113	3405
914.226	3450
914.34	3351
914.453	3256
914.566	3435
914.68	3275
914.793	3264
914.906	3211
915.019	3161
915.132	3108
915.245	3195
915.358	3218
915.47	3207
915.583	3275
915.696	3321
915.809	3409
915.921	3405
916.034	3256
916.146	3268
916.259	3218
916.371	3393
916.483	3424
916.595	3275
916.708	3336
916.82	3348
916.932	3359
917.044	3332
917.156	3389
917.268	3241
917.38	3302
917.491	3291
917.603	3405
917.715	3488
917.826	3477
917.938	3389
918.049	3294
918.161	3428
918.272	3584
918.384	3534
918.495	3488
918.606	3329
918.717	3325
918.828	3424
918.939	3401
919.05	3272
919.161	3397
919.272	3138
919.383	3306
919.494	3507
919.604	3686
919.715	3492
919.826	3412
919.936	3469
920.047	3595
920.157	3568
920.267	3797
920.378	3591
920.488	3568
920.598	3831
920.708	3975
920.818	3835
920.928	3800
921.038	4032
921.148	3994
921.258	3705
921.368	3682
921.477	3603
921.587	3561
921.697	3481
921.806	3610
921.916	3530
922.025	3332
922.134	3378
922.244	3382
922.353	3462
922.462	3272
922.571	3241
922.68	3157
922.789	3077
922.898	3135
923.007	3085
923.116	3230
923.224	3169
923.333	3169
923.442	3119
923.55	3131
923.659	3142
923.767	3253
923.876	3123
923.984	3253
924.092	3123
924.201	3207
924.309	3195
924.417	3245
924.525	3184
924.633	3241
924.741	4055
924.849	3036
924.956	3306
925.064	3081
925.172	3047
925.279	3135
925.387	3199
925.494	3207
925.602	3348
925.709	3382
925.816	3154
925.924	3287
926.031	3412
926.138	3336
926.245	3370
926.352	3241
926.459	3412
926.566	3485
926.673	3294
926.779	3249
926.886	3264
926.993	3161
927.099	3146
927.206	3131
927.312	3142
927.419	3188
927.525	3245
927.631	3313
927.737	3119
927.843	3116
927.95	3032
928.056	3142
928.162	3176
928.267	3245
928.373	3854
928.479	3264
928.585	3047
928.69	3226
928.796	3237
928.901	3138
929.007	3070
929.112	3222
929.218	3165
929.323	3176
929.428	3146
929.533	3325
929.638	3104
929.743	3203
929.848	3291
929.953	3188
930.058	3169
930.163	3020
930.267	3047
930.372	3218
930.477	3009
930.581	3344
930.685	3161
930.79	3062
930.894	3165
930.998	3093
931.103	3294
931.207	2994
931.311	2929
931.415	2914
931.519	2823
931.623	2804
