Data from test_V78500241_459.txt Node
Date: Fri Mar 25 16:18:23 CST 2022
User: usil
Spectrometer: V785-0024
Trigger mode: 0
Integration Time (sec): 4.000000E-1
Scans to average: 1
Nonlinearity correction enabled: false
Boxcar width: 0
Storing dark spectrum: false
XAxis mode: Wavelengths
Number of Pixels in Spectrum: 1024
>>>>>Begin Spectral Data<<<<<
801.071	2891
801.214	2944
801.356	2857
801.499	2899
801.641	2815
801.783	2937
801.926	3032
802.068	3001
802.211	2986
802.353	3058
802.496	2960
802.638	3024
802.78	3055
802.923	3062
803.065	2990
803.208	2880
803.35	2944
803.492	2933
803.635	2914
803.777	2720
803.919	2845
804.061	3207
804.204	2933
804.346	2922
804.488	2842
804.63	2982
804.773	2872
804.915	2929
805.057	3077
805.199	2937
805.341	2956
805.483	3039
805.626	2990
805.768	2941
805.91	3085
806.052	3123
806.194	3028
806.336	3256
806.478	3043
806.62	2914
806.762	2963
806.904	3051
807.046	3138
807.188	2952
807.33	2922
807.472	2998
807.614	2899
807.756	2994
807.898	2918
808.04	2876
808.182	2994
808.324	2960
808.465	2872
808.607	2902
808.749	2792
808.891	2834
809.033	2918
809.174	2960
809.316	2899
809.458	2895
809.6	2750
809.741	2754
809.883	2727
810.025	2815
810.166	2868
810.308	2842
810.45	2826
810.591	2785
810.733	2804
810.875	2845
811.016	2769
811.158	2766
811.299	2830
811.441	2933
811.582	2899
811.724	2823
811.865	2823
812.007	2933
812.148	2887
812.29	2857
812.431	2883
812.573	2918
812.714	2956
812.855	3020
812.997	3089
813.138	3089
813.279	2982
813.421	3001
813.562	2937
813.703	2834
813.845	2933
813.986	2773
814.127	2735
814.268	2804
814.41	2834
814.551	2811
814.692	2845
814.833	2800
814.974	2887
815.115	2941
815.256	2857
815.397	2826
815.539	2876
815.68	2792
815.821	2773
815.962	2929
816.103	2929
816.244	2842
816.385	2876
816.526	2956
816.666	2910
816.807	2724
816.948	2895
817.089	2880
817.23	2853
817.371	2758
817.512	2800
817.653	2876
817.793	2830
817.934	2872
818.075	2971
818.216	2979
818.356	3020
818.497	2864
818.638	2758
818.778	2819
818.919	2773
819.06	2716
819.2	2872
819.341	2773
819.481	2792
819.622	2914
819.762	3135
819.903	3024
820.043	2914
820.184	2887
820.324	2876
820.465	3013
820.605	2990
820.746	3032
820.886	2929
821.026	3081
821.167	3150
821.307	3233
821.447	3260
821.588	3218
821.728	3230
821.868	3180
822.008	3081
822.149	3150
822.289	3211
822.429	3070
822.569	3047
822.709	3173
822.849	3020
822.99	3074
823.13	3127
823.27	3199
823.41	3089
823.55	3089
823.69	3127
823.83	3192
823.97	3089
824.11	3020
824.25	2952
824.389	3104
824.529	3077
824.669	3047
824.809	3165
824.949	3253
825.089	3214
825.228	3154
825.368	3051
825.508	2937
825.648	2979
825.787	2990
825.927	3001
826.067	2967
826.206	2929
826.346	3024
826.485	3085
826.625	3104
826.765	3272
826.904	3211
827.044	2986
827.183	2925
827.323	2876
827.462	3013
827.601	2956
827.741	2967
827.88	2922
828.02	2830
828.159	2929
828.298	3017
828.437	3123
828.577	3047
828.716	3218
828.855	3100
828.994	2880
829.134	2880
829.273	2918
829.412	2876
829.551	2868
829.69	2914
829.829	2967
829.968	3123
830.107	3032
830.246	3013
830.385	2933
830.524	2861
830.663	2785
830.802	2712
830.941	2617
831.08	2621
831.219	2758
831.357	2754
831.496	2929
831.635	2697
831.774	2648
831.913	2667
832.051	2526
832.19	2571
832.329	2697
832.467	2526
832.606	2450
832.744	2571
832.883	2583
833.022	2590
833.16	2640
833.299	2678
833.437	2670
833.576	2693
833.714	2708
833.852	2735
833.991	2754
834.129	2842
834.267	2823
834.406	2785
834.544	2842
834.682	2929
834.821	2880
834.959	3028
835.097	2899
835.235	3055
835.373	3001
835.511	3020
835.65	2929
835.788	2971
835.926	2842
836.064	2826
836.202	2842
836.34	3070
836.478	3161
836.615	3036
836.753	3119
836.891	3188
837.029	3154
837.167	3127
837.305	3062
837.443	3062
837.58	2967
837.718	3119
837.856	3074
837.993	3039
838.131	3157
838.269	3142
838.406	3100
838.544	3085
838.681	2937
838.819	2937
838.956	2834
839.094	2800
839.231	2906
839.369	3036
839.506	3336
839.643	3237
839.781	3047
839.918	2944
840.055	3066
840.193	3043
840.33	3077
840.467	3036
840.604	3131
840.742	3409
840.879	3009
841.016	3039
841.153	3077
841.29	3378
841.427	3260
841.564	3260
841.701	3294
841.838	3184
841.975	3184
842.112	3195
842.249	3085
842.385	3055
842.522	3272
842.659	3123
842.796	3043
842.933	3093
843.069	3043
843.206	3028
843.343	3165
843.479	3077
843.616	3119
843.752	2891
843.889	2857
844.025	3089
844.162	2891
844.298	3051
844.435	2937
844.571	2902
844.708	3043
844.844	3195
844.98	3249
845.117	3207
845.253	3055
845.389	3017
845.525	3081
845.661	3077
845.798	3005
845.934	3070
846.07	3081
846.206	3169
846.342	3302
846.478	3222
846.614	3077
846.75	3074
846.886	3020
847.022	3260
847.158	3089
847.294	3180
847.429	3249
847.565	3230
847.701	3481
847.837	3005
847.972	2994
848.108	3157
848.244	3116
848.379	2967
848.515	2933
848.65	2899
848.786	2952
848.921	3024
849.057	3104
849.192	3119
849.328	3066
849.463	3077
849.598	3043
849.734	3058
849.869	2899
850.004	2895
850.14	2967
850.275	2914
850.41	2773
850.545	2876
850.68	2883
850.815	2918
850.95	2967
851.085	3176
851.22	3070
851.355	3043
851.49	2994
851.625	3020
851.76	2998
851.895	2887
852.03	2922
852.165	3043
852.299	3123
852.434	3169
852.569	3116
852.703	3127
852.838	3245
852.973	3325
853.107	3283
853.242	3138
853.376	3100
853.511	2948
853.645	3047
853.78	3199
853.914	3108
854.048	3089
854.183	3081
854.317	3157
854.451	3294
854.585	3116
854.72	3066
854.854	3207
854.988	3036
855.122	3055
855.256	2967
855.39	3146
855.524	3230
855.658	3192
855.792	3154
855.926	3176
856.06	3192
856.194	3218
856.327	3157
856.461	3062
856.595	3093
856.729	3058
856.862	3211
856.996	3169
857.13	3176
857.263	3226
857.397	3306
857.53	3100
857.664	3207
857.797	3237
857.931	3245
858.064	3142
858.197	3226
858.331	3161
858.464	3051
858.597	3001
858.731	3112
858.864	3135
858.997	3089
859.13	3150
859.263	3135
859.396	3188
859.529	3066
859.662	3127
859.795	3028
859.928	3142
860.061	3302
860.194	3279
860.327	3123
860.46	3047
860.592	3195
860.725	3230
860.858	3241
860.99	3104
861.123	3100
861.256	3024
861.388	3116
861.521	3945
861.653	2994
861.786	2967
861.918	3017
862.05	3070
862.183	3074
862.315	3138
862.447	3146
862.58	3074
862.712	2914
862.844	2872
862.976	2998
863.108	2967
863.24	3321
863.372	2842
863.504	2960
863.636	2960
863.768	2994
863.9	2963
864.032	2902
864.164	2910
864.296	3001
864.428	3070
864.559	3085
864.691	3066
864.823	3070
864.954	3005
865.086	3062
865.217	2967
865.349	2929
865.48	2963
865.612	3028
865.743	3119
865.875	2967
866.006	2925
866.137	2948
866.269	2941
866.4	2910
866.531	2918
866.662	2838
866.793	2883
866.924	2899
867.055	2929
867.186	2925
867.317	2906
867.448	2857
867.579	2815
867.71	2872
867.841	2804
867.972	2914
868.103	2910
868.233	2880
868.364	2868
868.495	2899
868.625	3051
868.756	3157
868.886	2963
869.017	3039
869.147	3131
869.278	3195
869.408	3051
869.539	3039
869.669	3085
869.799	3032
869.929	3127
870.06	3097
870.19	3298
870.32	3249
870.45	3279
870.58	3336
870.71	3420
870.84	3405
870.97	3298
871.1	3233
871.23	3488
871.36	3496
871.489	3321
871.619	3397
871.749	3393
871.879	3428
872.008	3477
872.138	3378
872.267	3283
872.397	3146
872.526	3051
872.656	3013
872.785	3085
872.915	3241
873.044	3325
873.173	3184
873.303	3233
873.432	3218
873.561	3222
873.69	3150
873.819	3142
873.948	3176
874.077	3062
874.206	3028
874.335	3077
874.464	3176
874.593	3359
874.722	3241
874.851	3393
874.979	3340
875.108	3306
875.237	3180
875.365	3123
875.494	3203
875.623	3245
875.751	3093
875.88	3074
876.008	3203
876.136	3249
876.265	3348
876.393	3538
876.521	3435
876.65	3370
876.778	3310
876.906	3222
877.034	3184
877.162	3211
877.29	3154
877.418	3279
877.546	3245
877.674	3253
877.802	3207
877.93	3192
878.058	3154
878.185	3138
878.313	3176
878.441	3207
878.568	3047
878.696	3127
878.824	3211
878.951	3306
879.079	3473
879.206	3580
879.333	3439
879.461	3336
879.588	3348
879.715	3477
879.842	3622
879.97	3397
880.097	3146
880.224	3135
880.351	3188
880.478	3260
880.605	3173
880.732	3184
880.859	3492
880.986	3291
881.112	3317
881.239	3154
881.366	3074
881.493	3039
881.619	2998
881.746	3047
881.872	3085
881.999	3081
882.125	3173
882.252	3180
882.378	3264
882.505	3420
882.631	3249
882.757	3138
882.883	3253
883.01	3184
883.136	3127
883.262	3081
883.388	3142
883.514	3313
883.64	3344
883.766	3272
883.892	3180
884.018	3237
884.143	3378
884.269	3523
884.395	3188
884.52	3135
884.646	3218
884.772	3127
884.897	3074
885.023	3199
885.148	3310
885.274	3378
885.399	3397
885.524	3260
885.65	3291
885.775	3279
885.9	3218
886.025	3450
886.15	3351
886.275	3264
886.4	3214
886.525	3317
886.65	3272
886.775	3260
886.9	3454
887.025	3633
887.149	3393
887.274	3245
887.399	3161
887.523	3192
887.648	3176
887.773	3173
887.897	3332
888.021	3378
888.146	3260
888.27	3439
888.395	3519
888.519	3424
888.643	3435
888.767	3454
888.891	3340
889.015	3241
889.139	3268
889.263	3253
889.387	3409
889.511	3507
889.635	3428
889.759	3302
889.883	3275
890.006	3378
890.13	3488
890.254	3283
890.377	3275
890.501	3218
890.624	3192
890.748	3317
890.871	3150
890.995	3093
891.118	3077
891.241	3214
891.364	3211
891.488	3291
891.611	3176
891.734	3207
891.857	3279
891.98	3211
892.103	3332
892.226	3268
892.349	3188
892.471	3085
892.594	3237
892.717	3260
892.839	3279
892.962	3253
893.085	3336
893.207	3302
893.33	3135
893.452	3192
893.575	3340
893.697	3214
893.819	3462
893.941	3492
894.064	3439
894.186	3275
894.308	3253
894.43	3428
894.552	3507
894.674	3477
894.796	3256
894.918	3294
895.04	3279
895.161	3435
895.283	3401
895.405	3298
895.526	3351
895.648	3405
895.769	3447
895.891	3450
896.012	3504
896.134	3466
896.255	3393
896.376	3370
896.498	3336
896.619	3405
896.74	3344
896.861	3386
896.982	3641
897.103	3865
897.224	3614
897.345	3500
897.466	3412
897.587	3469
897.708	3564
897.828	3576
897.949	3466
898.07	3306
898.19	3382
898.311	3568
898.431	3450
898.552	3523
898.672	3576
898.792	3557
898.913	3504
899.033	3363
899.153	3275
899.273	3211
899.393	3249
899.513	3317
899.633	3348
899.753	3355
899.873	3310
899.993	3378
900.113	3374
900.232	3382
900.352	3329
900.472	3275
900.591	3188
900.711	3291
900.83	3253
900.95	3389
901.069	3447
901.189	3370
901.308	3207
901.427	3142
901.546	3176
901.665	3291
901.784	3302
901.904	3211
902.023	3138
902.141	2952
902.26	2982
902.379	3165
902.498	3005
902.617	3039
902.735	3161
902.854	3272
902.973	3192
903.091	3024
903.21	3074
903.328	3123
903.446	3123
903.565	3066
903.683	3195
903.801	3093
903.919	3249
904.038	3279
904.156	3176
904.274	3287
904.392	3268
904.51	3264
904.627	3329
904.745	3473
904.863	3469
904.981	3226
905.098	3150
905.216	3256
905.334	3272
905.451	3272
905.569	3291
905.686	3397
905.803	3401
905.921	3249
906.038	3409
906.155	3351
906.272	3256
906.389	3325
906.506	3184
906.623	3237
906.74	3245
906.857	3176
906.974	3237
907.091	3431
907.208	3553
907.324	3443
907.441	3351
907.557	3218
907.674	3211
907.79	3173
907.907	3249
908.023	3336
908.139	3363
908.256	3287
908.372	3367
908.488	3363
908.604	3291
908.72	3199
908.836	3214
908.952	3272
909.068	3340
909.184	3492
909.3	3397
909.415	3492
909.531	3477
909.647	3310
909.762	3268
909.878	3275
909.993	3386
910.108	3298
910.224	3336
910.339	3405
910.454	3329
910.57	3264
910.685	3313
910.8	3622
910.915	3542
911.03	3458
911.145	3294
911.259	3272
911.374	3321
911.489	3237
911.604	3230
911.718	3142
911.833	3161
911.947	3070
912.062	2979
912.176	3184
912.291	3203
912.405	3214
912.519	3462
912.633	3473
912.748	3340
912.862	3306
912.976	3214
913.09	3081
913.204	3142
913.318	3226
913.431	3351
913.545	3374
913.659	3469
913.772	3363
913.886	3275
914	3245
914.113	3424
914.226	3431
914.34	3370
914.453	3249
914.566	3431
914.68	3348
914.793	3325
914.906	3192
915.019	3199
915.132	3093
915.245	3226
915.358	3256
915.47	3264
915.583	3321
915.696	3317
915.809	3500
915.921	3447
916.034	3298
916.146	3306
916.259	3264
916.371	3412
916.483	3386
916.595	3348
916.708	3340
916.82	3382
916.932	3344
917.044	3431
917.156	3401
917.268	3298
917.38	3348
917.491	3344
917.603	3447
917.715	3496
917.826	3496
917.938	3386
918.049	3340
918.161	3473
918.272	3584
918.384	3644
918.495	3545
918.606	3378
918.717	3336
918.828	3389
918.939	3473
919.05	3351
919.161	3405
919.272	3233
919.383	3310
919.494	3526
919.604	3701
919.715	3523
919.826	3435
919.936	3500
920.047	3606
920.157	3545
920.267	3797
920.378	3660
920.488	3568
920.598	3816
920.708	3949
920.818	3876
920.928	3827
921.038	4101
921.148	4044
921.258	3724
921.368	3682
921.477	3610
921.587	3580
921.697	3519
921.806	3656
921.916	3603
922.025	3367
922.134	3409
922.244	3344
922.353	3450
922.462	3317
922.571	3222
922.68	3173
922.789	3100
922.898	3184
923.007	3161
923.116	3249
923.224	3192
923.333	3199
923.442	3176
923.55	3108
923.659	3241
923.767	3222
923.876	3142
923.984	3237
924.092	3138
924.201	3230
924.309	3279
924.417	3275
924.525	3233
924.633	3268
924.741	4017
924.849	3032
924.956	3275
925.064	3146
925.172	3108
925.279	3135
925.387	3230
925.494	3249
925.602	3367
925.709	3363
925.816	3233
925.924	3310
926.031	3412
926.138	3355
926.245	3405
926.352	3237
926.459	3481
926.566	3458
926.673	3340
926.779	3287
926.886	3237
926.993	3154
927.099	3150
927.206	3104
927.312	3116
927.419	3275
927.525	3195
927.631	3306
927.737	3157
927.843	3157
927.95	3039
928.056	3146
928.162	3203
928.267	3237
928.373	3838
928.479	3355
928.585	3017
928.69	3230
928.796	3329
928.901	3192
929.007	3055
929.112	3253
929.218	3195
929.323	3146
929.428	3176
929.533	3302
929.638	3154
929.743	3195
929.848	3260
929.953	3226
930.058	3173
930.163	3017
930.267	3070
930.372	3241
930.477	3062
930.581	3321
930.685	3211
930.79	3066
930.894	3119
930.998	3157
931.103	3321
931.207	3024
931.311	2979
931.415	2952
931.519	2769
931.623	2830
