Data from test_V78500241_1175.txt Node
Date: Fri Mar 25 16:23:20 CST 2022
User: usil
Spectrometer: V785-0024
Trigger mode: 0
Integration Time (sec): 4.000000E-1
Scans to average: 1
Nonlinearity correction enabled: false
Boxcar width: 0
Storing dark spectrum: false
XAxis mode: Wavelengths
Number of Pixels in Spectrum: 1024
>>>>>Begin Spectral Data<<<<<
801.071	2872
801.214	2925
801.356	2857
801.499	2880
801.641	2861
801.783	2944
801.926	3036
802.068	2971
802.211	3009
802.353	3028
802.496	2960
802.638	3005
802.78	3020
802.923	3039
803.065	3024
803.208	2868
803.35	2895
803.492	2910
803.635	2941
803.777	2773
803.919	2834
804.061	3245
804.204	2910
804.346	2910
804.488	2819
804.63	2994
804.773	2876
804.915	2887
805.057	3077
805.199	2979
805.341	2990
805.483	3020
805.626	2937
805.768	2979
805.91	3047
806.052	3066
806.194	2990
806.336	3237
806.478	2994
806.62	2944
806.762	2948
806.904	3036
807.046	3192
807.188	2971
807.33	2910
807.472	2975
807.614	2891
807.756	2975
807.898	2937
808.04	2864
808.182	2975
808.324	2937
808.465	2864
808.607	2880
808.749	2800
808.891	2868
809.033	3001
809.174	2979
809.316	2960
809.458	2857
809.6	2769
809.741	2746
809.883	2792
810.025	2849
810.166	2853
810.308	2868
810.45	2857
810.591	2815
810.733	2758
810.875	2823
811.016	2773
811.158	2746
811.299	2823
811.441	2891
811.582	2872
811.724	2834
811.865	2830
812.007	2891
812.148	2880
812.29	2845
812.431	2910
812.573	2952
812.714	2925
812.855	3028
812.997	3032
813.138	3085
813.279	3009
813.421	2986
813.562	2937
813.703	2868
813.845	2914
813.986	2750
814.127	2712
814.268	2853
814.41	2868
814.551	2819
814.692	2876
814.833	2796
814.974	2899
815.115	2944
815.256	2811
815.397	2830
815.539	2861
815.68	2762
815.821	2777
815.962	2910
816.103	2910
816.244	2883
816.385	2857
816.526	2967
816.666	2895
816.807	2777
816.948	2868
817.089	2922
817.23	2872
817.371	2777
817.512	2826
817.653	2815
817.793	2811
817.934	2899
818.075	2963
818.216	2982
818.356	3009
818.497	2891
818.638	2800
818.778	2830
818.919	2796
819.06	2746
819.2	2883
819.341	2762
819.481	2750
819.622	2895
819.762	3070
819.903	3017
820.043	2925
820.184	2861
820.324	2918
820.465	2979
820.605	3036
820.746	3017
820.886	2952
821.026	3097
821.167	3150
821.307	3226
821.447	3260
821.588	3230
821.728	3226
821.868	3135
822.008	3047
822.149	3138
822.289	3169
822.429	3077
822.569	3058
822.709	3176
822.849	3020
822.99	3070
823.13	3112
823.27	3203
823.41	3119
823.55	3131
823.69	3116
823.83	3169
823.97	3093
824.11	2952
824.25	2975
824.389	3047
824.529	3085
824.669	3058
824.809	3142
824.949	3222
825.089	3218
825.228	3157
825.368	2979
825.508	2933
825.648	2971
825.787	2952
825.927	3020
826.067	2979
826.206	2933
826.346	3047
826.485	3066
826.625	3085
826.765	3241
826.904	3214
827.044	2986
827.183	2941
827.323	2883
827.462	2982
827.601	2910
827.741	2922
827.88	2944
828.02	2842
828.159	2960
828.298	3028
828.437	3123
828.577	3058
828.716	3211
828.855	3089
828.994	2918
829.134	2864
829.273	2918
829.412	2853
829.551	2857
829.69	2895
829.829	2982
829.968	3161
830.107	3005
830.246	3036
830.385	2906
830.524	2868
830.663	2807
830.802	2746
830.941	2651
831.08	2617
831.219	2727
831.357	2754
831.496	2963
831.635	2712
831.774	2659
831.913	2655
832.051	2541
832.19	2560
832.329	2663
832.467	2526
832.606	2507
832.744	2541
832.883	2629
833.022	2568
833.16	2613
833.299	2636
833.437	2686
833.576	2670
833.714	2739
833.852	2731
833.991	2758
834.129	2823
834.267	2811
834.406	2766
834.544	2861
834.682	2857
834.821	2826
834.959	3062
835.097	2883
835.235	3074
835.373	2990
835.511	2986
835.65	2944
835.788	2979
835.926	2826
836.064	2800
836.202	2864
836.34	3104
836.478	3112
836.615	3043
836.753	3108
836.891	3173
837.029	3108
837.167	3089
837.305	3051
837.443	3024
837.58	2948
837.718	3108
837.856	3020
837.993	3036
838.131	3138
838.269	3135
838.406	3077
838.544	3074
838.681	2933
838.819	2914
838.956	2781
839.094	2800
839.231	2895
839.369	3032
839.506	3386
839.643	3195
839.781	2986
839.918	2944
840.055	3047
840.193	3051
840.33	3097
840.467	3062
840.604	3161
840.742	3447
840.879	3039
841.016	3032
841.153	3100
841.29	3325
841.427	3294
841.564	3230
841.701	3325
841.838	3207
841.975	3150
842.112	3199
842.249	3085
842.385	3024
842.522	3203
842.659	3066
842.796	3066
842.933	3108
843.069	3055
843.206	3009
843.343	3180
843.479	3093
843.616	3176
843.752	2887
843.889	2849
844.025	3058
844.162	2887
844.298	3058
844.435	2918
844.571	2887
844.708	3074
844.844	3138
844.98	3256
845.117	3161
845.253	3070
845.389	2944
845.525	3062
845.661	3119
845.798	3043
845.934	3131
846.07	3028
846.206	3233
846.342	3306
846.478	3203
846.614	3081
846.75	3055
846.886	3028
847.022	3211
847.158	3127
847.294	3146
847.429	3226
847.565	3203
847.701	3469
847.837	3020
847.972	2960
848.108	3116
848.244	3131
848.379	2967
848.515	2922
848.65	2971
848.786	2979
848.921	2979
849.057	3081
849.192	3138
849.328	3055
849.463	3081
849.598	3047
849.734	3047
849.869	2937
850.004	2925
850.14	2960
850.275	2918
850.41	2838
850.545	2857
850.68	2944
850.815	2941
850.95	2952
851.085	3173
851.22	3131
851.355	3051
851.49	2952
851.625	2960
851.76	3020
851.895	2956
852.03	2918
852.165	3051
852.299	3112
852.434	3154
852.569	3127
852.703	3176
852.838	3249
852.973	3321
853.107	3329
853.242	3142
853.376	3081
853.511	2986
853.645	3039
853.78	3184
853.914	3081
854.048	3089
854.183	3089
854.317	3157
854.451	3283
854.585	3085
854.72	3070
854.854	3222
854.988	3058
855.122	3081
855.256	2960
855.39	3116
855.524	3226
855.658	3176
855.792	3154
855.926	3161
856.06	3211
856.194	3230
856.327	3097
856.461	3009
856.595	3055
856.729	3043
856.862	3207
856.996	3165
857.13	3192
857.263	3195
857.397	3264
857.53	3131
857.664	3157
857.797	3256
857.931	3291
858.064	3180
858.197	3233
858.331	3097
858.464	3104
858.597	2986
858.731	3146
858.864	3173
858.997	3100
859.13	3142
859.263	3154
859.396	3222
859.529	3097
859.662	3081
859.795	3036
859.928	3116
860.061	3298
860.194	3298
860.327	3127
860.46	3123
860.592	3233
860.725	3222
860.858	3283
860.99	3119
861.123	3043
861.256	3047
861.388	3138
861.521	3701
861.653	3005
861.786	2971
861.918	3005
862.05	3055
862.183	3085
862.315	3161
862.447	3199
862.58	3070
862.712	2944
862.844	2853
862.976	3020
863.108	2956
863.24	3344
863.372	2853
863.504	2979
863.636	2975
863.768	3005
863.9	2952
864.032	2941
864.164	2933
864.296	3017
864.428	3024
864.559	3104
864.691	3051
864.823	3047
864.954	3055
865.086	3062
865.217	2979
865.349	2929
865.48	2982
865.612	2998
865.743	3142
865.875	2986
866.006	2952
866.137	2971
866.269	2952
866.4	2937
866.531	2929
866.662	2861
866.793	2891
866.924	2861
867.055	2979
867.186	2918
867.317	2887
867.448	2830
867.579	2868
867.71	2853
867.841	2861
867.972	2922
868.103	2891
868.233	2842
868.364	2895
868.495	2887
868.625	3055
868.756	3123
868.886	2975
869.017	3017
869.147	3146
869.278	3154
869.408	3028
869.539	3058
869.669	3093
869.799	3055
869.929	3116
870.06	3085
870.19	3310
870.32	3283
870.45	3264
870.58	3367
870.71	3443
870.84	3443
870.97	3287
871.1	3211
871.23	3485
871.36	3435
871.489	3374
871.619	3378
871.749	3435
871.879	3435
872.008	3477
872.138	3359
872.267	3249
872.397	3173
872.526	3097
872.656	2986
872.785	3070
872.915	3203
873.044	3325
873.173	3207
873.303	3218
873.432	3218
873.561	3241
873.69	3116
873.819	3104
873.948	3192
874.077	3146
874.206	3024
874.335	3039
874.464	3222
874.593	3329
874.722	3218
874.851	3367
874.979	3313
875.108	3310
875.237	3214
875.365	3192
875.494	3169
875.623	3218
875.751	3093
875.88	3131
876.008	3176
876.136	3195
876.265	3386
876.393	3458
876.521	3382
876.65	3378
876.778	3332
876.906	3211
877.034	3199
877.162	3199
877.29	3180
877.418	3275
877.546	3260
877.674	3222
877.802	3230
877.93	3218
878.058	3157
878.185	3085
878.313	3157
878.441	3253
878.568	3085
878.696	3176
878.824	3256
878.951	3317
879.079	3450
879.206	3610
879.333	3401
879.461	3302
879.588	3374
879.715	3458
879.842	3599
879.97	3412
880.097	3195
880.224	3123
880.351	3199
880.478	3207
880.605	3207
880.732	3169
880.859	3469
880.986	3291
881.112	3310
881.239	3188
881.366	3081
881.493	3009
881.619	2990
881.746	3108
881.872	3070
881.999	3085
882.125	3142
882.252	3256
882.378	3298
882.505	3435
882.631	3275
882.757	3146
882.883	3233
883.01	3230
883.136	3127
883.262	3051
883.388	3131
883.514	3325
883.64	3386
883.766	3291
883.892	3154
884.018	3287
884.143	3409
884.269	3538
884.395	3195
884.52	3104
884.646	3173
884.772	3097
884.897	3097
885.023	3184
885.148	3336
885.274	3409
885.399	3344
885.524	3268
885.65	3245
885.775	3291
885.9	3245
886.025	3450
886.15	3378
886.275	3294
886.4	3188
886.525	3275
886.65	3233
886.775	3249
886.9	3500
887.025	3587
887.149	3405
887.274	3264
887.399	3173
887.523	3195
887.648	3176
887.773	3176
887.897	3344
888.021	3370
888.146	3253
888.27	3431
888.395	3519
888.519	3405
888.643	3428
888.767	3515
888.891	3317
889.015	3249
889.139	3241
889.263	3226
889.387	3393
889.511	3469
889.635	3443
889.759	3310
889.883	3306
890.006	3344
890.13	3447
890.254	3241
890.377	3332
890.501	3233
890.624	3184
890.748	3294
890.871	3184
890.995	3097
891.118	3020
891.241	3230
891.364	3222
891.488	3298
891.611	3211
891.734	3226
891.857	3272
891.98	3233
892.103	3302
892.226	3283
892.349	3184
892.471	3123
892.594	3226
892.717	3260
892.839	3230
892.962	3302
893.085	3355
893.207	3298
893.33	3150
893.452	3199
893.575	3279
893.697	3253
893.819	3439
893.941	3462
894.064	3439
894.186	3260
894.308	3279
894.43	3409
894.552	3526
894.674	3450
894.796	3298
894.918	3272
895.04	3233
895.161	3424
895.283	3405
895.405	3279
895.526	3332
895.648	3382
895.769	3431
895.891	3454
896.012	3462
896.134	3450
896.255	3412
896.376	3355
896.498	3359
896.619	3405
896.74	3351
896.861	3386
896.982	3690
897.103	3819
897.224	3599
897.345	3523
897.466	3443
897.587	3443
897.708	3618
897.828	3519
897.949	3431
898.07	3313
898.19	3397
898.311	3595
898.431	3458
898.552	3515
898.672	3584
898.792	3553
898.913	3492
899.033	3393
899.153	3298
899.273	3253
899.393	3340
899.513	3344
899.633	3291
899.753	3283
899.873	3287
899.993	3325
900.113	3340
900.232	3401
900.352	3325
900.472	3294
900.591	3199
900.711	3310
900.83	3192
900.95	3389
901.069	3519
901.189	3329
901.308	3180
901.427	3142
901.546	3169
901.665	3317
901.784	3348
901.904	3222
902.023	3142
902.141	3032
902.26	3005
902.379	3112
902.498	3066
902.617	3020
902.735	3203
902.854	3245
902.973	3188
903.091	3055
903.21	3028
903.328	3131
903.446	3119
903.565	3097
903.683	3188
903.801	3116
903.919	3237
904.038	3253
904.156	3161
904.274	3298
904.392	3207
904.51	3264
904.627	3306
904.745	3416
904.863	3526
904.981	3237
905.098	3157
905.216	3211
905.334	3298
905.451	3298
905.569	3302
905.686	3458
905.803	3412
905.921	3260
906.038	3416
906.155	3374
906.272	3256
906.389	3332
906.506	3203
906.623	3214
906.74	3272
906.857	3165
906.974	3249
907.091	3462
907.208	3561
907.324	3500
907.441	3378
907.557	3218
907.674	3245
907.79	3237
907.907	3272
908.023	3367
908.139	3321
908.256	3313
908.372	3317
908.488	3329
908.604	3211
908.72	3245
908.836	3279
908.952	3279
909.068	3363
909.184	3405
909.3	3389
909.415	3500
909.531	3481
909.647	3253
909.762	3310
909.878	3233
909.993	3363
910.108	3325
910.224	3355
910.339	3409
910.454	3336
910.57	3275
910.685	3222
910.8	3584
910.915	3545
911.03	3424
911.145	3245
911.259	3260
911.374	3321
911.489	3241
911.604	3203
911.718	3108
911.833	3104
911.947	3024
912.062	2948
912.176	3192
912.291	3184
912.405	3207
912.519	3393
912.633	3488
912.748	3336
912.862	3283
912.976	3188
913.09	3066
913.204	3154
913.318	3207
913.431	3317
913.545	3336
913.659	3412
913.772	3310
913.886	3230
914	3199
914.113	3344
914.226	3401
914.34	3344
914.453	3203
914.566	3374
914.68	3253
914.793	3321
914.906	3176
915.019	3104
915.132	3077
915.245	3169
915.358	3199
915.47	3207
915.583	3260
915.696	3294
915.809	3389
915.921	3424
916.034	3233
916.146	3241
916.259	3207
916.371	3374
916.483	3374
916.595	3241
916.708	3325
916.82	3313
916.932	3329
917.044	3367
917.156	3340
917.268	3256
917.38	3302
917.491	3264
917.603	3397
917.715	3439
917.826	3454
917.938	3420
918.049	3279
918.161	3416
918.272	3564
918.384	3584
918.495	3511
918.606	3291
918.717	3321
918.828	3378
918.939	3393
919.05	3291
919.161	3378
919.272	3127
919.383	3260
919.494	3504
919.604	3694
919.715	3481
919.826	3382
919.936	3485
920.047	3568
920.157	3557
920.267	3751
920.378	3584
920.488	3515
920.598	3762
920.708	3979
920.818	3831
920.928	3854
921.038	4051
921.148	3964
921.258	3759
921.368	3633
921.477	3564
921.587	3511
921.697	3469
921.806	3637
921.916	3530
922.025	3351
922.134	3317
922.244	3306
922.353	3469
922.462	3268
922.571	3233
922.68	3138
922.789	3097
922.898	3180
923.007	3081
923.116	3173
923.224	3169
923.333	3195
923.442	3074
923.55	3062
923.659	3138
923.767	3211
923.876	3097
923.984	3245
924.092	3100
924.201	3195
924.309	3226
924.417	3249
924.525	3169
924.633	3230
924.741	3991
924.849	3024
924.956	3272
925.064	3062
925.172	3051
925.279	3112
925.387	3230
925.494	3222
925.602	3348
925.709	3313
925.816	3214
925.924	3287
926.031	3386
926.138	3283
926.245	3310
926.352	3245
926.459	3409
926.566	3466
926.673	3310
926.779	3260
926.886	3256
926.993	3150
927.099	3138
927.206	3112
927.312	3108
927.419	3237
927.525	3207
927.631	3306
927.737	3135
927.843	3100
927.95	3009
928.056	3112
928.162	3180
928.267	3245
928.373	3850
928.479	3306
928.585	3074
928.69	3214
928.796	3260
928.901	3142
929.007	3062
929.112	3222
929.218	3184
929.323	3142
929.428	3100
929.533	3355
929.638	3104
929.743	3203
929.848	3264
929.953	3241
930.058	3146
930.163	2990
930.267	3062
930.372	3195
930.477	3009
930.581	3317
930.685	3157
930.79	3074
930.894	3116
930.998	3112
931.103	3279
931.207	2979
931.311	2929
931.415	2952
931.519	2785
931.623	2796
