Data from test_V78500241_966.txt Node
Date: Fri Mar 25 16:21:53 CST 2022
User: usil
Spectrometer: V785-0024
Trigger mode: 0
Integration Time (sec): 4.000000E-1
Scans to average: 1
Nonlinearity correction enabled: false
Boxcar width: 0
Storing dark spectrum: false
XAxis mode: Wavelengths
Number of Pixels in Spectrum: 1024
>>>>>Begin Spectral Data<<<<<
801.071	2895
801.214	2922
801.356	2857
801.499	2872
801.641	2872
801.783	2902
801.926	3032
802.068	2979
802.211	2952
802.353	3024
802.496	2982
802.638	2986
802.78	3055
802.923	3097
803.065	3005
803.208	2876
803.35	2925
803.492	2952
803.635	2929
803.777	2754
803.919	2853
804.061	3195
804.204	2914
804.346	2876
804.488	2823
804.63	2975
804.773	2880
804.915	2914
805.057	3093
805.199	2925
805.341	2975
805.483	3009
805.626	3005
805.768	2922
805.91	3055
806.052	3116
806.194	3009
806.336	3211
806.478	3005
806.62	2948
806.762	2933
806.904	3036
807.046	3161
807.188	2960
807.33	2853
807.472	2990
807.614	2948
807.756	3017
807.898	2906
808.04	2906
808.182	2937
808.324	2982
808.465	2887
808.607	2876
808.749	2785
808.891	2842
809.033	2986
809.174	2952
809.316	2864
809.458	2891
809.6	2811
809.741	2785
809.883	2785
810.025	2830
810.166	2826
810.308	2868
810.45	2807
810.591	2746
810.733	2750
810.875	2800
811.016	2781
811.158	2769
811.299	2800
811.441	2925
811.582	2868
811.724	2815
811.865	2819
812.007	2906
812.148	2880
812.29	2815
812.431	2910
812.573	2944
812.714	2918
812.855	3051
812.997	3013
813.138	3119
813.279	2986
813.421	3005
813.562	2929
813.703	2861
813.845	2891
813.986	2758
814.127	2727
814.268	2842
814.41	2819
814.551	2804
814.692	2857
814.833	2872
814.974	2880
815.115	2906
815.256	2811
815.397	2800
815.539	2857
815.68	2777
815.821	2807
815.962	2929
816.103	2952
816.244	2902
816.385	2880
816.526	2956
816.666	2895
816.807	2750
816.948	2918
817.089	2918
817.23	2849
817.371	2777
817.512	2800
817.653	2834
817.793	2823
817.934	2853
818.075	2971
818.216	2967
818.356	3009
818.497	2876
818.638	2819
818.778	2834
818.919	2785
819.06	2724
819.2	2868
819.341	2777
819.481	2773
819.622	2922
819.762	3123
819.903	3051
820.043	2925
820.184	2887
820.324	2883
820.465	2994
820.605	2979
820.746	3039
820.886	2895
821.026	3089
821.167	3142
821.307	3237
821.447	3253
821.588	3253
821.728	3169
821.868	3176
822.008	3051
822.149	3169
822.289	3214
822.429	3077
822.569	3112
822.709	3150
822.849	3024
822.99	3039
823.13	3127
823.27	3195
823.41	3119
823.55	3119
823.69	3146
823.83	3161
823.97	3097
824.11	2998
824.25	2944
824.389	3020
824.529	3157
824.669	3043
824.809	3203
824.949	3214
825.089	3180
825.228	3142
825.368	2986
825.508	2944
825.648	2986
825.787	3009
825.927	2994
826.067	2963
826.206	2975
826.346	3047
826.485	3047
826.625	3100
826.765	3264
826.904	3199
827.044	2933
827.183	2925
827.323	2883
827.462	2986
827.601	2922
827.741	2929
827.88	2914
828.02	2872
828.159	2960
828.298	3055
828.437	3085
828.577	3051
828.716	3230
828.855	3051
828.994	2876
829.134	2868
829.273	2895
829.412	2845
829.551	2891
829.69	2872
829.829	2990
829.968	3123
830.107	2990
830.246	3013
830.385	2925
830.524	2891
830.663	2796
830.802	2720
830.941	2663
831.08	2625
831.219	2743
831.357	2746
831.496	2910
831.635	2750
831.774	2632
831.913	2663
832.051	2518
832.19	2560
832.329	2678
832.467	2560
832.606	2461
832.744	2594
832.883	2610
833.022	2560
833.16	2644
833.299	2655
833.437	2697
833.576	2655
833.714	2746
833.852	2682
833.991	2785
834.129	2819
834.267	2792
834.406	2758
834.544	2876
834.682	2902
834.821	2845
834.959	3055
835.097	2895
835.235	3020
835.373	3001
835.511	3020
835.65	2956
835.788	2986
835.926	2819
836.064	2819
836.202	2834
836.34	3131
836.478	3131
836.615	3028
836.753	3135
836.891	3192
837.029	3165
837.167	3112
837.305	3058
837.443	3036
837.58	2960
837.718	3154
837.856	3055
837.993	3009
838.131	3112
838.269	3127
838.406	3058
838.544	3058
838.681	2922
838.819	2899
838.956	2804
839.094	2811
839.231	2918
839.369	3020
839.506	3336
839.643	3237
839.781	3017
839.918	2948
840.055	3047
840.193	3013
840.33	3062
840.467	3077
840.604	3131
840.742	3405
840.879	3032
841.016	3032
841.153	3093
841.29	3287
841.427	3313
841.564	3256
841.701	3264
841.838	3180
841.975	3169
842.112	3176
842.249	3077
842.385	3039
842.522	3241
842.659	3089
842.796	3055
842.933	3104
843.069	3024
843.206	3024
843.343	3195
843.479	3116
843.616	3112
843.752	2883
843.889	2838
844.025	3062
844.162	2899
844.298	3089
844.435	2925
844.571	2914
844.708	3070
844.844	3184
844.98	3165
845.117	3249
845.253	3032
845.389	3039
845.525	3070
845.661	3081
845.798	3013
845.934	3097
846.07	3013
846.206	3184
846.342	3336
846.478	3241
846.614	3047
846.75	3043
846.886	2990
847.022	3256
847.158	3142
847.294	3169
847.429	3241
847.565	3233
847.701	3458
847.837	3028
847.972	2971
848.108	3173
848.244	3108
848.379	2982
848.515	2929
848.65	2883
848.786	2929
848.921	2990
849.057	3077
849.192	3157
849.328	3047
849.463	3100
849.598	3058
849.734	3039
849.869	2948
850.004	2906
850.14	2963
850.275	2891
850.41	2807
850.545	2895
850.68	2925
850.815	2948
850.95	2956
851.085	3169
851.22	3112
851.355	3020
851.49	2956
851.625	3001
851.76	2963
851.895	2906
852.03	2948
852.165	3020
852.299	3108
852.434	3180
852.569	3146
852.703	3169
852.838	3226
852.973	3325
853.107	3351
853.242	3116
853.376	3077
853.511	2979
853.645	3013
853.78	3249
853.914	3138
854.048	3089
854.183	3119
854.317	3100
854.451	3287
854.585	3146
854.72	3100
854.854	3176
854.988	3017
855.122	3093
855.256	2971
855.39	3138
855.524	3207
855.658	3161
855.792	3180
855.926	3195
856.06	3192
856.194	3260
856.327	3138
856.461	3081
856.595	3047
856.729	3089
856.862	3192
856.996	3157
857.13	3214
857.263	3203
857.397	3298
857.53	3112
857.664	3165
857.797	3237
857.931	3260
858.064	3146
858.197	3188
858.331	3131
858.464	3070
858.597	3009
858.731	3127
858.864	3123
858.997	3047
859.13	3146
859.263	3146
859.396	3184
859.529	3066
859.662	3081
859.795	3024
859.928	3108
860.061	3291
860.194	3256
860.327	3138
860.46	3051
860.592	3233
860.725	3256
860.858	3237
860.99	3077
861.123	3028
861.256	3028
861.388	3131
861.521	3770
861.653	2979
861.786	2956
861.918	2986
862.05	3039
862.183	3089
862.315	3135
862.447	3195
862.58	3074
862.712	2975
862.844	2880
862.976	3001
863.108	2971
863.24	3374
863.372	2853
863.504	2971
863.636	2948
863.768	2979
863.9	2967
864.032	2914
864.164	2960
864.296	3001
864.428	3074
864.559	3081
864.691	3055
864.823	3028
864.954	3024
865.086	3039
865.217	2994
865.349	2956
865.48	2990
865.612	2982
865.743	3203
865.875	2975
866.006	2922
866.137	2937
866.269	2918
866.4	2899
866.531	2929
866.662	2899
866.793	2899
866.924	2922
867.055	2994
867.186	2895
867.317	2872
867.448	2842
867.579	2880
867.71	2804
867.841	2800
867.972	2906
868.103	2891
868.233	2853
868.364	2880
868.495	2895
868.625	3093
868.756	3169
868.886	2956
869.017	3005
869.147	3146
869.278	3142
869.408	3017
869.539	3013
869.669	3051
869.799	3039
869.929	3131
870.06	3074
870.19	3294
870.32	3291
870.45	3268
870.58	3359
870.71	3409
870.84	3462
870.97	3253
871.1	3214
871.23	3469
871.36	3469
871.489	3340
871.619	3416
871.749	3393
871.879	3435
872.008	3507
872.138	3348
872.267	3260
872.397	3112
872.526	3066
872.656	2967
872.785	3066
872.915	3222
873.044	3283
873.173	3237
873.303	3241
873.432	3268
873.561	3199
873.69	3119
873.819	3112
873.948	3173
874.077	3100
874.206	3043
874.335	3100
874.464	3203
874.593	3306
874.722	3211
874.851	3405
874.979	3310
875.108	3298
875.237	3203
875.365	3173
875.494	3116
875.623	3260
875.751	3112
875.88	3135
876.008	3195
876.136	3169
876.265	3374
876.393	3492
876.521	3393
876.65	3428
876.778	3336
876.906	3256
877.034	3184
877.162	3241
877.29	3142
877.418	3260
877.546	3203
877.674	3214
877.802	3222
877.93	3207
878.058	3142
878.185	3055
878.313	3165
878.441	3184
878.568	3043
878.696	3119
878.824	3203
878.951	3256
879.079	3424
879.206	3618
879.333	3424
879.461	3310
879.588	3317
879.715	3481
879.842	3572
879.97	3363
880.097	3146
880.224	3135
880.351	3199
880.478	3188
880.605	3165
880.732	3165
880.859	3450
880.986	3256
881.112	3321
881.239	3165
881.366	3039
881.493	3047
881.619	2982
881.746	3070
881.872	3104
881.999	3097
882.125	3135
882.252	3256
882.378	3287
882.505	3447
882.631	3253
882.757	3146
882.883	3211
883.01	3192
883.136	3135
883.262	3077
883.388	3089
883.514	3298
883.64	3378
883.766	3306
883.892	3195
884.018	3203
884.143	3386
884.269	3526
884.395	3199
884.52	3173
884.646	3169
884.772	3165
884.897	3108
885.023	3207
885.148	3313
885.274	3450
885.399	3348
885.524	3321
885.65	3245
885.775	3302
885.9	3298
886.025	3428
886.15	3367
886.275	3306
886.4	3268
886.525	3348
886.65	3298
886.775	3294
886.9	3561
887.025	3686
887.149	3397
887.274	3275
887.399	3207
887.523	3256
887.648	3184
887.773	3203
887.897	3435
888.021	3424
888.146	3321
888.27	3454
888.395	3610
888.519	3454
888.643	3496
888.767	3477
888.891	3351
889.015	3256
889.139	3340
889.263	3275
889.387	3435
889.511	3553
889.635	3496
889.759	3310
889.883	3340
890.006	3443
890.13	3530
890.254	3272
890.377	3401
890.501	3260
890.624	3211
890.748	3370
890.871	3226
890.995	3176
891.118	3093
891.241	3241
891.364	3279
891.488	3340
891.611	3233
891.734	3256
891.857	3302
891.98	3298
892.103	3370
892.226	3260
892.349	3249
892.471	3127
892.594	3260
892.717	3321
892.839	3306
892.962	3294
893.085	3428
893.207	3336
893.33	3188
893.452	3195
893.575	3389
893.697	3275
893.819	3450
893.941	3515
894.064	3496
894.186	3291
894.308	3287
894.43	3466
894.552	3557
894.674	3500
894.796	3302
894.918	3386
895.04	3298
895.161	3466
895.283	3466
895.405	3329
895.526	3405
895.648	3492
895.769	3488
895.891	3485
896.012	3488
896.134	3504
896.255	3443
896.376	3424
896.498	3405
896.619	3466
896.74	3424
896.861	3469
896.982	3713
897.103	3838
897.224	3667
897.345	3507
897.466	3462
897.587	3496
897.708	3618
897.828	3591
897.949	3447
898.07	3378
898.19	3443
898.311	3637
898.431	3496
898.552	3523
898.672	3644
898.792	3606
898.913	3564
899.033	3450
899.153	3306
899.273	3249
899.393	3351
899.513	3363
899.633	3382
899.753	3367
899.873	3363
899.993	3378
900.113	3370
900.232	3420
900.352	3389
900.472	3359
900.591	3237
900.711	3332
900.83	3283
900.95	3435
901.069	3515
901.189	3389
901.308	3214
901.427	3154
901.546	3211
901.665	3329
901.784	3351
901.904	3218
902.023	3169
902.141	3043
902.26	3017
902.379	3214
902.498	3097
902.617	3074
902.735	3249
902.854	3233
902.973	3195
903.091	3051
903.21	3089
903.328	3169
903.446	3127
903.565	3138
903.683	3233
903.801	3116
903.919	3260
904.038	3291
904.156	3135
904.274	3317
904.392	3272
904.51	3332
904.627	3382
904.745	3469
904.863	3545
904.981	3279
905.098	3165
905.216	3249
905.334	3302
905.451	3340
905.569	3355
905.686	3439
905.803	3507
905.921	3340
906.038	3477
906.155	3359
906.272	3325
906.389	3359
906.506	3287
906.623	3256
906.74	3310
906.857	3203
906.974	3260
907.091	3466
907.208	3580
907.324	3488
907.441	3439
907.557	3249
907.674	3279
907.79	3256
907.907	3332
908.023	3389
908.139	3382
908.256	3367
908.372	3401
908.488	3382
908.604	3279
908.72	3279
908.836	3325
908.952	3287
909.068	3363
909.184	3538
909.3	3397
909.415	3534
909.531	3515
909.647	3313
909.762	3336
909.878	3291
909.993	3397
910.108	3363
910.224	3348
910.339	3424
910.454	3351
910.57	3344
910.685	3268
910.8	3591
910.915	3587
911.03	3496
911.145	3306
911.259	3264
911.374	3336
911.489	3253
911.604	3264
911.718	3157
911.833	3176
911.947	3028
912.062	3055
912.176	3253
912.291	3245
912.405	3199
912.519	3477
912.633	3519
912.748	3393
912.862	3325
912.976	3195
913.09	3074
913.204	3169
913.318	3249
913.431	3355
913.545	3359
913.659	3420
913.772	3374
913.886	3245
914	3233
914.113	3367
914.226	3428
914.34	3363
914.453	3256
914.566	3447
914.68	3329
914.793	3344
914.906	3173
915.019	3142
915.132	3085
915.245	3180
915.358	3203
915.47	3283
915.583	3325
915.696	3310
915.809	3431
915.921	3477
916.034	3298
916.146	3256
916.259	3237
916.371	3431
916.483	3355
916.595	3306
916.708	3367
916.82	3351
916.932	3409
917.044	3332
917.156	3389
917.268	3287
917.38	3294
917.491	3332
917.603	3431
917.715	3412
917.826	3500
917.938	3405
918.049	3317
918.161	3401
918.272	3652
918.384	3591
918.495	3538
918.606	3355
918.717	3287
918.828	3416
918.939	3420
919.05	3393
919.161	3401
919.272	3214
919.383	3287
919.494	3561
919.604	3736
919.715	3553
919.826	3424
919.936	3511
920.047	3595
920.157	3549
920.267	3778
920.378	3587
920.488	3618
920.598	3850
920.708	3975
920.818	3774
920.928	3903
921.038	4013
921.148	4040
921.258	3713
921.368	3694
921.477	3610
921.587	3549
921.697	3477
921.806	3603
921.916	3504
922.025	3374
922.134	3378
922.244	3344
922.353	3450
922.462	3287
922.571	3203
922.68	3104
922.789	3070
922.898	3138
923.007	3077
923.116	3218
923.224	3199
923.333	3226
923.442	3123
923.55	3108
923.659	3154
923.767	3214
923.876	3157
923.984	3245
924.092	3127
924.201	3203
924.309	3310
924.417	3268
924.525	3241
924.633	3256
924.741	4169
924.849	3081
924.956	3313
925.064	3077
925.172	3074
925.279	3108
925.387	3207
925.494	3233
925.602	3401
925.709	3325
925.816	3222
925.924	3275
926.031	3397
926.138	3359
926.245	3386
926.352	3268
926.459	3401
926.566	3507
926.673	3329
926.779	3291
926.886	3268
926.993	3180
927.099	3169
927.206	3123
927.312	3131
927.419	3245
927.525	3218
927.631	3298
927.737	3169
927.843	3161
927.95	3020
928.056	3157
928.162	3188
928.267	3264
928.373	3880
928.479	3355
928.585	3123
928.69	3214
928.796	3275
928.901	3199
929.007	3070
929.112	3253
929.218	3222
929.323	3184
929.428	3169
929.533	3291
929.638	3135
929.743	3218
929.848	3256
929.953	3260
930.058	3135
930.163	3009
930.267	3074
930.372	3184
930.477	3066
930.581	3348
930.685	3169
930.79	3093
930.894	3119
930.998	3085
931.103	3222
931.207	2998
931.311	2975
931.415	2994
931.519	2819
931.623	2853
