Data from test_V78500241_1513.txt Node
Date: Fri Mar 25 16:25:41 CST 2022
User: usil
Spectrometer: V785-0024
Trigger mode: 0
Integration Time (sec): 4.000000E-1
Scans to average: 1
Nonlinearity correction enabled: false
Boxcar width: 0
Storing dark spectrum: false
XAxis mode: Wavelengths
Number of Pixels in Spectrum: 1024
>>>>>Begin Spectral Data<<<<<
801.071	2899
801.214	2941
801.356	2868
801.499	2853
801.641	2868
801.783	2887
801.926	3081
802.068	2960
802.211	2982
802.353	2994
802.496	2941
802.638	3001
802.78	2986
802.923	3074
803.065	3005
803.208	2902
803.35	2918
803.492	2948
803.635	2872
803.777	2731
803.919	2864
804.061	3184
804.204	2933
804.346	2861
804.488	2853
804.63	3013
804.773	2887
804.915	2853
805.057	3062
805.199	2925
805.341	2925
805.483	3013
805.626	2982
805.768	2933
805.91	3081
806.052	3119
806.194	3017
806.336	3207
806.478	3024
806.62	2914
806.762	2956
806.904	3043
807.046	3165
807.188	2963
807.33	2906
807.472	2975
807.614	2880
807.756	2975
807.898	2922
808.04	2864
808.182	2986
808.324	2960
808.465	2849
808.607	2872
808.749	2796
808.891	2845
809.033	2998
809.174	2979
809.316	2876
809.458	2845
809.6	2731
809.741	2727
809.883	2758
810.025	2834
810.166	2876
810.308	2815
810.45	2830
810.591	2754
810.733	2773
810.875	2823
811.016	2785
811.158	2754
811.299	2826
811.441	2929
811.582	2883
811.724	2815
811.865	2826
812.007	2864
812.148	2880
812.29	2830
812.431	2883
812.573	2910
812.714	2975
812.855	3024
812.997	3066
813.138	3093
813.279	3058
813.421	2956
813.562	2929
813.703	2861
813.845	2880
813.986	2762
814.127	2712
814.268	2826
814.41	2857
814.551	2823
814.692	2872
814.833	2807
814.974	2891
815.115	2956
815.256	2815
815.397	2819
815.539	2849
815.68	2766
815.821	2724
815.962	2952
816.103	2975
816.244	2857
816.385	2868
816.526	2971
816.666	2895
816.807	2750
816.948	2895
817.089	2880
817.23	2868
817.371	2781
817.512	2804
817.653	2819
817.793	2838
817.934	2929
818.075	2933
818.216	2952
818.356	3020
818.497	2876
818.638	2800
818.778	2804
818.919	2773
819.06	2773
819.2	2891
819.341	2788
819.481	2788
819.622	2929
819.762	3074
819.903	3070
820.043	2887
820.184	2910
820.324	2910
820.465	2990
820.605	3009
820.746	3009
820.886	2937
821.026	3104
821.167	3104
821.307	3233
821.447	3268
821.588	3214
821.728	3192
821.868	3214
822.008	3070
822.149	3154
822.289	3188
822.429	3077
822.569	3066
822.709	3199
822.849	3036
822.99	3062
823.13	3146
823.27	3237
823.41	3108
823.55	3138
823.69	3142
823.83	3157
823.97	3081
824.11	2982
824.25	2990
824.389	3062
824.529	3077
824.669	3062
824.809	3203
824.949	3245
825.089	3226
825.228	3188
825.368	3036
825.508	3005
825.648	2967
825.787	2998
825.927	3017
826.067	2952
826.206	2944
826.346	3032
826.485	3039
826.625	3100
826.765	3226
826.904	3211
827.044	2941
827.183	2937
827.323	2838
827.462	2986
827.601	2872
827.741	2925
827.88	2937
828.02	2834
828.159	2967
828.298	3028
828.437	3123
828.577	3062
828.716	3241
828.855	3097
828.994	2906
829.134	2902
829.273	2918
829.412	2857
829.551	2872
829.69	2887
829.829	2982
829.968	3119
830.107	2990
830.246	3005
830.385	2891
830.524	2864
830.663	2769
830.802	2716
830.941	2617
831.08	2648
831.219	2743
831.357	2720
831.496	2975
831.635	2712
831.774	2655
831.913	2651
832.051	2541
832.19	2602
832.329	2689
832.467	2492
832.606	2495
832.744	2568
832.883	2556
833.022	2556
833.16	2648
833.299	2686
833.437	2682
833.576	2659
833.714	2712
833.852	2689
833.991	2754
834.129	2796
834.267	2819
834.406	2762
834.544	2876
834.682	2880
834.821	2842
834.959	3066
835.097	2891
835.235	3013
835.373	2967
835.511	3017
835.65	2929
835.788	2944
835.926	2849
836.064	2830
836.202	2842
836.34	3077
836.478	3138
836.615	3074
836.753	3154
836.891	3214
837.029	3192
837.167	3119
837.305	3097
837.443	3020
837.58	2937
837.718	3093
837.856	3066
837.993	3017
838.131	3119
838.269	3085
838.406	3108
838.544	3036
838.681	2906
838.819	2906
838.956	2823
839.094	2842
839.231	2956
839.369	2967
839.506	3393
839.643	3207
839.781	3001
839.918	2952
840.055	3036
840.193	3055
840.33	3043
840.467	3047
840.604	3135
840.742	3329
840.879	3066
841.016	3024
841.153	3104
841.29	3340
841.427	3275
841.564	3237
841.701	3332
841.838	3218
841.975	3203
842.112	3199
842.249	3074
842.385	3047
842.522	3237
842.659	3077
842.796	3051
842.933	3066
843.069	3047
843.206	3017
843.343	3195
843.479	3116
843.616	3108
843.752	2880
843.889	2872
844.025	3081
844.162	2887
844.298	3085
844.435	2891
844.571	2906
844.708	3055
844.844	3195
844.98	3195
845.117	3169
845.253	3066
845.389	2971
845.525	3116
845.661	3085
845.798	3066
845.934	3150
846.07	3013
846.206	3207
846.342	3329
846.478	3195
846.614	3062
846.75	3047
846.886	3017
847.022	3233
847.158	3142
847.294	3218
847.429	3233
847.565	3184
847.701	3485
847.837	3047
847.972	2960
848.108	3146
848.244	3157
848.379	2967
848.515	2910
848.65	2929
848.786	2967
848.921	3043
849.057	3074
849.192	3119
849.328	3093
849.463	3074
849.598	3039
849.734	3043
849.869	2967
850.004	2906
850.14	2929
850.275	2902
850.41	2838
850.545	2868
850.68	2925
850.815	2975
850.95	2967
851.085	3214
851.22	3077
851.355	3009
851.49	2975
851.625	2971
851.76	3024
851.895	2937
852.03	2918
852.165	3024
852.299	3119
852.434	3169
852.569	3154
852.703	3150
852.838	3245
852.973	3306
853.107	3313
853.242	3161
853.376	3062
853.511	2960
853.645	3024
853.78	3203
853.914	3135
854.048	3108
854.183	3081
854.317	3142
854.451	3256
854.585	3116
854.72	3108
854.854	3184
854.988	3039
855.122	3062
855.256	2960
855.39	3074
855.524	3233
855.658	3173
855.792	3131
855.926	3188
856.06	3199
856.194	3279
856.327	3157
856.461	3024
856.595	3104
856.729	3108
856.862	3173
856.996	3161
857.13	3218
857.263	3245
857.397	3214
857.53	3089
857.664	3173
857.797	3214
857.931	3233
858.064	3138
858.197	3195
858.331	3131
858.464	3085
858.597	2990
858.731	3108
858.864	3108
858.997	3047
859.13	3157
859.263	3154
859.396	3207
859.529	3055
859.662	3081
859.795	3055
859.928	3161
860.061	3313
860.194	3264
860.327	3119
860.46	3085
860.592	3211
860.725	3233
860.858	3230
860.99	3070
861.123	3043
861.256	3013
861.388	3138
861.521	3896
861.653	3043
861.786	3024
861.918	2956
862.05	3074
862.183	3077
862.315	3157
862.447	3173
862.58	3097
862.712	2941
862.844	2857
862.976	3036
863.108	2986
863.24	3325
863.372	2842
863.504	2960
863.636	2933
863.768	3036
863.9	2952
864.032	2914
864.164	2941
864.296	3001
864.428	3100
864.559	3085
864.691	3055
864.823	3039
864.954	3017
865.086	3001
865.217	2952
865.349	2963
865.48	2960
865.612	3028
865.743	3154
865.875	2979
866.006	2948
866.137	2971
866.269	2925
866.4	2922
866.531	2899
866.662	2861
866.793	2876
866.924	2872
867.055	2963
867.186	2902
867.317	2868
867.448	2804
867.579	2830
867.71	2811
867.841	2804
867.972	2937
868.103	2872
868.233	2891
868.364	2864
868.495	2883
868.625	3032
868.756	3119
868.886	2963
869.017	3005
869.147	3154
869.278	3154
869.408	3024
869.539	3020
869.669	3062
869.799	3043
869.929	3089
870.06	3093
870.19	3317
870.32	3249
870.45	3302
870.58	3321
870.71	3469
870.84	3424
870.97	3275
871.1	3256
871.23	3447
871.36	3435
871.489	3340
871.619	3393
871.749	3386
871.879	3424
872.008	3462
872.138	3355
872.267	3249
872.397	3135
872.526	3070
872.656	3005
872.785	3081
872.915	3249
873.044	3325
873.173	3203
873.303	3226
873.432	3199
873.561	3207
873.69	3131
873.819	3123
873.948	3192
874.077	3104
874.206	2998
874.335	3097
874.464	3218
874.593	3336
874.722	3222
874.851	3367
874.979	3367
875.108	3302
875.237	3192
875.365	3127
875.494	3127
875.623	3233
875.751	3112
875.88	3077
876.008	3165
876.136	3192
876.265	3336
876.393	3515
876.521	3382
876.65	3389
876.778	3294
876.906	3279
877.034	3131
877.162	3214
877.29	3211
877.418	3233
877.546	3233
877.674	3214
877.802	3233
877.93	3203
878.058	3154
878.185	3074
878.313	3161
878.441	3211
878.568	3074
878.696	3157
878.824	3214
878.951	3241
879.079	3477
879.206	3595
879.333	3435
879.461	3283
879.588	3344
879.715	3477
879.842	3568
879.97	3378
880.097	3165
880.224	3093
880.351	3195
880.478	3226
880.605	3173
880.732	3135
880.859	3492
880.986	3298
881.112	3325
881.239	3192
881.366	3074
881.493	3005
881.619	3009
881.746	3070
881.872	3043
881.999	3097
882.125	3123
882.252	3264
882.378	3241
882.505	3405
882.631	3253
882.757	3108
882.883	3173
883.01	3199
883.136	3165
883.262	3089
883.388	3119
883.514	3283
883.64	3382
883.766	3283
883.892	3161
884.018	3207
884.143	3397
884.269	3511
884.395	3184
884.52	3131
884.646	3188
884.772	3085
884.897	3077
885.023	3207
885.148	3313
885.274	3378
885.399	3393
885.524	3256
885.65	3256
885.775	3291
885.9	3264
886.025	3439
886.15	3355
886.275	3279
886.4	3211
886.525	3272
886.65	3260
886.775	3268
886.9	3454
887.025	3637
887.149	3412
887.274	3222
887.399	3169
887.523	3195
887.648	3184
887.773	3192
887.897	3397
888.021	3359
888.146	3302
888.27	3458
888.395	3538
888.519	3458
888.643	3447
888.767	3447
888.891	3367
889.015	3264
889.139	3275
889.263	3275
889.387	3416
889.511	3553
889.635	3401
889.759	3264
889.883	3348
890.006	3443
890.13	3492
890.254	3245
890.377	3367
890.501	3245
890.624	3203
890.748	3336
890.871	3203
890.995	3138
891.118	3074
891.241	3226
891.364	3237
891.488	3355
891.611	3207
891.734	3249
891.857	3325
891.98	3256
892.103	3370
892.226	3321
892.349	3260
892.471	3138
892.594	3275
892.717	3313
892.839	3317
892.962	3310
893.085	3401
893.207	3336
893.33	3226
893.452	3253
893.575	3348
893.697	3287
893.819	3519
893.941	3580
894.064	3462
894.186	3294
894.308	3332
894.43	3450
894.552	3526
894.674	3458
894.796	3336
894.918	3348
895.04	3317
895.161	3450
895.283	3439
895.405	3351
895.526	3405
895.648	3469
895.769	3454
895.891	3500
896.012	3450
896.134	3492
896.255	3401
896.376	3416
896.498	3374
896.619	3462
896.74	3393
896.861	3447
896.982	3698
897.103	3835
897.224	3625
897.345	3568
897.466	3462
897.587	3549
897.708	3622
897.828	3557
897.949	3511
898.07	3363
898.19	3469
898.311	3641
898.431	3473
898.552	3553
898.672	3614
898.792	3660
898.913	3538
899.033	3428
899.153	3302
899.273	3237
899.393	3363
899.513	3329
899.633	3367
899.753	3340
899.873	3317
899.993	3370
900.113	3351
900.232	3420
900.352	3367
900.472	3359
900.591	3214
900.711	3313
900.83	3306
900.95	3454
901.069	3538
901.189	3367
901.308	3180
901.427	3176
901.546	3203
901.665	3310
901.784	3336
901.904	3275
902.023	3146
902.141	3074
902.26	3039
902.379	3169
902.498	3097
902.617	3028
902.735	3214
902.854	3275
902.973	3249
903.091	3051
903.21	3070
903.328	3150
903.446	3165
903.565	3165
903.683	3241
903.801	3119
903.919	3275
904.038	3291
904.156	3161
904.274	3329
904.392	3287
904.51	3340
904.627	3378
904.745	3458
904.863	3504
904.981	3321
905.098	3184
905.216	3256
905.334	3351
905.451	3393
905.569	3348
905.686	3458
905.803	3504
905.921	3321
906.038	3443
906.155	3370
906.272	3329
906.389	3325
906.506	3260
906.623	3256
906.74	3287
906.857	3211
906.974	3291
907.091	3515
907.208	3561
907.324	3492
907.441	3382
907.557	3275
907.674	3287
907.79	3253
907.907	3313
908.023	3420
908.139	3416
908.256	3378
908.372	3378
908.488	3367
908.604	3317
908.72	3256
908.836	3294
908.952	3298
909.068	3355
909.184	3530
909.3	3435
909.415	3545
909.531	3519
909.647	3351
909.762	3329
909.878	3268
909.993	3359
910.108	3363
910.224	3405
910.339	3439
910.454	3344
910.57	3332
910.685	3249
910.8	3591
910.915	3553
911.03	3450
911.145	3279
911.259	3313
911.374	3363
911.489	3264
911.604	3245
911.718	3214
911.833	3184
911.947	3066
912.062	3024
912.176	3218
912.291	3222
912.405	3211
912.519	3443
912.633	3526
912.748	3393
912.862	3272
912.976	3199
913.09	3097
913.204	3146
913.318	3245
913.431	3367
913.545	3355
913.659	3454
913.772	3363
913.886	3264
914	3237
914.113	3378
914.226	3435
914.34	3424
914.453	3233
914.566	3447
914.68	3313
914.793	3325
914.906	3157
915.019	3138
915.132	3104
915.245	3199
915.358	3230
915.47	3207
915.583	3317
915.696	3321
915.809	3439
915.921	3469
916.034	3317
916.146	3298
916.259	3237
916.371	3420
916.483	3428
916.595	3325
916.708	3378
916.82	3359
916.932	3355
917.044	3363
917.156	3332
917.268	3302
917.38	3321
917.491	3313
917.603	3382
917.715	3454
917.826	3523
917.938	3420
918.049	3348
918.161	3431
918.272	3614
918.384	3614
918.495	3538
918.606	3359
918.717	3302
918.828	3409
918.939	3393
919.05	3294
919.161	3424
919.272	3214
919.383	3310
919.494	3526
919.604	3717
919.715	3519
919.826	3431
919.936	3488
920.047	3648
920.157	3587
920.267	3797
920.378	3580
920.488	3618
920.598	3819
920.708	3979
920.818	3865
920.928	3884
921.038	4025
921.148	4017
921.258	3724
921.368	3682
921.477	3629
921.587	3564
921.697	3481
921.806	3667
921.916	3534
922.025	3393
922.134	3367
922.244	3336
922.353	3439
922.462	3272
922.571	3226
922.68	3146
922.789	3097
922.898	3161
923.007	3138
923.116	3241
923.224	3192
923.333	3192
923.442	3119
923.55	3093
923.659	3169
923.767	3249
923.876	3112
923.984	3233
924.092	3146
924.201	3222
924.309	3226
924.417	3249
924.525	3211
924.633	3291
924.741	4154
924.849	3058
924.956	3279
925.064	3119
925.172	3112
925.279	3116
925.387	3214
925.494	3211
925.602	3397
925.709	3351
925.816	3226
925.924	3291
926.031	3370
926.138	3409
926.245	3386
926.352	3275
926.459	3431
926.566	3462
926.673	3298
926.779	3310
926.886	3241
926.993	3180
927.099	3161
927.206	3154
927.312	3104
927.419	3287
927.525	3226
927.631	3256
927.737	3142
927.843	3116
927.95	3055
928.056	3169
928.162	3233
928.267	3291
928.373	3804
928.479	3298
928.585	3066
928.69	3237
928.796	3283
928.901	3165
929.007	3097
929.112	3241
929.218	3226
929.323	3161
929.428	3165
929.533	3336
929.638	3138
929.743	3188
929.848	3260
929.953	3237
930.058	3188
930.163	3005
930.267	3077
930.372	3218
930.477	3066
930.581	3344
930.685	3169
930.79	3112
930.894	3104
930.998	3131
931.103	3310
931.207	2979
931.311	2971
931.415	2956
931.519	2807
931.623	2800
