Data from test_V78500241_1165.txt Node
Date: Fri Mar 25 16:23:16 CST 2022
User: usil
Spectrometer: V785-0024
Trigger mode: 0
Integration Time (sec): 4.000000E-1
Scans to average: 1
Nonlinearity correction enabled: false
Boxcar width: 0
Storing dark spectrum: false
XAxis mode: Wavelengths
Number of Pixels in Spectrum: 1024
>>>>>Begin Spectral Data<<<<<
801.071	2925
801.214	2944
801.356	2861
801.499	2914
801.641	2887
801.783	2922
801.926	3077
802.068	2941
802.211	3009
802.353	3066
802.496	2948
802.638	3017
802.78	3047
802.923	3051
803.065	3001
803.208	2929
803.35	2933
803.492	2906
803.635	2914
803.777	2724
803.919	2830
804.061	3176
804.204	2994
804.346	2937
804.488	2819
804.63	2982
804.773	2887
804.915	2937
805.057	3100
805.199	2956
805.341	2986
805.483	3017
805.626	3020
805.768	2960
805.91	3024
806.052	3100
806.194	3058
806.336	3230
806.478	3005
806.62	2994
806.762	2994
806.904	3051
807.046	3154
807.188	2979
807.33	2899
807.472	2979
807.614	2868
807.756	3017
807.898	2937
808.04	2906
808.182	3005
808.324	2990
808.465	2899
808.607	2887
808.749	2788
808.891	2849
809.033	2956
809.174	3005
809.316	2895
809.458	2887
809.6	2773
809.741	2788
809.883	2777
810.025	2857
810.166	2872
810.308	2826
810.45	2864
810.591	2777
810.733	2739
810.875	2842
811.016	2815
811.158	2769
811.299	2842
811.441	2933
811.582	2876
811.724	2804
811.865	2830
812.007	2944
812.148	2864
812.29	2842
812.431	2887
812.573	2941
812.714	2933
812.855	3081
812.997	3043
813.138	3085
813.279	2975
813.421	2982
813.562	2922
813.703	2883
813.845	2883
813.986	2792
814.127	2743
814.268	2842
814.41	2895
814.551	2849
814.692	2868
814.833	2807
814.974	2895
815.115	2994
815.256	2834
815.397	2826
815.539	2857
815.68	2792
815.821	2815
815.962	2967
816.103	2929
816.244	2895
816.385	2868
816.526	2960
816.666	2906
816.807	2727
816.948	2876
817.089	2941
817.23	2868
817.371	2773
817.512	2826
817.653	2834
817.793	2849
817.934	2895
818.075	2975
818.216	2994
818.356	3020
818.497	2899
818.638	2785
818.778	2804
818.919	2800
819.06	2739
819.2	2902
819.341	2807
819.481	2788
819.622	2944
819.762	3089
819.903	3036
820.043	2929
820.184	2899
820.324	2937
820.465	3017
820.605	3013
820.746	3055
820.886	2944
821.026	3081
821.167	3203
821.307	3275
821.447	3310
821.588	3291
821.728	3214
821.868	3180
822.008	3055
822.149	3199
822.289	3253
822.429	3104
822.569	3104
822.709	3176
822.849	3032
822.99	3043
823.13	3184
823.27	3230
823.41	3097
823.55	3150
823.69	3146
823.83	3169
823.97	3081
824.11	3039
824.25	2956
824.389	3074
824.529	3093
824.669	3100
824.809	3211
824.949	3222
825.089	3211
825.228	3146
825.368	3005
825.508	2933
825.648	2986
825.787	2990
825.927	3020
826.067	2975
826.206	2952
826.346	3055
826.485	3058
826.625	3131
826.765	3256
826.904	3230
827.044	3005
827.183	2910
827.323	2902
827.462	2975
827.601	2929
827.741	2902
827.88	2933
828.02	2872
828.159	2967
828.298	3070
828.437	3154
828.577	3032
828.716	3264
828.855	3062
828.994	2914
829.134	2883
829.273	2899
829.412	2853
829.551	2853
829.69	2906
829.829	2963
829.968	3123
830.107	3039
830.246	3058
830.385	2891
830.524	2872
830.663	2807
830.802	2758
830.941	2682
831.08	2663
831.219	2766
831.357	2804
831.496	2971
831.635	2724
831.774	2655
831.913	2674
832.051	2560
832.19	2571
832.329	2674
832.467	2552
832.606	2473
832.744	2629
832.883	2602
833.022	2587
833.16	2636
833.299	2667
833.437	2678
833.576	2682
833.714	2678
833.852	2727
833.991	2769
834.129	2834
834.267	2838
834.406	2777
834.544	2895
834.682	2868
834.821	2842
834.959	3062
835.097	2895
835.235	3089
835.373	3013
835.511	3028
835.65	2952
835.788	2925
835.926	2876
836.064	2815
836.202	2849
836.34	3112
836.478	3097
836.615	3051
836.753	3116
836.891	3176
837.029	3161
837.167	3146
837.305	3062
837.443	3036
837.58	2979
837.718	3131
837.856	3047
837.993	3013
838.131	3097
838.269	3112
838.406	3112
838.544	3062
838.681	2941
838.819	2902
838.956	2834
839.094	2842
839.231	2910
839.369	2998
839.506	3393
839.643	3218
839.781	2990
839.918	2922
840.055	3009
840.193	3062
840.33	3058
840.467	3055
840.604	3146
840.742	3389
840.879	3032
841.016	3051
841.153	3119
841.29	3329
841.427	3291
841.564	3272
841.701	3294
841.838	3264
841.975	3184
842.112	3226
842.249	3097
842.385	3070
842.522	3268
842.659	3142
842.796	3062
842.933	3112
843.069	3028
843.206	3032
843.343	3146
843.479	3131
843.616	3085
843.752	2902
843.889	2853
844.025	3039
844.162	2842
844.298	3039
844.435	2963
844.571	2899
844.708	3062
844.844	3184
844.98	3211
845.117	3169
845.253	3039
845.389	2986
845.525	3074
845.661	3089
845.798	3013
845.934	3142
846.07	3036
846.206	3207
846.342	3298
846.478	3218
846.614	3100
846.75	3074
846.886	3032
847.022	3226
847.158	3157
847.294	3222
847.429	3226
847.565	3169
847.701	3473
847.837	3036
847.972	2979
848.108	3169
848.244	3138
848.379	2982
848.515	2918
848.65	2929
848.786	2967
848.921	2994
849.057	3100
849.192	3150
849.328	3097
849.463	3119
849.598	3047
849.734	3032
849.869	2944
850.004	2941
850.14	2960
850.275	2929
850.41	2864
850.545	2868
850.68	2899
850.815	2929
850.95	2979
851.085	3161
851.22	3077
851.355	3009
851.49	2967
851.625	2982
851.76	3005
851.895	2899
852.03	2952
852.165	3032
852.299	3089
852.434	3176
852.569	3150
852.703	3161
852.838	3230
852.973	3302
853.107	3332
853.242	3138
853.376	3066
853.511	2975
853.645	3009
853.78	3218
853.914	3089
854.048	3108
854.183	3070
854.317	3150
854.451	3268
854.585	3138
854.72	3062
854.854	3188
854.988	3074
855.122	3066
855.256	3028
855.39	3074
855.524	3233
855.658	3203
855.792	3154
855.926	3207
856.06	3207
856.194	3260
856.327	3131
856.461	3028
856.595	3074
856.729	3066
856.862	3222
856.996	3138
857.13	3180
857.263	3249
857.397	3294
857.53	3123
857.664	3192
857.797	3226
857.931	3233
858.064	3116
858.197	3245
858.331	3135
858.464	3093
858.597	3051
858.731	3074
858.864	3127
858.997	3062
859.13	3142
859.263	3184
859.396	3180
859.529	3070
859.662	3085
859.795	3074
859.928	3131
860.061	3287
860.194	3287
860.327	3097
860.46	3077
860.592	3222
860.725	3233
860.858	3256
860.99	3093
861.123	3039
861.256	3070
861.388	3116
861.521	3747
861.653	3013
861.786	2975
861.918	2979
862.05	3036
862.183	3119
862.315	3119
862.447	3180
862.58	3097
862.712	2960
862.844	2864
862.976	2994
863.108	3013
863.24	3306
863.372	2899
863.504	2990
863.636	2948
863.768	3047
863.9	2971
864.032	2922
864.164	2937
864.296	2990
864.428	3051
864.559	3112
864.691	3074
864.823	3055
864.954	3024
865.086	3066
865.217	2990
865.349	2952
865.48	2982
865.612	3013
865.743	3150
865.875	2967
866.006	2963
866.137	2956
866.269	2922
866.4	2922
866.531	2929
866.662	2883
866.793	2872
866.924	2914
867.055	2990
867.186	2910
867.317	2864
867.448	2838
867.579	2849
867.71	2842
867.841	2804
867.972	2861
868.103	2887
868.233	2864
868.364	2876
868.495	2887
868.625	3066
868.756	3176
868.886	2967
869.017	3024
869.147	3157
869.278	3138
869.408	3043
869.539	3036
869.669	3123
869.799	3047
869.929	3150
870.06	3108
870.19	3306
870.32	3298
870.45	3268
870.58	3351
870.71	3412
870.84	3401
870.97	3279
871.1	3222
871.23	3458
871.36	3469
871.489	3370
871.619	3370
871.749	3378
871.879	3409
872.008	3443
872.138	3336
872.267	3283
872.397	3138
872.526	3070
872.656	2994
872.785	3108
872.915	3222
873.044	3321
873.173	3207
873.303	3272
873.432	3226
873.561	3218
873.69	3169
873.819	3138
873.948	3161
874.077	3074
874.206	3051
874.335	3074
874.464	3207
874.593	3310
874.722	3260
874.851	3344
874.979	3306
875.108	3275
875.237	3211
875.365	3165
875.494	3173
875.623	3233
875.751	3097
875.88	3123
876.008	3176
876.136	3214
876.265	3401
876.393	3485
876.521	3409
876.65	3367
876.778	3317
876.906	3260
877.034	3192
877.162	3245
877.29	3157
877.418	3249
877.546	3207
877.674	3272
877.802	3211
877.93	3199
878.058	3184
878.185	3104
878.313	3161
878.441	3180
878.568	3070
878.696	3150
878.824	3180
878.951	3287
879.079	3416
879.206	3614
879.333	3477
879.461	3340
879.588	3340
879.715	3504
879.842	3622
879.97	3363
880.097	3192
880.224	3100
880.351	3188
880.478	3184
880.605	3188
880.732	3161
880.859	3492
880.986	3302
881.112	3329
881.239	3222
881.366	3097
881.493	3062
881.619	3009
881.746	3039
881.872	3108
881.999	3104
882.125	3150
882.252	3256
882.378	3260
882.505	3420
882.631	3310
882.757	3161
882.883	3192
883.01	3218
883.136	3150
883.262	3100
883.388	3100
883.514	3279
883.64	3355
883.766	3310
883.892	3188
884.018	3230
884.143	3363
884.269	3534
884.395	3211
884.52	3157
884.646	3161
884.772	3127
884.897	3108
885.023	3218
885.148	3344
885.274	3401
885.399	3382
885.524	3275
885.65	3275
885.775	3325
885.9	3264
886.025	3405
886.15	3325
886.275	3298
886.4	3207
886.525	3287
886.65	3279
886.775	3283
886.9	3485
887.025	3622
887.149	3386
887.274	3245
887.399	3211
887.523	3199
887.648	3192
887.773	3165
887.897	3378
888.021	3389
888.146	3298
888.27	3412
888.395	3523
888.519	3374
888.643	3412
888.767	3485
888.891	3283
889.015	3230
889.139	3279
889.263	3241
889.387	3412
889.511	3515
889.635	3420
889.759	3291
889.883	3298
890.006	3363
890.13	3496
890.254	3279
890.377	3313
890.501	3184
890.624	3169
890.748	3325
890.871	3192
890.995	3138
891.118	3051
891.241	3184
891.364	3211
891.488	3310
891.611	3207
891.734	3226
891.857	3268
891.98	3207
892.103	3332
892.226	3272
892.349	3173
892.471	3127
892.594	3199
892.717	3291
892.839	3264
892.962	3291
893.085	3351
893.207	3287
893.33	3150
893.452	3180
893.575	3310
893.697	3245
893.819	3466
893.941	3496
894.064	3409
894.186	3279
894.308	3294
894.43	3435
894.552	3511
894.674	3466
894.796	3268
894.918	3283
895.04	3264
895.161	3454
895.283	3386
895.405	3298
895.526	3329
895.648	3412
895.769	3393
895.891	3435
896.012	3458
896.134	3481
896.255	3409
896.376	3378
896.498	3359
896.619	3393
896.74	3363
896.861	3405
896.982	3679
897.103	3819
897.224	3599
897.345	3519
897.466	3405
897.587	3492
897.708	3584
897.828	3572
897.949	3435
898.07	3313
898.19	3374
898.311	3576
898.431	3454
898.552	3473
898.672	3595
898.792	3580
898.913	3564
899.033	3393
899.153	3275
899.273	3188
899.393	3283
899.513	3298
899.633	3313
899.753	3332
899.873	3306
899.993	3348
900.113	3325
900.232	3409
900.352	3363
900.472	3287
900.591	3195
900.711	3291
900.83	3253
900.95	3424
901.069	3485
901.189	3359
901.308	3188
901.427	3131
901.546	3195
901.665	3272
901.784	3313
901.904	3256
902.023	3180
902.141	3017
902.26	2998
902.379	3112
902.498	3074
902.617	3058
902.735	3195
902.854	3264
902.973	3184
903.091	3009
903.21	3066
903.328	3135
903.446	3097
903.565	3081
903.683	3218
903.801	3116
903.919	3260
904.038	3302
904.156	3176
904.274	3253
904.392	3237
904.51	3272
904.627	3279
904.745	3435
904.863	3515
904.981	3275
905.098	3165
905.216	3214
905.334	3275
905.451	3287
905.569	3291
905.686	3412
905.803	3409
905.921	3268
906.038	3466
906.155	3321
906.272	3294
906.389	3321
906.506	3203
906.623	3253
906.74	3256
906.857	3169
906.974	3256
907.091	3416
907.208	3572
907.324	3469
907.441	3389
907.557	3184
907.674	3211
907.79	3150
907.907	3302
908.023	3363
908.139	3344
908.256	3294
908.372	3393
908.488	3378
908.604	3272
908.72	3272
908.836	3256
908.952	3237
909.068	3317
909.184	3507
909.3	3348
909.415	3523
909.531	3450
909.647	3325
909.762	3294
909.878	3237
909.993	3344
910.108	3359
910.224	3332
910.339	3401
910.454	3329
910.57	3317
910.685	3275
910.8	3561
910.915	3519
911.03	3469
911.145	3264
911.259	3264
911.374	3321
911.489	3203
911.604	3195
911.718	3097
911.833	3146
911.947	3039
912.062	2990
912.176	3150
912.291	3176
912.405	3199
912.519	3401
912.633	3469
912.748	3351
912.862	3272
912.976	3146
913.09	3058
913.204	3123
913.318	3249
913.431	3294
913.545	3332
913.659	3389
913.772	3336
913.886	3245
914	3192
914.113	3370
914.226	3405
914.34	3348
914.453	3195
914.566	3405
914.68	3287
914.793	3310
914.906	3157
915.019	3161
915.132	3051
915.245	3176
915.358	3180
915.47	3211
915.583	3272
915.696	3294
915.809	3405
915.921	3435
916.034	3291
916.146	3256
916.259	3214
916.371	3351
916.483	3348
916.595	3264
916.708	3340
916.82	3344
916.932	3329
917.044	3313
917.156	3359
917.268	3291
917.38	3306
917.491	3302
917.603	3355
917.715	3424
917.826	3469
917.938	3405
918.049	3294
918.161	3447
918.272	3568
918.384	3549
918.495	3500
918.606	3348
918.717	3294
918.828	3401
918.939	3389
919.05	3279
919.161	3336
919.272	3176
919.383	3332
919.494	3485
919.604	3701
919.715	3473
919.826	3412
919.936	3469
920.047	3595
920.157	3553
920.267	3724
920.378	3595
920.488	3549
920.598	3789
920.708	3949
920.818	3831
920.928	3842
921.038	4044
921.148	3991
921.258	3705
921.368	3595
921.477	3553
921.587	3523
921.697	3435
921.806	3606
921.916	3534
922.025	3329
922.134	3336
922.244	3306
922.353	3424
922.462	3272
922.571	3256
922.68	3119
922.789	3112
922.898	3146
923.007	3043
923.116	3218
923.224	3192
923.333	3146
923.442	3104
923.55	3097
923.659	3116
923.767	3207
923.876	3127
923.984	3237
924.092	3108
924.201	3211
924.309	3203
924.417	3214
924.525	3165
924.633	3199
924.741	3979
924.849	3032
924.956	3272
925.064	3085
925.172	3017
925.279	3074
925.387	3169
925.494	3157
925.602	3340
925.709	3336
925.816	3154
925.924	3253
926.031	3363
926.138	3340
926.245	3332
926.352	3256
926.459	3424
926.566	3481
926.673	3287
926.779	3245
926.886	3211
926.993	3135
927.099	3123
927.206	3112
927.312	3135
927.419	3218
927.525	3226
927.631	3237
927.737	3112
927.843	3112
927.95	3005
928.056	3146
928.162	3154
928.267	3253
928.373	3827
928.479	3351
928.585	3051
928.69	3233
928.796	3283
928.901	3142
929.007	3039
929.112	3192
929.218	3161
929.323	3150
929.428	3154
929.533	3325
929.638	3119
929.743	3161
929.848	3249
929.953	3211
930.058	3131
930.163	2979
930.267	3055
930.372	3180
930.477	3055
930.581	3325
930.685	3173
930.79	3020
930.894	3047
930.998	3116
931.103	3268
931.207	2929
931.311	2941
931.415	2880
931.519	2769
931.623	2769
