Data from test_V78500241_875.txt Node
Date: Fri Mar 25 16:21:15 CST 2022
User: usil
Spectrometer: V785-0024
Trigger mode: 0
Integration Time (sec): 4.000000E-1
Scans to average: 1
Nonlinearity correction enabled: false
Boxcar width: 0
Storing dark spectrum: false
XAxis mode: Wavelengths
Number of Pixels in Spectrum: 1024
>>>>>Begin Spectral Data<<<<<
801.071	2963
801.214	2948
801.356	2899
801.499	2902
801.641	2861
801.783	2933
801.926	3058
802.068	2971
802.211	2963
802.353	3017
802.496	2967
802.638	3001
802.78	3070
802.923	3070
803.065	3001
803.208	2929
803.35	2880
803.492	2937
803.635	2914
803.777	2785
803.919	2864
804.061	3222
804.204	2925
804.346	2922
804.488	2853
804.63	2986
804.773	2880
804.915	2922
805.057	3077
805.199	2910
805.341	2986
805.483	3017
805.626	2990
805.768	2960
805.91	3077
806.052	3089
806.194	3009
806.336	3199
806.478	3017
806.62	2956
806.762	2960
806.904	3058
807.046	3184
807.188	2963
807.33	2925
807.472	2994
807.614	2925
807.756	3036
807.898	2933
808.04	2906
808.182	2937
808.324	2967
808.465	2891
808.607	2895
808.749	2819
808.891	2849
809.033	2948
809.174	2971
809.316	2906
809.458	2914
809.6	2796
809.741	2766
809.883	2777
810.025	2872
810.166	2853
810.308	2849
810.45	2883
810.591	2762
810.733	2754
810.875	2838
811.016	2785
811.158	2754
811.299	2796
811.441	2933
811.582	2891
811.724	2796
811.865	2815
812.007	2944
812.148	2842
812.29	2838
812.431	2933
812.573	2944
812.714	2918
812.855	3047
812.997	3036
813.138	3116
813.279	3043
813.421	2975
813.562	2971
813.703	2883
813.845	2883
813.986	2773
814.127	2731
814.268	2811
814.41	2853
814.551	2804
814.692	2895
814.833	2781
814.974	2883
815.115	2933
815.256	2804
815.397	2830
815.539	2857
815.68	2788
815.821	2758
815.962	2937
816.103	2948
816.244	2853
816.385	2830
816.526	2929
816.666	2914
816.807	2735
816.948	2906
817.089	2895
817.23	2857
817.371	2754
817.512	2804
817.653	2826
817.793	2819
817.934	2880
818.075	2963
818.216	2971
818.356	2982
818.497	2868
818.638	2804
818.778	2800
818.919	2823
819.06	2724
819.2	2880
819.341	2819
819.481	2792
819.622	2933
819.762	3077
819.903	3074
820.043	2906
820.184	2944
820.324	2899
820.465	3024
820.605	2998
820.746	3020
820.886	2933
821.026	3074
821.167	3165
821.307	3260
821.447	3302
821.588	3241
821.728	3192
821.868	3195
822.008	3081
822.149	3173
822.289	3233
822.429	3142
822.569	3093
822.709	3157
822.849	3036
822.99	3062
823.13	3123
823.27	3192
823.41	3116
823.55	3146
823.69	3135
823.83	3150
823.97	3112
824.11	3009
824.25	3028
824.389	3062
824.529	3116
824.669	3055
824.809	3180
824.949	3226
825.089	3218
825.228	3188
825.368	3020
825.508	2929
825.648	2960
825.787	3020
825.927	3001
826.067	2967
826.206	2956
826.346	3013
826.485	3066
826.625	3085
826.765	3256
826.904	3180
827.044	3005
827.183	2925
827.323	2883
827.462	2952
827.601	2925
827.741	2902
827.88	2922
828.02	2838
828.159	2986
828.298	3017
828.437	3108
828.577	3043
828.716	3256
828.855	3066
828.994	2914
829.134	2902
829.273	2925
829.412	2864
829.551	2853
829.69	2864
829.829	2979
829.968	3127
830.107	3017
830.246	3062
830.385	2880
830.524	2887
830.663	2838
830.802	2705
830.941	2651
831.08	2663
831.219	2735
831.357	2777
831.496	2929
831.635	2754
831.774	2648
831.913	2667
832.051	2541
832.19	2571
832.329	2667
832.467	2507
832.606	2461
832.744	2602
832.883	2575
833.022	2568
833.16	2651
833.299	2663
833.437	2686
833.576	2670
833.714	2701
833.852	2705
833.991	2750
834.129	2834
834.267	2815
834.406	2807
834.544	2823
834.682	2880
834.821	2876
834.959	3066
835.097	2872
835.235	3024
835.373	3024
835.511	3062
835.65	2922
835.788	2979
835.926	2849
836.064	2769
836.202	2849
836.34	3108
836.478	3142
836.615	3047
836.753	3157
836.891	3199
837.029	3154
837.167	3066
837.305	3039
837.443	3001
837.58	2952
837.718	3104
837.856	3089
837.993	3036
838.131	3104
838.269	3116
838.406	3123
838.544	3058
838.681	2914
838.819	2891
838.956	2842
839.094	2796
839.231	2880
839.369	3005
839.506	3355
839.643	3165
839.781	2990
839.918	3001
840.055	3058
840.193	3043
840.33	3062
840.467	3089
840.604	3093
840.742	3412
840.879	3074
841.016	3070
841.153	3112
841.29	3363
841.427	3298
841.564	3275
841.701	3325
841.838	3230
841.975	3142
842.112	3222
842.249	3089
842.385	3020
842.522	3233
842.659	3070
842.796	3043
842.933	3108
843.069	3047
843.206	3051
843.343	3188
843.479	3112
843.616	3104
843.752	2914
843.889	2899
844.025	3062
844.162	2891
844.298	3043
844.435	2948
844.571	2887
844.708	3066
844.844	3176
844.98	3218
845.117	3207
845.253	3028
845.389	3009
845.525	3093
845.661	3093
845.798	3020
845.934	3123
846.07	3104
846.206	3207
846.342	3294
846.478	3230
846.614	3051
846.75	3005
846.886	3032
847.022	3230
847.158	3112
847.294	3176
847.429	3245
847.565	3203
847.701	3450
847.837	3036
847.972	3028
848.108	3116
848.244	3138
848.379	2990
848.515	2948
848.65	2914
848.786	2975
848.921	3032
849.057	3066
849.192	3154
849.328	3043
849.463	3119
849.598	3081
849.734	3024
849.869	2956
850.004	2933
850.14	2948
850.275	2910
850.41	2826
850.545	2880
850.68	2902
850.815	2933
850.95	2952
851.085	3188
851.22	3077
851.355	3039
851.49	2971
851.625	2986
851.76	2982
851.895	2933
852.03	2925
852.165	3028
852.299	3085
852.434	3169
852.569	3127
852.703	3154
852.838	3218
852.973	3313
853.107	3332
853.242	3192
853.376	3055
853.511	2971
853.645	3039
853.78	3249
853.914	3104
854.048	3127
854.183	3116
854.317	3112
854.451	3298
854.585	3142
854.72	3032
854.854	3165
854.988	3047
855.122	3043
855.256	2963
855.39	3104
855.524	3230
855.658	3169
855.792	3161
855.926	3169
856.06	3195
856.194	3294
856.327	3142
856.461	3081
856.595	3077
856.729	3089
856.862	3169
856.996	3138
857.13	3176
857.263	3218
857.397	3256
857.53	3112
857.664	3203
857.797	3203
857.931	3264
858.064	3157
858.197	3241
858.331	3123
858.464	3070
858.597	2990
858.731	3116
858.864	3077
858.997	3085
859.13	3146
859.263	3165
859.396	3184
859.529	3058
859.662	3089
859.795	3013
859.928	3108
860.061	3283
860.194	3291
860.327	3123
860.46	3070
860.592	3214
860.725	3241
860.858	3233
860.99	3119
861.123	3013
861.256	3020
861.388	3142
861.521	3816
861.653	2994
861.786	3001
861.918	2982
862.05	3028
862.183	3104
862.315	3127
862.447	3169
862.58	3058
862.712	2925
862.844	2872
862.976	3017
863.108	2956
863.24	3310
863.372	2861
863.504	2982
863.636	2925
863.768	3051
863.9	2944
864.032	2902
864.164	2906
864.296	2998
864.428	3066
864.559	3066
864.691	3074
864.823	3043
864.954	3005
865.086	3047
865.217	3039
865.349	2933
865.48	2937
865.612	2994
865.743	3119
865.875	2956
866.006	2929
866.137	2971
866.269	2948
866.4	2948
866.531	2914
866.662	2918
866.793	2872
866.924	2883
867.055	2967
867.186	2922
867.317	2876
867.448	2819
867.579	2826
867.71	2876
867.841	2811
867.972	2895
868.103	2902
868.233	2899
868.364	2868
868.495	2876
868.625	3058
868.756	3188
868.886	2979
869.017	3017
869.147	3176
869.278	3142
869.408	3028
869.539	3036
869.669	3077
869.799	3017
869.929	3127
870.06	3100
870.19	3332
870.32	3253
870.45	3287
870.58	3351
870.71	3401
870.84	3473
870.97	3275
871.1	3241
871.23	3507
871.36	3450
871.489	3355
871.619	3378
871.749	3393
871.879	3428
872.008	3473
872.138	3348
872.267	3218
872.397	3169
872.526	3112
872.656	2975
872.785	3070
872.915	3226
873.044	3325
873.173	3226
873.303	3268
873.432	3249
873.561	3256
873.69	3123
873.819	3104
873.948	3180
874.077	3119
874.206	3062
874.335	3077
874.464	3211
874.593	3359
874.722	3211
874.851	3397
874.979	3363
875.108	3283
875.237	3176
875.365	3169
875.494	3127
875.623	3245
875.751	3051
875.88	3112
876.008	3180
876.136	3195
876.265	3378
876.393	3492
876.521	3435
876.65	3412
876.778	3336
876.906	3218
877.034	3214
877.162	3222
877.29	3146
877.418	3203
877.546	3233
877.674	3237
877.802	3180
877.93	3214
878.058	3116
878.185	3100
878.313	3176
878.441	3180
878.568	3055
878.696	3142
878.824	3233
878.951	3291
879.079	3405
879.206	3587
879.333	3435
879.461	3332
879.588	3306
879.715	3469
879.842	3568
879.97	3370
880.097	3161
880.224	3112
880.351	3173
880.478	3222
880.605	3211
880.732	3161
880.859	3519
880.986	3249
881.112	3332
881.239	3184
881.366	3093
881.493	3009
881.619	3009
881.746	3039
881.872	3089
881.999	3108
882.125	3142
882.252	3249
882.378	3287
882.505	3435
882.631	3237
882.757	3119
882.883	3180
883.01	3222
883.136	3146
883.262	3097
883.388	3081
883.514	3291
883.64	3378
883.766	3313
883.892	3195
884.018	3237
884.143	3389
884.269	3519
884.395	3218
884.52	3131
884.646	3150
884.772	3100
884.897	3104
885.023	3207
885.148	3313
885.274	3386
885.399	3359
885.524	3264
885.65	3260
885.775	3294
885.9	3283
886.025	3447
886.15	3355
886.275	3302
886.4	3245
886.525	3272
886.65	3268
886.775	3268
886.9	3492
887.025	3610
887.149	3370
887.274	3272
887.399	3184
887.523	3188
887.648	3230
887.773	3192
887.897	3374
888.021	3367
888.146	3256
888.27	3420
888.395	3553
888.519	3454
888.643	3439
888.767	3447
888.891	3287
889.015	3237
889.139	3313
889.263	3214
889.387	3405
889.511	3523
889.635	3450
889.759	3279
889.883	3306
890.006	3393
890.13	3485
890.254	3275
890.377	3344
890.501	3207
890.624	3207
890.748	3325
890.871	3218
890.995	3112
891.118	3077
891.241	3214
891.364	3268
891.488	3378
891.611	3188
891.734	3241
891.857	3359
891.98	3253
892.103	3367
892.226	3321
892.349	3291
892.471	3123
892.594	3283
892.717	3351
892.839	3317
892.962	3348
893.085	3420
893.207	3310
893.33	3180
893.452	3199
893.575	3359
893.697	3306
893.819	3492
893.941	3511
894.064	3492
894.186	3291
894.308	3302
894.43	3447
894.552	3591
894.674	3481
894.796	3313
894.918	3378
895.04	3325
895.161	3496
895.283	3397
895.405	3367
895.526	3367
895.648	3485
895.769	3443
895.891	3473
896.012	3504
896.134	3500
896.255	3454
896.376	3443
896.498	3420
896.619	3450
896.74	3370
896.861	3458
896.982	3728
897.103	3823
897.224	3637
897.345	3542
897.466	3462
897.587	3534
897.708	3679
897.828	3549
897.949	3507
898.07	3336
898.19	3450
898.311	3644
898.431	3488
898.552	3549
898.672	3595
898.792	3561
898.913	3572
899.033	3466
899.153	3302
899.273	3298
899.393	3306
899.513	3344
899.633	3367
899.753	3348
899.873	3336
899.993	3416
900.113	3374
900.232	3443
900.352	3378
900.472	3329
900.591	3237
900.711	3374
900.83	3241
900.95	3439
901.069	3530
901.189	3401
901.308	3199
901.427	3161
901.546	3237
901.665	3291
901.784	3370
901.904	3233
902.023	3184
902.141	3070
902.26	3036
902.379	3192
902.498	3062
902.617	3066
902.735	3237
902.854	3245
902.973	3237
903.091	3047
903.21	3097
903.328	3138
903.446	3161
903.565	3119
903.683	3226
903.801	3169
903.919	3260
904.038	3302
904.156	3199
904.274	3321
904.392	3294
904.51	3313
904.627	3348
904.745	3450
904.863	3542
904.981	3260
905.098	3268
905.216	3237
905.334	3298
905.451	3329
905.569	3336
905.686	3428
905.803	3488
905.921	3287
906.038	3431
906.155	3359
906.272	3294
906.389	3355
906.506	3264
906.623	3279
906.74	3294
906.857	3184
906.974	3256
907.091	3458
907.208	3587
907.324	3496
907.441	3431
907.557	3283
907.674	3268
907.79	3192
907.907	3329
908.023	3393
908.139	3393
908.256	3310
908.372	3370
908.488	3416
908.604	3294
908.72	3245
908.836	3310
908.952	3294
909.068	3317
909.184	3485
909.3	3382
909.415	3545
909.531	3488
909.647	3313
909.762	3310
909.878	3272
909.993	3374
910.108	3363
910.224	3397
910.339	3454
910.454	3355
910.57	3306
910.685	3298
910.8	3618
910.915	3534
911.03	3454
911.145	3325
911.259	3302
911.374	3332
911.489	3264
911.604	3245
911.718	3169
911.833	3161
911.947	3077
912.062	3028
912.176	3180
912.291	3207
912.405	3203
912.519	3473
912.633	3500
912.748	3363
912.862	3272
912.976	3211
913.09	3081
913.204	3150
913.318	3256
913.431	3386
913.545	3348
913.659	3454
913.772	3359
913.886	3245
914	3230
914.113	3370
914.226	3454
914.34	3424
914.453	3260
914.566	3412
914.68	3302
914.793	3321
914.906	3157
915.019	3142
915.132	3100
915.245	3207
915.358	3207
915.47	3264
915.583	3283
915.696	3340
915.809	3374
915.921	3447
916.034	3287
916.146	3268
916.259	3241
916.371	3378
916.483	3367
916.595	3253
916.708	3363
916.82	3382
916.932	3348
917.044	3363
917.156	3336
917.268	3287
917.38	3344
917.491	3272
917.603	3397
917.715	3504
917.826	3488
917.938	3393
918.049	3317
918.161	3477
918.272	3633
918.384	3606
918.495	3515
918.606	3363
918.717	3302
918.828	3405
918.939	3458
919.05	3325
919.161	3389
919.272	3203
919.383	3313
919.494	3504
919.604	3694
919.715	3534
919.826	3462
919.936	3538
920.047	3580
920.157	3549
920.267	3823
920.378	3690
920.488	3603
920.598	3838
920.708	4044
920.818	3850
920.928	3884
921.038	4048
921.148	4006
921.258	3732
921.368	3679
921.477	3660
921.587	3587
921.697	3519
921.806	3652
921.916	3580
922.025	3367
922.134	3393
922.244	3332
922.353	3477
922.462	3287
922.571	3253
922.68	3127
922.789	3097
922.898	3176
923.007	3131
923.116	3188
923.224	3211
923.333	3218
923.442	3108
923.55	3089
923.659	3188
923.767	3211
923.876	3116
923.984	3275
924.092	3112
924.201	3222
924.309	3203
924.417	3256
924.525	3218
924.633	3230
924.741	4223
924.849	3097
924.956	3291
925.064	3146
925.172	3058
925.279	3100
925.387	3192
925.494	3192
925.602	3412
925.709	3359
925.816	3222
925.924	3310
926.031	3378
926.138	3401
926.245	3401
926.352	3279
926.459	3397
926.566	3477
926.673	3393
926.779	3291
926.886	3260
926.993	3176
927.099	3146
927.206	3123
927.312	3146
927.419	3241
927.525	3207
927.631	3302
927.737	3176
927.843	3135
927.95	3051
928.056	3165
928.162	3211
928.267	3275
928.373	3789
928.479	3355
928.585	3062
928.69	3233
928.796	3272
928.901	3199
929.007	3047
929.112	3211
929.218	3173
929.323	3176
929.428	3203
929.533	3272
929.638	3108
929.743	3207
929.848	3313
929.953	3226
930.058	3188
930.163	3009
930.267	3074
930.372	3226
930.477	3055
930.581	3340
930.685	3211
930.79	3104
930.894	3161
930.998	3138
931.103	3294
931.207	2979
931.311	2963
931.415	2937
931.519	2781
931.623	2823
