Data from test_V78500241_302.txt Node
Date: Fri Mar 25 16:17:17 CST 2022
User: usil
Spectrometer: V785-0024
Trigger mode: 0
Integration Time (sec): 4.000000E-1
Scans to average: 1
Nonlinearity correction enabled: false
Boxcar width: 0
Storing dark spectrum: false
XAxis mode: Wavelengths
Number of Pixels in Spectrum: 1024
>>>>>Begin Spectral Data<<<<<
801.071	2887
801.214	2944
801.356	2853
801.499	2891
801.641	2857
801.783	2895
801.926	2994
802.068	2979
802.211	3020
802.353	3009
802.496	2971
802.638	3017
802.78	3028
802.923	3093
803.065	2971
803.208	2883
803.35	2937
803.492	2910
803.635	2929
803.777	2766
803.919	2864
804.061	3188
804.204	2937
804.346	2868
804.488	2868
804.63	2967
804.773	2876
804.915	2880
805.057	3108
805.199	2914
805.341	2960
805.483	3055
805.626	2971
805.768	2933
805.91	3047
806.052	3081
806.194	3039
806.336	3253
806.478	3032
806.62	2960
806.762	2948
806.904	3028
807.046	3150
807.188	2956
807.33	2933
807.472	3013
807.614	2906
807.756	2990
807.898	2925
808.04	2857
808.182	2967
808.324	2948
808.465	2918
808.607	2853
808.749	2815
808.891	2838
809.033	2963
809.174	2994
809.316	2883
809.458	2880
809.6	2777
809.741	2800
809.883	2743
810.025	2826
810.166	2868
810.308	2857
810.45	2834
810.591	2773
810.733	2796
810.875	2853
811.016	2800
811.158	2766
811.299	2834
811.441	2941
811.582	2895
811.724	2826
811.865	2842
812.007	2891
812.148	2883
812.29	2864
812.431	2895
812.573	2986
812.714	2948
812.855	3047
812.997	3043
813.138	3119
813.279	3001
813.421	2975
813.562	2963
813.703	2857
813.845	2899
813.986	2762
814.127	2716
814.268	2807
814.41	2861
814.551	2830
814.692	2868
814.833	2838
814.974	2864
815.115	2960
815.256	2830
815.397	2826
815.539	2834
815.68	2800
815.821	2838
815.962	2922
816.103	2941
816.244	2864
816.385	2861
816.526	2975
816.666	2891
816.807	2754
816.948	2868
817.089	2902
817.23	2838
817.371	2785
817.512	2815
817.653	2861
817.793	2826
817.934	2883
818.075	2963
818.216	2975
818.356	3077
818.497	2853
818.638	2762
818.778	2834
818.919	2785
819.06	2758
819.2	2906
819.341	2811
819.481	2804
819.622	2933
819.762	3043
819.903	3032
820.043	2941
820.184	2902
820.324	2914
820.465	3009
820.605	2998
820.746	3047
820.886	2956
821.026	3070
821.167	3135
821.307	3260
821.447	3283
821.588	3256
821.728	3154
821.868	3173
822.008	3062
822.149	3165
822.289	3218
822.429	3097
822.569	3104
822.709	3165
822.849	3024
822.99	3066
823.13	3173
823.27	3192
823.41	3097
823.55	3154
823.69	3131
823.83	3226
823.97	3108
824.11	2998
824.25	2979
824.389	3085
824.529	3116
824.669	3085
824.809	3180
824.949	3268
825.089	3203
825.228	3165
825.368	3017
825.508	2960
825.648	2967
825.787	3024
825.927	3036
826.067	3009
826.206	2944
826.346	3070
826.485	3062
826.625	3146
826.765	3253
826.904	3222
827.044	3032
827.183	2925
827.323	2857
827.462	2979
827.601	2925
827.741	2895
827.88	2975
828.02	2838
828.159	2952
828.298	3043
828.437	3100
828.577	3047
828.716	3272
828.855	3077
828.994	2918
829.134	2895
829.273	2933
829.412	2883
829.551	2842
829.69	2883
829.829	3024
829.968	3123
830.107	3066
830.246	3020
830.385	2899
830.524	2853
830.663	2845
830.802	2720
830.941	2621
831.08	2651
831.219	2720
831.357	2735
831.496	2963
831.635	2720
831.774	2648
831.913	2659
832.051	2537
832.19	2552
832.329	2697
832.467	2556
832.606	2511
832.744	2568
832.883	2583
833.022	2552
833.16	2663
833.299	2659
833.437	2682
833.576	2655
833.714	2705
833.852	2697
833.991	2750
834.129	2853
834.267	2800
834.406	2800
834.544	2857
834.682	2876
834.821	2849
834.959	3097
835.097	2899
835.235	3062
835.373	2994
835.511	3017
835.65	2941
835.788	2960
835.926	2849
836.064	2766
836.202	2834
836.34	3119
836.478	3131
836.615	3017
836.753	3135
836.891	3211
837.029	3146
837.167	3089
837.305	3062
837.443	3020
837.58	2998
837.718	3142
837.856	3070
837.993	3081
838.131	3112
838.269	3100
838.406	3089
838.544	3058
838.681	2960
838.819	2880
838.956	2830
839.094	2834
839.231	2895
839.369	3039
839.506	3386
839.643	3192
839.781	3043
839.918	2937
840.055	3055
840.193	3047
840.33	3047
840.467	3085
840.604	3135
840.742	3389
840.879	3017
841.016	3028
841.153	3135
841.29	3336
841.427	3279
841.564	3264
841.701	3298
841.838	3241
841.975	3188
842.112	3184
842.249	3093
842.385	3036
842.522	3279
842.659	3081
842.796	3077
842.933	3127
843.069	3036
843.206	3032
843.343	3176
843.479	3108
843.616	3104
843.752	2872
843.889	2887
844.025	3066
844.162	2883
844.298	3085
844.435	2948
844.571	2918
844.708	3043
844.844	3188
844.98	3241
845.117	3222
845.253	3055
845.389	2986
845.525	3104
845.661	3127
845.798	3028
845.934	3169
846.07	3066
846.206	3207
846.342	3325
846.478	3233
846.614	3055
846.75	3024
846.886	3024
847.022	3207
847.158	3123
847.294	3192
847.429	3249
847.565	3199
847.701	3500
847.837	3036
847.972	2986
848.108	3192
848.244	3119
848.379	2975
848.515	2948
848.65	2929
848.786	2975
848.921	3055
849.057	3097
849.192	3150
849.328	3055
849.463	3108
849.598	3062
849.734	3036
849.869	2982
850.004	2922
850.14	2975
850.275	2925
850.41	2819
850.545	2845
850.68	2937
850.815	2979
850.95	2986
851.085	3207
851.22	3077
851.355	3051
851.49	2956
851.625	2982
851.76	3020
851.895	2922
852.03	2948
852.165	3032
852.299	3135
852.434	3192
852.569	3165
852.703	3188
852.838	3249
852.973	3313
853.107	3348
853.242	3146
853.376	3077
853.511	2960
853.645	3081
853.78	3226
853.914	3123
854.048	3131
854.183	3066
854.317	3135
854.451	3294
854.585	3108
854.72	3077
854.854	3222
854.988	3039
855.122	3104
855.256	2994
855.39	3146
855.524	3241
855.658	3169
855.792	3150
855.926	3199
856.06	3233
856.194	3283
856.327	3135
856.461	3055
856.595	3074
856.729	3093
856.862	3199
856.996	3142
857.13	3180
857.263	3241
857.397	3249
857.53	3093
857.664	3199
857.797	3207
857.931	3253
858.064	3116
858.197	3226
858.331	3131
858.464	3070
858.597	2982
858.731	3146
858.864	3127
858.997	3093
859.13	3131
859.263	3188
859.396	3203
859.529	3070
859.662	3093
859.795	3043
859.928	3157
860.061	3294
860.194	3275
860.327	3127
860.46	3074
860.592	3253
860.725	3233
860.858	3241
860.99	3097
861.123	3017
861.256	3066
861.388	3157
861.521	3857
861.653	3036
861.786	2986
861.918	2979
862.05	3062
862.183	3089
862.315	3127
862.447	3184
862.58	3097
862.712	2982
862.844	2883
862.976	3043
863.108	3009
863.24	3294
863.372	2895
863.504	2933
863.636	2963
863.768	3036
863.9	2971
864.032	2872
864.164	2960
864.296	3051
864.428	3062
864.559	3058
864.691	3081
864.823	3043
864.954	2986
865.086	3020
865.217	3005
865.349	2914
865.48	2952
865.612	3005
865.743	3146
865.875	2990
866.006	2963
866.137	2952
866.269	2933
866.4	2960
866.531	2891
866.662	2853
866.793	2883
866.924	2868
867.055	2971
867.186	2933
867.317	2868
867.448	2804
867.579	2834
867.71	2845
867.841	2815
867.972	2925
868.103	2891
868.233	2849
868.364	2883
868.495	2906
868.625	3085
868.756	3169
868.886	2990
869.017	3020
869.147	3188
869.278	3161
869.408	2986
869.539	3032
869.669	3089
869.799	3043
869.929	3157
870.06	3119
870.19	3329
870.32	3294
870.45	3321
870.58	3397
870.71	3412
870.84	3454
870.97	3306
871.1	3211
871.23	3424
871.36	3466
871.489	3344
871.619	3374
871.749	3443
871.879	3450
872.008	3507
872.138	3348
872.267	3329
872.397	3146
872.526	3112
872.656	3028
872.785	3089
872.915	3237
873.044	3329
873.173	3233
873.303	3264
873.432	3222
873.561	3237
873.69	3161
873.819	3154
873.948	3154
874.077	3089
874.206	3039
874.335	3089
874.464	3199
874.593	3336
874.722	3214
874.851	3447
874.979	3344
875.108	3310
875.237	3184
875.365	3165
875.494	3154
875.623	3256
875.751	3070
875.88	3100
876.008	3188
876.136	3283
876.265	3351
876.393	3488
876.521	3420
876.65	3389
876.778	3344
876.906	3207
877.034	3195
877.162	3226
877.29	3157
877.418	3230
877.546	3256
877.674	3233
877.802	3192
877.93	3218
878.058	3135
878.185	3112
878.313	3203
878.441	3192
878.568	3066
878.696	3150
878.824	3230
878.951	3272
879.079	3458
879.206	3564
879.333	3439
879.461	3306
879.588	3355
879.715	3488
879.842	3599
879.97	3355
880.097	3176
880.224	3112
880.351	3218
880.478	3237
880.605	3184
880.732	3165
880.859	3511
880.986	3310
881.112	3321
881.239	3195
881.366	3108
881.493	3024
881.619	3028
881.746	3047
881.872	3104
881.999	3093
882.125	3123
882.252	3241
882.378	3321
882.505	3481
882.631	3275
882.757	3142
882.883	3203
883.01	3195
883.136	3165
883.262	3131
883.388	3108
883.514	3264
883.64	3367
883.766	3287
883.892	3226
884.018	3230
884.143	3389
884.269	3526
884.395	3241
884.52	3146
884.646	3173
884.772	3203
884.897	3089
885.023	3188
885.148	3306
885.274	3424
885.399	3374
885.524	3291
885.65	3241
885.775	3321
885.9	3272
886.025	3447
886.15	3355
886.275	3306
886.4	3260
886.525	3313
886.65	3264
886.775	3268
886.9	3500
887.025	3595
887.149	3428
887.274	3253
887.399	3214
887.523	3214
887.648	3161
887.773	3218
887.897	3355
888.021	3401
888.146	3256
888.27	3389
888.395	3523
888.519	3393
888.643	3435
888.767	3439
888.891	3325
889.015	3218
889.139	3256
889.263	3218
889.387	3424
889.511	3530
889.635	3462
889.759	3287
889.883	3321
890.006	3336
890.13	3511
890.254	3268
890.377	3367
890.501	3184
890.624	3146
890.748	3313
890.871	3180
890.995	3131
891.118	3047
891.241	3222
891.364	3207
891.488	3325
891.611	3127
891.734	3260
891.857	3283
891.98	3233
892.103	3340
892.226	3272
892.349	3180
892.471	3081
892.594	3241
892.717	3275
892.839	3287
892.962	3332
893.085	3344
893.207	3329
893.33	3161
893.452	3180
893.575	3348
893.697	3214
893.819	3477
893.941	3507
894.064	3469
894.186	3283
894.308	3245
894.43	3450
894.552	3515
894.674	3496
894.796	3279
894.918	3298
895.04	3249
895.161	3458
895.283	3389
895.405	3302
895.526	3313
895.648	3443
895.769	3443
895.891	3424
896.012	3500
896.134	3443
896.255	3389
896.376	3389
896.498	3329
896.619	3428
896.74	3359
896.861	3424
896.982	3701
897.103	3857
897.224	3580
897.345	3507
897.466	3412
897.587	3500
897.708	3641
897.828	3557
897.949	3428
898.07	3351
898.19	3397
898.311	3591
898.431	3458
898.552	3519
898.672	3568
898.792	3618
898.913	3507
899.033	3405
899.153	3275
899.273	3199
899.393	3275
899.513	3283
899.633	3313
899.753	3329
899.873	3302
899.993	3370
900.113	3336
900.232	3393
900.352	3359
900.472	3294
900.591	3207
900.711	3272
900.83	3214
900.95	3409
901.069	3485
901.189	3332
901.308	3161
901.427	3123
901.546	3195
901.665	3291
901.784	3336
901.904	3173
902.023	3161
902.141	3009
902.26	2982
902.379	3131
902.498	3070
902.617	3058
902.735	3176
902.854	3226
902.973	3169
903.091	3036
903.21	3036
903.328	3150
903.446	3123
903.565	3100
903.683	3218
903.801	3138
903.919	3253
904.038	3268
904.156	3161
904.274	3268
904.392	3245
904.51	3275
904.627	3317
904.745	3485
904.863	3492
904.981	3264
905.098	3165
905.216	3218
905.334	3283
905.451	3325
905.569	3317
905.686	3420
905.803	3439
905.921	3256
906.038	3435
906.155	3359
906.272	3245
906.389	3310
906.506	3241
906.623	3253
906.74	3249
906.857	3127
906.974	3264
907.091	3424
907.208	3564
907.324	3462
907.441	3397
907.557	3230
907.674	3214
907.79	3199
907.907	3275
908.023	3401
908.139	3317
908.256	3340
908.372	3367
908.488	3332
908.604	3279
908.72	3241
908.836	3268
908.952	3294
909.068	3306
909.184	3511
909.3	3355
909.415	3519
909.531	3473
909.647	3275
909.762	3279
909.878	3260
909.993	3348
910.108	3325
910.224	3306
910.339	3428
910.454	3306
910.57	3279
910.685	3256
910.8	3599
910.915	3557
911.03	3405
911.145	3222
911.259	3256
911.374	3313
911.489	3241
911.604	3203
911.718	3062
911.833	3157
911.947	3051
912.062	3024
912.176	3173
912.291	3241
912.405	3214
912.519	3431
912.633	3481
912.748	3340
912.862	3279
912.976	3207
913.09	3051
913.204	3157
913.318	3256
913.431	3374
913.545	3363
913.659	3443
913.772	3329
913.886	3245
914	3195
914.113	3386
914.226	3454
914.34	3420
914.453	3241
914.566	3447
914.68	3321
914.793	3340
914.906	3184
915.019	3165
915.132	3097
915.245	3199
915.358	3264
915.47	3260
915.583	3321
915.696	3325
915.809	3435
915.921	3393
916.034	3287
916.146	3317
916.259	3256
916.371	3435
916.483	3401
916.595	3317
916.708	3405
916.82	3374
916.932	3389
917.044	3405
917.156	3393
917.268	3302
917.38	3355
917.491	3382
917.603	3389
917.715	3500
917.826	3538
917.938	3431
918.049	3351
918.161	3496
918.272	3614
918.384	3637
918.495	3515
918.606	3374
918.717	3302
918.828	3416
918.939	3454
919.05	3317
919.161	3382
919.272	3237
919.383	3321
919.494	3496
919.604	3755
919.715	3534
919.826	3439
919.936	3473
920.047	3667
920.157	3599
920.267	3865
920.378	3618
920.488	3648
920.598	3835
920.708	3994
920.818	3846
920.928	3861
921.038	4086
921.148	4059
921.258	3755
921.368	3682
921.477	3606
921.587	3561
921.697	3515
921.806	3667
921.916	3526
922.025	3416
922.134	3409
922.244	3378
922.353	3439
922.462	3340
922.571	3245
922.68	3138
922.789	3116
922.898	3176
923.007	3146
923.116	3230
923.224	3214
923.333	3249
923.442	3119
923.55	3173
923.659	3157
923.767	3256
923.876	3138
923.984	3230
924.092	3127
924.201	3192
924.309	3245
924.417	3298
924.525	3195
924.633	3298
924.741	4211
924.849	3138
924.956	3287
925.064	3104
925.172	3112
925.279	3112
925.387	3233
925.494	3241
925.602	3389
925.709	3359
925.816	3218
925.924	3306
926.031	3435
926.138	3370
926.245	3397
926.352	3264
926.459	3431
926.566	3473
926.673	3389
926.779	3279
926.886	3306
926.993	3226
927.099	3192
927.206	3192
927.312	3157
927.419	3260
927.525	3237
927.631	3291
927.737	3165
927.843	3157
927.95	3089
928.056	3169
928.162	3203
928.267	3283
928.373	3907
928.479	3329
928.585	3097
928.69	3230
928.796	3310
928.901	3207
929.007	3104
929.112	3214
929.218	3203
929.323	3157
929.428	3188
929.533	3370
929.638	3211
929.743	3230
929.848	3241
929.953	3253
930.058	3169
930.163	2998
930.267	3074
930.372	3226
930.477	3077
930.581	3370
930.685	3161
930.79	3097
930.894	3176
930.998	3142
931.103	3321
931.207	2998
931.311	2990
931.415	2948
931.519	2834
931.623	2876
