Data from test_V78500241_1077.txt Node
Date: Fri Mar 25 16:22:39 CST 2022
User: usil
Spectrometer: V785-0024
Trigger mode: 0
Integration Time (sec): 4.000000E-1
Scans to average: 1
Nonlinearity correction enabled: false
Boxcar width: 0
Storing dark spectrum: false
XAxis mode: Wavelengths
Number of Pixels in Spectrum: 1024
>>>>>Begin Spectral Data<<<<<
801.071	2895
801.214	2948
801.356	2853
801.499	2914
801.641	2880
801.783	2952
801.926	3070
802.068	3020
802.211	2979
802.353	3043
802.496	2956
802.638	3036
802.78	3070
802.923	3093
803.065	3009
803.208	2895
803.35	2937
803.492	2944
803.635	2925
803.777	2743
803.919	2876
804.061	3176
804.204	2960
804.346	2925
804.488	2861
804.63	3013
804.773	2887
804.915	2937
805.057	3108
805.199	2887
805.341	2982
805.483	3058
805.626	2994
805.768	2937
805.91	3089
806.052	3077
806.194	3039
806.336	3237
806.478	3020
806.62	2941
806.762	2998
806.904	3104
807.046	3169
807.188	2975
807.33	2910
807.472	2998
807.614	2941
807.756	2963
807.898	2910
808.04	2910
808.182	3009
808.324	2963
808.465	2887
808.607	2876
808.749	2804
808.891	2830
809.033	3005
809.174	3005
809.316	2883
809.458	2906
809.6	2766
809.741	2769
809.883	2769
810.025	2853
810.166	2887
810.308	2842
810.45	2876
810.591	2785
810.733	2766
810.875	2842
811.016	2777
811.158	2769
811.299	2804
811.441	2922
811.582	2883
811.724	2807
811.865	2800
812.007	2906
812.148	2838
812.29	2823
812.431	2864
812.573	2925
812.714	2960
812.855	3066
812.997	3062
813.138	3116
813.279	2944
813.421	2963
813.562	2925
813.703	2880
813.845	2857
813.986	2769
814.127	2731
814.268	2788
814.41	2845
814.551	2800
814.692	2857
814.833	2811
814.974	2880
815.115	2956
815.256	2853
815.397	2804
815.539	2880
815.68	2769
815.821	2804
815.962	2929
816.103	2910
816.244	2872
816.385	2845
816.526	2952
816.666	2937
816.807	2735
816.948	2899
817.089	2887
817.23	2815
817.371	2788
817.512	2804
817.653	2815
817.793	2823
817.934	2857
818.075	2971
818.216	2952
818.356	3017
818.497	2853
818.638	2796
818.778	2849
818.919	2773
819.06	2735
819.2	2864
819.341	2811
819.481	2826
819.622	2918
819.762	3097
819.903	3020
820.043	2929
820.184	2887
820.324	2895
820.465	2982
820.605	3020
820.746	3005
820.886	2979
821.026	3131
821.167	3184
821.307	3268
821.447	3302
821.588	3233
821.728	3195
821.868	3165
822.008	3085
822.149	3233
822.289	3272
822.429	3100
822.569	3131
822.709	3230
822.849	3024
822.99	3089
823.13	3176
823.27	3279
823.41	3135
823.55	3161
823.69	3176
823.83	3207
823.97	3135
824.11	3028
824.25	3039
824.389	3066
824.529	3146
824.669	3116
824.809	3279
824.949	3298
825.089	3287
825.228	3218
825.368	3028
825.508	3005
825.648	3032
825.787	3043
825.927	3028
826.067	3009
826.206	3020
826.346	3058
826.485	3097
826.625	3157
826.765	3310
826.904	3272
827.044	3036
827.183	2986
827.323	2872
827.462	2990
827.601	2952
827.741	2956
827.88	3009
828.02	2925
828.159	3058
828.298	3066
828.437	3127
828.577	3070
828.716	3275
828.855	3112
828.994	2948
829.134	2922
829.273	2956
829.412	2914
829.551	2891
829.69	2944
829.829	3017
829.968	3173
830.107	3062
830.246	3074
830.385	2929
830.524	2918
830.663	2887
830.802	2785
830.941	2697
831.08	2716
831.219	2804
831.357	2826
831.496	2975
831.635	2746
831.774	2655
831.913	2689
832.051	2594
832.19	2640
832.329	2739
832.467	2590
832.606	2507
832.744	2644
832.883	2629
833.022	2617
833.16	2701
833.299	2712
833.437	2739
833.576	2739
833.714	2754
833.852	2769
833.991	2777
834.129	2891
834.267	2876
834.406	2800
834.544	2899
834.682	2952
834.821	2891
834.959	3077
835.097	2948
835.235	3112
835.373	3062
835.511	3047
835.65	2986
835.788	2979
835.926	2872
836.064	2838
836.202	2895
836.34	3097
836.478	3176
836.615	3043
836.753	3192
836.891	3283
837.029	3211
837.167	3180
837.305	3104
837.443	3058
837.58	3001
837.718	3192
837.856	3108
837.993	3020
838.131	3165
838.269	3131
838.406	3184
838.544	3135
838.681	2986
838.819	2948
838.956	2849
839.094	2815
839.231	2914
839.369	3039
839.506	3412
839.643	3241
839.781	3051
839.918	2979
840.055	3108
840.193	3062
840.33	3077
840.467	3192
840.604	3188
840.742	3458
840.879	3089
841.016	3055
841.153	3150
841.29	3378
841.427	3310
841.564	3298
841.701	3344
841.838	3233
841.975	3180
842.112	3226
842.249	3119
842.385	3047
842.522	3287
842.659	3112
842.796	3100
842.933	3169
843.069	3051
843.206	3093
843.343	3203
843.479	3154
843.616	3173
843.752	2952
843.889	2914
844.025	3123
844.162	2906
844.298	3081
844.435	2975
844.571	2944
844.708	3104
844.844	3203
844.98	3264
845.117	3195
845.253	3123
845.389	3047
845.525	3138
845.661	3116
845.798	3089
845.934	3123
846.07	3055
846.206	3272
846.342	3351
846.478	3253
846.614	3131
846.75	3081
846.886	3043
847.022	3291
847.158	3165
847.294	3214
847.429	3275
847.565	3241
847.701	3462
847.837	3058
847.972	3020
848.108	3203
848.244	3146
848.379	3032
848.515	2982
848.65	2941
848.786	2960
848.921	3047
849.057	3119
849.192	3165
849.328	3089
849.463	3127
849.598	3093
849.734	3051
849.869	2990
850.004	2948
850.14	2967
850.275	2956
850.41	2891
850.545	2941
850.68	2990
850.815	2952
850.95	2990
851.085	3214
851.22	3150
851.355	3047
851.49	3001
851.625	3001
851.76	3051
851.895	2963
852.03	2925
852.165	3077
852.299	3127
852.434	3222
852.569	3180
852.703	3192
852.838	3241
852.973	3355
853.107	3344
853.242	3165
853.376	3112
853.511	2990
853.645	3100
853.78	3241
853.914	3184
854.048	3131
854.183	3112
854.317	3180
854.451	3344
854.585	3161
854.72	3104
854.854	3222
854.988	3077
855.122	3093
855.256	3028
855.39	3161
855.524	3256
855.658	3214
855.792	3173
855.926	3218
856.06	3233
856.194	3275
856.327	3188
856.461	3089
856.595	3112
856.729	3100
856.862	3226
856.996	3176
857.13	3214
857.263	3249
857.397	3287
857.53	3154
857.664	3207
857.797	3329
857.931	3279
858.064	3207
858.197	3214
858.331	3142
858.464	3089
858.597	3039
858.731	3150
858.864	3127
858.997	3146
859.13	3123
859.263	3180
859.396	3195
859.529	3131
859.662	3089
859.795	3066
859.928	3138
860.061	3283
860.194	3302
860.327	3154
860.46	3119
860.592	3272
860.725	3268
860.858	3264
860.99	3135
861.123	3112
861.256	3081
861.388	3203
861.521	3842
861.653	3028
861.786	3020
861.918	3001
862.05	3100
862.183	3161
862.315	3165
862.447	3207
862.58	3123
862.712	2925
862.844	2899
862.976	3074
863.108	2998
863.24	3344
863.372	2895
863.504	3001
863.636	2960
863.768	3074
863.9	2994
864.032	2986
864.164	2982
864.296	3077
864.428	3127
864.559	3108
864.691	3085
864.823	3116
864.954	3058
865.086	3066
865.217	3051
865.349	2937
865.48	2971
865.612	3009
865.743	3169
865.875	2998
866.006	2960
866.137	3020
866.269	2963
866.4	2948
866.531	2944
866.662	2910
866.793	2887
866.924	2914
867.055	2971
867.186	2952
867.317	2922
867.448	2838
867.579	2864
867.71	2864
867.841	2838
867.972	2914
868.103	2929
868.233	2910
868.364	2899
868.495	2944
868.625	3112
868.756	3180
868.886	2986
869.017	3039
869.147	3203
869.278	3180
869.408	3077
869.539	3062
869.669	3135
869.799	3047
869.929	3150
870.06	3097
870.19	3344
870.32	3291
870.45	3302
870.58	3389
870.71	3462
870.84	3458
870.97	3291
871.1	3275
871.23	3485
871.36	3488
871.489	3340
871.619	3405
871.749	3401
871.879	3504
872.008	3496
872.138	3393
872.267	3260
872.397	3184
872.526	3131
872.656	3024
872.785	3108
872.915	3256
873.044	3344
873.173	3207
873.303	3272
873.432	3233
873.561	3249
873.69	3192
873.819	3131
873.948	3233
874.077	3135
874.206	3066
874.335	3135
874.464	3260
874.593	3336
874.722	3298
874.851	3416
874.979	3359
875.108	3306
875.237	3154
875.365	3195
875.494	3188
875.623	3249
875.751	3081
875.88	3150
876.008	3203
876.136	3245
876.265	3405
876.393	3526
876.521	3428
876.65	3424
876.778	3310
876.906	3241
877.034	3218
877.162	3233
877.29	3211
877.418	3272
877.546	3264
877.674	3283
877.802	3256
877.93	3214
878.058	3188
878.185	3135
878.313	3222
878.441	3203
878.568	3074
878.696	3135
878.824	3237
878.951	3306
879.079	3462
879.206	3686
879.333	3469
879.461	3359
879.588	3370
879.715	3473
879.842	3618
879.97	3431
880.097	3173
880.224	3150
880.351	3192
880.478	3226
880.605	3211
880.732	3207
880.859	3542
880.986	3294
881.112	3389
881.239	3241
881.366	3173
881.493	3039
881.619	3028
881.746	3077
881.872	3123
881.999	3142
882.125	3192
882.252	3237
882.378	3287
882.505	3466
882.631	3279
882.757	3176
882.883	3241
883.01	3226
883.136	3154
883.262	3100
883.388	3119
883.514	3332
883.64	3420
883.766	3348
883.892	3207
884.018	3222
884.143	3397
884.269	3523
884.395	3203
884.52	3123
884.646	3192
884.772	3127
884.897	3108
885.023	3241
885.148	3317
885.274	3431
885.399	3374
885.524	3313
885.65	3317
885.775	3351
885.9	3302
886.025	3458
886.15	3401
886.275	3291
886.4	3211
886.525	3287
886.65	3291
886.775	3287
886.9	3504
887.025	3667
887.149	3386
887.274	3253
887.399	3203
887.523	3173
887.648	3173
887.773	3184
887.897	3420
888.021	3416
888.146	3279
888.27	3481
888.395	3526
888.519	3443
888.643	3481
888.767	3488
888.891	3279
889.015	3268
889.139	3294
889.263	3249
889.387	3431
889.511	3504
889.635	3473
889.759	3291
889.883	3313
890.006	3389
890.13	3496
890.254	3291
890.377	3359
890.501	3230
890.624	3176
890.748	3302
890.871	3195
890.995	3100
891.118	3097
891.241	3180
891.364	3249
891.488	3351
891.611	3188
891.734	3256
891.857	3260
891.98	3260
892.103	3332
892.226	3275
892.349	3268
892.471	3138
892.594	3245
892.717	3306
892.839	3306
892.962	3348
893.085	3355
893.207	3294
893.33	3150
893.452	3226
893.575	3317
893.697	3245
893.819	3485
893.941	3530
894.064	3450
894.186	3294
894.308	3272
894.43	3450
894.552	3557
894.674	3473
894.796	3291
894.918	3298
895.04	3291
895.161	3409
895.283	3416
895.405	3321
895.526	3389
895.648	3450
895.769	3454
895.891	3424
896.012	3450
896.134	3447
896.255	3412
896.376	3374
896.498	3329
896.619	3405
896.74	3382
896.861	3428
896.982	3682
897.103	3857
897.224	3622
897.345	3545
897.466	3435
897.587	3485
897.708	3614
897.828	3504
897.949	3496
898.07	3370
898.19	3424
898.311	3576
898.431	3431
898.552	3538
898.672	3618
898.792	3614
898.913	3534
899.033	3420
899.153	3260
899.273	3192
899.393	3302
899.513	3336
899.633	3359
899.753	3329
899.873	3325
899.993	3389
900.113	3340
900.232	3405
900.352	3348
900.472	3279
900.591	3218
900.711	3313
900.83	3253
900.95	3458
901.069	3477
901.189	3367
901.308	3203
901.427	3150
901.546	3211
901.665	3272
901.784	3370
901.904	3203
902.023	3161
902.141	3005
902.26	3001
902.379	3157
902.498	3112
902.617	3013
902.735	3211
902.854	3188
902.973	3180
903.091	3058
903.21	3020
903.328	3154
903.446	3062
903.565	3097
903.683	3233
903.801	3150
903.919	3256
904.038	3302
904.156	3169
904.274	3321
904.392	3264
904.51	3310
904.627	3355
904.745	3435
904.863	3515
904.981	3264
905.098	3207
905.216	3268
905.334	3298
905.451	3287
905.569	3283
905.686	3416
905.803	3431
905.921	3294
906.038	3409
906.155	3378
906.272	3279
906.389	3306
906.506	3226
906.623	3256
906.74	3287
906.857	3180
906.974	3283
907.091	3431
907.208	3557
907.324	3431
907.441	3412
907.557	3253
907.674	3253
907.79	3218
907.907	3310
908.023	3363
908.139	3386
908.256	3310
908.372	3374
908.488	3363
908.604	3241
908.72	3218
908.836	3275
908.952	3249
909.068	3329
909.184	3519
909.3	3393
909.415	3496
909.531	3466
909.647	3233
909.762	3275
909.878	3241
909.993	3367
910.108	3336
910.224	3363
910.339	3401
910.454	3321
910.57	3287
910.685	3241
910.8	3599
910.915	3523
911.03	3447
911.145	3294
911.259	3268
911.374	3348
911.489	3203
911.604	3256
911.718	3119
911.833	3173
911.947	3066
912.062	2986
912.176	3108
912.291	3214
912.405	3207
912.519	3386
912.633	3439
912.748	3329
912.862	3268
912.976	3123
913.09	3070
913.204	3093
913.318	3222
913.431	3363
913.545	3359
913.659	3405
913.772	3302
913.886	3256
914	3214
914.113	3317
914.226	3428
914.34	3409
914.453	3184
914.566	3409
914.68	3302
914.793	3329
914.906	3142
915.019	3123
915.132	3093
915.245	3169
915.358	3199
915.47	3222
915.583	3256
915.696	3264
915.809	3428
915.921	3435
916.034	3279
916.146	3249
916.259	3199
916.371	3409
916.483	3370
916.595	3272
916.708	3317
916.82	3317
916.932	3325
917.044	3344
917.156	3294
917.268	3256
917.38	3283
917.491	3302
917.603	3344
917.715	3439
917.826	3492
917.938	3359
918.049	3291
918.161	3424
918.272	3614
918.384	3568
918.495	3511
918.606	3321
918.717	3275
918.828	3405
918.939	3431
919.05	3298
919.161	3359
919.272	3173
919.383	3287
919.494	3504
919.604	3690
919.715	3496
919.826	3416
919.936	3462
920.047	3625
920.157	3564
920.267	3747
920.378	3618
920.488	3599
920.598	3789
920.708	3956
920.818	3800
920.928	3850
921.038	4032
921.148	3975
921.258	3663
921.368	3610
921.477	3564
921.587	3523
921.697	3454
921.806	3580
921.916	3553
922.025	3382
922.134	3336
922.244	3306
922.353	3416
922.462	3256
922.571	3233
922.68	3100
922.789	3043
922.898	3169
923.007	3104
923.116	3214
923.224	3169
923.333	3188
923.442	3039
923.55	3116
923.659	3112
923.767	3218
923.876	3097
923.984	3199
924.092	3081
924.201	3195
924.309	3253
924.417	3287
924.525	3184
924.633	3207
924.741	4025
924.849	3070
924.956	3279
925.064	3085
925.172	3020
925.279	3131
925.387	3192
925.494	3203
925.602	3359
925.709	3340
925.816	3165
925.924	3268
926.031	3359
926.138	3348
926.245	3397
926.352	3253
926.459	3393
926.566	3443
926.673	3325
926.779	3249
926.886	3237
926.993	3173
927.099	3150
927.206	3154
927.312	3135
927.419	3184
927.525	3169
927.631	3260
927.737	3150
927.843	3127
927.95	2986
928.056	3100
928.162	3142
928.267	3245
928.373	3899
928.479	3291
928.585	3036
928.69	3237
928.796	3249
928.901	3199
929.007	3058
929.112	3214
929.218	3188
929.323	3169
929.428	3176
929.533	3245
929.638	3146
929.743	3173
929.848	3230
929.953	3211
930.058	3184
930.163	2990
930.267	3039
930.372	3188
930.477	3024
930.581	3344
930.685	3188
930.79	3055
930.894	3093
930.998	3066
931.103	3287
931.207	2952
931.311	2948
931.415	2929
931.519	2769
931.623	2781
