Data from test_V78500241_727.txt Node
Date: Fri Mar 25 16:20:14 CST 2022
User: usil
Spectrometer: V785-0024
Trigger mode: 0
Integration Time (sec): 4.000000E-1
Scans to average: 1
Nonlinearity correction enabled: false
Boxcar width: 0
Storing dark spectrum: false
XAxis mode: Wavelengths
Number of Pixels in Spectrum: 1024
>>>>>Begin Spectral Data<<<<<
801.071	2933
801.214	2937
801.356	2845
801.499	2891
801.641	2849
801.783	2864
801.926	3001
802.068	2960
802.211	2971
802.353	3032
802.496	2941
802.638	3005
802.78	3017
802.923	3077
803.065	2971
803.208	2872
803.35	2887
803.492	2910
803.635	2925
803.777	2750
803.919	2861
804.061	3214
804.204	2925
804.346	2887
804.488	2785
804.63	2929
804.773	2876
804.915	2914
805.057	3070
805.199	2948
805.341	2960
805.483	3020
805.626	2990
805.768	2902
805.91	3074
806.052	3089
806.194	3036
806.336	3192
806.478	3028
806.62	2944
806.762	2914
806.904	3017
807.046	3154
807.188	2929
807.33	2918
807.472	2960
807.614	2914
807.756	2986
807.898	2899
808.04	2864
808.182	2975
808.324	2941
808.465	2849
808.607	2880
808.749	2823
808.891	2815
809.033	2952
809.174	2941
809.316	2864
809.458	2895
809.6	2754
809.741	2769
809.883	2716
810.025	2880
810.166	2872
810.308	2861
810.45	2838
810.591	2769
810.733	2746
810.875	2834
811.016	2746
811.158	2781
811.299	2788
811.441	2941
811.582	2918
811.724	2819
811.865	2819
812.007	2933
812.148	2864
812.29	2830
812.431	2910
812.573	2967
812.714	2960
812.855	3055
812.997	3036
813.138	3127
813.279	2990
813.421	2979
813.562	2960
813.703	2853
813.845	2899
813.986	2777
814.127	2735
814.268	2830
814.41	2853
814.551	2788
814.692	2876
814.833	2788
814.974	2887
815.115	2986
815.256	2788
815.397	2815
815.539	2861
815.68	2743
815.821	2807
815.962	2941
816.103	2914
816.244	2906
816.385	2845
816.526	2952
816.666	2918
816.807	2735
816.948	2876
817.089	2902
817.23	2834
817.371	2781
817.512	2800
817.653	2834
817.793	2815
817.934	2891
818.075	2967
818.216	2967
818.356	3001
818.497	2861
818.638	2781
818.778	2811
818.919	2792
819.06	2769
819.2	2910
819.341	2804
819.481	2796
819.622	2933
819.762	3085
819.903	3051
820.043	2918
820.184	2876
820.324	2876
820.465	3020
820.605	2998
820.746	2998
820.886	2929
821.026	3123
821.167	3176
821.307	3226
821.447	3264
821.588	3214
821.728	3192
821.868	3199
822.008	3100
822.149	3256
822.289	3169
822.429	3070
822.569	3097
822.709	3180
822.849	3032
822.99	3058
823.13	3146
823.27	3203
823.41	3104
823.55	3135
823.69	3116
823.83	3203
823.97	3100
824.11	3017
824.25	2979
824.389	3047
824.529	3081
824.669	3085
824.809	3188
824.949	3233
825.089	3214
825.228	3154
825.368	3028
825.508	2960
825.648	2941
825.787	2990
825.927	3020
826.067	2952
826.206	2933
826.346	3043
826.485	3085
826.625	3093
826.765	3245
826.904	3184
827.044	2986
827.183	2918
827.323	2872
827.462	2975
827.601	2952
827.741	2910
827.88	2990
828.02	2857
828.159	3005
828.298	3043
828.437	3119
828.577	3020
828.716	3249
828.855	3100
828.994	2918
829.134	2895
829.273	2895
829.412	2906
829.551	2857
829.69	2906
829.829	3020
829.968	3142
830.107	3062
830.246	3066
830.385	2963
830.524	2922
830.663	2853
830.802	2781
830.941	2716
831.08	2670
831.219	2781
831.357	2819
831.496	2986
831.635	2735
831.774	2708
831.913	2655
832.051	2575
832.19	2636
832.329	2743
832.467	2568
832.606	2499
832.744	2602
832.883	2560
833.022	2636
833.16	2655
833.299	2731
833.437	2708
833.576	2769
833.714	2773
833.852	2731
833.991	2796
834.129	2872
834.267	2868
834.406	2845
834.544	2902
834.682	2918
834.821	2876
834.959	3112
835.097	2963
835.235	3093
835.373	3039
835.511	3017
835.65	2994
835.788	2990
835.926	2899
836.064	2834
836.202	2895
836.34	3123
836.478	3180
836.615	3097
836.753	3192
836.891	3230
837.029	3192
837.167	3161
837.305	3116
837.443	3089
837.58	2994
837.718	3192
837.856	3093
837.993	3058
838.131	3165
838.269	3112
838.406	3108
838.544	3093
838.681	2971
838.819	2963
838.956	2842
839.094	2941
839.231	2944
839.369	3043
839.506	3409
839.643	3253
839.781	3043
839.918	2986
840.055	3055
840.193	3119
840.33	3089
840.467	3123
840.604	3230
840.742	3435
840.879	3108
841.016	3108
841.153	3176
841.29	3378
841.427	3329
841.564	3340
841.701	3310
841.838	3237
841.975	3233
842.112	3241
842.249	3100
842.385	3070
842.522	3283
842.659	3146
842.796	3138
842.933	3116
843.069	3077
843.206	3108
843.343	3203
843.479	3142
843.616	3188
843.752	2910
843.889	2883
844.025	3119
844.162	2910
844.298	3104
844.435	2967
844.571	2960
844.708	3131
844.844	3214
844.98	3272
845.117	3203
845.253	3081
845.389	3055
845.525	3119
845.661	3104
845.798	3028
845.934	3165
846.07	3055
846.206	3310
846.342	3329
846.478	3283
846.614	3100
846.75	3100
846.886	3066
847.022	3279
847.158	3188
847.294	3245
847.429	3279
847.565	3256
847.701	3545
847.837	3020
847.972	3017
848.108	3218
848.244	3184
848.379	2990
848.515	2948
848.65	2986
848.786	3001
848.921	3024
849.057	3138
849.192	3173
849.328	3074
849.463	3112
849.598	3074
849.734	3089
849.869	2994
850.004	2922
850.14	3009
850.275	2933
850.41	2849
850.545	2933
850.68	2937
850.815	2971
850.95	3017
851.085	3222
851.22	3135
851.355	3077
851.49	2967
851.625	3036
851.76	3043
851.895	2994
852.03	2963
852.165	3077
852.299	3142
852.434	3199
852.569	3176
852.703	3230
852.838	3283
852.973	3344
853.107	3355
853.242	3184
853.376	3100
853.511	3017
853.645	3074
853.78	3245
853.914	3131
854.048	3123
854.183	3100
854.317	3161
854.451	3310
854.585	3116
854.72	3116
854.854	3211
854.988	3074
855.122	3127
855.256	3051
855.39	3112
855.524	3264
855.658	3230
855.792	3180
855.926	3211
856.06	3233
856.194	3298
856.327	3188
856.461	3123
856.595	3100
856.729	3104
856.862	3253
856.996	3199
857.13	3199
857.263	3249
857.397	3317
857.53	3157
857.664	3245
857.797	3233
857.931	3287
858.064	3180
858.197	3245
858.331	3173
858.464	3146
858.597	3017
858.731	3135
858.864	3161
858.997	3146
859.13	3184
859.263	3188
859.396	3203
859.529	3146
859.662	3100
859.795	3081
859.928	3211
860.061	3287
860.194	3306
860.327	3165
860.46	3135
860.592	3264
860.725	3291
860.858	3283
860.99	3123
861.123	3070
861.256	3039
861.388	3192
861.521	3941
861.653	3039
861.786	3032
861.918	3020
862.05	3062
862.183	3131
862.315	3169
862.447	3245
862.58	3127
862.712	2990
862.844	2929
862.976	3028
863.108	3036
863.24	3420
863.372	2876
863.504	2994
863.636	2963
863.768	3039
863.9	2994
864.032	2963
864.164	2937
864.296	3036
864.428	3116
864.559	3116
864.691	3116
864.823	3058
864.954	3039
865.086	3077
865.217	2990
865.349	2944
865.48	3039
865.612	3043
865.743	3169
865.875	2998
866.006	2963
866.137	3005
866.269	2990
866.4	2979
866.531	2922
866.662	2910
866.793	2914
866.924	2872
867.055	2998
867.186	2944
867.317	2895
867.448	2861
867.579	2925
867.71	2872
867.841	2853
867.972	2914
868.103	2914
868.233	2899
868.364	2872
868.495	2929
868.625	3116
868.756	3173
868.886	2956
869.017	3043
869.147	3222
869.278	3173
869.408	3089
869.539	3032
869.669	3100
869.799	3116
869.929	3131
870.06	3154
870.19	3302
870.32	3310
870.45	3336
870.58	3412
870.71	3458
870.84	3439
870.97	3310
871.1	3249
871.23	3500
871.36	3485
871.489	3412
871.619	3412
871.749	3473
871.879	3447
872.008	3519
872.138	3359
872.267	3298
872.397	3173
872.526	3127
872.656	3028
872.785	3116
872.915	3245
873.044	3294
873.173	3237
873.303	3298
873.432	3245
873.561	3233
873.69	3180
873.819	3195
873.948	3249
874.077	3131
874.206	3043
874.335	3089
874.464	3253
874.593	3382
874.722	3279
874.851	3389
874.979	3370
875.108	3287
875.237	3188
875.365	3150
875.494	3176
875.623	3298
875.751	3074
875.88	3142
876.008	3195
876.136	3272
876.265	3378
876.393	3485
876.521	3450
876.65	3424
876.778	3363
876.906	3279
877.034	3211
877.162	3211
877.29	3188
877.418	3272
877.546	3260
877.674	3207
877.802	3256
877.93	3291
878.058	3173
878.185	3131
878.313	3233
878.441	3237
878.568	3089
878.696	3161
878.824	3275
878.951	3313
879.079	3454
879.206	3660
879.333	3443
879.461	3351
879.588	3351
879.715	3523
879.842	3625
879.97	3382
880.097	3165
880.224	3135
880.351	3222
880.478	3237
880.605	3192
880.732	3218
880.859	3519
880.986	3298
881.112	3329
881.239	3211
881.366	3119
881.493	3058
881.619	3085
881.746	3081
881.872	3131
881.999	3112
882.125	3146
882.252	3245
882.378	3279
882.505	3431
882.631	3283
882.757	3169
882.883	3230
883.01	3253
883.136	3203
883.262	3089
883.388	3169
883.514	3325
883.64	3393
883.766	3329
883.892	3230
884.018	3279
884.143	3409
884.269	3568
884.395	3226
884.52	3253
884.646	3203
884.772	3100
884.897	3093
885.023	3222
885.148	3336
885.274	3405
885.399	3405
885.524	3321
885.65	3260
885.775	3336
885.9	3275
886.025	3447
886.15	3370
886.275	3294
886.4	3222
886.525	3313
886.65	3294
886.775	3325
886.9	3481
887.025	3633
887.149	3389
887.274	3272
887.399	3176
887.523	3233
887.648	3203
887.773	3211
887.897	3431
888.021	3412
888.146	3325
888.27	3435
888.395	3511
888.519	3485
888.643	3416
888.767	3428
888.891	3306
889.015	3260
889.139	3325
889.263	3268
889.387	3401
889.511	3469
889.635	3447
889.759	3298
889.883	3351
890.006	3370
890.13	3500
890.254	3268
890.377	3359
890.501	3211
890.624	3192
890.748	3298
890.871	3207
890.995	3108
891.118	3077
891.241	3211
891.364	3241
891.488	3321
891.611	3245
891.734	3264
891.857	3302
891.98	3302
892.103	3367
892.226	3325
892.349	3222
892.471	3157
892.594	3222
892.717	3313
892.839	3291
892.962	3340
893.085	3351
893.207	3317
893.33	3169
893.452	3214
893.575	3336
893.697	3291
893.819	3454
893.941	3492
894.064	3431
894.186	3287
894.308	3294
894.43	3454
894.552	3523
894.674	3458
894.796	3264
894.918	3317
895.04	3302
895.161	3416
895.283	3420
895.405	3348
895.526	3340
895.648	3409
895.769	3420
895.891	3447
896.012	3477
896.134	3450
896.255	3431
896.376	3447
896.498	3428
896.619	3458
896.74	3382
896.861	3447
896.982	3698
897.103	3876
897.224	3606
897.345	3534
897.466	3447
897.587	3466
897.708	3667
897.828	3545
897.949	3462
898.07	3359
898.19	3481
898.311	3644
898.431	3481
898.552	3511
898.672	3618
898.792	3591
898.913	3507
899.033	3416
899.153	3325
899.273	3249
899.393	3279
899.513	3355
899.633	3321
899.753	3367
899.873	3344
899.993	3344
900.113	3378
900.232	3416
900.352	3374
900.472	3253
900.591	3241
900.711	3329
900.83	3275
900.95	3401
901.069	3504
901.189	3367
901.308	3195
901.427	3138
901.546	3203
901.665	3272
901.784	3359
901.904	3233
902.023	3157
902.141	3055
902.26	3013
902.379	3142
902.498	3051
902.617	3036
902.735	3214
902.854	3233
902.973	3203
903.091	3013
903.21	3055
903.328	3138
903.446	3104
903.565	3127
903.683	3165
903.801	3188
903.919	3256
904.038	3306
904.156	3138
904.274	3272
904.392	3268
904.51	3351
904.627	3340
904.745	3447
904.863	3523
904.981	3268
905.098	3192
905.216	3237
905.334	3306
905.451	3317
905.569	3275
905.686	3439
905.803	3435
905.921	3275
906.038	3439
906.155	3344
906.272	3302
906.389	3378
906.506	3218
906.623	3275
906.74	3287
906.857	3173
906.974	3272
907.091	3477
907.208	3530
907.324	3466
907.441	3435
907.557	3245
907.674	3218
907.79	3199
907.907	3291
908.023	3382
908.139	3363
908.256	3332
908.372	3378
908.488	3355
908.604	3283
908.72	3214
908.836	3279
908.952	3298
909.068	3340
909.184	3488
909.3	3389
909.415	3511
909.531	3481
909.647	3264
909.762	3283
909.878	3291
909.993	3340
910.108	3344
910.224	3313
910.339	3450
910.454	3298
910.57	3291
910.685	3264
910.8	3568
910.915	3557
911.03	3420
911.145	3275
911.259	3310
911.374	3332
911.489	3233
911.604	3268
911.718	3119
911.833	3161
911.947	3017
912.062	2986
912.176	3195
912.291	3233
912.405	3233
912.519	3409
912.633	3462
912.748	3313
912.862	3279
912.976	3150
913.09	3089
913.204	3135
913.318	3222
913.431	3351
913.545	3348
913.659	3416
913.772	3321
913.886	3195
914	3230
914.113	3340
914.226	3435
914.34	3370
914.453	3207
914.566	3397
914.68	3317
914.793	3321
914.906	3154
915.019	3123
915.132	3043
915.245	3207
915.358	3233
915.47	3245
915.583	3294
915.696	3272
915.809	3435
915.921	3405
916.034	3249
916.146	3245
916.259	3241
916.371	3378
916.483	3363
916.595	3291
916.708	3332
916.82	3370
916.932	3370
917.044	3348
917.156	3355
917.268	3294
917.38	3291
917.491	3302
917.603	3389
917.715	3477
917.826	3420
917.938	3378
918.049	3275
918.161	3370
918.272	3557
918.384	3576
918.495	3504
918.606	3348
918.717	3302
918.828	3317
918.939	3374
919.05	3294
919.161	3401
919.272	3150
919.383	3306
919.494	3534
919.604	3671
919.715	3466
919.826	3428
919.936	3477
920.047	3587
920.157	3530
920.267	3759
920.378	3614
920.488	3553
920.598	3793
920.708	3960
920.818	3812
920.928	3827
921.038	3991
921.148	3975
921.258	3709
921.368	3663
921.477	3564
921.587	3549
921.697	3466
921.806	3629
921.916	3549
922.025	3348
922.134	3363
922.244	3306
922.353	3454
922.462	3272
922.571	3241
922.68	3047
922.789	3074
922.898	3176
923.007	3077
923.116	3207
923.224	3199
923.333	3188
923.442	3077
923.55	3043
923.659	3195
923.767	3218
923.876	3123
923.984	3241
924.092	3100
924.201	3207
924.309	3253
924.417	3260
924.525	3195
924.633	3211
924.741	4188
924.849	3039
924.956	3256
925.064	3089
925.172	3047
925.279	3077
925.387	3211
925.494	3173
925.602	3367
925.709	3344
925.816	3214
925.924	3287
926.031	3416
926.138	3317
926.245	3370
926.352	3256
926.459	3428
926.566	3435
926.673	3306
926.779	3260
926.886	3260
926.993	3154
927.099	3123
927.206	3150
927.312	3093
927.419	3188
927.525	3203
927.631	3287
927.737	3142
927.843	3131
927.95	3043
928.056	3169
928.162	3161
928.267	3272
928.373	3876
928.479	3313
928.585	3066
928.69	3188
928.796	3291
928.901	3176
929.007	3051
929.112	3207
929.218	3207
929.323	3138
929.428	3169
929.533	3340
929.638	3131
929.743	3192
929.848	3253
929.953	3237
930.058	3165
930.163	3005
930.267	3043
930.372	3176
930.477	3036
930.581	3344
930.685	3150
930.79	3093
930.894	3112
930.998	3116
931.103	3283
931.207	2956
931.311	2952
931.415	2925
931.519	2743
931.623	2838
