Data from test_V78500241_165.txt Node
Date: Fri Mar 25 16:16:20 CST 2022
User: usil
Spectrometer: V785-0024
Trigger mode: 0
Integration Time (sec): 4.000000E-1
Scans to average: 1
Nonlinearity correction enabled: false
Boxcar width: 0
Storing dark spectrum: false
XAxis mode: Wavelengths
Number of Pixels in Spectrum: 1024
>>>>>Begin Spectral Data<<<<<
801.071	2929
801.214	2956
801.356	2906
801.499	2891
801.641	2876
801.783	2937
801.926	3039
802.068	3024
802.211	3013
802.353	3043
802.496	2975
802.638	3017
802.78	3085
802.923	3127
803.065	3009
803.208	2891
803.35	2956
803.492	2986
803.635	2929
803.777	2773
803.919	2849
804.061	3199
804.204	2975
804.346	2937
804.488	2864
804.63	3017
804.773	2922
804.915	2937
805.057	3077
805.199	2925
805.341	2979
805.483	3055
805.626	3024
805.768	3001
805.91	3097
806.052	3108
806.194	3116
806.336	3241
806.478	3062
806.62	3013
806.762	3055
806.904	3089
807.046	3203
807.188	3005
807.33	2963
807.472	3047
807.614	2960
807.756	3009
807.898	2956
808.04	2941
808.182	2994
808.324	2990
808.465	2933
808.607	2941
808.749	2804
808.891	2899
809.033	3028
809.174	3051
809.316	2899
809.458	2925
809.6	2792
809.741	2788
809.883	2819
810.025	2880
810.166	2872
810.308	2899
810.45	2880
810.591	2819
810.733	2845
810.875	2868
811.016	2811
811.158	2766
811.299	2868
811.441	2990
811.582	2960
811.724	2891
811.865	2887
812.007	2941
812.148	2918
812.29	2902
812.431	2933
812.573	2990
812.714	2998
812.855	3119
812.997	3112
813.138	3135
813.279	3081
813.421	3017
813.562	3009
813.703	2872
813.845	2914
813.986	2781
814.127	2792
814.268	2887
814.41	2918
814.551	2834
814.692	2937
814.833	2857
814.974	2910
815.115	3009
815.256	2838
815.397	2864
815.539	2876
815.68	2830
815.821	2826
815.962	3020
816.103	2967
816.244	2910
816.385	2883
816.526	2986
816.666	2960
816.807	2773
816.948	2906
817.089	2967
817.23	2857
817.371	2830
817.512	2834
817.653	2864
817.793	2853
817.934	2925
818.075	3020
818.216	3028
818.356	3058
818.497	2922
818.638	2834
818.778	2895
818.919	2823
819.06	2807
819.2	2899
819.341	2830
819.481	2861
819.622	2998
819.762	3176
819.903	3074
820.043	2967
820.184	2910
820.324	2925
820.465	3062
820.605	3055
820.746	3089
820.886	3001
821.026	3135
821.167	3188
821.307	3291
821.447	3294
821.588	3302
821.728	3275
821.868	3253
822.008	3123
822.149	3249
822.289	3287
822.429	3119
822.569	3127
822.709	3207
822.849	3047
822.99	3104
823.13	3192
823.27	3214
823.41	3184
823.55	3207
823.69	3188
823.83	3230
823.97	3135
824.11	3032
824.25	3032
824.389	3097
824.529	3142
824.669	3093
824.809	3253
824.949	3279
825.089	3268
825.228	3199
825.368	3036
825.508	2979
825.648	3020
825.787	3032
825.927	3089
826.067	2979
826.206	3005
826.346	3085
826.485	3104
826.625	3138
826.765	3313
826.904	3268
827.044	3062
827.183	2979
827.323	2944
827.462	3001
827.601	2929
827.741	2979
827.88	3028
828.02	2899
828.159	3017
828.298	3047
828.437	3127
828.577	3055
828.716	3256
828.855	3142
828.994	2960
829.134	2937
829.273	2967
829.412	2918
829.551	2899
829.69	2922
829.829	3024
829.968	3165
830.107	3055
830.246	3077
830.385	2975
830.524	2963
830.663	2861
830.802	2788
830.941	2689
831.08	2689
831.219	2796
831.357	2823
831.496	2986
831.635	2743
831.774	2701
831.913	2678
832.051	2579
832.19	2625
832.329	2716
832.467	2583
832.606	2556
832.744	2640
832.883	2621
833.022	2621
833.16	2674
833.299	2762
833.437	2724
833.576	2743
833.714	2766
833.852	2792
833.991	2773
834.129	2910
834.267	2868
834.406	2819
834.544	2899
834.682	2872
834.821	2918
834.959	3127
835.097	2925
835.235	3093
835.373	3024
835.511	3077
835.65	2986
835.788	2982
835.926	2861
836.064	2845
836.202	2891
836.34	3138
836.478	3203
836.615	3089
836.753	3207
836.891	3241
837.029	3207
837.167	3161
837.305	3131
837.443	3089
837.58	3013
837.718	3218
837.856	3119
837.993	3070
838.131	3165
838.269	3142
838.406	3142
838.544	3127
838.681	2952
838.819	2948
838.956	2876
839.094	2853
839.231	2944
839.369	3051
839.506	3424
839.643	3241
839.781	3039
839.918	2963
840.055	3089
840.193	3093
840.33	3081
840.467	3146
840.604	3173
840.742	3439
840.879	3097
841.016	3089
841.153	3165
841.29	3382
841.427	3332
841.564	3306
841.701	3367
841.838	3275
841.975	3237
842.112	3275
842.249	3127
842.385	3108
842.522	3298
842.659	3089
842.796	3112
842.933	3176
843.069	3089
843.206	3039
843.343	3260
843.479	3146
843.616	3173
843.752	2956
843.889	2929
844.025	3119
844.162	2937
844.298	3123
844.435	2963
844.571	2956
844.708	3135
844.844	3226
844.98	3287
845.117	3203
845.253	3070
845.389	3036
845.525	3184
845.661	3089
845.798	3074
845.934	3165
846.07	3097
846.206	3268
846.342	3321
846.478	3222
846.614	3135
846.75	3123
846.886	3055
847.022	3291
847.158	3165
847.294	3230
847.429	3249
847.565	3237
847.701	3538
847.837	3043
847.972	3047
848.108	3222
848.244	3211
848.379	3017
848.515	2944
848.65	2952
848.786	2982
848.921	3074
849.057	3173
849.192	3192
849.328	3127
849.463	3180
849.598	3093
849.734	3039
849.869	2994
850.004	2952
850.14	3005
850.275	2948
850.41	2910
850.545	2876
850.68	2967
850.815	2979
850.95	3009
851.085	3222
851.22	3138
851.355	3085
851.49	3047
851.625	3001
851.76	3070
851.895	2975
852.03	2941
852.165	3104
852.299	3135
852.434	3237
852.569	3161
852.703	3226
852.838	3264
852.973	3355
853.107	3355
853.242	3180
853.376	3085
853.511	3055
853.645	3089
853.78	3268
853.914	3173
854.048	3154
854.183	3127
854.317	3192
854.451	3287
854.585	3154
854.72	3135
854.854	3211
854.988	3070
855.122	3055
855.256	3017
855.39	3165
855.524	3249
855.658	3222
855.792	3180
855.926	3195
856.06	3275
856.194	3310
856.327	3173
856.461	3089
856.595	3150
856.729	3154
856.862	3237
856.996	3180
857.13	3203
857.263	3264
857.397	3310
857.53	3154
857.664	3226
857.797	3298
857.931	3272
858.064	3173
858.197	3237
858.331	3157
858.464	3100
858.597	3039
858.731	3169
858.864	3157
858.997	3142
859.13	3180
859.263	3192
859.396	3237
859.529	3123
859.662	3070
859.795	3070
859.928	3192
860.061	3272
860.194	3317
860.327	3150
860.46	3150
860.592	3294
860.725	3272
860.858	3279
860.99	3112
861.123	3116
861.256	3081
861.388	3180
861.521	3816
861.653	3055
861.786	2990
861.918	3024
862.05	3093
862.183	3123
862.315	3192
862.447	3260
862.58	3135
862.712	2982
862.844	2906
862.976	3047
863.108	3039
863.24	3321
863.372	2910
863.504	3005
863.636	2979
863.768	3074
863.9	3009
864.032	2960
864.164	2971
864.296	3039
864.428	3123
864.559	3093
864.691	3104
864.823	3108
864.954	3070
865.086	3070
865.217	2998
865.349	2990
865.48	3020
865.612	3047
865.743	3199
865.875	3005
866.006	2982
866.137	3001
866.269	2979
866.4	2952
866.531	2952
866.662	2948
866.793	2956
866.924	2887
867.055	3009
867.186	2941
867.317	2937
867.448	2872
867.579	2895
867.71	2883
867.841	2830
867.972	2937
868.103	2941
868.233	2925
868.364	2899
868.495	2933
868.625	3108
868.756	3165
868.886	3032
869.017	3047
869.147	3233
869.278	3157
869.408	3051
869.539	3055
869.669	3135
869.799	3077
869.929	3154
870.06	3154
870.19	3336
870.32	3329
870.45	3329
870.58	3393
870.71	3477
870.84	3481
870.97	3336
871.1	3253
871.23	3507
871.36	3412
871.489	3386
871.619	3424
871.749	3431
871.879	3447
872.008	3545
872.138	3370
872.267	3310
872.397	3138
872.526	3104
872.656	3028
872.785	3173
872.915	3249
873.044	3340
873.173	3260
873.303	3298
873.432	3272
873.561	3222
873.69	3150
873.819	3161
873.948	3226
874.077	3108
874.206	3081
874.335	3123
874.464	3218
874.593	3344
874.722	3283
874.851	3424
874.979	3351
875.108	3325
875.237	3218
875.365	3169
875.494	3173
875.623	3294
875.751	3093
875.88	3131
876.008	3211
876.136	3241
876.265	3386
876.393	3580
876.521	3466
876.65	3416
876.778	3348
876.906	3275
877.034	3249
877.162	3260
877.29	3188
877.418	3313
877.546	3272
877.674	3260
877.802	3279
877.93	3283
878.058	3184
878.185	3157
878.313	3249
878.441	3272
878.568	3100
878.696	3157
878.824	3249
878.951	3355
879.079	3496
879.206	3675
879.333	3496
879.461	3382
879.588	3367
879.715	3549
879.842	3667
879.97	3428
880.097	3241
880.224	3188
880.351	3237
880.478	3294
880.605	3241
880.732	3256
880.859	3557
880.986	3344
881.112	3378
881.239	3272
881.366	3154
881.493	3142
881.619	3047
881.746	3142
881.872	3169
881.999	3150
882.125	3199
882.252	3279
882.378	3351
882.505	3500
882.631	3325
882.757	3207
882.883	3241
883.01	3329
883.136	3192
883.262	3154
883.388	3188
883.514	3363
883.64	3458
883.766	3401
883.892	3253
884.018	3306
884.143	3454
884.269	3629
884.395	3245
884.52	3214
884.646	3218
884.772	3165
884.897	3165
885.023	3272
885.148	3409
885.274	3504
885.399	3447
885.524	3332
885.65	3332
885.775	3401
885.9	3298
886.025	3477
886.15	3393
886.275	3363
886.4	3264
886.525	3359
886.65	3355
886.775	3351
886.9	3591
887.025	3679
887.149	3462
887.274	3291
887.399	3245
887.523	3264
887.648	3230
887.773	3218
887.897	3420
888.021	3466
888.146	3325
888.27	3481
888.395	3618
888.519	3488
888.643	3500
888.767	3549
888.891	3378
889.015	3313
889.139	3348
889.263	3340
889.387	3466
889.511	3591
889.635	3523
889.759	3363
889.883	3359
890.006	3439
890.13	3515
890.254	3351
890.377	3397
890.501	3283
890.624	3253
890.748	3370
890.871	3256
890.995	3161
891.118	3104
891.241	3260
891.364	3294
891.488	3378
891.611	3241
891.734	3268
891.857	3325
891.98	3310
892.103	3389
892.226	3336
892.349	3233
892.471	3192
892.594	3329
892.717	3336
892.839	3302
892.962	3355
893.085	3435
893.207	3340
893.33	3207
893.452	3260
893.575	3424
893.697	3306
893.819	3530
893.941	3576
894.064	3545
894.186	3348
894.308	3336
894.43	3469
894.552	3564
894.674	3545
894.796	3332
894.918	3355
895.04	3340
895.161	3466
895.283	3439
895.405	3348
895.526	3420
895.648	3454
895.769	3488
895.891	3485
896.012	3542
896.134	3500
896.255	3488
896.376	3439
896.498	3428
896.619	3504
896.74	3424
896.861	3462
896.982	3755
897.103	3945
897.224	3599
897.345	3584
897.466	3466
897.587	3526
897.708	3675
897.828	3633
897.949	3500
898.07	3382
898.19	3458
898.311	3675
898.431	3462
898.552	3564
898.672	3660
898.792	3637
898.913	3561
899.033	3416
899.153	3332
899.273	3256
899.393	3313
899.513	3382
899.633	3409
899.753	3393
899.873	3355
899.993	3378
900.113	3431
900.232	3450
900.352	3401
900.472	3321
900.591	3241
900.711	3325
900.83	3302
900.95	3477
901.069	3595
901.189	3412
901.308	3230
901.427	3211
901.546	3233
901.665	3348
901.784	3409
901.904	3279
902.023	3226
902.141	3066
902.26	3039
902.379	3211
902.498	3157
902.617	3097
902.735	3241
902.854	3291
902.973	3245
903.091	3104
903.21	3097
903.328	3188
903.446	3138
903.565	3157
903.683	3275
903.801	3173
903.919	3336
904.038	3351
904.156	3211
904.274	3336
904.392	3317
904.51	3359
904.627	3386
904.745	3504
904.863	3534
904.981	3355
905.098	3275
905.216	3272
905.334	3332
905.451	3405
905.569	3355
905.686	3450
905.803	3488
905.921	3348
906.038	3488
906.155	3420
906.272	3340
906.389	3397
906.506	3249
906.623	3321
906.74	3332
906.857	3195
906.974	3329
907.091	3523
907.208	3595
907.324	3511
907.441	3454
907.557	3275
907.674	3325
907.79	3245
907.907	3310
908.023	3447
908.139	3454
908.256	3359
908.372	3454
908.488	3397
908.604	3306
908.72	3237
908.836	3340
908.952	3332
909.068	3386
909.184	3515
909.3	3389
909.415	3561
909.531	3500
909.647	3317
909.762	3348
909.878	3336
909.993	3397
910.108	3382
910.224	3420
910.339	3443
910.454	3329
910.57	3351
910.685	3287
910.8	3618
910.915	3587
911.03	3450
911.145	3306
911.259	3325
911.374	3370
911.489	3272
911.604	3283
911.718	3138
911.833	3222
911.947	3097
912.062	3047
912.176	3249
912.291	3241
912.405	3230
912.519	3462
912.633	3488
912.748	3351
912.862	3351
912.976	3218
913.09	3108
913.204	3161
913.318	3256
913.431	3363
913.545	3389
913.659	3439
913.772	3393
913.886	3256
914	3253
914.113	3405
914.226	3485
914.34	3416
914.453	3218
914.566	3469
914.68	3332
914.793	3344
914.906	3199
915.019	3142
915.132	3104
915.245	3237
915.358	3272
915.47	3291
915.583	3310
915.696	3359
915.809	3443
915.921	3443
916.034	3298
916.146	3302
916.259	3313
916.371	3439
916.483	3439
916.595	3306
916.708	3363
916.82	3344
916.932	3393
917.044	3393
917.156	3374
917.268	3302
917.38	3367
917.491	3329
917.603	3370
917.715	3466
917.826	3469
917.938	3435
918.049	3340
918.161	3477
918.272	3587
918.384	3610
918.495	3557
918.606	3397
918.717	3310
918.828	3389
918.939	3469
919.05	3382
919.161	3431
919.272	3214
919.383	3363
919.494	3511
919.604	3698
919.715	3515
919.826	3450
919.936	3507
920.047	3614
920.157	3606
920.267	3789
920.378	3675
920.488	3614
920.598	3838
920.708	4036
920.818	3865
920.928	3865
921.038	4101
921.148	4044
921.258	3740
921.368	3694
921.477	3641
921.587	3523
921.697	3492
921.806	3682
921.916	3545
922.025	3412
922.134	3386
922.244	3382
922.353	3481
922.462	3298
922.571	3313
922.68	3142
922.789	3108
922.898	3176
923.007	3138
923.116	3256
923.224	3218
923.333	3264
923.442	3150
923.55	3169
923.659	3180
923.767	3241
923.876	3165
923.984	3275
924.092	3154
924.201	3237
924.309	3283
924.417	3268
924.525	3237
924.633	3283
924.741	4227
924.849	3055
924.956	3310
925.064	3146
925.172	3089
925.279	3127
925.387	3218
925.494	3241
925.602	3363
925.709	3344
925.816	3249
925.924	3264
926.031	3435
926.138	3351
926.245	3435
926.352	3272
926.459	3500
926.566	3526
926.673	3336
926.779	3279
926.886	3310
926.993	3188
927.099	3169
927.206	3131
927.312	3184
927.419	3283
927.525	3233
927.631	3325
927.737	3188
927.843	3199
927.95	3058
928.056	3184
928.162	3256
928.267	3306
928.373	3956
928.479	3370
928.585	3127
928.69	3249
928.796	3313
928.901	3226
929.007	3100
929.112	3253
929.218	3188
929.323	3184
929.428	3173
929.533	3313
929.638	3131
929.743	3192
929.848	3291
929.953	3241
930.058	3230
930.163	3051
930.267	3058
930.372	3214
930.477	3097
930.581	3367
930.685	3184
930.79	3123
930.894	3157
930.998	3123
931.103	3306
931.207	2975
931.311	2963
931.415	2956
931.519	2781
931.623	2876
