Data from test_V78500241_1484.txt Node
Date: Fri Mar 25 16:25:29 CST 2022
User: usil
Spectrometer: V785-0024
Trigger mode: 0
Integration Time (sec): 4.000000E-1
Scans to average: 1
Nonlinearity correction enabled: false
Boxcar width: 0
Storing dark spectrum: false
XAxis mode: Wavelengths
Number of Pixels in Spectrum: 1024
>>>>>Begin Spectral Data<<<<<
801.071	2910
801.214	2895
801.356	2811
801.499	2880
801.641	2918
801.783	2906
801.926	3039
802.068	2956
802.211	2975
802.353	3024
802.496	2933
802.638	2994
802.78	2990
802.923	3104
803.065	2998
803.208	2891
803.35	2880
803.492	2914
803.635	2914
803.777	2727
803.919	2838
804.061	3184
804.204	2929
804.346	2868
804.488	2830
804.63	2975
804.773	2853
804.915	2902
805.057	3062
805.199	2899
805.341	3017
805.483	3039
805.626	2975
805.768	2979
805.91	3093
806.052	3093
806.194	3036
806.336	3211
806.478	2986
806.62	2948
806.762	2982
806.904	3020
807.046	3150
807.188	2941
807.33	2910
807.472	2990
807.614	2902
807.756	2975
807.898	2948
808.04	2883
808.182	2948
808.324	2956
808.465	2899
808.607	2887
808.749	2773
808.891	2880
809.033	2948
809.174	2960
809.316	2853
809.458	2834
809.6	2800
809.741	2796
809.883	2769
810.025	2861
810.166	2872
810.308	2838
810.45	2842
810.591	2773
810.733	2743
810.875	2861
811.016	2766
811.158	2785
811.299	2811
811.441	2963
811.582	2914
811.724	2826
811.865	2826
812.007	2910
812.148	2906
812.29	2819
812.431	2864
812.573	2902
812.714	2956
812.855	3005
812.997	3081
813.138	3097
813.279	3017
813.421	2963
813.562	2960
813.703	2868
813.845	2864
813.986	2762
814.127	2712
814.268	2823
814.41	2823
814.551	2815
814.692	2872
814.833	2804
814.974	2902
815.115	2944
815.256	2864
815.397	2785
815.539	2872
815.68	2781
815.821	2796
815.962	2895
816.103	2929
816.244	2883
816.385	2876
816.526	2975
816.666	2891
816.807	2746
816.948	2880
817.089	2902
817.23	2849
817.371	2792
817.512	2785
817.653	2868
817.793	2849
817.934	2906
818.075	2952
818.216	2982
818.356	3001
818.497	2883
818.638	2792
818.778	2819
818.919	2807
819.06	2781
819.2	2830
819.341	2807
819.481	2834
819.622	2891
819.762	3097
819.903	3047
820.043	2952
820.184	2933
820.324	2937
820.465	3066
820.605	3032
820.746	3017
820.886	2933
821.026	3089
821.167	3146
821.307	3241
821.447	3241
821.588	3260
821.728	3226
821.868	3184
822.008	3070
822.149	3154
822.289	3195
822.429	3112
822.569	3077
822.709	3180
822.849	3066
822.99	3036
823.13	3169
823.27	3222
823.41	3104
823.55	3173
823.69	3138
823.83	3188
823.97	3085
824.11	3013
824.25	3001
824.389	3032
824.529	3097
824.669	3017
824.809	3165
824.949	3226
825.089	3207
825.228	3150
825.368	3009
825.508	2944
825.648	2971
825.787	3005
825.927	2998
826.067	2982
826.206	2944
826.346	3043
826.485	3043
826.625	3097
826.765	3245
826.904	3173
827.044	3005
827.183	2929
827.323	2845
827.462	2994
827.601	2937
827.741	2971
827.88	2899
828.02	2876
828.159	2982
828.298	3005
828.437	3108
828.577	2998
828.716	3260
828.855	3081
828.994	2906
829.134	2902
829.273	2910
829.412	2849
829.551	2834
829.69	2929
829.829	3001
829.968	3112
830.107	3001
830.246	2994
830.385	2906
830.524	2895
830.663	2834
830.802	2712
830.941	2636
831.08	2667
831.219	2750
831.357	2743
831.496	2933
831.635	2697
831.774	2636
831.913	2667
832.051	2530
832.19	2571
832.329	2667
832.467	2556
832.606	2465
832.744	2587
832.883	2625
833.022	2602
833.16	2659
833.299	2708
833.437	2705
833.576	2705
833.714	2697
833.852	2731
833.991	2773
834.129	2807
834.267	2785
834.406	2792
834.544	2864
834.682	2826
834.821	2872
834.959	3066
835.097	2895
835.235	3055
835.373	3013
835.511	3024
835.65	2967
835.788	2952
835.926	2853
836.064	2853
836.202	2830
836.34	3112
836.478	3112
836.615	3036
836.753	3123
836.891	3180
837.029	3161
837.167	3062
837.305	3077
837.443	3058
837.58	2952
837.718	3119
837.856	3077
837.993	3013
838.131	3108
838.269	3085
838.406	3062
838.544	3097
838.681	2887
838.819	2895
838.956	2823
839.094	2823
839.231	2891
839.369	3017
839.506	3359
839.643	3176
839.781	2979
839.918	2899
840.055	3009
840.193	3032
840.33	3047
840.467	3074
840.604	3157
840.742	3389
840.879	3051
841.016	3081
841.153	3100
841.29	3336
841.427	3310
841.564	3279
841.701	3325
841.838	3214
841.975	3165
842.112	3237
842.249	3066
842.385	3043
842.522	3245
842.659	3066
842.796	3074
842.933	3127
843.069	3036
843.206	3043
843.343	3188
843.479	3077
843.616	3146
843.752	2864
843.889	2895
844.025	3066
844.162	2880
844.298	3070
844.435	2918
844.571	2914
844.708	3100
844.844	3199
844.98	3237
845.117	3173
845.253	3028
845.389	3001
845.525	3116
845.661	3074
845.798	3036
845.934	3097
846.07	3043
846.206	3180
846.342	3340
846.478	3207
846.614	3089
846.75	3039
846.886	3001
847.022	3256
847.158	3157
847.294	3199
847.429	3245
847.565	3222
847.701	3447
847.837	3024
847.972	2975
848.108	3150
848.244	3108
848.379	3009
848.515	2895
848.65	2891
848.786	2982
848.921	3047
849.057	3093
849.192	3116
849.328	3104
849.463	3116
849.598	3116
849.734	3009
849.869	2975
850.004	2891
850.14	2929
850.275	2914
850.41	2842
850.545	2906
850.68	2922
850.815	2963
850.95	2971
851.085	3192
851.22	3116
851.355	3039
851.49	2967
851.625	3017
851.76	3001
851.895	2933
852.03	2922
852.165	3043
852.299	3097
852.434	3222
852.569	3135
852.703	3192
852.838	3230
852.973	3321
853.107	3344
853.242	3154
853.376	3100
853.511	2960
853.645	3047
853.78	3233
853.914	3127
854.048	3108
854.183	3070
854.317	3146
854.451	3291
854.585	3119
854.72	3081
854.854	3207
854.988	3032
855.122	3070
855.256	2948
855.39	3142
855.524	3241
855.658	3184
855.792	3192
855.926	3165
856.06	3203
856.194	3253
856.327	3184
856.461	3066
856.595	3077
856.729	3085
856.862	3222
856.996	3180
857.13	3176
857.263	3218
857.397	3283
857.53	3097
857.664	3192
857.797	3253
857.931	3283
858.064	3146
858.197	3214
858.331	3127
858.464	3097
858.597	3017
858.731	3116
858.864	3135
858.997	3081
859.13	3131
859.263	3169
859.396	3184
859.529	3077
859.662	3062
859.795	3020
859.928	3142
860.061	3298
860.194	3233
860.327	3142
860.46	3062
860.592	3237
860.725	3192
860.858	3237
860.99	3108
861.123	3058
861.256	3055
861.388	3150
861.521	3846
861.653	3043
861.786	2979
861.918	3043
862.05	3066
862.183	3055
862.315	3165
862.447	3184
862.58	3081
862.712	2933
862.844	2861
862.976	3024
863.108	2971
863.24	3348
863.372	2868
863.504	2960
863.636	2933
863.768	3036
863.9	2979
864.032	2906
864.164	2922
864.296	3005
864.428	3066
864.559	3081
864.691	3093
864.823	3093
864.954	3047
865.086	3028
865.217	2975
865.349	2929
865.48	2975
865.612	2994
865.743	3108
865.875	2986
866.006	2941
866.137	2998
866.269	2933
866.4	2902
866.531	2933
866.662	2883
866.793	2868
866.924	2906
867.055	2979
867.186	2914
867.317	2868
867.448	2838
867.579	2823
867.71	2842
867.841	2781
867.972	2906
868.103	2914
868.233	2849
868.364	2880
868.495	2910
868.625	3047
868.756	3161
868.886	2982
869.017	3017
869.147	3138
869.278	3123
869.408	3070
869.539	3020
869.669	3089
869.799	3058
869.929	3142
870.06	3108
870.19	3287
870.32	3310
870.45	3283
870.58	3370
870.71	3473
870.84	3466
870.97	3275
871.1	3249
871.23	3469
871.36	3420
871.489	3340
871.619	3405
871.749	3401
871.879	3424
872.008	3473
872.138	3355
872.267	3241
872.397	3138
872.526	3127
872.656	2986
872.785	3097
872.915	3203
873.044	3332
873.173	3218
873.303	3237
873.432	3249
873.561	3199
873.69	3161
873.819	3169
873.948	3192
874.077	3093
874.206	3036
874.335	3089
874.464	3222
874.593	3370
874.722	3199
874.851	3424
874.979	3313
875.108	3302
875.237	3203
875.365	3157
875.494	3169
875.623	3253
875.751	3097
875.88	3123
876.008	3176
876.136	3226
876.265	3389
876.393	3515
876.521	3412
876.65	3374
876.778	3336
876.906	3253
877.034	3146
877.162	3264
877.29	3169
877.418	3275
877.546	3218
877.674	3207
877.802	3241
877.93	3233
878.058	3176
878.185	3138
878.313	3207
878.441	3203
878.568	3077
878.696	3154
878.824	3249
878.951	3298
879.079	3439
879.206	3618
879.333	3405
879.461	3363
879.588	3363
879.715	3504
879.842	3584
879.97	3363
880.097	3146
880.224	3100
880.351	3173
880.478	3226
880.605	3184
880.732	3195
880.859	3504
880.986	3317
881.112	3332
881.239	3195
881.366	3077
881.493	3070
881.619	3017
881.746	3055
881.872	3093
881.999	3100
882.125	3146
882.252	3260
882.378	3310
882.505	3454
882.631	3272
882.757	3176
882.883	3184
883.01	3226
883.136	3165
883.262	3123
883.388	3154
883.514	3264
883.64	3393
883.766	3310
883.892	3154
884.018	3218
884.143	3405
884.269	3515
884.395	3230
884.52	3131
884.646	3173
884.772	3131
884.897	3066
885.023	3226
885.148	3298
885.274	3435
885.399	3325
885.524	3268
885.65	3264
885.775	3329
885.9	3260
886.025	3435
886.15	3367
886.275	3313
886.4	3253
886.525	3294
886.65	3298
886.775	3260
886.9	3485
887.025	3622
887.149	3420
887.274	3253
887.399	3173
887.523	3180
887.648	3150
887.773	3188
887.897	3363
888.021	3382
888.146	3329
888.27	3409
888.395	3534
888.519	3405
888.643	3439
888.767	3416
888.891	3291
889.015	3214
889.139	3287
889.263	3237
889.387	3416
889.511	3515
889.635	3431
889.759	3291
889.883	3313
890.006	3386
890.13	3477
890.254	3264
890.377	3332
890.501	3173
890.624	3173
890.748	3275
890.871	3180
890.995	3131
891.118	3043
891.241	3207
891.364	3211
891.488	3317
891.611	3157
891.734	3222
891.857	3260
891.98	3245
892.103	3351
892.226	3306
892.349	3260
892.471	3127
892.594	3249
892.717	3283
892.839	3237
892.962	3283
893.085	3332
893.207	3298
893.33	3112
893.452	3192
893.575	3325
893.697	3233
893.819	3439
893.941	3492
894.064	3443
894.186	3264
894.308	3230
894.43	3420
894.552	3519
894.674	3462
894.796	3245
894.918	3291
895.04	3294
895.161	3412
895.283	3386
895.405	3291
895.526	3332
895.648	3416
895.769	3416
895.891	3416
896.012	3458
896.134	3469
896.255	3439
896.376	3355
896.498	3355
896.619	3439
896.74	3397
896.861	3431
896.982	3713
897.103	3838
897.224	3545
897.345	3511
897.466	3420
897.587	3496
897.708	3606
897.828	3545
897.949	3447
898.07	3363
898.19	3428
898.311	3557
898.431	3462
898.552	3523
898.672	3603
898.792	3542
898.913	3534
899.033	3428
899.153	3291
899.273	3226
899.393	3291
899.513	3359
899.633	3313
899.753	3329
899.873	3310
899.993	3355
900.113	3340
900.232	3367
900.352	3302
900.472	3302
900.591	3203
900.711	3329
900.83	3230
900.95	3439
901.069	3492
901.189	3348
901.308	3184
901.427	3093
901.546	3195
901.665	3253
901.784	3302
901.904	3176
902.023	3176
902.141	3055
902.26	2990
902.379	3112
902.498	3077
902.617	3077
902.735	3222
902.854	3245
902.973	3207
903.091	3020
903.21	3085
903.328	3138
903.446	3093
903.565	3077
903.683	3211
903.801	3085
903.919	3237
904.038	3272
904.156	3150
904.274	3249
904.392	3249
904.51	3294
904.627	3382
904.745	3443
904.863	3492
904.981	3302
905.098	3184
905.216	3207
905.334	3325
905.451	3268
905.569	3336
905.686	3431
905.803	3424
905.921	3272
906.038	3401
906.155	3367
906.272	3260
906.389	3310
906.506	3214
906.623	3233
906.74	3291
906.857	3184
906.974	3241
907.091	3466
907.208	3564
907.324	3488
907.441	3344
907.557	3222
907.674	3230
907.79	3226
907.907	3283
908.023	3374
908.139	3317
908.256	3317
908.372	3370
908.488	3272
908.604	3272
908.72	3207
908.836	3298
908.952	3306
909.068	3348
909.184	3507
909.3	3393
909.415	3477
909.531	3435
909.647	3222
909.762	3287
909.878	3241
909.993	3382
910.108	3374
910.224	3344
910.339	3370
910.454	3344
910.57	3310
910.685	3253
910.8	3576
910.915	3526
911.03	3454
911.145	3264
911.259	3291
911.374	3313
911.489	3230
911.604	3233
911.718	3097
911.833	3154
911.947	3005
912.062	3009
912.176	3165
912.291	3195
912.405	3241
912.519	3420
912.633	3450
912.748	3317
912.862	3275
912.976	3218
913.09	3051
913.204	3131
913.318	3207
913.431	3348
913.545	3302
913.659	3378
913.772	3336
913.886	3180
914	3203
914.113	3336
914.226	3386
914.34	3336
914.453	3226
914.566	3443
914.68	3291
914.793	3298
914.906	3138
915.019	3104
915.132	3070
915.245	3188
915.358	3184
915.47	3241
915.583	3291
915.696	3313
915.809	3393
915.921	3443
916.034	3275
916.146	3260
916.259	3192
916.371	3355
916.483	3359
916.595	3306
916.708	3351
916.82	3336
916.932	3363
917.044	3363
917.156	3355
917.268	3233
917.38	3302
917.491	3298
917.603	3336
917.715	3462
917.826	3473
917.938	3409
918.049	3294
918.161	3412
918.272	3530
918.384	3576
918.495	3469
918.606	3317
918.717	3294
918.828	3370
918.939	3409
919.05	3272
919.161	3336
919.272	3161
919.383	3306
919.494	3492
919.604	3667
919.715	3477
919.826	3401
919.936	3454
920.047	3584
920.157	3557
920.267	3766
920.378	3568
920.488	3599
920.598	3770
920.708	3934
920.818	3850
920.928	3850
921.038	4006
921.148	4013
921.258	3705
921.368	3610
921.477	3584
921.587	3523
921.697	3488
921.806	3641
921.916	3469
922.025	3389
922.134	3363
922.244	3317
922.353	3412
922.462	3287
922.571	3268
922.68	3131
922.789	3043
922.898	3146
923.007	3116
923.116	3184
923.224	3203
923.333	3203
923.442	3062
923.55	3116
923.659	3119
923.767	3214
923.876	3097
923.984	3233
924.092	3077
924.201	3226
924.309	3199
924.417	3199
924.525	3176
924.633	3233
924.741	4185
924.849	3032
924.956	3283
925.064	3138
925.172	3009
925.279	3089
925.387	3230
925.494	3180
925.602	3378
925.709	3367
925.816	3176
925.924	3260
926.031	3386
926.138	3313
926.245	3329
926.352	3214
926.459	3431
926.566	3458
926.673	3310
926.779	3245
926.886	3237
926.993	3176
927.099	3119
927.206	3112
927.312	3119
927.419	3207
927.525	3211
927.631	3237
927.737	3112
927.843	3135
927.95	3013
928.056	3173
928.162	3203
928.267	3249
928.373	3724
928.479	3344
928.585	3070
928.69	3222
928.796	3272
928.901	3188
929.007	3009
929.112	3188
929.218	3195
929.323	3138
929.428	3184
929.533	3336
929.638	3108
929.743	3173
929.848	3287
929.953	3222
930.058	3154
930.163	3020
930.267	3017
930.372	3230
930.477	3043
930.581	3348
930.685	3192
930.79	3085
930.894	3138
930.998	3093
931.103	3287
931.207	2933
931.311	2914
931.415	2895
931.519	2773
931.623	2823
