Data from test_V78500241_1629.txt Node
Date: Fri Mar 25 16:26:29 CST 2022
User: usil
Spectrometer: V785-0024
Trigger mode: 0
Integration Time (sec): 4.000000E-1
Scans to average: 1
Nonlinearity correction enabled: false
Boxcar width: 0
Storing dark spectrum: false
XAxis mode: Wavelengths
Number of Pixels in Spectrum: 1024
>>>>>Begin Spectral Data<<<<<
801.071	2910
801.214	2963
801.356	2834
801.499	2891
801.641	2864
801.783	2910
801.926	3100
802.068	2982
802.211	3036
802.353	3039
802.496	2960
802.638	2998
802.78	3051
802.923	3077
803.065	3005
803.208	2887
803.35	2902
803.492	2956
803.635	2918
803.777	2792
803.919	2891
804.061	3218
804.204	2948
804.346	2941
804.488	2899
804.63	2990
804.773	2895
804.915	2922
805.057	3085
805.199	2914
805.341	3009
805.483	3074
805.626	3005
805.768	2937
805.91	3116
806.052	3104
806.194	3039
806.336	3253
806.478	3017
806.62	2960
806.762	2963
806.904	3051
807.046	3138
807.188	2986
807.33	2906
807.472	2952
807.614	2864
807.756	2975
807.898	2975
808.04	2910
808.182	2963
808.324	2963
808.465	2872
808.607	2872
808.749	2811
808.891	2823
809.033	2979
809.174	2948
809.316	2872
809.458	2895
809.6	2769
809.741	2773
809.883	2762
810.025	2800
810.166	2880
810.308	2823
810.45	2842
810.591	2777
810.733	2807
810.875	2792
811.016	2804
811.158	2762
811.299	2811
811.441	2922
811.582	2887
811.724	2823
811.865	2819
812.007	2899
812.148	2887
812.29	2830
812.431	2857
812.573	2937
812.714	2948
812.855	3055
812.997	3024
813.138	3123
813.279	3005
813.421	3005
813.562	2975
813.703	2899
813.845	2899
813.986	2762
814.127	2716
814.268	2842
814.41	2834
814.551	2819
814.692	2868
814.833	2777
814.974	2876
815.115	2925
815.256	2819
815.397	2788
815.539	2838
815.68	2777
815.821	2804
815.962	2956
816.103	2941
816.244	2876
816.385	2826
816.526	2975
816.666	2914
816.807	2731
816.948	2891
817.089	2895
817.23	2883
817.371	2785
817.512	2815
817.653	2819
817.793	2834
817.934	2887
818.075	2971
818.216	2998
818.356	3036
818.497	2857
818.638	2796
818.778	2807
818.919	2800
819.06	2766
819.2	2887
819.341	2807
819.481	2781
819.622	2918
819.762	3116
819.903	3039
820.043	2902
820.184	2899
820.324	2891
820.465	3032
820.605	3017
820.746	2960
820.886	2948
821.026	3077
821.167	3127
821.307	3222
821.447	3237
821.588	3256
821.728	3203
821.868	3230
822.008	3051
822.149	3203
822.289	3211
822.429	3070
822.569	3074
822.709	3157
822.849	3013
822.99	3081
823.13	3173
823.27	3218
823.41	3184
823.55	3154
823.69	3161
823.83	3214
823.97	3074
824.11	2990
824.25	2971
824.389	3051
824.529	3138
824.669	3066
824.809	3184
824.949	3264
825.089	3241
825.228	3173
825.368	3013
825.508	2922
825.648	2960
825.787	3036
825.927	3032
826.067	2994
826.206	2971
826.346	3039
826.485	3058
826.625	3093
826.765	3226
826.904	3214
827.044	2990
827.183	2933
827.323	2864
827.462	2952
827.601	2918
827.741	2906
827.88	2960
828.02	2838
828.159	2952
828.298	3055
828.437	3070
828.577	3005
828.716	3218
828.855	3058
828.994	2918
829.134	2868
829.273	2929
829.412	2845
829.551	2845
829.69	2925
829.829	2971
829.968	3150
830.107	3013
830.246	3032
830.385	2952
830.524	2857
830.663	2800
830.802	2743
830.941	2636
831.08	2674
831.219	2746
831.357	2746
831.496	2925
831.635	2678
831.774	2632
831.913	2644
832.051	2564
832.19	2549
832.329	2701
832.467	2507
832.606	2488
832.744	2594
832.883	2579
833.022	2590
833.16	2682
833.299	2697
833.437	2686
833.576	2727
833.714	2731
833.852	2712
833.991	2766
834.129	2842
834.267	2830
834.406	2754
834.544	2853
834.682	2849
834.821	2891
834.959	3039
835.097	2902
835.235	3051
835.373	3017
835.511	2998
835.65	2967
835.788	2944
835.926	2823
836.064	2807
836.202	2830
836.34	3100
836.478	3184
836.615	3039
836.753	3116
836.891	3207
837.029	3135
837.167	3116
837.305	3032
837.443	3043
837.58	2986
837.718	3123
837.856	3066
837.993	3077
838.131	3138
838.269	3116
838.406	3119
838.544	3108
838.681	2933
838.819	2906
838.956	2796
839.094	2830
839.231	2918
839.369	3001
839.506	3374
839.643	3214
839.781	2975
839.918	2963
840.055	3058
840.193	3093
840.33	3085
840.467	3093
840.604	3154
840.742	3382
840.879	3055
841.016	3036
841.153	3131
841.29	3306
841.427	3310
841.564	3287
841.701	3313
841.838	3203
841.975	3146
842.112	3218
842.249	3089
842.385	3047
842.522	3245
842.659	3089
842.796	3062
842.933	3097
843.069	3047
843.206	3028
843.343	3188
843.479	3135
843.616	3135
843.752	2895
843.889	2857
844.025	3104
844.162	2853
844.298	3070
844.435	2918
844.571	2902
844.708	3100
844.844	3184
844.98	3253
845.117	3203
845.253	3013
845.389	3017
845.525	3077
845.661	3077
845.798	3024
845.934	3104
846.07	3070
846.206	3233
846.342	3336
846.478	3253
846.614	3081
846.75	3085
846.886	3013
847.022	3218
847.158	3119
847.294	3165
847.429	3218
847.565	3176
847.701	3492
847.837	3043
847.972	2971
848.108	3157
848.244	3157
848.379	2967
848.515	2933
848.65	2914
848.786	2986
848.921	2990
849.057	3123
849.192	3131
849.328	3066
849.463	3135
849.598	3081
849.734	3062
849.869	2948
850.004	2956
850.14	2986
850.275	2906
850.41	2830
850.545	2902
850.68	2929
850.815	2960
850.95	2979
851.085	3207
851.22	3066
851.355	3009
851.49	2986
851.625	3001
851.76	2979
851.895	2937
852.03	2899
852.165	3051
852.299	3104
852.434	3169
852.569	3135
852.703	3176
852.838	3264
852.973	3306
853.107	3321
853.242	3116
853.376	3104
853.511	2963
853.645	3089
853.78	3211
853.914	3146
854.048	3093
854.183	3081
854.317	3119
854.451	3272
854.585	3100
854.72	3108
854.854	3222
854.988	3077
855.122	3089
855.256	2948
855.39	3119
855.524	3233
855.658	3184
855.792	3154
855.926	3195
856.06	3207
856.194	3237
856.327	3100
856.461	3097
856.595	3100
856.729	3058
856.862	3199
856.996	3180
857.13	3199
857.263	3211
857.397	3237
857.53	3127
857.664	3184
857.797	3230
857.931	3233
858.064	3157
858.197	3180
858.331	3123
858.464	3093
858.597	2994
858.731	3138
858.864	3142
858.997	3104
859.13	3161
859.263	3146
859.396	3192
859.529	3089
859.662	3081
859.795	3039
859.928	3146
860.061	3253
860.194	3291
860.327	3116
860.46	3077
860.592	3230
860.725	3218
860.858	3260
860.99	3085
861.123	3024
861.256	3028
861.388	3123
861.521	3846
861.653	3020
861.786	2967
861.918	2982
862.05	3024
862.183	3077
862.315	3165
862.447	3218
862.58	3131
862.712	2952
862.844	2895
862.976	3036
863.108	2990
863.24	3298
863.372	2880
863.504	2952
863.636	2925
863.768	3017
863.9	2979
864.032	2891
864.164	2937
864.296	3028
864.428	3032
864.559	3131
864.691	3077
864.823	3070
864.954	3047
865.086	3062
865.217	2975
865.349	2941
865.48	2971
865.612	3001
865.743	3146
865.875	2979
866.006	2937
866.137	3005
866.269	2948
866.4	2941
866.531	2902
866.662	2876
866.793	2883
866.924	2922
867.055	2944
867.186	2891
867.317	2868
867.448	2815
867.579	2834
867.71	2861
867.841	2792
867.972	2857
868.103	2918
868.233	2872
868.364	2864
868.495	2906
868.625	3085
868.756	3131
868.886	2975
869.017	3028
869.147	3154
869.278	3150
869.408	3089
869.539	3039
869.669	3108
869.799	3024
869.929	3074
870.06	3066
870.19	3344
870.32	3256
870.45	3294
870.58	3310
870.71	3473
870.84	3454
870.97	3272
871.1	3207
871.23	3526
871.36	3481
871.489	3351
871.619	3420
871.749	3405
871.879	3447
872.008	3450
872.138	3336
872.267	3302
872.397	3135
872.526	3085
872.656	2998
872.785	3100
872.915	3237
873.044	3310
873.173	3268
873.303	3214
873.432	3180
873.561	3203
873.69	3142
873.819	3127
873.948	3249
874.077	3104
874.206	3047
874.335	3077
874.464	3199
874.593	3329
874.722	3218
874.851	3367
874.979	3313
875.108	3306
875.237	3199
875.365	3146
875.494	3184
875.623	3264
875.751	3116
875.88	3116
876.008	3203
876.136	3249
876.265	3359
876.393	3500
876.521	3428
876.65	3389
876.778	3298
876.906	3256
877.034	3207
877.162	3211
877.29	3169
877.418	3260
877.546	3195
877.674	3230
877.802	3222
877.93	3233
878.058	3180
878.185	3108
878.313	3192
878.441	3199
878.568	3051
878.696	3142
878.824	3245
878.951	3317
879.079	3409
879.206	3587
879.333	3450
879.461	3287
879.588	3332
879.715	3462
879.842	3603
879.97	3351
880.097	3180
880.224	3116
880.351	3154
880.478	3218
880.605	3218
880.732	3173
880.859	3485
880.986	3313
881.112	3340
881.239	3230
881.366	3077
881.493	3001
881.619	3036
881.746	3093
881.872	3093
881.999	3070
882.125	3123
882.252	3226
882.378	3279
882.505	3401
882.631	3302
882.757	3169
882.883	3249
883.01	3211
883.136	3157
883.262	3081
883.388	3108
883.514	3287
883.64	3351
883.766	3279
883.892	3192
884.018	3218
884.143	3416
884.269	3511
884.395	3192
884.52	3150
884.646	3161
884.772	3135
884.897	3097
885.023	3214
885.148	3359
885.274	3378
885.399	3336
885.524	3275
885.65	3253
885.775	3287
885.9	3272
886.025	3405
886.15	3329
886.275	3302
886.4	3249
886.525	3291
886.65	3245
886.775	3298
886.9	3519
887.025	3584
887.149	3382
887.274	3260
887.399	3195
887.523	3188
887.648	3188
887.773	3188
887.897	3393
888.021	3397
888.146	3268
888.27	3443
888.395	3511
888.519	3435
888.643	3447
888.767	3458
888.891	3359
889.015	3233
889.139	3332
889.263	3237
889.387	3374
889.511	3504
889.635	3439
889.759	3298
889.883	3260
890.006	3359
890.13	3488
890.254	3279
890.377	3351
890.501	3173
890.624	3188
890.748	3325
890.871	3199
890.995	3108
891.118	3070
891.241	3180
891.364	3241
891.488	3329
891.611	3176
891.734	3192
891.857	3272
891.98	3214
892.103	3332
892.226	3283
892.349	3188
892.471	3119
892.594	3180
892.717	3291
892.839	3256
892.962	3272
893.085	3359
893.207	3287
893.33	3150
893.452	3184
893.575	3359
893.697	3230
893.819	3450
893.941	3534
894.064	3424
894.186	3253
894.308	3256
894.43	3477
894.552	3534
894.674	3481
894.796	3302
894.918	3310
895.04	3260
895.161	3454
895.283	3359
895.405	3340
895.526	3374
895.648	3439
895.769	3431
895.891	3447
896.012	3466
896.134	3511
896.255	3428
896.376	3454
896.498	3348
896.619	3447
896.74	3317
896.861	3409
896.982	3694
897.103	3854
897.224	3576
897.345	3511
897.466	3458
897.587	3435
897.708	3641
897.828	3553
897.949	3431
898.07	3313
898.19	3416
898.311	3606
898.431	3435
898.552	3481
898.672	3595
898.792	3568
898.913	3492
899.033	3389
899.153	3291
899.273	3275
899.393	3287
899.513	3321
899.633	3306
899.753	3321
899.873	3317
899.993	3409
900.113	3321
900.232	3435
900.352	3351
900.472	3287
900.591	3233
900.711	3283
900.83	3218
900.95	3397
901.069	3564
901.189	3370
901.308	3169
901.427	3112
901.546	3188
901.665	3321
901.784	3321
901.904	3188
902.023	3146
902.141	3051
902.26	2975
902.379	3138
902.498	3089
902.617	3020
902.735	3184
902.854	3249
902.973	3184
903.091	3013
903.21	3074
903.328	3116
903.446	3097
903.565	3100
903.683	3188
903.801	3138
903.919	3233
904.038	3275
904.156	3173
904.274	3272
904.392	3241
904.51	3260
904.627	3302
904.745	3412
904.863	3450
904.981	3256
905.098	3157
905.216	3256
905.334	3291
905.451	3287
905.569	3275
905.686	3424
905.803	3435
905.921	3306
906.038	3450
906.155	3351
906.272	3275
906.389	3355
906.506	3222
906.623	3260
906.74	3260
906.857	3176
906.974	3253
907.091	3439
907.208	3538
907.324	3488
907.441	3397
907.557	3233
907.674	3218
907.79	3207
907.907	3268
908.023	3355
908.139	3359
908.256	3351
908.372	3401
908.488	3329
908.604	3230
908.72	3287
908.836	3279
908.952	3317
909.068	3344
909.184	3454
909.3	3386
909.415	3504
909.531	3447
909.647	3302
909.762	3294
909.878	3256
909.993	3382
910.108	3329
910.224	3321
910.339	3416
910.454	3291
910.57	3291
910.685	3222
910.8	3584
910.915	3523
911.03	3393
911.145	3249
911.259	3253
911.374	3317
911.489	3218
911.604	3176
911.718	3161
911.833	3180
911.947	3070
912.062	3039
912.176	3138
912.291	3195
912.405	3241
912.519	3428
912.633	3454
912.748	3332
912.862	3287
912.976	3176
913.09	3074
913.204	3108
913.318	3233
913.431	3359
913.545	3298
913.659	3409
913.772	3313
913.886	3184
914	3180
914.113	3386
914.226	3412
914.34	3359
914.453	3180
914.566	3439
914.68	3272
914.793	3332
914.906	3123
915.019	3108
915.132	3043
915.245	3203
915.358	3214
915.47	3211
915.583	3272
915.696	3313
915.809	3409
915.921	3382
916.034	3279
916.146	3291
916.259	3226
916.371	3359
916.483	3325
916.595	3268
916.708	3310
916.82	3336
916.932	3317
917.044	3340
917.156	3302
917.268	3203
917.38	3310
917.491	3332
917.603	3321
917.715	3454
917.826	3439
917.938	3424
918.049	3283
918.161	3359
918.272	3534
918.384	3599
918.495	3515
918.606	3329
918.717	3272
918.828	3386
918.939	3405
919.05	3268
919.161	3355
919.272	3176
919.383	3279
919.494	3519
919.604	3694
919.715	3462
919.826	3389
919.936	3458
920.047	3587
920.157	3538
920.267	3774
920.378	3561
920.488	3572
920.598	3781
920.708	3964
920.818	3816
920.928	3812
921.038	4006
921.148	3998
921.258	3713
921.368	3606
921.477	3614
921.587	3530
921.697	3462
921.806	3644
921.916	3523
922.025	3325
922.134	3393
922.244	3287
922.353	3393
922.462	3279
922.571	3203
922.68	3131
922.789	3097
922.898	3119
923.007	3112
923.116	3214
923.224	3180
923.333	3169
923.442	3123
923.55	3085
923.659	3138
923.767	3226
923.876	3108
923.984	3218
924.092	3093
924.201	3165
924.309	3241
924.417	3283
924.525	3192
924.633	3214
924.741	4204
924.849	3051
924.956	3283
925.064	3112
925.172	3047
925.279	3100
925.387	3184
925.494	3218
925.602	3370
925.709	3355
925.816	3188
925.924	3302
926.031	3340
926.138	3245
926.245	3367
926.352	3230
926.459	3405
926.566	3443
926.673	3298
926.779	3241
926.886	3256
926.993	3142
927.099	3127
927.206	3097
927.312	3135
927.419	3233
927.525	3203
927.631	3287
927.737	3135
927.843	3146
927.95	3024
928.056	3108
928.162	3150
928.267	3233
928.373	3869
928.479	3294
928.585	3070
928.69	3180
928.796	3287
928.901	3203
929.007	3043
929.112	3245
929.218	3173
929.323	3112
929.428	3154
929.533	3302
929.638	3138
929.743	3138
929.848	3298
929.953	3199
930.058	3131
930.163	2994
930.267	3051
930.372	3192
930.477	3039
930.581	3332
930.685	3188
930.79	3055
930.894	3097
930.998	3089
931.103	3306
931.207	2963
931.311	2902
931.415	2880
931.519	2796
931.623	2823
