Data from test_V78500241_134.txt Node
Date: Fri Mar 25 16:16:07 CST 2022
User: usil
Spectrometer: V785-0024
Trigger mode: 0
Integration Time (sec): 4.000000E-1
Scans to average: 1
Nonlinearity correction enabled: false
Boxcar width: 0
Storing dark spectrum: false
XAxis mode: Wavelengths
Number of Pixels in Spectrum: 1024
>>>>>Begin Spectral Data<<<<<
801.071	2925
801.214	3013
801.356	2918
801.499	2891
801.641	2918
801.783	2975
801.926	3062
802.068	3013
802.211	3024
802.353	3036
802.496	2998
802.638	3055
802.78	3074
802.923	3146
803.065	3032
803.208	2910
803.35	2929
803.492	2960
803.635	2963
803.777	2834
803.919	2906
804.061	3222
804.204	3028
804.346	2963
804.488	2910
804.63	3020
804.773	2910
804.915	2929
805.057	3131
805.199	2986
805.341	3001
805.483	3085
805.626	3009
805.768	2998
805.91	3093
806.052	3146
806.194	3055
806.336	3222
806.478	3070
806.62	3005
806.762	3024
806.904	3135
807.046	3214
807.188	3005
807.33	2986
807.472	3013
807.614	2956
807.756	3032
807.898	2952
808.04	2929
808.182	3066
808.324	3024
808.465	2925
808.607	2910
808.749	2804
808.891	2880
809.033	3020
809.174	3005
809.316	2963
809.458	2895
809.6	2796
809.741	2777
809.883	2769
810.025	2853
810.166	2868
810.308	2902
810.45	2883
810.591	2834
810.733	2834
810.875	2868
811.016	2800
811.158	2823
811.299	2834
811.441	2948
811.582	2971
811.724	2861
811.865	2872
812.007	2941
812.148	2864
812.29	2887
812.431	2918
812.573	2944
812.714	3013
812.855	3058
812.997	3097
813.138	3165
813.279	3047
813.421	3009
813.562	2986
813.703	2895
813.845	2918
813.986	2830
814.127	2785
814.268	2853
814.41	2849
814.551	2842
814.692	2861
814.833	2830
814.974	2918
815.115	3017
815.256	2883
815.397	2842
815.539	2895
815.68	2788
815.821	2834
815.962	2998
816.103	2963
816.244	2880
816.385	2891
816.526	3013
816.666	2979
816.807	2758
816.948	2948
817.089	2937
817.23	2902
817.371	2838
817.512	2800
817.653	2895
817.793	2861
817.934	2914
818.075	2963
818.216	3017
818.356	3081
818.497	2948
818.638	2785
818.778	2864
818.919	2807
819.06	2777
819.2	2914
819.341	2849
819.481	2853
819.622	2990
819.762	3131
819.903	3097
820.043	2952
820.184	2937
820.324	2910
820.465	3028
820.605	3009
820.746	3055
820.886	2971
821.026	3131
821.167	3165
821.307	3313
821.447	3332
821.588	3275
821.728	3233
821.868	3256
822.008	3131
822.149	3218
822.289	3233
822.429	3135
822.569	3142
822.709	3256
822.849	3081
822.99	3119
823.13	3169
823.27	3268
823.41	3157
823.55	3180
823.69	3207
823.83	3199
823.97	3108
824.11	3043
824.25	3013
824.389	3127
824.529	3165
824.669	3097
824.809	3298
824.949	3298
825.089	3256
825.228	3237
825.368	3036
825.508	3013
825.648	3017
825.787	3020
825.927	3066
826.067	2998
826.206	3001
826.346	3093
826.485	3089
826.625	3142
826.765	3283
826.904	3207
827.044	3043
827.183	2975
827.323	2922
827.462	3039
827.601	2887
827.741	2944
827.88	2986
828.02	2861
828.159	3020
828.298	3093
828.437	3116
828.577	3066
828.716	3291
828.855	3104
828.994	2914
829.134	2941
829.273	2918
829.412	2906
829.551	2872
829.69	2922
829.829	3043
829.968	3138
830.107	3055
830.246	3070
830.385	2967
830.524	2887
830.663	2819
830.802	2781
830.941	2670
831.08	2670
831.219	2781
831.357	2781
831.496	2971
831.635	2731
831.774	2697
831.913	2686
832.051	2575
832.19	2602
832.329	2701
832.467	2560
832.606	2533
832.744	2579
832.883	2621
833.022	2610
833.16	2663
833.299	2762
833.437	2697
833.576	2766
833.714	2739
833.852	2766
833.991	2785
834.129	2838
834.267	2883
834.406	2819
834.544	2902
834.682	2861
834.821	2918
834.959	3074
835.097	2941
835.235	3097
835.373	3005
835.511	3017
835.65	2994
835.788	2982
835.926	2838
836.064	2834
836.202	2891
836.34	3146
836.478	3173
836.615	3051
836.753	3142
836.891	3241
837.029	3165
837.167	3116
837.305	3131
837.443	3020
837.58	2979
837.718	3184
837.856	3093
837.993	3062
838.131	3138
838.269	3150
838.406	3123
838.544	3112
838.681	2986
838.819	2967
838.956	2853
839.094	2838
839.231	2967
839.369	3032
839.506	3405
839.643	3245
839.781	2994
839.918	2990
840.055	3100
840.193	3058
840.33	3058
840.467	3119
840.604	3180
840.742	3428
840.879	3077
841.016	3062
841.153	3138
841.29	3359
841.427	3325
841.564	3279
841.701	3287
841.838	3264
841.975	3180
842.112	3253
842.249	3100
842.385	3104
842.522	3283
842.659	3104
842.796	3131
842.933	3104
843.069	3062
843.206	3047
843.343	3195
843.479	3116
843.616	3188
843.752	2925
843.889	2922
844.025	3150
844.162	2883
844.298	3097
844.435	2975
844.571	2918
844.708	3100
844.844	3245
844.98	3268
845.117	3203
845.253	3093
845.389	3032
845.525	3142
845.661	3138
845.798	3047
845.934	3165
846.07	3043
846.206	3245
846.342	3378
846.478	3256
846.614	3146
846.75	3127
846.886	3017
847.022	3226
847.158	3146
847.294	3253
847.429	3272
847.565	3233
847.701	3511
847.837	3062
847.972	3043
848.108	3180
848.244	3192
848.379	3036
848.515	2956
848.65	2944
848.786	2979
848.921	3047
849.057	3161
849.192	3131
849.328	3127
849.463	3116
849.598	3055
849.734	3058
849.869	3024
850.004	2948
850.14	2982
850.275	2922
850.41	2842
850.545	2914
850.68	2948
850.815	2979
850.95	3005
851.085	3249
851.22	3112
851.355	3066
851.49	3013
851.625	3043
851.76	3024
851.895	2944
852.03	2933
852.165	3070
852.299	3150
852.434	3207
852.569	3199
852.703	3218
852.838	3272
852.973	3359
853.107	3374
853.242	3192
853.376	3074
853.511	2986
853.645	3043
853.78	3283
853.914	3165
854.048	3127
854.183	3116
854.317	3135
854.451	3332
854.585	3146
854.72	3051
854.854	3249
854.988	3085
855.122	3116
855.256	3001
855.39	3157
855.524	3226
855.658	3203
855.792	3199
855.926	3218
856.06	3241
856.194	3279
856.327	3116
856.461	3085
856.595	3112
856.729	3135
856.862	3211
856.996	3207
857.13	3218
857.263	3268
857.397	3283
857.53	3108
857.664	3230
857.797	3264
857.931	3287
858.064	3184
858.197	3256
858.331	3165
858.464	3154
858.597	3009
858.731	3138
858.864	3180
858.997	3157
859.13	3195
859.263	3218
859.396	3241
859.529	3093
859.662	3146
859.795	3058
859.928	3157
860.061	3321
860.194	3313
860.327	3169
860.46	3116
860.592	3264
860.725	3283
860.858	3283
860.99	3161
861.123	3081
861.256	3058
861.388	3192
861.521	3743
861.653	3028
861.786	3020
861.918	3032
862.05	3047
862.183	3135
862.315	3211
862.447	3184
862.58	3173
862.712	2994
862.844	2899
862.976	3051
863.108	3039
863.24	3424
863.372	2899
863.504	2979
863.636	2956
863.768	3097
863.9	2960
864.032	2952
864.164	2979
864.296	3024
864.428	3127
864.559	3119
864.691	3070
864.823	3081
864.954	3066
865.086	3058
865.217	3009
865.349	2952
865.48	2998
865.612	3066
865.743	3188
865.875	3020
866.006	2952
866.137	3024
866.269	2944
866.4	2944
866.531	2925
866.662	2929
866.793	2910
866.924	2944
867.055	3009
867.186	2906
867.317	2925
867.448	2857
867.579	2864
867.71	2857
867.841	2853
867.972	2899
868.103	2918
868.233	2895
868.364	2868
868.495	2895
868.625	3100
868.756	3157
868.886	3009
869.017	3032
869.147	3176
869.278	3192
869.408	3066
869.539	3032
869.669	3104
869.799	3020
869.929	3173
870.06	3089
870.19	3351
870.32	3344
870.45	3313
870.58	3405
870.71	3458
870.84	3450
870.97	3298
871.1	3275
871.23	3523
871.36	3462
871.489	3412
871.619	3428
871.749	3428
871.879	3477
872.008	3511
872.138	3389
872.267	3294
872.397	3123
872.526	3138
872.656	3028
872.785	3100
872.915	3253
873.044	3351
873.173	3268
873.303	3279
873.432	3253
873.561	3279
873.69	3199
873.819	3176
873.948	3237
874.077	3138
874.206	3089
874.335	3112
874.464	3245
874.593	3359
874.722	3279
874.851	3447
874.979	3329
875.108	3332
875.237	3218
875.365	3195
875.494	3173
875.623	3302
875.751	3100
875.88	3146
876.008	3199
876.136	3230
876.265	3397
876.393	3511
876.521	3454
876.65	3409
876.778	3359
876.906	3302
877.034	3226
877.162	3268
877.29	3218
877.418	3264
877.546	3249
877.674	3264
877.802	3310
877.93	3233
878.058	3211
878.185	3150
878.313	3211
878.441	3230
878.568	3081
878.696	3150
878.824	3283
878.951	3313
879.079	3443
879.206	3641
879.333	3458
879.461	3332
879.588	3412
879.715	3496
879.842	3603
879.97	3405
880.097	3211
880.224	3123
880.351	3214
880.478	3241
880.605	3203
880.732	3237
880.859	3545
880.986	3344
881.112	3332
881.239	3218
881.366	3085
881.493	3043
881.619	3047
881.746	3089
881.872	3131
881.999	3112
882.125	3154
882.252	3245
882.378	3332
882.505	3458
882.631	3272
882.757	3161
882.883	3249
883.01	3249
883.136	3176
883.262	3131
883.388	3135
883.514	3336
883.64	3405
883.766	3321
883.892	3226
884.018	3268
884.143	3458
884.269	3545
884.395	3287
884.52	3180
884.646	3199
884.772	3131
884.897	3135
885.023	3256
885.148	3378
885.274	3409
885.399	3370
885.524	3264
885.65	3241
885.775	3317
885.9	3317
886.025	3435
886.15	3374
886.275	3321
886.4	3287
886.525	3348
886.65	3275
886.775	3310
886.9	3496
887.025	3644
887.149	3416
887.274	3287
887.399	3184
887.523	3192
887.648	3154
887.773	3199
887.897	3412
888.021	3420
888.146	3310
888.27	3466
888.395	3568
888.519	3466
888.643	3496
888.767	3473
888.891	3336
889.015	3233
889.139	3279
889.263	3268
889.387	3439
889.511	3523
889.635	3485
889.759	3268
889.883	3287
890.006	3386
890.13	3485
890.254	3321
890.377	3367
890.501	3173
890.624	3203
890.748	3306
890.871	3173
890.995	3100
891.118	3131
891.241	3226
891.364	3272
891.488	3313
891.611	3218
891.734	3272
891.857	3279
891.98	3298
892.103	3348
892.226	3336
892.349	3222
892.471	3154
892.594	3256
892.717	3325
892.839	3272
892.962	3344
893.085	3389
893.207	3332
893.33	3169
893.452	3214
893.575	3363
893.697	3279
893.819	3473
893.941	3504
894.064	3416
894.186	3325
894.308	3310
894.43	3481
894.552	3568
894.674	3492
894.796	3302
894.918	3306
895.04	3291
895.161	3454
895.283	3401
895.405	3317
895.526	3393
895.648	3405
895.769	3412
895.891	3473
896.012	3504
896.134	3511
896.255	3458
896.376	3382
896.498	3359
896.619	3431
896.74	3370
896.861	3450
896.982	3682
897.103	3846
897.224	3606
897.345	3519
897.466	3443
897.587	3496
897.708	3671
897.828	3584
897.949	3454
898.07	3355
898.19	3439
898.311	3648
898.431	3428
898.552	3587
898.672	3656
898.792	3572
898.913	3530
899.033	3439
899.153	3302
899.273	3226
899.393	3298
899.513	3332
899.633	3374
899.753	3386
899.873	3310
899.993	3378
900.113	3340
900.232	3378
900.352	3389
900.472	3313
900.591	3230
900.711	3310
900.83	3245
900.95	3447
901.069	3515
901.189	3401
901.308	3192
901.427	3138
901.546	3195
901.665	3310
901.784	3389
901.904	3260
902.023	3123
902.141	2998
902.26	2994
902.379	3184
902.498	3112
902.617	3074
902.735	3218
902.854	3237
902.973	3192
903.091	3097
903.21	3055
903.328	3169
903.446	3135
903.565	3135
903.683	3233
903.801	3138
903.919	3260
904.038	3275
904.156	3199
904.274	3317
904.392	3272
904.51	3317
904.627	3351
904.745	3511
904.863	3500
904.981	3264
905.098	3214
905.216	3272
905.334	3336
905.451	3332
905.569	3325
905.686	3435
905.803	3435
905.921	3306
906.038	3526
906.155	3393
906.272	3310
906.389	3355
906.506	3260
906.623	3302
906.74	3325
906.857	3245
906.974	3268
907.091	3466
907.208	3599
907.324	3496
907.441	3401
907.557	3237
907.674	3253
907.79	3226
907.907	3340
908.023	3386
908.139	3416
908.256	3367
908.372	3363
908.488	3420
908.604	3287
908.72	3264
908.836	3310
908.952	3287
909.068	3355
909.184	3515
909.3	3435
909.415	3534
909.531	3458
909.647	3306
909.762	3329
909.878	3264
909.993	3374
910.108	3329
910.224	3344
910.339	3420
910.454	3382
910.57	3310
910.685	3294
910.8	3633
910.915	3568
911.03	3488
911.145	3272
911.259	3287
911.374	3351
911.489	3268
911.604	3214
911.718	3127
911.833	3154
911.947	3058
912.062	3020
912.176	3195
912.291	3237
912.405	3207
912.519	3469
912.633	3488
912.748	3363
912.862	3279
912.976	3245
913.09	3112
913.204	3176
913.318	3245
913.431	3344
913.545	3393
913.659	3454
913.772	3409
913.886	3264
914	3207
914.113	3420
914.226	3435
914.34	3382
914.453	3245
914.566	3405
914.68	3321
914.793	3325
914.906	3138
915.019	3135
915.132	3097
915.245	3203
915.358	3188
915.47	3275
915.583	3291
915.696	3329
915.809	3401
915.921	3416
916.034	3332
916.146	3298
916.259	3245
916.371	3370
916.483	3363
916.595	3275
916.708	3355
916.82	3382
916.932	3382
917.044	3359
917.156	3370
917.268	3260
917.38	3359
917.491	3359
917.603	3382
917.715	3462
917.826	3454
917.938	3370
918.049	3298
918.161	3458
918.272	3572
918.384	3595
918.495	3485
918.606	3355
918.717	3317
918.828	3386
918.939	3466
919.05	3321
919.161	3416
919.272	3176
919.383	3332
919.494	3488
919.604	3713
919.715	3526
919.826	3458
919.936	3481
920.047	3603
920.157	3595
920.267	3823
920.378	3614
920.488	3595
920.598	3835
920.708	3960
920.818	3842
920.928	3846
921.038	4032
921.148	3998
921.258	3732
921.368	3629
921.477	3599
921.587	3587
921.697	3485
921.806	3641
921.916	3530
922.025	3393
922.134	3367
922.244	3332
922.353	3481
922.462	3260
922.571	3245
922.68	3142
922.789	3093
922.898	3180
923.007	3123
923.116	3253
923.224	3188
923.333	3222
923.442	3119
923.55	3131
923.659	3161
923.767	3230
923.876	3165
923.984	3279
924.092	3112
924.201	3241
924.309	3260
924.417	3279
924.525	3245
924.633	3249
924.741	4204
924.849	3081
924.956	3294
925.064	3119
925.172	3039
925.279	3131
925.387	3203
925.494	3207
925.602	3386
925.709	3340
925.816	3268
925.924	3298
926.031	3405
926.138	3367
926.245	3416
926.352	3291
926.459	3374
926.566	3511
926.673	3336
926.779	3275
926.886	3237
926.993	3173
927.099	3161
927.206	3104
927.312	3154
927.419	3241
927.525	3237
927.631	3283
927.737	3184
927.843	3127
927.95	3051
928.056	3157
928.162	3222
928.267	3291
928.373	3793
928.479	3348
928.585	3070
928.69	3226
928.796	3306
928.901	3173
929.007	3085
929.112	3249
929.218	3211
929.323	3176
929.428	3226
929.533	3355
929.638	3142
929.743	3176
929.848	3264
929.953	3199
930.058	3176
930.163	3058
930.267	3104
930.372	3241
930.477	3055
930.581	3348
930.685	3226
930.79	3066
930.894	3150
930.998	3127
931.103	3310
931.207	2998
931.311	2941
931.415	2963
931.519	2796
931.623	2815
