Data from test_V78500241_366.txt Node
Date: Fri Mar 25 16:17:44 CST 2022
User: usil
Spectrometer: V785-0024
Trigger mode: 0
Integration Time (sec): 4.000000E-1
Scans to average: 1
Nonlinearity correction enabled: false
Boxcar width: 0
Storing dark spectrum: false
XAxis mode: Wavelengths
Number of Pixels in Spectrum: 1024
>>>>>Begin Spectral Data<<<<<
801.071	2899
801.214	2918
801.356	2864
801.499	2883
801.641	2895
801.783	2922
801.926	3032
802.068	2963
802.211	2982
802.353	3032
802.496	2960
802.638	3013
802.78	3032
802.923	3058
803.065	2960
803.208	2887
803.35	2918
803.492	2941
803.635	2944
803.777	2754
803.919	2868
804.061	3173
804.204	2933
804.346	2941
804.488	2830
804.63	2963
804.773	2872
804.915	2902
805.057	3051
805.199	2883
805.341	2967
805.483	3024
805.626	2994
805.768	2956
805.91	3104
806.052	3097
806.194	3047
806.336	3222
806.478	3036
806.62	2952
806.762	2967
806.904	3062
807.046	3154
807.188	2994
807.33	2925
807.472	2994
807.614	2910
807.756	2956
807.898	2918
808.04	2899
808.182	2979
808.324	2914
808.465	2895
808.607	2857
808.749	2800
808.891	2834
809.033	3001
809.174	2929
809.316	2899
809.458	2883
809.6	2781
809.741	2785
809.883	2724
810.025	2838
810.166	2849
810.308	2830
810.45	2887
810.591	2777
810.733	2781
810.875	2830
811.016	2743
811.158	2743
811.299	2804
811.441	2929
811.582	2895
811.724	2792
811.865	2853
812.007	2933
812.148	2853
812.29	2842
812.431	2891
812.573	2929
812.714	2944
812.855	3032
812.997	3081
813.138	3116
813.279	2986
813.421	2990
813.562	2929
813.703	2864
813.845	2864
813.986	2743
814.127	2746
814.268	2826
814.41	2834
814.551	2807
814.692	2830
814.833	2823
814.974	2887
815.115	2933
815.256	2815
815.397	2800
815.539	2834
815.68	2773
815.821	2826
815.962	2922
816.103	2933
816.244	2845
816.385	2845
816.526	2963
816.666	2925
816.807	2735
816.948	2880
817.089	2883
817.23	2876
817.371	2769
817.512	2804
817.653	2819
817.793	2826
817.934	2883
818.075	2960
818.216	2975
818.356	3001
818.497	2872
818.638	2777
818.778	2807
818.919	2811
819.06	2754
819.2	2880
819.341	2857
819.481	2792
819.622	2933
819.762	3066
819.903	3066
820.043	2922
820.184	2883
820.324	2895
820.465	3024
820.605	2990
820.746	3028
820.886	2902
821.026	3104
821.167	3165
821.307	3298
821.447	3241
821.588	3237
821.728	3207
821.868	3203
822.008	3066
822.149	3173
822.289	3230
822.429	3123
822.569	3077
822.709	3195
822.849	3032
822.99	3081
823.13	3138
823.27	3195
823.41	3104
823.55	3116
823.69	3173
823.83	3207
823.97	3085
824.11	2971
824.25	3009
824.389	3036
824.529	3116
824.669	3047
824.809	3173
824.949	3260
825.089	3214
825.228	3184
825.368	2979
825.508	2929
825.648	2990
825.787	3055
825.927	3028
826.067	2979
826.206	2937
826.346	3043
826.485	3058
826.625	3108
826.765	3268
826.904	3195
827.044	2982
827.183	2941
827.323	2834
827.462	2967
827.601	2925
827.741	2952
827.88	2937
828.02	2849
828.159	2975
828.298	3024
828.437	3108
828.577	3058
828.716	3218
828.855	3070
828.994	2895
829.134	2864
829.273	2925
829.412	2864
829.551	2857
829.69	2899
829.829	2960
829.968	3062
830.107	3009
830.246	3020
830.385	2910
830.524	2868
830.663	2811
830.802	2712
830.941	2659
831.08	2636
831.219	2739
831.357	2766
831.496	2933
831.635	2705
831.774	2670
831.913	2644
832.051	2514
832.19	2545
832.329	2678
832.467	2545
832.606	2446
832.744	2583
832.883	2522
833.022	2583
833.16	2621
833.299	2697
833.437	2651
833.576	2705
833.714	2716
833.852	2754
833.991	2762
834.129	2804
834.267	2819
834.406	2781
834.544	2853
834.682	2857
834.821	2842
834.959	3066
835.097	2891
835.235	3097
835.373	2971
835.511	2986
835.65	2944
835.788	2967
835.926	2800
836.064	2800
836.202	2823
836.34	3081
836.478	3146
836.615	3032
836.753	3123
836.891	3150
837.029	3119
837.167	3104
837.305	3032
837.443	3032
837.58	2948
837.718	3146
837.856	3077
837.993	3028
838.131	3119
838.269	3104
838.406	3081
838.544	3097
838.681	2929
838.819	2902
838.956	2811
839.094	2838
839.231	2948
839.369	3020
839.506	3351
839.643	3184
839.781	3013
839.918	2967
840.055	3058
840.193	3066
840.33	3100
840.467	3142
840.604	3154
840.742	3420
840.879	3074
841.016	3039
841.153	3093
841.29	3275
841.427	3336
841.564	3260
841.701	3302
841.838	3218
841.975	3176
842.112	3214
842.249	3066
842.385	3043
842.522	3275
842.659	3066
842.796	3043
842.933	3116
843.069	3009
843.206	3017
843.343	3184
843.479	3100
843.616	3169
843.752	2872
843.889	2876
844.025	3066
844.162	2872
844.298	3047
844.435	2963
844.571	2922
844.708	3066
844.844	3146
844.98	3226
845.117	3176
845.253	3039
845.389	3001
845.525	3119
845.661	3093
845.798	2982
845.934	3100
846.07	3009
846.206	3214
846.342	3325
846.478	3222
846.614	3085
846.75	3013
846.886	3039
847.022	3241
847.158	3112
847.294	3199
847.429	3241
847.565	3176
847.701	3477
847.837	3028
847.972	2979
848.108	3154
848.244	3097
848.379	2986
848.515	2941
848.65	2902
848.786	2933
848.921	3001
849.057	3104
849.192	3116
849.328	3058
849.463	3119
849.598	3077
849.734	3024
849.869	2963
850.004	2937
850.14	2918
850.275	2902
850.41	2819
850.545	2880
850.68	2948
850.815	2933
850.95	2944
851.085	3184
851.22	3066
851.355	3028
851.49	2941
851.625	2967
851.76	2998
851.895	2952
852.03	2952
852.165	3036
852.299	3104
852.434	3165
852.569	3138
852.703	3173
852.838	3226
852.973	3329
853.107	3348
853.242	3123
853.376	3097
853.511	2979
853.645	3055
853.78	3218
853.914	3119
854.048	3112
854.183	3070
854.317	3131
854.451	3310
854.585	3100
854.72	3089
854.854	3161
854.988	3062
855.122	3077
855.256	2952
855.39	3104
855.524	3230
855.658	3169
855.792	3157
855.926	3192
856.06	3226
856.194	3245
856.327	3127
856.461	3074
856.595	3066
856.729	3085
856.862	3169
856.996	3192
857.13	3211
857.263	3249
857.397	3279
857.53	3093
857.664	3165
857.797	3241
857.931	3272
858.064	3119
858.197	3173
858.331	3135
858.464	3062
858.597	3009
858.731	3097
858.864	3161
858.997	3089
859.13	3112
859.263	3176
859.396	3199
859.529	3077
859.662	3070
859.795	3047
859.928	3074
860.061	3260
860.194	3279
860.327	3089
860.46	3104
860.592	3253
860.725	3237
860.858	3264
860.99	3100
861.123	3047
861.256	3039
861.388	3157
861.521	3812
861.653	3017
861.786	2971
861.918	3028
862.05	3047
862.183	3100
862.315	3135
862.447	3195
862.58	3085
862.712	2941
862.844	2857
862.976	3036
863.108	3032
863.24	3447
863.372	2872
863.504	2986
863.636	2948
863.768	3013
863.9	2990
864.032	2876
864.164	2929
864.296	3039
864.428	3077
864.559	3085
864.691	3070
864.823	3039
864.954	3009
865.086	3024
865.217	2967
865.349	2933
865.48	2975
865.612	2986
865.743	3131
865.875	2982
866.006	2937
866.137	2963
866.269	2918
866.4	2933
866.531	2941
866.662	2861
866.793	2883
866.924	2887
867.055	2956
867.186	2925
867.317	2914
867.448	2830
867.579	2864
867.71	2880
867.841	2838
867.972	2899
868.103	2857
868.233	2872
868.364	2864
868.495	2910
868.625	3077
868.756	3184
868.886	2986
869.017	3032
869.147	3157
869.278	3157
869.408	3036
869.539	3028
869.669	3081
869.799	3009
869.929	3150
870.06	3100
870.19	3313
870.32	3310
870.45	3275
870.58	3363
870.71	3450
870.84	3454
870.97	3329
871.1	3207
871.23	3477
871.36	3412
871.489	3298
871.619	3370
871.749	3405
871.879	3439
872.008	3519
872.138	3306
872.267	3264
872.397	3119
872.526	3070
872.656	2990
872.785	3093
872.915	3226
873.044	3283
873.173	3188
873.303	3203
873.432	3226
873.561	3192
873.69	3116
873.819	3119
873.948	3142
874.077	3074
874.206	3077
874.335	3089
874.464	3188
874.593	3351
874.722	3230
874.851	3378
874.979	3332
875.108	3317
875.237	3214
875.365	3176
875.494	3154
875.623	3226
875.751	3074
875.88	3089
876.008	3195
876.136	3226
876.265	3355
876.393	3534
876.521	3393
876.65	3363
876.778	3329
876.906	3279
877.034	3214
877.162	3241
877.29	3157
877.418	3230
877.546	3253
877.674	3279
877.802	3226
877.93	3180
878.058	3146
878.185	3070
878.313	3154
878.441	3211
878.568	3081
878.696	3157
878.824	3241
878.951	3291
879.079	3401
879.206	3618
879.333	3435
879.461	3302
879.588	3351
879.715	3462
879.842	3542
879.97	3336
880.097	3131
880.224	3127
880.351	3176
880.478	3199
880.605	3180
880.732	3142
880.859	3435
880.986	3317
881.112	3321
881.239	3214
881.366	3055
881.493	3013
881.619	3032
881.746	3081
881.872	3085
881.999	3066
882.125	3108
882.252	3256
882.378	3272
882.505	3386
882.631	3222
882.757	3161
882.883	3184
883.01	3184
883.136	3135
883.262	3074
883.388	3142
883.514	3279
883.64	3370
883.766	3298
883.892	3154
884.018	3222
884.143	3424
884.269	3500
884.395	3195
884.52	3131
884.646	3157
884.772	3093
884.897	3066
885.023	3173
885.148	3317
885.274	3393
885.399	3355
885.524	3283
885.65	3233
885.775	3321
885.9	3291
886.025	3416
886.15	3378
886.275	3291
886.4	3188
886.525	3294
886.65	3245
886.775	3260
886.9	3492
887.025	3603
887.149	3393
887.274	3249
887.399	3180
887.523	3161
887.648	3176
887.773	3211
887.897	3355
888.021	3382
888.146	3294
888.27	3405
888.395	3530
888.519	3447
888.643	3473
888.767	3439
888.891	3329
889.015	3249
889.139	3283
889.263	3283
889.387	3374
889.511	3511
889.635	3450
889.759	3321
889.883	3306
890.006	3439
890.13	3485
890.254	3268
890.377	3359
890.501	3214
890.624	3173
890.748	3325
890.871	3203
890.995	3100
891.118	3062
891.241	3192
891.364	3211
891.488	3332
891.611	3222
891.734	3249
891.857	3294
891.98	3260
892.103	3412
892.226	3310
892.349	3233
892.471	3169
892.594	3302
892.717	3332
892.839	3283
892.962	3283
893.085	3386
893.207	3348
893.33	3218
893.452	3241
893.575	3363
893.697	3294
893.819	3488
893.941	3507
894.064	3488
894.186	3306
894.308	3264
894.43	3450
894.552	3568
894.674	3515
894.796	3340
894.918	3325
895.04	3313
895.161	3454
895.283	3431
895.405	3370
895.526	3450
895.648	3428
895.769	3458
895.891	3496
896.012	3481
896.134	3523
896.255	3409
896.376	3435
896.498	3435
896.619	3473
896.74	3458
896.861	3477
896.982	3728
897.103	3880
897.224	3618
897.345	3534
897.466	3450
897.587	3504
897.708	3637
897.828	3603
897.949	3481
898.07	3355
898.19	3435
898.311	3656
898.431	3431
898.552	3572
898.672	3633
898.792	3610
898.913	3572
899.033	3416
899.153	3355
899.273	3268
899.393	3367
899.513	3340
899.633	3367
899.753	3386
899.873	3348
899.993	3454
900.113	3367
900.232	3401
900.352	3409
900.472	3325
900.591	3211
900.711	3336
900.83	3245
900.95	3454
901.069	3549
901.189	3367
901.308	3214
901.427	3131
901.546	3195
901.665	3302
901.784	3363
901.904	3272
902.023	3176
902.141	3013
902.26	3005
902.379	3161
902.498	3077
902.617	3070
902.735	3203
902.854	3256
902.973	3218
903.091	3097
903.21	3074
903.328	3180
903.446	3146
903.565	3150
903.683	3233
903.801	3157
903.919	3256
904.038	3279
904.156	3203
904.274	3363
904.392	3272
904.51	3329
904.627	3378
904.745	3454
904.863	3523
904.981	3260
905.098	3214
905.216	3283
905.334	3329
905.451	3351
905.569	3302
905.686	3462
905.803	3496
905.921	3344
906.038	3450
906.155	3374
906.272	3291
906.389	3389
906.506	3253
906.623	3283
906.74	3283
906.857	3226
906.974	3294
907.091	3469
907.208	3599
907.324	3519
907.441	3420
907.557	3253
907.674	3298
907.79	3226
907.907	3325
908.023	3367
908.139	3325
908.256	3340
908.372	3409
908.488	3363
908.604	3294
908.72	3260
908.836	3310
908.952	3287
909.068	3374
909.184	3485
909.3	3412
909.415	3576
909.531	3481
909.647	3287
909.762	3298
909.878	3294
909.993	3405
910.108	3359
910.224	3351
910.339	3462
910.454	3367
910.57	3332
910.685	3279
910.8	3652
910.915	3523
911.03	3447
911.145	3310
911.259	3344
911.374	3287
911.489	3283
911.604	3264
911.718	3138
911.833	3203
911.947	3062
912.062	3020
912.176	3203
912.291	3222
912.405	3199
912.519	3454
912.633	3519
912.748	3359
912.862	3329
912.976	3176
913.09	3081
913.204	3192
913.318	3207
913.431	3355
913.545	3370
913.659	3454
913.772	3344
913.886	3218
914	3188
914.113	3382
914.226	3420
914.34	3370
914.453	3218
914.566	3485
914.68	3340
914.793	3351
914.906	3169
915.019	3150
915.132	3104
915.245	3233
915.358	3275
915.47	3291
915.583	3253
915.696	3310
915.809	3443
915.921	3469
916.034	3275
916.146	3272
916.259	3256
916.371	3424
916.483	3367
916.595	3310
916.708	3351
916.82	3340
916.932	3389
917.044	3336
917.156	3443
917.268	3302
917.38	3344
917.491	3359
917.603	3412
917.715	3477
917.826	3504
917.938	3397
918.049	3291
918.161	3473
918.272	3622
918.384	3603
918.495	3488
918.606	3344
918.717	3302
918.828	3409
918.939	3466
919.05	3325
919.161	3424
919.272	3237
919.383	3294
919.494	3492
919.604	3720
919.715	3485
919.826	3393
919.936	3447
920.047	3606
920.157	3603
920.267	3823
920.378	3625
920.488	3622
920.598	3789
920.708	3979
920.818	3857
920.928	3869
921.038	4059
921.148	4029
921.258	3698
921.368	3648
921.477	3599
921.587	3584
921.697	3485
921.806	3625
921.916	3542
922.025	3393
922.134	3409
922.244	3317
922.353	3481
922.462	3298
922.571	3256
922.68	3123
922.789	3104
922.898	3131
923.007	3127
923.116	3233
923.224	3192
923.333	3245
923.442	3123
923.55	3112
923.659	3146
923.767	3207
923.876	3138
923.984	3306
924.092	3150
924.201	3241
924.309	3291
924.417	3272
924.525	3241
924.633	3249
924.741	4173
924.849	3055
924.956	3272
925.064	3135
925.172	3077
925.279	3093
925.387	3203
925.494	3214
925.602	3374
925.709	3348
925.816	3222
925.924	3291
926.031	3401
926.138	3321
926.245	3367
926.352	3245
926.459	3435
926.566	3485
926.673	3321
926.779	3264
926.886	3245
926.993	3142
927.099	3173
927.206	3142
927.312	3135
927.419	3230
927.525	3214
927.631	3294
927.737	3165
927.843	3154
927.95	3051
928.056	3127
928.162	3203
928.267	3279
928.373	3911
928.479	3329
928.585	3108
928.69	3268
928.796	3302
928.901	3169
929.007	3070
929.112	3222
929.218	3199
929.323	3165
929.428	3165
929.533	3367
929.638	3131
929.743	3173
929.848	3283
929.953	3268
930.058	3169
930.163	3017
930.267	3039
930.372	3214
930.477	3039
930.581	3351
930.685	3207
930.79	3089
930.894	3169
930.998	3123
931.103	3287
931.207	2982
931.311	2948
931.415	2944
931.519	2800
931.623	2800
