Data from test_V78500241_566.txt Node
Date: Fri Mar 25 16:19:07 CST 2022
User: usil
Spectrometer: V785-0024
Trigger mode: 0
Integration Time (sec): 4.000000E-1
Scans to average: 1
Nonlinearity correction enabled: false
Boxcar width: 0
Storing dark spectrum: false
XAxis mode: Wavelengths
Number of Pixels in Spectrum: 1024
>>>>>Begin Spectral Data<<<<<
801.071	2944
801.214	2990
801.356	2929
801.499	2902
801.641	2895
801.783	2937
801.926	3104
802.068	3028
802.211	3013
802.353	3081
802.496	2998
802.638	3024
802.78	3043
802.923	3070
803.065	3013
803.208	2941
803.35	2937
803.492	2963
803.635	2941
803.777	2785
803.919	2929
804.061	3184
804.204	2990
804.346	2948
804.488	2864
804.63	3043
804.773	2922
804.915	2914
805.057	3108
805.199	2933
805.341	3024
805.483	3043
805.626	2994
805.768	2982
805.91	3108
806.052	3097
806.194	3047
806.336	3233
806.478	3036
806.62	2986
806.762	2967
806.904	3093
807.046	3214
807.188	3013
807.33	2937
807.472	3047
807.614	2944
807.756	3020
807.898	2922
808.04	2922
808.182	3020
808.324	2941
808.465	2914
808.607	2872
808.749	2804
808.891	2845
809.033	3001
809.174	2948
809.316	2876
809.458	2952
809.6	2781
809.741	2754
809.883	2777
810.025	2899
810.166	2868
810.308	2842
810.45	2887
810.591	2792
810.733	2781
810.875	2815
811.016	2785
811.158	2788
811.299	2845
811.441	2922
811.582	2906
811.724	2842
811.865	2811
812.007	2933
812.148	2937
812.29	2853
812.431	2925
812.573	2952
812.714	2990
812.855	3039
812.997	3097
813.138	3146
813.279	3009
813.421	2998
813.562	2990
813.703	2918
813.845	2880
813.986	2796
814.127	2758
814.268	2857
814.41	2864
814.551	2861
814.692	2899
814.833	2807
814.974	2952
815.115	2990
815.256	2838
815.397	2861
815.539	2906
815.68	2838
815.821	2796
815.962	2956
816.103	2933
816.244	2883
816.385	2895
816.526	2941
816.666	2979
816.807	2777
816.948	2944
817.089	2906
817.23	2857
817.371	2834
817.512	2777
817.653	2887
817.793	2861
817.934	2910
818.075	2990
818.216	3024
818.356	3062
818.497	2902
818.638	2819
818.778	2834
818.919	2823
819.06	2754
819.2	2922
819.341	2819
819.481	2838
819.622	2922
819.762	3138
819.903	3055
820.043	2952
820.184	2914
820.324	2914
820.465	3047
820.605	3036
820.746	3066
820.886	2948
821.026	3150
821.167	3188
821.307	3294
821.447	3344
821.588	3230
821.728	3268
821.868	3233
822.008	3100
822.149	3203
822.289	3256
822.429	3131
822.569	3116
822.709	3214
822.849	3070
822.99	3085
823.13	3146
823.27	3214
823.41	3146
823.55	3150
823.69	3157
823.83	3214
823.97	3161
824.11	3032
824.25	2971
824.389	3062
824.529	3165
824.669	3123
824.809	3256
824.949	3253
825.089	3249
825.228	3169
825.368	3051
825.508	2971
825.648	2990
825.787	3058
825.927	3039
826.067	3020
826.206	3020
826.346	3066
826.485	3081
826.625	3119
826.765	3283
826.904	3249
827.044	3036
827.183	2948
827.323	2864
827.462	2990
827.601	2922
827.741	2960
827.88	2963
828.02	2845
828.159	3005
828.298	3066
828.437	3127
828.577	3074
828.716	3294
828.855	3085
828.994	2982
829.134	2902
829.273	2944
829.412	2891
829.551	2887
829.69	2910
829.829	2998
829.968	3188
830.107	3051
830.246	3024
830.385	2937
830.524	2876
830.663	2819
830.802	2758
830.941	2682
831.08	2659
831.219	2785
831.357	2758
831.496	2948
831.635	2758
831.774	2678
831.913	2701
832.051	2575
832.19	2590
832.329	2735
832.467	2533
832.606	2480
832.744	2617
832.883	2617
833.022	2579
833.16	2674
833.299	2716
833.437	2716
833.576	2678
833.714	2739
833.852	2743
833.991	2773
834.129	2853
834.267	2853
834.406	2807
834.544	2876
834.682	2895
834.821	2891
834.959	3116
835.097	2895
835.235	3077
835.373	3013
835.511	3005
835.65	2986
835.788	2967
835.926	2853
836.064	2807
836.202	2864
836.34	3119
836.478	3165
836.615	3074
836.753	3131
836.891	3192
837.029	3188
837.167	3138
837.305	3077
837.443	3070
837.58	2994
837.718	3119
837.856	3066
837.993	3066
838.131	3135
838.269	3123
838.406	3093
838.544	3093
838.681	2944
838.819	2906
838.956	2796
839.094	2842
839.231	2925
839.369	3039
839.506	3401
839.643	3207
839.781	3043
839.918	2971
840.055	3028
840.193	3055
840.33	3085
840.467	3089
840.604	3165
840.742	3431
840.879	3074
841.016	3070
841.153	3165
841.29	3287
841.427	3302
841.564	3275
841.701	3298
841.838	3207
841.975	3207
842.112	3260
842.249	3074
842.385	3039
842.522	3291
842.659	3097
842.796	3039
842.933	3116
843.069	3077
843.206	3104
843.343	3184
843.479	3142
843.616	3165
843.752	2902
843.889	2891
844.025	3077
844.162	2902
844.298	3089
844.435	2963
844.571	2925
844.708	3070
844.844	3207
844.98	3279
845.117	3192
845.253	3085
845.389	3024
845.525	3146
845.661	3127
845.798	3024
845.934	3093
846.07	3070
846.206	3253
846.342	3355
846.478	3230
846.614	3135
846.75	3074
846.886	3020
847.022	3264
847.158	3127
847.294	3226
847.429	3230
847.565	3241
847.701	3534
847.837	3062
847.972	3024
848.108	3157
848.244	3123
848.379	2971
848.515	2948
848.65	2937
848.786	2986
848.921	3005
849.057	3142
849.192	3184
849.328	3104
849.463	3085
849.598	3062
849.734	3058
849.869	2990
850.004	2956
850.14	2967
850.275	2906
850.41	2883
850.545	2868
850.68	2918
850.815	2982
850.95	2960
851.085	3245
851.22	3123
851.355	3020
851.49	2998
851.625	3024
851.76	2967
851.895	2956
852.03	2933
852.165	3039
852.299	3135
852.434	3176
852.569	3157
852.703	3180
852.838	3241
852.973	3370
853.107	3344
853.242	3104
853.376	3161
853.511	2956
853.645	3066
853.78	3260
853.914	3173
854.048	3112
854.183	3097
854.317	3161
854.451	3351
854.585	3112
854.72	3108
854.854	3203
854.988	3066
855.122	3127
855.256	2971
855.39	3108
855.524	3237
855.658	3173
855.792	3157
855.926	3192
856.06	3222
856.194	3241
856.327	3138
856.461	3146
856.595	3097
856.729	3104
856.862	3230
856.996	3161
857.13	3207
857.263	3222
857.397	3283
857.53	3119
857.664	3207
857.797	3291
857.931	3253
858.064	3146
858.197	3264
858.331	3127
858.464	3127
858.597	2998
858.731	3131
858.864	3138
858.997	3127
859.13	3165
859.263	3192
859.396	3203
859.529	3085
859.662	3066
859.795	3089
859.928	3154
860.061	3260
860.194	3336
860.327	3127
860.46	3089
860.592	3214
860.725	3279
860.858	3249
860.99	3116
861.123	3081
861.256	3051
861.388	3138
861.521	3728
861.653	3062
861.786	3017
861.918	2975
862.05	3070
862.183	3089
862.315	3154
862.447	3203
862.58	3081
862.712	2929
862.844	2883
862.976	3032
863.108	3013
863.24	3409
863.372	2906
863.504	2922
863.636	2952
863.768	3020
863.9	2990
864.032	2925
864.164	2963
864.296	3001
864.428	3077
864.559	3116
864.691	3066
864.823	3074
864.954	3047
865.086	3047
865.217	2963
865.349	2971
865.48	2960
865.612	2998
865.743	3157
865.875	2967
866.006	2975
866.137	2994
866.269	2960
866.4	2952
866.531	2918
866.662	2906
866.793	2895
866.924	2918
867.055	2975
867.186	2922
867.317	2895
867.448	2861
867.579	2864
867.71	2845
867.841	2838
867.972	2899
868.103	2925
868.233	2899
868.364	2895
868.495	2887
868.625	3077
868.756	3161
868.886	2990
869.017	3032
869.147	3180
869.278	3131
869.408	3051
869.539	3032
869.669	3104
869.799	3066
869.929	3127
870.06	3116
870.19	3336
870.32	3306
870.45	3275
870.58	3416
870.71	3481
870.84	3454
870.97	3287
871.1	3218
871.23	3450
871.36	3439
871.489	3397
871.619	3454
871.749	3443
871.879	3454
872.008	3523
872.138	3351
872.267	3260
872.397	3154
872.526	3119
872.656	3017
872.785	3123
872.915	3203
873.044	3321
873.173	3214
873.303	3256
873.432	3256
873.561	3275
873.69	3157
873.819	3157
873.948	3165
874.077	3112
874.206	3055
874.335	3066
874.464	3188
874.593	3367
874.722	3245
874.851	3428
874.979	3332
875.108	3340
875.237	3176
875.365	3150
875.494	3138
875.623	3283
875.751	3081
875.88	3077
876.008	3199
876.136	3211
876.265	3355
876.393	3545
876.521	3409
876.65	3393
876.778	3317
876.906	3283
877.034	3188
877.162	3226
877.29	3176
877.418	3256
877.546	3218
877.674	3211
877.802	3256
877.93	3211
878.058	3173
878.185	3119
878.313	3165
878.441	3207
878.568	3066
878.696	3169
878.824	3237
878.951	3313
879.079	3469
879.206	3625
879.333	3447
879.461	3336
879.588	3325
879.715	3504
879.842	3564
879.97	3325
880.097	3161
880.224	3119
880.351	3169
880.478	3226
880.605	3245
880.732	3207
880.859	3450
880.986	3287
881.112	3310
881.239	3199
881.366	3081
881.493	3032
881.619	3024
881.746	3058
881.872	3093
881.999	3066
882.125	3123
882.252	3256
882.378	3310
882.505	3462
882.631	3268
882.757	3135
882.883	3195
883.01	3230
883.136	3214
883.262	3081
883.388	3097
883.514	3294
883.64	3348
883.766	3306
883.892	3203
884.018	3207
884.143	3409
884.269	3538
884.395	3195
884.52	3192
884.646	3188
884.772	3100
884.897	3085
885.023	3214
885.148	3313
885.274	3424
885.399	3344
885.524	3260
885.65	3272
885.775	3291
885.9	3233
886.025	3431
886.15	3370
886.275	3260
886.4	3180
886.525	3283
886.65	3310
886.775	3298
886.9	3485
887.025	3637
887.149	3409
887.274	3253
887.399	3192
887.523	3180
887.648	3188
887.773	3180
887.897	3348
888.021	3443
888.146	3287
888.27	3416
888.395	3542
888.519	3397
888.643	3431
888.767	3458
888.891	3321
889.015	3237
889.139	3291
889.263	3249
889.387	3378
889.511	3504
889.635	3401
889.759	3291
889.883	3268
890.006	3378
890.13	3466
890.254	3245
890.377	3340
890.501	3233
890.624	3199
890.748	3283
890.871	3218
890.995	3123
891.118	3062
891.241	3146
891.364	3203
891.488	3306
891.611	3207
891.734	3237
891.857	3237
891.98	3241
892.103	3329
892.226	3268
892.349	3169
892.471	3058
892.594	3256
892.717	3283
892.839	3279
892.962	3317
893.085	3348
893.207	3298
893.33	3138
893.452	3211
893.575	3340
893.697	3230
893.819	3496
893.941	3507
894.064	3458
894.186	3287
894.308	3260
894.43	3447
894.552	3530
894.674	3466
894.796	3253
894.918	3321
895.04	3287
895.161	3412
895.283	3367
895.405	3298
895.526	3336
895.648	3424
895.769	3393
895.891	3485
896.012	3507
896.134	3488
896.255	3409
896.376	3355
896.498	3351
896.619	3412
896.74	3317
896.861	3435
896.982	3667
897.103	3854
897.224	3572
897.345	3549
897.466	3454
897.587	3511
897.708	3610
897.828	3538
897.949	3458
898.07	3298
898.19	3405
898.311	3622
898.431	3412
898.552	3561
898.672	3572
898.792	3599
898.913	3500
899.033	3393
899.153	3294
899.273	3203
899.393	3249
899.513	3306
899.633	3291
899.753	3294
899.873	3279
899.993	3401
900.113	3340
900.232	3405
900.352	3336
900.472	3294
900.591	3203
900.711	3298
900.83	3188
900.95	3420
901.069	3492
901.189	3306
901.308	3157
901.427	3142
901.546	3180
901.665	3275
901.784	3363
901.904	3203
902.023	3138
902.141	2979
902.26	2990
902.379	3138
902.498	3032
902.617	3036
902.735	3230
902.854	3214
902.973	3173
903.091	3058
903.21	3104
903.328	3135
903.446	3093
903.565	3112
903.683	3245
903.801	3104
903.919	3249
904.038	3294
904.156	3150
904.274	3294
904.392	3260
904.51	3241
904.627	3329
904.745	3412
904.863	3481
904.981	3256
905.098	3138
905.216	3222
905.334	3306
905.451	3302
905.569	3310
905.686	3393
905.803	3435
905.921	3287
906.038	3439
906.155	3340
906.272	3268
906.389	3329
906.506	3260
906.623	3214
906.74	3249
906.857	3131
906.974	3264
907.091	3420
907.208	3526
907.324	3481
907.441	3378
907.557	3203
907.674	3268
907.79	3169
907.907	3253
908.023	3351
908.139	3359
908.256	3325
908.372	3420
908.488	3351
908.604	3237
908.72	3192
908.836	3310
908.952	3294
909.068	3336
909.184	3428
909.3	3397
909.415	3462
909.531	3477
909.647	3233
909.762	3332
909.878	3249
909.993	3351
910.108	3313
910.224	3329
910.339	3397
910.454	3336
910.57	3306
910.685	3241
910.8	3595
910.915	3561
911.03	3443
911.145	3294
911.259	3272
911.374	3336
911.489	3249
911.604	3256
911.718	3104
911.833	3142
911.947	3013
912.062	2971
912.176	3184
912.291	3173
912.405	3157
912.519	3397
912.633	3431
912.748	3348
912.862	3226
912.976	3131
913.09	3043
913.204	3093
913.318	3203
913.431	3306
913.545	3313
913.659	3412
913.772	3329
913.886	3203
914	3169
914.113	3325
914.226	3435
914.34	3340
914.453	3233
914.566	3378
914.68	3275
914.793	3310
914.906	3127
915.019	3074
915.132	3047
915.245	3195
915.358	3165
915.47	3245
915.583	3310
915.696	3272
915.809	3386
915.921	3424
916.034	3226
916.146	3230
916.259	3192
916.371	3382
916.483	3370
916.595	3272
916.708	3329
916.82	3313
916.932	3363
917.044	3332
917.156	3306
917.268	3268
917.38	3264
917.491	3310
917.603	3355
917.715	3428
917.826	3462
917.938	3401
918.049	3233
918.161	3435
918.272	3549
918.384	3572
918.495	3454
918.606	3332
918.717	3222
918.828	3355
918.939	3409
919.05	3272
919.161	3382
919.272	3165
919.383	3245
919.494	3481
919.604	3682
919.715	3485
919.826	3389
919.936	3431
920.047	3614
920.157	3534
920.267	3762
920.378	3614
920.488	3542
920.598	3759
920.708	3937
920.818	3842
920.928	3835
921.038	4029
921.148	3956
921.258	3675
921.368	3599
921.477	3572
921.587	3568
921.697	3443
921.806	3648
921.916	3511
922.025	3336
922.134	3374
922.244	3313
922.353	3420
922.462	3268
922.571	3222
922.68	3123
922.789	3081
922.898	3123
923.007	3093
923.116	3199
923.224	3180
923.333	3188
923.442	3032
923.55	3123
923.659	3108
923.767	3195
923.876	3089
923.984	3218
924.092	3089
924.201	3165
924.309	3203
924.417	3283
924.525	3173
924.633	3268
924.741	3987
924.849	3051
924.956	3260
925.064	3051
925.172	3043
925.279	3119
925.387	3203
925.494	3146
925.602	3310
925.709	3302
925.816	3146
925.924	3249
926.031	3386
926.138	3340
926.245	3374
926.352	3233
926.459	3424
926.566	3447
926.673	3298
926.779	3233
926.886	3264
926.993	3138
927.099	3138
927.206	3127
927.312	3058
927.419	3222
927.525	3222
927.631	3291
927.737	3176
927.843	3154
927.95	2960
928.056	3112
928.162	3150
928.267	3222
928.373	3751
928.479	3306
928.585	3032
928.69	3195
928.796	3279
928.901	3161
929.007	3032
929.112	3218
929.218	3157
929.323	3150
929.428	3146
929.533	3272
929.638	3116
929.743	3161
929.848	3264
929.953	3173
930.058	3154
930.163	2975
930.267	3043
930.372	3188
930.477	3013
930.581	3279
930.685	3135
930.79	3039
930.894	3112
930.998	3081
931.103	3260
931.207	2952
931.311	2929
931.415	2906
931.519	2750
931.623	2754
