Data from test_V78500241_1822.txt Node
Date: Fri Mar 25 16:27:49 CST 2022
User: usil
Spectrometer: V785-0024
Trigger mode: 0
Integration Time (sec): 4.000000E-1
Scans to average: 1
Nonlinearity correction enabled: false
Boxcar width: 0
Storing dark spectrum: false
XAxis mode: Wavelengths
Number of Pixels in Spectrum: 1024
>>>>>Begin Spectral Data<<<<<
801.071	2876
801.214	2952
801.356	2853
801.499	2883
801.641	2902
801.783	2902
801.926	3043
802.068	2971
802.211	2960
802.353	2998
802.496	2960
802.638	3032
802.78	3043
802.923	3077
803.065	3005
803.208	2914
803.35	2941
803.492	2914
803.635	2948
803.777	2762
803.919	2857
804.061	3173
804.204	2948
804.346	2891
804.488	2838
804.63	2994
804.773	2895
804.915	2880
805.057	3047
805.199	2910
805.341	2971
805.483	3032
805.626	3013
805.768	2982
805.91	3104
806.052	3127
806.194	2998
806.336	3192
806.478	3028
806.62	2914
806.762	2967
806.904	3077
807.046	3176
807.188	2971
807.33	2948
807.472	2990
807.614	2906
807.756	2979
807.898	2918
808.04	2883
808.182	2994
808.324	2941
808.465	2887
808.607	2868
808.749	2826
808.891	2826
809.033	3005
809.174	2967
809.316	2872
809.458	2891
809.6	2762
809.741	2758
809.883	2762
810.025	2861
810.166	2845
810.308	2872
810.45	2838
810.591	2766
810.733	2758
810.875	2864
811.016	2792
811.158	2819
811.299	2785
811.441	2952
811.582	2895
811.724	2826
811.865	2830
812.007	2922
812.148	2872
812.29	2830
812.431	2883
812.573	2922
812.714	2986
812.855	3055
812.997	3043
813.138	3123
813.279	3024
813.421	2963
813.562	2956
813.703	2880
813.845	2895
813.986	2796
814.127	2731
814.268	2823
814.41	2823
814.551	2815
814.692	2861
814.833	2819
814.974	2902
815.115	2948
815.256	2853
815.397	2807
815.539	2876
815.68	2796
815.821	2769
815.962	2941
816.103	2925
816.244	2876
816.385	2857
816.526	3009
816.666	2902
816.807	2735
816.948	2899
817.089	2922
817.23	2868
817.371	2807
817.512	2815
817.653	2838
817.793	2819
817.934	2899
818.075	2956
818.216	3005
818.356	3013
818.497	2883
818.638	2785
818.778	2849
818.919	2800
819.06	2785
819.2	2880
819.341	2826
819.481	2838
819.622	2883
819.762	3123
819.903	3058
820.043	2906
820.184	2868
820.324	2914
820.465	2998
820.605	3001
820.746	3001
820.886	2933
821.026	3093
821.167	3192
821.307	3268
821.447	3279
821.588	3230
821.728	3207
821.868	3180
822.008	3051
822.149	3203
822.289	3214
822.429	3089
822.569	3085
822.709	3184
822.849	3020
822.99	3077
823.13	3150
823.27	3154
823.41	3089
823.55	3146
823.69	3131
823.83	3173
823.97	3104
824.11	2967
824.25	2975
824.389	3062
824.529	3112
824.669	3028
824.809	3211
824.949	3222
825.089	3241
825.228	3161
825.368	2990
825.508	2994
825.648	2956
825.787	2986
825.927	2967
826.067	2956
826.206	2937
826.346	3024
826.485	3066
826.625	3123
826.765	3233
826.904	3154
827.044	3020
827.183	2933
827.323	2861
827.462	2960
827.601	2899
827.741	2906
827.88	2967
828.02	2853
828.159	2986
828.298	3017
828.437	3093
828.577	3039
828.716	3245
828.855	3058
828.994	2925
829.134	2872
829.273	2925
829.412	2876
829.551	2853
829.69	2880
829.829	2960
829.968	3131
830.107	2971
830.246	3024
830.385	2906
830.524	2849
830.663	2815
830.802	2716
830.941	2667
831.08	2674
831.219	2743
831.357	2750
831.496	2922
831.635	2689
831.774	2617
831.913	2621
832.051	2511
832.19	2568
832.329	2670
832.467	2495
832.606	2488
832.744	2606
832.883	2606
833.022	2587
833.16	2613
833.299	2697
833.437	2701
833.576	2735
833.714	2716
833.852	2720
833.991	2762
834.129	2849
834.267	2792
834.406	2777
834.544	2849
834.682	2830
834.821	2861
834.959	3032
835.097	2868
835.235	3024
835.373	3005
835.511	2986
835.65	2933
835.788	2937
835.926	2830
836.064	2807
836.202	2826
836.34	3055
836.478	3161
836.615	3055
836.753	3093
836.891	3184
837.029	3127
837.167	3062
837.305	3081
837.443	3028
837.58	2986
837.718	3119
837.856	3058
837.993	3020
838.131	3116
838.269	3074
838.406	3047
838.544	3089
838.681	2899
838.819	2861
838.956	2762
839.094	2834
839.231	2948
839.369	3024
839.506	3412
839.643	3203
839.781	2979
839.918	2998
840.055	3039
840.193	3043
840.33	3047
840.467	3116
840.604	3116
840.742	3409
840.879	3013
841.016	3058
841.153	3077
841.29	3310
841.427	3279
841.564	3249
841.701	3310
841.838	3195
841.975	3188
842.112	3222
842.249	3066
842.385	3047
842.522	3283
842.659	3112
842.796	3043
842.933	3089
843.069	3070
843.206	3005
843.343	3203
843.479	3123
843.616	3135
843.752	2883
843.889	2853
844.025	3097
844.162	2883
844.298	3020
844.435	2895
844.571	2918
844.708	3066
844.844	3161
844.98	3249
845.117	3203
845.253	3066
845.389	2994
845.525	3108
845.661	3093
845.798	2990
845.934	3146
846.07	3062
846.206	3169
846.342	3283
846.478	3226
846.614	3074
846.75	3001
846.886	3009
847.022	3283
847.158	3131
847.294	3184
847.429	3218
847.565	3203
847.701	3492
847.837	3009
847.972	2963
848.108	3150
848.244	3127
848.379	3009
848.515	2937
848.65	2941
848.786	2982
848.921	3013
849.057	3089
849.192	3154
849.328	3032
849.463	3097
849.598	3001
849.734	3020
849.869	2971
850.004	2944
850.14	2990
850.275	2902
850.41	2845
850.545	2899
850.68	2929
850.815	2975
850.95	2960
851.085	3142
851.22	3097
851.355	3009
851.49	2994
851.625	3013
851.76	2982
851.895	2941
852.03	2906
852.165	3013
852.299	3123
852.434	3180
852.569	3150
852.703	3154
852.838	3272
852.973	3351
853.107	3268
853.242	3123
853.376	3077
853.511	2967
853.645	3058
853.78	3233
853.914	3146
854.048	3135
854.183	3108
854.317	3119
854.451	3275
854.585	3074
854.72	3119
854.854	3226
854.988	3062
855.122	3062
855.256	2960
855.39	3138
855.524	3230
855.658	3184
855.792	3184
855.926	3237
856.06	3184
856.194	3241
856.327	3146
856.461	3093
856.595	3081
856.729	3108
856.862	3226
856.996	3138
857.13	3173
857.263	3192
857.397	3260
857.53	3100
857.664	3207
857.797	3192
857.931	3237
858.064	3123
858.197	3192
858.331	3154
858.464	3100
858.597	2967
858.731	3138
858.864	3131
858.997	3108
859.13	3135
859.263	3176
859.396	3226
859.529	3081
859.662	3085
859.795	3055
859.928	3138
860.061	3241
860.194	3268
860.327	3100
860.46	3104
860.592	3230
860.725	3249
860.858	3214
860.99	3081
861.123	3032
861.256	3062
861.388	3146
861.521	3812
861.653	2990
861.786	2952
861.918	3001
862.05	3066
862.183	3077
862.315	3150
862.447	3154
862.58	3074
862.712	2941
862.844	2880
862.976	3024
863.108	3001
863.24	3382
863.372	2872
863.504	2956
863.636	2925
863.768	2994
863.9	2971
864.032	2895
864.164	2944
864.296	2963
864.428	3070
864.559	3089
864.691	3066
864.823	3081
864.954	3005
865.086	3043
865.217	2952
865.349	2967
865.48	2979
865.612	3001
865.743	3161
865.875	2982
866.006	2891
866.137	2998
866.269	2948
866.4	2902
866.531	2929
866.662	2845
866.793	2891
866.924	2925
867.055	2967
867.186	2883
867.317	2876
867.448	2823
867.579	2834
867.71	2861
867.841	2785
867.972	2914
868.103	2868
868.233	2910
868.364	2887
868.495	2880
868.625	3077
868.756	3131
868.886	2956
869.017	3009
869.147	3188
869.278	3161
869.408	3058
869.539	2994
869.669	3070
869.799	3055
869.929	3127
870.06	3089
870.19	3306
870.32	3302
870.45	3256
870.58	3367
870.71	3435
870.84	3454
870.97	3306
871.1	3237
871.23	3488
871.36	3401
871.489	3374
871.619	3401
871.749	3416
871.879	3466
872.008	3496
872.138	3386
872.267	3283
872.397	3161
872.526	3070
872.656	2982
872.785	3123
872.915	3211
873.044	3321
873.173	3211
873.303	3268
873.432	3199
873.561	3226
873.69	3169
873.819	3116
873.948	3188
874.077	3116
874.206	3039
874.335	3062
874.464	3222
874.593	3306
874.722	3237
874.851	3401
874.979	3325
875.108	3344
875.237	3184
875.365	3146
875.494	3119
875.623	3230
875.751	3100
875.88	3077
876.008	3154
876.136	3264
876.265	3355
876.393	3466
876.521	3378
876.65	3405
876.778	3310
876.906	3253
877.034	3188
877.162	3230
877.29	3188
877.418	3268
877.546	3237
877.674	3298
877.802	3222
877.93	3203
878.058	3138
878.185	3123
878.313	3184
878.441	3192
878.568	3093
878.696	3154
878.824	3241
878.951	3291
879.079	3389
879.206	3629
879.333	3435
879.461	3317
879.588	3329
879.715	3504
879.842	3576
879.97	3359
880.097	3142
880.224	3131
880.351	3188
880.478	3176
880.605	3195
880.732	3169
880.859	3477
880.986	3294
881.112	3321
881.239	3188
881.366	3089
881.493	3036
881.619	2998
881.746	3066
881.872	3104
881.999	3093
882.125	3176
882.252	3230
882.378	3279
882.505	3431
882.631	3275
882.757	3131
882.883	3226
883.01	3199
883.136	3135
883.262	3066
883.388	3123
883.514	3310
883.64	3378
883.766	3283
883.892	3214
884.018	3230
884.143	3412
884.269	3507
884.395	3173
884.52	3135
884.646	3176
884.772	3135
884.897	3093
885.023	3199
885.148	3336
885.274	3409
885.399	3332
885.524	3287
885.65	3233
885.775	3336
885.9	3260
886.025	3428
886.15	3363
886.275	3302
886.4	3222
886.525	3306
886.65	3249
886.775	3275
886.9	3443
887.025	3618
887.149	3405
887.274	3260
887.399	3169
887.523	3207
887.648	3203
887.773	3207
887.897	3386
888.021	3351
888.146	3329
888.27	3447
888.395	3492
888.519	3405
888.643	3435
888.767	3450
888.891	3302
889.015	3203
889.139	3287
889.263	3211
889.387	3386
889.511	3462
889.635	3450
889.759	3268
889.883	3291
890.006	3416
890.13	3500
890.254	3279
890.377	3374
890.501	3184
890.624	3218
890.748	3325
890.871	3188
890.995	3112
891.118	3077
891.241	3214
891.364	3233
891.488	3283
891.611	3176
891.734	3233
891.857	3306
891.98	3222
892.103	3351
892.226	3279
892.349	3214
892.471	3112
892.594	3260
892.717	3256
892.839	3291
892.962	3287
893.085	3348
893.207	3317
893.33	3154
893.452	3180
893.575	3351
893.697	3256
893.819	3450
893.941	3492
894.064	3435
894.186	3253
894.308	3264
894.43	3416
894.552	3519
894.674	3420
894.796	3272
894.918	3260
895.04	3298
895.161	3466
895.283	3386
895.405	3306
895.526	3348
895.648	3458
895.769	3420
895.891	3454
896.012	3469
896.134	3466
896.255	3424
896.376	3378
896.498	3374
896.619	3431
896.74	3370
896.861	3386
896.982	3660
897.103	3819
897.224	3591
897.345	3549
897.466	3428
897.587	3450
897.708	3610
897.828	3561
897.949	3431
898.07	3310
898.19	3374
898.311	3625
898.431	3477
898.552	3477
898.672	3595
898.792	3622
898.913	3515
899.033	3409
899.153	3306
899.273	3199
899.393	3253
899.513	3279
899.633	3298
899.753	3359
899.873	3302
899.993	3359
900.113	3336
900.232	3378
900.352	3359
900.472	3291
900.591	3226
900.711	3310
900.83	3260
900.95	3405
901.069	3523
901.189	3393
901.308	3173
901.427	3123
901.546	3176
901.665	3218
901.784	3313
901.904	3203
902.023	3123
902.141	3028
902.26	3009
902.379	3142
902.498	3093
902.617	3055
902.735	3241
902.854	3233
902.973	3203
903.091	3024
903.21	3081
903.328	3123
903.446	3077
903.565	3100
903.683	3207
903.801	3127
903.919	3237
904.038	3294
904.156	3169
904.274	3275
904.392	3226
904.51	3268
904.627	3321
904.745	3420
904.863	3530
904.981	3211
905.098	3146
905.216	3260
905.334	3283
905.451	3287
905.569	3317
905.686	3389
905.803	3431
905.921	3256
906.038	3462
906.155	3317
906.272	3264
906.389	3321
906.506	3233
906.623	3245
906.74	3226
906.857	3176
906.974	3313
907.091	3435
907.208	3538
907.324	3435
907.441	3424
907.557	3245
907.674	3245
907.79	3203
907.907	3279
908.023	3359
908.139	3374
908.256	3298
908.372	3359
908.488	3344
908.604	3230
908.72	3203
908.836	3283
908.952	3283
909.068	3321
909.184	3447
909.3	3428
909.415	3496
909.531	3458
909.647	3256
909.762	3287
909.878	3253
909.993	3382
910.108	3336
910.224	3351
910.339	3412
910.454	3359
910.57	3302
910.685	3233
910.8	3561
910.915	3549
911.03	3443
911.145	3275
911.259	3256
911.374	3306
911.489	3233
911.604	3230
911.718	3123
911.833	3161
911.947	3036
912.062	2998
912.176	3142
912.291	3176
912.405	3157
912.519	3450
912.633	3469
912.748	3355
912.862	3256
912.976	3203
913.09	3112
913.204	3108
913.318	3184
913.431	3332
913.545	3359
913.659	3405
913.772	3306
913.886	3218
914	3218
914.113	3340
914.226	3409
914.34	3332
914.453	3203
914.566	3393
914.68	3291
914.793	3298
914.906	3142
915.019	3112
915.132	3074
915.245	3176
915.358	3207
915.47	3256
915.583	3241
915.696	3279
915.809	3367
915.921	3386
916.034	3253
916.146	3253
916.259	3222
916.371	3359
916.483	3348
916.595	3237
916.708	3291
916.82	3332
916.932	3363
917.044	3321
917.156	3325
917.268	3237
917.38	3294
917.491	3279
917.603	3355
917.715	3409
917.826	3462
917.938	3370
918.049	3256
918.161	3443
918.272	3591
918.384	3557
918.495	3492
918.606	3317
918.717	3256
918.828	3374
918.939	3370
919.05	3306
919.161	3348
919.272	3188
919.383	3260
919.494	3534
919.604	3618
919.715	3492
919.826	3386
919.936	3412
920.047	3603
920.157	3561
920.267	3770
920.378	3610
920.488	3534
920.598	3759
920.708	3949
920.818	3850
920.928	3842
921.038	4071
921.148	3994
921.258	3705
921.368	3629
921.477	3587
921.587	3549
921.697	3504
921.806	3671
921.916	3496
922.025	3306
922.134	3363
922.244	3351
922.353	3416
922.462	3249
922.571	3226
922.68	3116
922.789	3024
922.898	3142
923.007	3058
923.116	3192
923.224	3173
923.333	3203
923.442	3085
923.55	3070
923.659	3154
923.767	3180
923.876	3104
923.984	3218
924.092	3085
924.201	3214
924.309	3188
924.417	3222
924.525	3154
924.633	3253
924.741	4185
924.849	3032
924.956	3245
925.064	3085
925.172	3036
925.279	3089
925.387	3184
925.494	3195
925.602	3325
925.709	3298
925.816	3192
925.924	3241
926.031	3306
926.138	3325
926.245	3317
926.352	3260
926.459	3382
926.566	3496
926.673	3294
926.779	3214
926.886	3253
926.993	3146
927.099	3138
927.206	3142
927.312	3123
927.419	3241
927.525	3218
927.631	3268
927.737	3157
927.843	3135
927.95	2998
928.056	3138
928.162	3157
928.267	3233
928.373	3793
928.479	3302
928.585	3017
928.69	3230
928.796	3268
928.901	3154
929.007	3028
929.112	3214
929.218	3184
929.323	3157
929.428	3138
929.533	3283
929.638	3085
929.743	3188
929.848	3237
929.953	3199
930.058	3119
930.163	2975
930.267	3047
930.372	3176
930.477	3043
930.581	3329
930.685	3150
930.79	3055
930.894	3097
930.998	3066
931.103	3317
931.207	2929
931.311	2929
931.415	2933
931.519	2792
931.623	2838
