Data from test_V78500241_306.txt Node
Date: Fri Mar 25 16:17:19 CST 2022
User: usil
Spectrometer: V785-0024
Trigger mode: 0
Integration Time (sec): 4.000000E-1
Scans to average: 1
Nonlinearity correction enabled: false
Boxcar width: 0
Storing dark spectrum: false
XAxis mode: Wavelengths
Number of Pixels in Spectrum: 1024
>>>>>Begin Spectral Data<<<<<
801.071	2918
801.214	2952
801.356	2857
801.499	2929
801.641	2880
801.783	2902
801.926	3066
802.068	2967
802.211	2994
802.353	3028
802.496	2967
802.638	3001
802.78	3047
802.923	3093
803.065	3028
803.208	2914
803.35	2899
803.492	2925
803.635	2906
803.777	2746
803.919	2868
804.061	3214
804.204	2952
804.346	2902
804.488	2880
804.63	2982
804.773	2868
804.915	2895
805.057	3043
805.199	2891
805.341	2975
805.483	3074
805.626	2994
805.768	2963
805.91	3055
806.052	3135
806.194	2986
806.336	3192
806.478	3066
806.62	2937
806.762	2979
806.904	3062
807.046	3142
807.188	2963
807.33	2918
807.472	2994
807.614	2899
807.756	2975
807.898	2914
808.04	2857
808.182	2971
808.324	2960
808.465	2906
808.607	2861
808.749	2796
808.891	2864
809.033	2975
809.174	2971
809.316	2899
809.458	2891
809.6	2766
809.741	2762
809.883	2754
810.025	2868
810.166	2842
810.308	2864
810.45	2811
810.591	2788
810.733	2788
810.875	2849
811.016	2777
811.158	2766
811.299	2754
811.441	2922
811.582	2876
811.724	2864
811.865	2853
812.007	2902
812.148	2876
812.29	2868
812.431	2895
812.573	2933
812.714	2929
812.855	3081
812.997	3055
813.138	3119
813.279	3013
813.421	2986
813.562	2971
813.703	2861
813.845	2910
813.986	2785
814.127	2735
814.268	2792
814.41	2857
814.551	2815
814.692	2876
814.833	2823
814.974	2944
815.115	2922
815.256	2834
815.397	2815
815.539	2857
815.68	2792
815.821	2777
815.962	2971
816.103	2929
816.244	2880
816.385	2849
816.526	2971
816.666	2914
816.807	2762
816.948	2887
817.089	2910
817.23	2880
817.371	2796
817.512	2800
817.653	2819
817.793	2800
817.934	2899
818.075	2975
818.216	3032
818.356	3013
818.497	2880
818.638	2804
818.778	2842
818.919	2785
819.06	2762
819.2	2876
819.341	2857
819.481	2788
819.622	2937
819.762	3085
819.903	3032
820.043	2937
820.184	2925
820.324	2891
820.465	2994
820.605	3036
820.746	3043
820.886	2929
821.026	3097
821.167	3169
821.307	3256
821.447	3298
821.588	3211
821.728	3245
821.868	3207
822.008	3097
822.149	3173
822.289	3283
822.429	3081
822.569	3089
822.709	3211
822.849	3005
822.99	3062
823.13	3150
823.27	3173
823.41	3077
823.55	3157
823.69	3173
823.83	3188
823.97	3089
824.11	2994
824.25	2979
824.389	3051
824.529	3112
824.669	3062
824.809	3161
824.949	3272
825.089	3211
825.228	3173
825.368	3051
825.508	2975
825.648	2998
825.787	2998
825.927	3032
826.067	2986
826.206	2986
826.346	3051
826.485	3066
826.625	3116
826.765	3279
826.904	3214
827.044	2982
827.183	2967
827.323	2857
827.462	3009
827.601	2899
827.741	2925
827.88	2937
828.02	2906
828.159	2960
828.298	3051
828.437	3123
828.577	3039
828.716	3230
828.855	3097
828.994	2899
829.134	2895
829.273	2880
829.412	2861
829.551	2861
829.69	2899
829.829	2982
829.968	3161
830.107	3051
830.246	3039
830.385	2910
830.524	2868
830.663	2819
830.802	2724
830.941	2655
831.08	2663
831.219	2735
831.357	2743
831.496	2952
831.635	2701
831.774	2625
831.913	2655
832.051	2560
832.19	2564
832.329	2693
832.467	2526
832.606	2495
832.744	2556
832.883	2606
833.022	2602
833.16	2659
833.299	2705
833.437	2678
833.576	2686
833.714	2708
833.852	2735
833.991	2754
834.129	2872
834.267	2834
834.406	2815
834.544	2891
834.682	2883
834.821	2887
834.959	3017
835.097	2918
835.235	3055
835.373	2986
835.511	3062
835.65	2956
835.788	2941
835.926	2834
836.064	2826
836.202	2861
836.34	3089
836.478	3142
836.615	3028
836.753	3146
836.891	3214
837.029	3195
837.167	3123
837.305	3028
837.443	3062
837.58	2975
837.718	3131
837.856	3070
837.993	3066
838.131	3093
838.269	3123
838.406	3100
838.544	3085
838.681	2975
838.819	2887
838.956	2815
839.094	2788
839.231	2933
839.369	3032
839.506	3401
839.643	3241
839.781	3005
839.918	2956
840.055	3032
840.193	3024
840.33	3024
840.467	3108
840.604	3138
840.742	3424
840.879	3043
841.016	3062
841.153	3108
841.29	3332
841.427	3302
841.564	3279
841.701	3313
841.838	3211
841.975	3173
842.112	3237
842.249	3100
842.385	3013
842.522	3256
842.659	3081
842.796	3070
842.933	3108
843.069	3043
843.206	3062
843.343	3203
843.479	3108
843.616	3146
843.752	2891
843.889	2830
844.025	3070
844.162	2883
844.298	3104
844.435	2948
844.571	2906
844.708	3043
844.844	3173
844.98	3264
845.117	3218
845.253	3028
845.389	2990
845.525	3051
845.661	3154
845.798	3005
845.934	3112
846.07	3051
846.206	3218
846.342	3275
846.478	3253
846.614	3032
846.75	3055
846.886	3028
847.022	3233
847.158	3165
847.294	3180
847.429	3218
847.565	3207
847.701	3469
847.837	3017
847.972	3005
848.108	3165
848.244	3116
848.379	2971
848.515	2971
848.65	2922
848.786	2967
848.921	2986
849.057	3081
849.192	3142
849.328	3039
849.463	3142
849.598	3062
849.734	3005
849.869	2994
850.004	2918
850.14	2952
850.275	2891
850.41	2823
850.545	2872
850.68	2952
850.815	2937
850.95	2956
851.085	3218
851.22	3119
851.355	3005
851.49	2994
851.625	2979
851.76	3036
851.895	2944
852.03	2899
852.165	3039
852.299	3112
852.434	3165
852.569	3142
852.703	3203
852.838	3241
852.973	3306
853.107	3310
853.242	3188
853.376	3077
853.511	2982
853.645	3032
853.78	3203
853.914	3104
854.048	3127
854.183	3097
854.317	3195
854.451	3249
854.585	3116
854.72	3112
854.854	3211
854.988	3062
855.122	3070
855.256	3028
855.39	3100
855.524	3214
855.658	3195
855.792	3154
855.926	3192
856.06	3230
856.194	3260
856.327	3169
856.461	3081
856.595	3142
856.729	3089
856.862	3211
856.996	3116
857.13	3192
857.263	3256
857.397	3218
857.53	3142
857.664	3203
857.797	3245
857.931	3264
858.064	3173
858.197	3237
858.331	3127
858.464	3062
858.597	2982
858.731	3131
858.864	3150
858.997	3085
859.13	3123
859.263	3135
859.396	3173
859.529	3066
859.662	3077
859.795	3055
859.928	3116
860.061	3272
860.194	3268
860.327	3150
860.46	3070
860.592	3207
860.725	3260
860.858	3237
860.99	3131
861.123	3051
861.256	3058
861.388	3138
861.521	3819
861.653	3001
861.786	2975
861.918	2994
862.05	3100
862.183	3085
862.315	3127
862.447	3192
862.58	3074
862.712	2963
862.844	2902
862.976	3005
863.108	3020
863.24	3291
863.372	2883
863.504	2952
863.636	2967
863.768	3032
863.9	2990
864.032	2937
864.164	2948
864.296	3005
864.428	3097
864.559	3081
864.691	3051
864.823	3024
864.954	3051
865.086	3036
865.217	3001
865.349	2918
865.48	2975
865.612	3009
865.743	3150
865.875	2956
866.006	2914
866.137	2925
866.269	2944
866.4	2929
866.531	2880
866.662	2868
866.793	2891
866.924	2895
867.055	2967
867.186	2929
867.317	2861
867.448	2834
867.579	2872
867.71	2853
867.841	2815
867.972	2914
868.103	2914
868.233	2876
868.364	2876
868.495	2925
868.625	3074
868.756	3192
868.886	2963
869.017	3036
869.147	3165
869.278	3184
869.408	3077
869.539	2986
869.669	3074
869.799	3051
869.929	3127
870.06	3089
870.19	3332
870.32	3317
870.45	3321
870.58	3359
870.71	3409
870.84	3443
870.97	3302
871.1	3253
871.23	3488
871.36	3462
871.489	3351
871.619	3393
871.749	3450
871.879	3431
872.008	3473
872.138	3294
872.267	3256
872.397	3154
872.526	3077
872.656	3013
872.785	3062
872.915	3283
873.044	3287
873.173	3192
873.303	3264
873.432	3264
873.561	3245
873.69	3161
873.819	3176
873.948	3173
874.077	3100
874.206	3005
874.335	3066
874.464	3199
874.593	3336
874.722	3264
874.851	3409
874.979	3359
875.108	3329
875.237	3142
875.365	3169
875.494	3150
875.623	3272
875.751	3077
875.88	3123
876.008	3188
876.136	3249
876.265	3332
876.393	3511
876.521	3409
876.65	3393
876.778	3344
876.906	3260
877.034	3233
877.162	3230
877.29	3180
877.418	3222
877.546	3241
877.674	3241
877.802	3233
877.93	3207
878.058	3161
878.185	3116
878.313	3214
878.441	3214
878.568	3062
878.696	3135
878.824	3260
878.951	3253
879.079	3450
879.206	3641
879.333	3420
879.461	3325
879.588	3336
879.715	3504
879.842	3587
879.97	3382
880.097	3188
880.224	3089
880.351	3176
880.478	3230
880.605	3207
880.732	3161
880.859	3523
880.986	3317
881.112	3332
881.239	3188
881.366	3077
881.493	3032
881.619	2994
881.746	3085
881.872	3089
881.999	3157
882.125	3150
882.252	3268
882.378	3275
882.505	3401
882.631	3253
882.757	3169
882.883	3211
883.01	3222
883.136	3180
883.262	3089
883.388	3123
883.514	3340
883.64	3378
883.766	3340
883.892	3169
884.018	3249
884.143	3374
884.269	3511
884.395	3184
884.52	3180
884.646	3207
884.772	3108
884.897	3097
885.023	3188
885.148	3310
885.274	3401
885.399	3344
885.524	3260
885.65	3245
885.775	3321
885.9	3287
886.025	3412
886.15	3340
886.275	3279
886.4	3226
886.525	3310
886.65	3256
886.775	3348
886.9	3473
887.025	3614
887.149	3420
887.274	3237
887.399	3146
887.523	3192
887.648	3199
887.773	3184
887.897	3382
888.021	3405
888.146	3317
888.27	3443
888.395	3530
888.519	3435
888.643	3485
888.767	3473
888.891	3336
889.015	3272
889.139	3283
889.263	3233
889.387	3382
889.511	3500
889.635	3458
889.759	3287
889.883	3332
890.006	3370
890.13	3450
890.254	3268
890.377	3340
890.501	3184
890.624	3207
890.748	3325
890.871	3176
890.995	3112
891.118	3093
891.241	3180
891.364	3218
891.488	3302
891.611	3233
891.734	3218
891.857	3260
891.98	3245
892.103	3344
892.226	3332
892.349	3192
892.471	3135
892.594	3275
892.717	3302
892.839	3283
892.962	3313
893.085	3321
893.207	3306
893.33	3142
893.452	3211
893.575	3348
893.697	3249
893.819	3473
893.941	3481
894.064	3428
894.186	3233
894.308	3241
894.43	3435
894.552	3530
894.674	3443
894.796	3241
894.918	3321
895.04	3264
895.161	3443
895.283	3393
895.405	3313
895.526	3355
895.648	3416
895.769	3439
895.891	3431
896.012	3462
896.134	3473
896.255	3412
896.376	3367
896.498	3355
896.619	3405
896.74	3386
896.861	3393
896.982	3660
897.103	3835
897.224	3625
897.345	3511
897.466	3424
897.587	3519
897.708	3580
897.828	3561
897.949	3458
898.07	3344
898.19	3393
898.311	3591
898.431	3473
898.552	3507
898.672	3591
898.792	3584
898.913	3534
899.033	3424
899.153	3313
899.273	3226
899.393	3313
899.513	3332
899.633	3336
899.753	3344
899.873	3291
899.993	3370
900.113	3310
900.232	3348
900.352	3378
900.472	3310
900.591	3180
900.711	3325
900.83	3275
900.95	3412
901.069	3481
901.189	3317
901.308	3211
901.427	3089
901.546	3199
901.665	3245
901.784	3321
901.904	3241
902.023	3161
902.141	3013
902.26	2963
902.379	3138
902.498	3043
902.617	3058
902.735	3192
902.854	3230
902.973	3207
903.091	3070
903.21	3104
903.328	3165
903.446	3085
903.565	3070
903.683	3157
903.801	3173
903.919	3230
904.038	3302
904.156	3157
904.274	3306
904.392	3283
904.51	3317
904.627	3382
904.745	3458
904.863	3492
904.981	3249
905.098	3184
905.216	3226
905.334	3279
905.451	3313
905.569	3329
905.686	3424
905.803	3435
905.921	3306
906.038	3405
906.155	3332
906.272	3279
906.389	3329
906.506	3237
906.623	3241
906.74	3287
906.857	3180
906.974	3222
907.091	3431
907.208	3576
907.324	3511
907.441	3409
907.557	3203
907.674	3268
907.79	3203
907.907	3313
908.023	3374
908.139	3386
908.256	3332
908.372	3412
908.488	3340
908.604	3275
908.72	3226
908.836	3272
908.952	3256
909.068	3344
909.184	3504
909.3	3386
909.415	3488
909.531	3507
909.647	3279
909.762	3294
909.878	3256
909.993	3370
910.108	3302
910.224	3313
910.339	3424
910.454	3332
910.57	3275
910.685	3241
910.8	3633
910.915	3538
911.03	3458
911.145	3275
911.259	3241
911.374	3321
911.489	3241
911.604	3233
911.718	3157
911.833	3146
911.947	3032
912.062	2967
912.176	3188
912.291	3199
912.405	3233
912.519	3439
912.633	3443
912.748	3332
912.862	3313
912.976	3184
913.09	3066
913.204	3142
913.318	3241
913.431	3325
913.545	3336
913.659	3409
913.772	3306
913.886	3203
914	3207
914.113	3355
914.226	3412
914.34	3393
914.453	3192
914.566	3409
914.68	3302
914.793	3329
914.906	3154
915.019	3104
915.132	3066
915.245	3161
915.358	3211
915.47	3218
915.583	3291
915.696	3287
915.809	3462
915.921	3447
916.034	3260
916.146	3256
916.259	3253
916.371	3393
916.483	3374
916.595	3253
916.708	3321
916.82	3378
916.932	3340
917.044	3310
917.156	3355
917.268	3264
917.38	3291
917.491	3310
917.603	3363
917.715	3416
917.826	3454
917.938	3389
918.049	3294
918.161	3443
918.272	3595
918.384	3557
918.495	3526
918.606	3340
918.717	3287
918.828	3378
918.939	3389
919.05	3336
919.161	3336
919.272	3199
919.383	3313
919.494	3523
919.604	3698
919.715	3492
919.826	3401
919.936	3462
920.047	3618
920.157	3500
920.267	3785
920.378	3629
920.488	3538
920.598	3770
920.708	4002
920.818	3819
920.928	3789
921.038	4048
921.148	3983
921.258	3736
921.368	3629
921.477	3599
921.587	3526
921.697	3469
921.806	3606
921.916	3523
922.025	3348
922.134	3367
922.244	3344
922.353	3458
922.462	3264
922.571	3207
922.68	3127
922.789	3081
922.898	3131
923.007	3081
923.116	3214
923.224	3173
923.333	3180
923.442	3070
923.55	3097
923.659	3127
923.767	3253
923.876	3085
923.984	3245
924.092	3108
924.201	3180
924.309	3249
924.417	3207
924.525	3199
924.633	3230
924.741	4223
924.849	3051
924.956	3253
925.064	3100
925.172	3020
925.279	3116
925.387	3195
925.494	3184
925.602	3367
925.709	3321
925.816	3233
925.924	3287
926.031	3393
926.138	3310
926.245	3344
926.352	3264
926.459	3378
926.566	3488
926.673	3340
926.779	3241
926.886	3332
926.993	3173
927.099	3165
927.206	3135
927.312	3112
927.419	3226
927.525	3207
927.631	3272
927.737	3169
927.843	3123
927.95	3043
928.056	3116
928.162	3157
928.267	3245
928.373	3854
928.479	3279
928.585	3055
928.69	3222
928.796	3283
928.901	3169
929.007	3024
929.112	3211
929.218	3214
929.323	3150
929.428	3157
929.533	3329
929.638	3100
929.743	3180
929.848	3264
929.953	3207
930.058	3169
930.163	3001
930.267	3108
930.372	3188
930.477	3032
930.581	3329
930.685	3184
930.79	3058
930.894	3123
930.998	3074
931.103	3241
931.207	2975
931.311	2910
931.415	2941
931.519	2769
931.623	2807
