Data from test_V78500241_748.txt Node
Date: Fri Mar 25 16:20:23 CST 2022
User: usil
Spectrometer: V785-0024
Trigger mode: 0
Integration Time (sec): 4.000000E-1
Scans to average: 1
Nonlinearity correction enabled: false
Boxcar width: 0
Storing dark spectrum: false
XAxis mode: Wavelengths
Number of Pixels in Spectrum: 1024
>>>>>Begin Spectral Data<<<<<
801.071	2918
801.214	2933
801.356	2891
801.499	2880
801.641	2861
801.783	2922
801.926	3070
802.068	2941
802.211	2975
802.353	3036
802.496	2918
802.638	2975
802.78	3005
802.923	3074
803.065	2986
803.208	2899
803.35	2887
803.492	2948
803.635	2902
803.777	2781
803.919	2853
804.061	3211
804.204	2952
804.346	2918
804.488	2838
804.63	2990
804.773	2861
804.915	2902
805.057	3039
805.199	2910
805.341	2986
805.483	3039
805.626	2990
805.768	2990
805.91	3093
806.052	3097
806.194	3017
806.336	3233
806.478	3039
806.62	2933
806.762	2979
806.904	3051
807.046	3154
807.188	2982
807.33	2887
807.472	2963
807.614	2899
807.756	2986
807.898	2929
808.04	2876
808.182	2967
808.324	2979
808.465	2864
808.607	2864
808.749	2811
808.891	2845
809.033	2963
809.174	2944
809.316	2918
809.458	2895
809.6	2807
809.741	2781
809.883	2766
810.025	2830
810.166	2864
810.308	2842
810.45	2883
810.591	2781
810.733	2758
810.875	2830
811.016	2796
811.158	2769
811.299	2800
811.441	2925
811.582	2902
811.724	2872
811.865	2819
812.007	2899
812.148	2876
812.29	2842
812.431	2864
812.573	2929
812.714	2944
812.855	3055
812.997	3055
813.138	3131
813.279	3009
813.421	2952
813.562	3005
813.703	2857
813.845	2861
813.986	2762
814.127	2678
814.268	2819
814.41	2838
814.551	2788
814.692	2872
814.833	2800
814.974	2880
815.115	2952
815.256	2838
815.397	2792
815.539	2853
815.68	2777
815.821	2819
815.962	2960
816.103	2918
816.244	2864
816.385	2902
816.526	2971
816.666	2933
816.807	2773
816.948	2853
817.089	2914
817.23	2838
817.371	2754
817.512	2785
817.653	2861
817.793	2811
817.934	2849
818.075	2952
818.216	2960
818.356	3017
818.497	2887
818.638	2762
818.778	2853
818.919	2815
819.06	2750
819.2	2864
819.341	2792
819.481	2788
819.622	2902
819.762	3089
819.903	3032
820.043	2918
820.184	2899
820.324	2929
820.465	3001
820.605	3009
820.746	3001
820.886	2902
821.026	3093
821.167	3176
821.307	3268
821.447	3321
821.588	3233
821.728	3203
821.868	3188
822.008	3116
822.149	3192
822.289	3211
822.429	3093
822.569	3108
822.709	3188
822.849	3017
822.99	3081
823.13	3138
823.27	3180
823.41	3093
823.55	3161
823.69	3119
823.83	3173
823.97	3108
824.11	3020
824.25	2986
824.389	3058
824.529	3100
824.669	3028
824.809	3176
824.949	3195
825.089	3222
825.228	3157
825.368	2986
825.508	2982
825.648	2941
825.787	3028
825.927	3020
826.067	2960
826.206	2990
826.346	3051
826.485	3093
826.625	3085
826.765	3268
826.904	3192
827.044	2971
827.183	2922
827.323	2880
827.462	2986
827.601	2895
827.741	2941
827.88	2937
828.02	2842
828.159	2975
828.298	3051
828.437	3119
828.577	3043
828.716	3268
828.855	3032
828.994	2918
829.134	2842
829.273	2891
829.412	2868
829.551	2864
829.69	2880
829.829	2994
829.968	3066
830.107	2990
830.246	3036
830.385	2895
830.524	2880
830.663	2861
830.802	2731
830.941	2659
831.08	2617
831.219	2739
831.357	2766
831.496	2918
831.635	2727
831.774	2613
831.913	2648
832.051	2518
832.19	2541
832.329	2686
832.467	2537
832.606	2473
832.744	2575
832.883	2610
833.022	2560
833.16	2636
833.299	2689
833.437	2663
833.576	2708
833.714	2716
833.852	2750
833.991	2777
834.129	2842
834.267	2880
834.406	2804
834.544	2906
834.682	2899
834.821	2823
834.959	3032
835.097	2902
835.235	3036
835.373	2998
835.511	2994
835.65	2925
835.788	2979
835.926	2834
836.064	2811
836.202	2819
836.34	3100
836.478	3146
836.615	3036
836.753	3123
836.891	3214
837.029	3112
837.167	3055
837.305	3081
837.443	3055
837.58	2925
837.718	3119
837.856	3081
837.993	3028
838.131	3100
838.269	3112
838.406	3058
838.544	3100
838.681	2933
838.819	2872
838.956	2830
839.094	2853
839.231	2895
839.369	3013
839.506	3363
839.643	3207
839.781	2982
839.918	2971
840.055	3028
840.193	3032
840.33	3013
840.467	3074
840.604	3135
840.742	3424
840.879	3032
841.016	3013
841.153	3081
841.29	3302
841.427	3317
841.564	3241
841.701	3302
841.838	3214
841.975	3146
842.112	3222
842.249	3085
842.385	3001
842.522	3275
842.659	3089
842.796	3062
842.933	3104
843.069	3051
843.206	3013
843.343	3169
843.479	3081
843.616	3173
843.752	2891
843.889	2849
844.025	3085
844.162	2872
844.298	3062
844.435	2963
844.571	2925
844.708	3028
844.844	3195
844.98	3218
845.117	3214
845.253	3055
845.389	3009
845.525	3051
845.661	3085
845.798	3017
845.934	3104
846.07	3058
846.206	3188
846.342	3264
846.478	3233
846.614	3028
846.75	3005
846.886	3032
847.022	3256
847.158	3150
847.294	3176
847.429	3214
847.565	3199
847.701	3466
847.837	3066
847.972	2990
848.108	3138
848.244	3150
848.379	2979
848.515	2891
848.65	2902
848.786	2902
848.921	3024
849.057	3104
849.192	3157
849.328	3047
849.463	3089
849.598	3077
849.734	3039
849.869	3009
850.004	2910
850.14	2960
850.275	2872
850.41	2823
850.545	2857
850.68	2944
850.815	2929
850.95	2956
851.085	3184
851.22	3135
851.355	3020
851.49	2963
851.625	3005
851.76	3020
851.895	2929
852.03	2922
852.165	3043
852.299	3089
852.434	3169
852.569	3146
852.703	3199
852.838	3260
852.973	3325
853.107	3321
853.242	3138
853.376	3058
853.511	2971
853.645	3051
853.78	3230
853.914	3058
854.048	3097
854.183	3051
854.317	3142
854.451	3302
854.585	3131
854.72	3066
854.854	3218
854.988	3058
855.122	3112
855.256	2956
855.39	3138
855.524	3249
855.658	3180
855.792	3142
855.926	3173
856.06	3214
856.194	3245
856.327	3169
856.461	3066
856.595	3047
856.729	3077
856.862	3188
856.996	3165
857.13	3173
857.263	3226
857.397	3256
857.53	3097
857.664	3188
857.797	3192
857.931	3222
858.064	3142
858.197	3211
858.331	3123
858.464	3081
858.597	2982
858.731	3085
858.864	3112
858.997	3070
859.13	3157
859.263	3131
859.396	3192
859.529	3089
859.662	3074
859.795	3036
859.928	3108
860.061	3275
860.194	3237
860.327	3123
860.46	3058
860.592	3226
860.725	3230
860.858	3222
860.99	3066
861.123	3043
861.256	3024
861.388	3119
861.521	3922
861.653	3028
861.786	2971
861.918	2982
862.05	3013
862.183	3097
862.315	3108
862.447	3192
862.58	3093
862.712	2952
862.844	2842
862.976	3013
863.108	3009
863.24	3431
863.372	2845
863.504	2990
863.636	2937
863.768	3058
863.9	3001
864.032	2925
864.164	2918
864.296	3005
864.428	3085
864.559	3077
864.691	3081
864.823	3081
864.954	3024
865.086	2998
865.217	2975
865.349	2944
865.48	2963
865.612	2990
865.743	3119
865.875	2982
866.006	2933
866.137	3001
866.269	2944
866.4	2906
866.531	2883
866.662	2887
866.793	2857
866.924	2864
867.055	2975
867.186	2925
867.317	2910
867.448	2796
867.579	2838
867.71	2876
867.841	2819
867.972	2891
868.103	2899
868.233	2887
868.364	2849
868.495	2895
868.625	3058
868.756	3146
868.886	2960
869.017	3005
869.147	3146
869.278	3157
869.408	3036
869.539	2994
869.669	3070
869.799	3009
869.929	3085
870.06	3119
870.19	3336
870.32	3275
870.45	3302
870.58	3348
870.71	3416
870.84	3416
870.97	3272
871.1	3218
871.23	3466
871.36	3485
871.489	3355
871.619	3386
871.749	3405
871.879	3439
872.008	3466
872.138	3325
872.267	3287
872.397	3127
872.526	3116
872.656	3017
872.785	3119
872.915	3237
873.044	3256
873.173	3180
873.303	3211
873.432	3207
873.561	3245
873.69	3176
873.819	3116
873.948	3180
874.077	3100
874.206	3024
874.335	3074
874.464	3188
874.593	3340
874.722	3237
874.851	3378
874.979	3348
875.108	3325
875.237	3184
875.365	3195
875.494	3135
875.623	3291
875.751	3062
875.88	3066
876.008	3157
876.136	3173
876.265	3363
876.393	3477
876.521	3416
876.65	3363
876.778	3283
876.906	3245
877.034	3184
877.162	3233
877.29	3154
877.418	3211
877.546	3237
877.674	3249
877.802	3230
877.93	3218
878.058	3165
878.185	3100
878.313	3214
878.441	3188
878.568	3047
878.696	3165
878.824	3237
878.951	3306
879.079	3477
879.206	3633
879.333	3454
879.461	3344
879.588	3340
879.715	3462
879.842	3584
879.97	3382
880.097	3180
880.224	3135
880.351	3207
880.478	3230
880.605	3169
880.732	3184
880.859	3462
880.986	3294
881.112	3306
881.239	3176
881.366	3077
881.493	3043
881.619	2998
881.746	3051
881.872	3074
881.999	3070
882.125	3131
882.252	3237
882.378	3245
882.505	3412
882.631	3310
882.757	3169
882.883	3222
883.01	3237
883.136	3165
883.262	3093
883.388	3104
883.514	3283
883.64	3416
883.766	3287
883.892	3184
884.018	3249
884.143	3416
884.269	3515
884.395	3176
884.52	3195
884.646	3184
884.772	3131
884.897	3074
885.023	3222
885.148	3332
885.274	3424
885.399	3370
885.524	3283
885.65	3279
885.775	3298
885.9	3253
886.025	3435
886.15	3378
886.275	3272
886.4	3233
886.525	3302
886.65	3256
886.775	3253
886.9	3488
887.025	3644
887.149	3367
887.274	3256
887.399	3180
887.523	3192
887.648	3157
887.773	3195
887.897	3344
888.021	3424
888.146	3287
888.27	3443
888.395	3511
888.519	3382
888.643	3439
888.767	3454
888.891	3275
889.015	3233
889.139	3272
889.263	3241
889.387	3416
889.511	3492
889.635	3424
889.759	3287
889.883	3279
890.006	3367
890.13	3500
890.254	3279
890.377	3340
890.501	3188
890.624	3154
890.748	3306
890.871	3195
890.995	3093
891.118	3077
891.241	3192
891.364	3199
891.488	3321
891.611	3188
891.734	3218
891.857	3256
891.98	3268
892.103	3321
892.226	3264
892.349	3226
892.471	3108
892.594	3245
892.717	3268
892.839	3268
892.962	3268
893.085	3378
893.207	3283
893.33	3161
893.452	3192
893.575	3317
893.697	3226
893.819	3462
893.941	3538
894.064	3462
894.186	3279
894.308	3272
894.43	3428
894.552	3545
894.674	3462
894.796	3283
894.918	3298
895.04	3275
895.161	3370
895.283	3393
895.405	3298
895.526	3370
895.648	3412
895.769	3389
895.891	3450
896.012	3458
896.134	3454
896.255	3405
896.376	3389
896.498	3325
896.619	3401
896.74	3393
896.861	3393
896.982	3644
897.103	3816
897.224	3595
897.345	3492
897.466	3416
897.587	3538
897.708	3587
897.828	3587
897.949	3378
898.07	3340
898.19	3397
898.311	3584
898.431	3473
898.552	3523
898.672	3572
898.792	3603
898.913	3466
899.033	3409
899.153	3279
899.273	3195
899.393	3298
899.513	3317
899.633	3298
899.753	3310
899.873	3272
899.993	3351
900.113	3317
900.232	3393
900.352	3317
900.472	3264
900.591	3203
900.711	3260
900.83	3207
900.95	3412
901.069	3469
901.189	3359
901.308	3173
901.427	3142
901.546	3218
901.665	3294
901.784	3325
901.904	3192
902.023	3138
902.141	3020
902.26	2994
902.379	3108
902.498	3085
902.617	3047
902.735	3188
902.854	3264
902.973	3173
903.091	3028
903.21	3077
903.328	3127
903.446	3131
903.565	3081
903.683	3230
903.801	3108
903.919	3241
904.038	3287
904.156	3199
904.274	3268
904.392	3233
904.51	3268
904.627	3329
904.745	3431
904.863	3485
904.981	3199
905.098	3176
905.216	3237
905.334	3310
905.451	3291
905.569	3275
905.686	3397
905.803	3447
905.921	3313
906.038	3405
906.155	3332
906.272	3264
906.389	3310
906.506	3241
906.623	3245
906.74	3287
906.857	3192
906.974	3260
907.091	3439
907.208	3549
907.324	3492
907.441	3332
907.557	3211
907.674	3230
907.79	3203
907.907	3249
908.023	3355
908.139	3340
908.256	3378
908.372	3359
908.488	3317
908.604	3256
908.72	3249
908.836	3241
908.952	3302
909.068	3351
909.184	3519
909.3	3378
909.415	3504
909.531	3477
909.647	3298
909.762	3272
909.878	3268
909.993	3329
910.108	3329
910.224	3332
910.339	3428
910.454	3340
910.57	3253
910.685	3253
910.8	3568
910.915	3519
911.03	3443
911.145	3298
911.259	3226
911.374	3310
911.489	3218
911.604	3218
911.718	3104
911.833	3138
911.947	2986
912.062	3036
912.176	3180
912.291	3161
912.405	3203
912.519	3416
912.633	3469
912.748	3294
912.862	3298
912.976	3138
913.09	3070
913.204	3119
913.318	3230
913.431	3351
913.545	3260
913.659	3405
913.772	3294
913.886	3188
914	3173
914.113	3332
914.226	3386
914.34	3374
914.453	3245
914.566	3397
914.68	3287
914.793	3298
914.906	3161
915.019	3131
915.132	3066
915.245	3142
915.358	3218
915.47	3226
915.583	3253
915.696	3317
915.809	3409
915.921	3443
916.034	3287
916.146	3222
916.259	3218
916.371	3367
916.483	3363
916.595	3291
916.708	3310
916.82	3351
916.932	3344
917.044	3370
917.156	3336
917.268	3199
917.38	3332
917.491	3272
917.603	3382
917.715	3409
917.826	3443
917.938	3382
918.049	3272
918.161	3386
918.272	3584
918.384	3568
918.495	3473
918.606	3332
918.717	3245
918.828	3374
918.939	3431
919.05	3272
919.161	3359
919.272	3169
919.383	3287
919.494	3504
919.604	3728
919.715	3519
919.826	3382
919.936	3473
920.047	3599
920.157	3534
920.267	3797
920.378	3591
920.488	3553
920.598	3732
920.708	3922
920.818	3873
920.928	3816
921.038	4025
921.148	4013
921.258	3709
921.368	3603
921.477	3530
921.587	3538
921.697	3466
921.806	3618
921.916	3504
922.025	3374
922.134	3367
922.244	3287
922.353	3428
922.462	3245
922.571	3222
922.68	3074
922.789	3104
922.898	3104
923.007	3100
923.116	3207
923.224	3173
923.333	3180
923.442	3089
923.55	3089
923.659	3150
923.767	3245
923.876	3085
923.984	3230
924.092	3146
924.201	3184
924.309	3256
924.417	3264
924.525	3173
924.633	3264
924.741	4154
924.849	3028
924.956	3264
925.064	3100
925.172	3047
925.279	3089
925.387	3169
925.494	3165
925.602	3329
925.709	3351
925.816	3142
925.924	3253
926.031	3378
926.138	3351
926.245	3313
926.352	3275
926.459	3428
926.566	3439
926.673	3340
926.779	3260
926.886	3260
926.993	3173
927.099	3157
927.206	3176
927.312	3108
927.419	3253
927.525	3199
927.631	3268
927.737	3138
927.843	3116
927.95	3024
928.056	3089
928.162	3157
928.267	3245
928.373	3846
928.479	3313
928.585	3070
928.69	3199
928.796	3283
928.901	3157
929.007	3074
929.112	3211
929.218	3169
929.323	3131
929.428	3165
929.533	3355
929.638	3093
929.743	3173
929.848	3283
929.953	3241
930.058	3142
930.163	2998
930.267	3051
930.372	3188
930.477	3017
930.581	3275
930.685	3138
930.79	3077
930.894	3097
930.998	3104
931.103	3294
931.207	2975
931.311	2960
931.415	2948
931.519	2788
931.623	2804
