Data from test_V78500241_39.txt Node
Date: Fri Mar 25 16:15:28 CST 2022
User: usil
Spectrometer: V785-0024
Trigger mode: 0
Integration Time (sec): 4.000000E-1
Scans to average: 1
Nonlinearity correction enabled: false
Boxcar width: 0
Storing dark spectrum: false
XAxis mode: Wavelengths
Number of Pixels in Spectrum: 1024
>>>>>Begin Spectral Data<<<<<
801.071	2944
801.214	2956
801.356	2918
801.499	2929
801.641	2910
801.783	2979
801.926	3119
802.068	2990
802.211	3032
802.353	3051
802.496	2971
802.638	3043
802.78	3055
802.923	3127
803.065	3039
803.208	2906
803.35	2963
803.492	3013
803.635	3001
803.777	2781
803.919	2902
804.061	3214
804.204	2994
804.346	2944
804.488	2868
804.63	3043
804.773	2891
804.915	2952
805.057	3104
805.199	2948
805.341	3013
805.483	3066
805.626	3051
805.768	3024
805.91	3108
806.052	3150
806.194	3089
806.336	3275
806.478	3066
806.62	2975
806.762	3017
806.904	3104
807.046	3192
807.188	3039
807.33	2929
807.472	3009
807.614	2956
807.756	3017
807.898	2982
808.04	2883
808.182	3001
808.324	2982
808.465	2910
808.607	2933
808.749	2842
808.891	2899
809.033	2975
809.174	3058
809.316	2941
809.458	2910
809.6	2845
809.741	2807
809.883	2796
810.025	2925
810.166	2922
810.308	2883
810.45	2880
810.591	2849
810.733	2792
810.875	2819
811.016	2811
811.158	2754
811.299	2838
811.441	2952
811.582	2937
811.724	2857
811.865	2883
812.007	2933
812.148	2925
812.29	2937
812.431	2922
812.573	2956
812.714	2990
812.855	3093
812.997	3108
813.138	3081
813.279	3047
813.421	3043
813.562	3001
813.703	2895
813.845	2956
813.986	2815
814.127	2743
814.268	2830
814.41	2899
814.551	2857
814.692	2891
814.833	2838
814.974	2933
815.115	3013
815.256	2857
815.397	2842
815.539	2880
815.68	2838
815.821	2830
815.962	2986
816.103	2967
816.244	2944
816.385	2910
816.526	3039
816.666	2975
816.807	2754
816.948	2918
817.089	2971
817.23	2887
817.371	2830
817.512	2849
817.653	2872
817.793	2838
817.934	2933
818.075	3005
818.216	3058
818.356	3024
818.497	2960
818.638	2815
818.778	2804
818.919	2849
819.06	2796
819.2	2918
819.341	2876
819.481	2834
819.622	2941
819.762	3116
819.903	3100
820.043	2967
820.184	2929
820.324	2922
820.465	3039
820.605	3104
820.746	3062
820.886	2967
821.026	3165
821.167	3218
821.307	3302
821.447	3332
821.588	3233
821.728	3241
821.868	3222
822.008	3127
822.149	3222
822.289	3260
822.429	3146
822.569	3146
822.709	3218
822.849	3116
822.99	3097
823.13	3157
823.27	3237
823.41	3173
823.55	3173
823.69	3214
823.83	3245
823.97	3154
824.11	3058
824.25	3017
824.389	3081
824.529	3150
824.669	3062
824.809	3222
824.949	3291
825.089	3260
825.228	3214
825.368	3013
825.508	3005
825.648	3005
825.787	3013
825.927	3032
826.067	2998
826.206	2990
826.346	3097
826.485	3112
826.625	3142
826.765	3283
826.904	3268
827.044	3036
827.183	2971
827.323	2914
827.462	3024
827.601	3005
827.741	2952
827.88	2986
828.02	2906
828.159	3005
828.298	3070
828.437	3173
828.577	3047
828.716	3306
828.855	3131
828.994	2971
829.134	2914
829.273	2956
829.412	2868
829.551	2895
829.69	2906
829.829	3043
829.968	3180
830.107	3043
830.246	3028
830.385	2925
830.524	2891
830.663	2838
830.802	2746
830.941	2636
831.08	2686
831.219	2807
831.357	2792
831.496	2971
831.635	2766
831.774	2621
831.913	2682
832.051	2583
832.19	2564
832.329	2724
832.467	2564
832.606	2495
832.744	2587
832.883	2587
833.022	2636
833.16	2655
833.299	2701
833.437	2708
833.576	2750
833.714	2746
833.852	2758
833.991	2804
834.129	2849
834.267	2842
834.406	2815
834.544	2910
834.682	2933
834.821	2941
834.959	3074
835.097	2925
835.235	3077
835.373	3058
835.511	3070
835.65	3009
835.788	3001
835.926	2838
836.064	2853
836.202	2918
836.34	3112
836.478	3195
836.615	3093
836.753	3173
836.891	3214
837.029	3188
837.167	3154
837.305	3104
837.443	3062
837.58	2956
837.718	3176
837.856	3097
837.993	3081
838.131	3176
838.269	3169
838.406	3131
838.544	3138
838.681	2944
838.819	2933
838.956	2853
839.094	2853
839.231	2960
839.369	3032
839.506	3382
839.643	3245
839.781	3047
839.918	2986
840.055	3058
840.193	3093
840.33	3058
840.467	3127
840.604	3169
840.742	3409
840.879	3039
841.016	3085
841.153	3154
841.29	3374
841.427	3332
841.564	3340
841.701	3317
841.838	3260
841.975	3195
842.112	3253
842.249	3112
842.385	3055
842.522	3275
842.659	3123
842.796	3104
842.933	3119
843.069	3081
843.206	3131
843.343	3226
843.479	3142
843.616	3184
843.752	2937
843.889	2864
844.025	3089
844.162	2933
844.298	3104
844.435	2998
844.571	2948
844.708	3119
844.844	3237
844.98	3245
845.117	3211
845.253	3093
845.389	3051
845.525	3131
845.661	3169
845.798	3017
845.934	3138
846.07	3066
846.206	3241
846.342	3325
846.478	3253
846.614	3142
846.75	3070
846.886	3077
847.022	3253
847.158	3161
847.294	3268
847.429	3260
847.565	3237
847.701	3526
847.837	3062
847.972	3047
848.108	3169
848.244	3169
848.379	3020
848.515	2971
848.65	2952
848.786	3024
848.921	3070
849.057	3131
849.192	3146
849.328	3112
849.463	3116
849.598	3081
849.734	3085
849.869	3051
850.004	2967
850.14	3001
850.275	2948
850.41	2887
850.545	2895
850.68	2944
850.815	3013
850.95	3001
851.085	3237
851.22	3131
851.355	3066
851.49	2990
851.625	3051
851.76	3020
851.895	2956
852.03	2925
852.165	3085
852.299	3135
852.434	3245
852.569	3173
852.703	3203
852.838	3294
852.973	3412
853.107	3374
853.242	3207
853.376	3157
853.511	3013
853.645	3047
853.78	3275
853.914	3142
854.048	3142
854.183	3138
854.317	3165
854.451	3329
854.585	3161
854.72	3116
854.854	3275
854.988	3074
855.122	3097
855.256	3051
855.39	3146
855.524	3275
855.658	3199
855.792	3188
855.926	3211
856.06	3249
856.194	3321
856.327	3230
856.461	3142
856.595	3093
856.729	3150
856.862	3245
856.996	3169
857.13	3237
857.263	3264
857.397	3310
857.53	3146
857.664	3192
857.797	3279
857.931	3298
858.064	3211
858.197	3283
858.331	3142
858.464	3093
858.597	3047
858.731	3146
858.864	3184
858.997	3131
859.13	3211
859.263	3180
859.396	3233
859.529	3104
859.662	3131
859.795	3112
859.928	3165
860.061	3302
860.194	3287
860.327	3192
860.46	3176
860.592	3233
860.725	3275
860.858	3272
860.99	3138
861.123	3138
861.256	3070
861.388	3173
861.521	3911
861.653	3028
861.786	3043
861.918	3039
862.05	3085
862.183	3104
862.315	3222
862.447	3214
862.58	3116
862.712	2979
862.844	2902
862.976	3077
863.108	3028
863.24	3466
863.372	2899
863.504	2986
863.636	2975
863.768	3043
863.9	3017
864.032	2933
864.164	2960
864.296	3036
864.428	3077
864.559	3123
864.691	3119
864.823	3089
864.954	3047
865.086	3081
865.217	3017
865.349	2990
865.48	2994
865.612	3024
865.743	3169
865.875	2990
866.006	2944
866.137	3028
866.269	2994
866.4	2948
866.531	2918
866.662	2902
866.793	2899
866.924	2971
867.055	3009
867.186	2994
867.317	2914
867.448	2864
867.579	2868
867.71	2845
867.841	2861
867.972	2944
868.103	2952
868.233	2925
868.364	2922
868.495	2899
868.625	3123
868.756	3230
868.886	2975
869.017	3062
869.147	3195
869.278	3180
869.408	3119
869.539	3039
869.669	3138
869.799	3081
869.929	3161
870.06	3192
870.19	3416
870.32	3367
870.45	3332
870.58	3473
870.71	3466
870.84	3492
870.97	3321
871.1	3253
871.23	3545
871.36	3553
871.489	3428
871.619	3462
871.749	3488
871.879	3511
872.008	3549
872.138	3435
872.267	3336
872.397	3203
872.526	3142
872.656	3085
872.785	3112
872.915	3283
873.044	3397
873.173	3283
873.303	3329
873.432	3348
873.561	3302
873.69	3207
873.819	3245
873.948	3253
874.077	3180
874.206	3085
874.335	3180
874.464	3332
874.593	3439
874.722	3336
874.851	3481
874.979	3458
875.108	3370
875.237	3287
875.365	3287
875.494	3264
875.623	3329
875.751	3180
875.88	3135
876.008	3260
876.136	3321
876.265	3466
876.393	3599
876.521	3515
876.65	3458
876.778	3466
876.906	3321
877.034	3249
877.162	3306
877.29	3272
877.418	3351
877.546	3329
877.674	3344
877.802	3317
877.93	3298
878.058	3302
878.185	3207
878.313	3317
878.441	3272
878.568	3157
878.696	3253
878.824	3310
878.951	3386
879.079	3576
879.206	3705
879.333	3500
879.461	3428
879.588	3477
879.715	3580
879.842	3671
879.97	3473
880.097	3268
880.224	3199
880.351	3313
880.478	3310
880.605	3275
880.732	3249
880.859	3584
880.986	3393
881.112	3374
881.239	3306
881.366	3161
881.493	3100
881.619	3097
881.746	3146
881.872	3176
881.999	3184
882.125	3226
882.252	3294
882.378	3378
882.505	3530
882.631	3378
882.757	3245
882.883	3268
883.01	3283
883.136	3233
883.262	3161
883.388	3188
883.514	3386
883.64	3428
883.766	3359
883.892	3249
884.018	3287
884.143	3485
884.269	3603
884.395	3275
884.52	3226
884.646	3260
884.772	3161
884.897	3214
885.023	3306
885.148	3420
885.274	3542
885.399	3435
885.524	3363
885.65	3367
885.775	3420
885.9	3344
886.025	3523
886.15	3424
886.275	3378
886.4	3310
886.525	3401
886.65	3340
886.775	3340
886.9	3553
887.025	3728
887.149	3458
887.274	3306
887.399	3245
887.523	3302
887.648	3275
887.773	3275
887.897	3409
888.021	3523
888.146	3374
888.27	3477
888.395	3629
888.519	3507
888.643	3481
888.767	3500
888.891	3386
889.015	3317
889.139	3378
889.263	3298
889.387	3511
889.511	3622
889.635	3526
889.759	3355
889.883	3374
890.006	3462
890.13	3584
890.254	3359
890.377	3416
890.501	3241
890.624	3253
890.748	3325
890.871	3272
890.995	3169
891.118	3131
891.241	3264
891.364	3310
891.488	3409
891.611	3306
891.734	3340
891.857	3382
891.98	3317
892.103	3431
892.226	3355
892.349	3287
892.471	3119
892.594	3351
892.717	3389
892.839	3340
892.962	3340
893.085	3458
893.207	3382
893.33	3256
893.452	3253
893.575	3450
893.697	3340
893.819	3553
893.941	3584
894.064	3504
894.186	3306
894.308	3321
894.43	3523
894.552	3629
894.674	3542
894.796	3367
894.918	3409
895.04	3359
895.161	3504
895.283	3450
895.405	3397
895.526	3466
895.648	3485
895.769	3504
895.891	3538
896.012	3557
896.134	3576
896.255	3504
896.376	3477
896.498	3428
896.619	3538
896.74	3481
896.861	3496
896.982	3755
897.103	3956
897.224	3648
897.345	3580
897.466	3526
897.587	3591
897.708	3732
897.828	3641
897.949	3511
898.07	3431
898.19	3504
898.311	3648
898.431	3523
898.552	3553
898.672	3663
898.792	3629
898.913	3572
899.033	3523
899.153	3367
899.273	3260
899.393	3374
899.513	3378
899.633	3378
899.753	3412
899.873	3378
899.993	3405
900.113	3435
900.232	3458
900.352	3401
900.472	3363
900.591	3275
900.711	3454
900.83	3336
900.95	3466
901.069	3584
901.189	3428
901.308	3249
901.427	3218
901.546	3272
901.665	3340
901.784	3382
901.904	3237
902.023	3249
902.141	3127
902.26	3119
902.379	3203
902.498	3176
902.617	3138
902.735	3264
902.854	3306
902.973	3272
903.091	3131
903.21	3157
903.328	3233
903.446	3154
903.565	3142
903.683	3268
903.801	3195
903.919	3325
904.038	3344
904.156	3218
904.274	3332
904.392	3332
904.51	3340
904.627	3412
904.745	3523
904.863	3553
904.981	3283
905.098	3256
905.216	3291
905.334	3382
905.451	3397
905.569	3382
905.686	3561
905.803	3469
905.921	3355
906.038	3496
906.155	3435
906.272	3344
906.389	3393
906.506	3306
906.623	3325
906.74	3378
906.857	3275
906.974	3329
907.091	3515
907.208	3629
907.324	3542
907.441	3458
907.557	3325
907.674	3313
907.79	3313
907.907	3359
908.023	3450
908.139	3466
908.256	3405
908.372	3488
908.488	3447
908.604	3340
908.72	3317
908.836	3359
908.952	3393
909.068	3359
909.184	3530
909.3	3439
909.415	3595
909.531	3538
909.647	3348
909.762	3370
909.878	3329
909.993	3450
910.108	3431
910.224	3431
910.339	3462
910.454	3439
910.57	3348
910.685	3329
910.8	3648
910.915	3599
911.03	3481
911.145	3332
911.259	3367
911.374	3389
911.489	3302
911.604	3317
911.718	3218
911.833	3233
911.947	3100
912.062	3058
912.176	3253
912.291	3233
912.405	3291
912.519	3507
912.633	3530
912.748	3424
912.862	3351
912.976	3184
913.09	3123
913.204	3226
913.318	3306
913.431	3389
913.545	3397
913.659	3469
913.772	3424
913.886	3275
914	3272
914.113	3450
914.226	3458
914.34	3382
914.453	3256
914.566	3454
914.68	3329
914.793	3374
914.906	3192
915.019	3211
915.132	3127
915.245	3214
915.358	3272
915.47	3321
915.583	3363
915.696	3401
915.809	3488
915.921	3507
916.034	3313
916.146	3317
916.259	3302
916.371	3477
916.483	3397
916.595	3370
916.708	3431
916.82	3428
916.932	3435
917.044	3428
917.156	3405
917.268	3317
917.38	3382
917.491	3344
917.603	3447
917.715	3519
917.826	3549
917.938	3416
918.049	3355
918.161	3488
918.272	3682
918.384	3648
918.495	3545
918.606	3397
918.717	3355
918.828	3454
918.939	3462
919.05	3420
919.161	3458
919.272	3283
919.383	3370
919.494	3587
919.604	3793
919.715	3564
919.826	3477
919.936	3469
920.047	3660
920.157	3648
920.267	3850
920.378	3641
920.488	3637
920.598	3857
920.708	4029
920.818	3865
920.928	3907
921.038	4059
921.148	4101
921.258	3789
921.368	3682
921.477	3641
921.587	3606
921.697	3511
921.806	3717
921.916	3595
922.025	3393
922.134	3428
922.244	3401
922.353	3530
922.462	3348
922.571	3268
922.68	3176
922.789	3146
922.898	3233
923.007	3169
923.116	3275
923.224	3241
923.333	3203
923.442	3157
923.55	3195
923.659	3218
923.767	3291
923.876	3184
923.984	3264
924.092	3173
924.201	3233
924.309	3272
924.417	3336
924.525	3233
924.633	3272
924.741	4261
924.849	3138
924.956	3306
925.064	3154
925.172	3108
925.279	3157
925.387	3256
925.494	3264
925.602	3443
925.709	3424
925.816	3260
925.924	3355
926.031	3401
926.138	3405
926.245	3412
926.352	3310
926.459	3443
926.566	3530
926.673	3386
926.779	3310
926.886	3344
926.993	3230
927.099	3241
927.206	3180
927.312	3138
927.419	3253
927.525	3230
927.631	3359
927.737	3157
927.843	3169
927.95	3116
928.056	3218
928.162	3233
928.267	3321
928.373	3823
928.479	3344
928.585	3138
928.69	3302
928.796	3344
928.901	3226
929.007	3108
929.112	3283
929.218	3287
929.323	3195
929.428	3192
929.533	3386
929.638	3184
929.743	3287
929.848	3302
929.953	3294
930.058	3161
930.163	3043
930.267	3131
930.372	3214
930.477	3104
930.581	3363
930.685	3226
930.79	3097
930.894	3195
930.998	3131
931.103	3363
931.207	3024
931.311	3001
931.415	2994
931.519	2830
931.623	2853
