Data from test_V78500241_1569.txt Node
Date: Fri Mar 25 16:26:04 CST 2022
User: usil
Spectrometer: V785-0024
Trigger mode: 0
Integration Time (sec): 4.000000E-1
Scans to average: 1
Nonlinearity correction enabled: false
Boxcar width: 0
Storing dark spectrum: false
XAxis mode: Wavelengths
Number of Pixels in Spectrum: 1024
>>>>>Begin Spectral Data<<<<<
801.071	2925
801.214	2971
801.356	2906
801.499	2876
801.641	2868
801.783	2937
801.926	3097
802.068	3013
802.211	3036
802.353	3043
802.496	2963
802.638	3043
802.78	3013
802.923	3077
803.065	3024
803.208	2910
803.35	2902
803.492	2994
803.635	2918
803.777	2777
803.919	2845
804.061	3184
804.204	2929
804.346	2925
804.488	2849
804.63	2948
804.773	2872
804.915	2914
805.057	3077
805.199	2963
805.341	2967
805.483	3047
805.626	3020
805.768	2952
805.91	3085
806.052	3097
806.194	2990
806.336	3241
806.478	3009
806.62	2937
806.762	2948
806.904	3074
807.046	3188
807.188	3009
807.33	2941
807.472	2967
807.614	2910
807.756	2979
807.898	2902
808.04	2925
808.182	2952
808.324	2948
808.465	2899
808.607	2876
808.749	2804
808.891	2842
809.033	3005
809.174	2944
809.316	2861
809.458	2842
809.6	2785
809.741	2788
809.883	2712
810.025	2880
810.166	2849
810.308	2815
810.45	2861
810.591	2762
810.733	2750
810.875	2826
811.016	2777
811.158	2773
811.299	2804
811.441	2944
811.582	2880
811.724	2792
811.865	2830
812.007	2906
812.148	2883
812.29	2834
812.431	2922
812.573	2918
812.714	2933
812.855	3039
812.997	3039
813.138	3127
813.279	3047
813.421	2986
813.562	2948
813.703	2872
813.845	2887
813.986	2785
814.127	2766
814.268	2823
814.41	2842
814.551	2811
814.692	2845
814.833	2800
814.974	2895
815.115	2963
815.256	2830
815.397	2830
815.539	2857
815.68	2796
815.821	2830
815.962	2941
816.103	2933
816.244	2864
816.385	2895
816.526	2971
816.666	2906
816.807	2754
816.948	2861
817.089	2906
817.23	2868
817.371	2781
817.512	2811
817.653	2838
817.793	2849
817.934	2899
818.075	2948
818.216	3001
818.356	3032
818.497	2861
818.638	2807
818.778	2819
818.919	2777
819.06	2724
819.2	2849
819.341	2807
819.481	2826
819.622	2952
819.762	3112
819.903	3047
820.043	2910
820.184	2914
820.324	2899
820.465	3051
820.605	3001
820.746	3036
820.886	2933
821.026	3066
821.167	3157
821.307	3199
821.447	3310
821.588	3264
821.728	3203
821.868	3249
822.008	3085
822.149	3176
822.289	3249
822.429	3123
822.569	3127
822.709	3214
822.849	3039
822.99	3104
823.13	3207
823.27	3233
823.41	3131
823.55	3146
823.69	3184
823.83	3199
823.97	3180
824.11	3036
824.25	3036
824.389	3074
824.529	3123
824.669	3081
824.809	3203
824.949	3283
825.089	3275
825.228	3199
825.368	3020
825.508	3009
825.648	3013
825.787	3013
825.927	3051
826.067	3001
826.206	2979
826.346	3062
826.485	3100
826.625	3127
826.765	3298
826.904	3253
827.044	3039
827.183	2975
827.323	2929
827.462	3043
827.601	2925
827.741	2990
827.88	3013
828.02	2902
828.159	2998
828.298	3100
828.437	3173
828.577	3089
828.716	3275
828.855	3089
828.994	2929
829.134	2918
829.273	2994
829.412	2902
829.551	2876
829.69	2944
829.829	3017
829.968	3184
830.107	3028
830.246	3077
830.385	2982
830.524	2925
830.663	2868
830.802	2762
830.941	2651
831.08	2697
831.219	2834
831.357	2807
831.496	2986
831.635	2785
831.774	2697
831.913	2701
832.051	2575
832.19	2617
832.329	2731
832.467	2564
832.606	2549
832.744	2682
832.883	2625
833.022	2610
833.16	2686
833.299	2727
833.437	2743
833.576	2743
833.714	2750
833.852	2746
833.991	2807
834.129	2914
834.267	2838
834.406	2800
834.544	2941
834.682	2918
834.821	2876
834.959	3100
835.097	2941
835.235	3116
835.373	3032
835.511	3062
835.65	2994
835.788	3013
835.926	2849
836.064	2838
836.202	2872
836.34	3131
836.478	3165
836.615	3074
836.753	3131
836.891	3253
837.029	3245
837.167	3146
837.305	3112
837.443	3081
837.58	2971
837.718	3150
837.856	3100
837.993	3077
838.131	3127
838.269	3119
838.406	3112
838.544	3123
838.681	2941
838.819	2952
838.956	2880
839.094	2872
839.231	2941
839.369	3020
839.506	3389
839.643	3211
839.781	3074
839.918	3020
840.055	3077
840.193	3089
840.33	3077
840.467	3142
840.604	3211
840.742	3424
840.879	3093
841.016	3077
841.153	3169
841.29	3382
841.427	3279
841.564	3245
841.701	3363
841.838	3237
841.975	3207
842.112	3241
842.249	3123
842.385	3036
842.522	3298
842.659	3135
842.796	3070
842.933	3104
843.069	3097
843.206	3058
843.343	3195
843.479	3138
843.616	3165
843.752	2914
843.889	2899
844.025	3135
844.162	2902
844.298	3108
844.435	2967
844.571	2952
844.708	3093
844.844	3230
844.98	3264
845.117	3249
845.253	3112
845.389	3032
845.525	3154
845.661	3116
845.798	3020
845.934	3142
846.07	3093
846.206	3241
846.342	3344
846.478	3249
846.614	3104
846.75	3097
846.886	2998
847.022	3275
847.158	3192
847.294	3237
847.429	3264
847.565	3214
847.701	3519
847.837	3062
847.972	3024
848.108	3165
848.244	3173
848.379	2994
848.515	2967
848.65	2948
848.786	2933
848.921	3055
849.057	3127
849.192	3169
849.328	3077
849.463	3154
849.598	3077
849.734	3066
849.869	2979
850.004	2944
850.14	2998
850.275	2937
850.41	2838
850.545	2925
850.68	2948
850.815	2937
850.95	2994
851.085	3184
851.22	3169
851.355	3043
851.49	3043
851.625	3047
851.76	3047
851.895	2975
852.03	2971
852.165	3085
852.299	3131
852.434	3176
852.569	3165
852.703	3203
852.838	3306
852.973	3351
853.107	3378
853.242	3116
853.376	3119
853.511	3005
853.645	3097
853.78	3233
853.914	3154
854.048	3123
854.183	3062
854.317	3165
854.451	3325
854.585	3180
854.72	3112
854.854	3230
854.988	3123
855.122	3112
855.256	2998
855.39	3135
855.524	3249
855.658	3188
855.792	3165
855.926	3169
856.06	3237
856.194	3268
856.327	3169
856.461	3070
856.595	3097
856.729	3097
856.862	3241
856.996	3154
857.13	3211
857.263	3264
857.397	3268
857.53	3154
857.664	3253
857.797	3264
857.931	3272
858.064	3184
858.197	3230
858.331	3169
858.464	3119
858.597	3024
858.731	3161
858.864	3199
858.997	3112
859.13	3184
859.263	3207
859.396	3222
859.529	3146
859.662	3077
859.795	3062
859.928	3157
860.061	3325
860.194	3325
860.327	3138
860.46	3135
860.592	3287
860.725	3287
860.858	3283
860.99	3157
861.123	3047
861.256	3070
861.388	3127
861.521	3880
861.653	3047
861.786	2990
861.918	3039
862.05	3081
862.183	3108
862.315	3199
862.447	3241
862.58	3100
862.712	2982
862.844	2925
862.976	3051
863.108	3005
863.24	3325
863.372	2868
863.504	2979
863.636	2944
863.768	3047
863.9	3017
864.032	2880
864.164	2979
864.296	3028
864.428	3089
864.559	3142
864.691	3100
864.823	3085
864.954	3036
865.086	3104
865.217	3028
865.349	2982
865.48	3013
865.612	3005
865.743	3161
865.875	2971
866.006	2963
866.137	2998
866.269	2982
866.4	2944
866.531	2960
866.662	2887
866.793	2933
866.924	2914
867.055	3013
867.186	2941
867.317	2895
867.448	2842
867.579	2876
867.71	2876
867.841	2834
867.972	2922
868.103	2910
868.233	2899
868.364	2880
868.495	2956
868.625	3066
868.756	3173
868.886	3001
869.017	3062
869.147	3161
869.278	3161
869.408	3058
869.539	3036
869.669	3135
869.799	3043
869.929	3112
870.06	3112
870.19	3351
870.32	3321
870.45	3291
870.58	3420
870.71	3458
870.84	3488
870.97	3340
871.1	3256
871.23	3507
871.36	3469
871.489	3382
871.619	3374
871.749	3431
871.879	3450
872.008	3523
872.138	3397
872.267	3287
872.397	3123
872.526	3085
872.656	3036
872.785	3150
872.915	3214
873.044	3348
873.173	3279
873.303	3283
873.432	3218
873.561	3230
873.69	3207
873.819	3176
873.948	3199
874.077	3142
874.206	3051
874.335	3062
874.464	3264
874.593	3389
874.722	3264
874.851	3382
874.979	3321
875.108	3359
875.237	3230
875.365	3138
875.494	3188
875.623	3241
875.751	3123
875.88	3173
876.008	3214
876.136	3264
876.265	3374
876.393	3542
876.521	3462
876.65	3435
876.778	3332
876.906	3226
877.034	3184
877.162	3249
877.29	3180
877.418	3241
877.546	3245
877.674	3249
877.802	3241
877.93	3237
878.058	3173
878.185	3123
878.313	3226
878.441	3230
878.568	3062
878.696	3146
878.824	3268
878.951	3298
879.079	3462
879.206	3572
879.333	3466
879.461	3382
879.588	3382
879.715	3462
879.842	3606
879.97	3393
880.097	3150
880.224	3157
880.351	3195
880.478	3233
880.605	3241
880.732	3214
880.859	3492
880.986	3294
881.112	3325
881.239	3245
881.366	3131
881.493	3043
881.619	3047
881.746	3104
881.872	3074
881.999	3119
882.125	3161
882.252	3199
882.378	3313
882.505	3481
882.631	3306
882.757	3184
882.883	3184
883.01	3222
883.136	3165
883.262	3119
883.388	3119
883.514	3340
883.64	3367
883.766	3348
883.892	3222
884.018	3249
884.143	3386
884.269	3542
884.395	3195
884.52	3169
884.646	3192
884.772	3157
884.897	3104
885.023	3249
885.148	3317
885.274	3443
885.399	3386
885.524	3291
885.65	3249
885.775	3291
885.9	3302
886.025	3431
886.15	3351
886.275	3302
886.4	3233
886.525	3336
886.65	3291
886.775	3306
886.9	3530
887.025	3633
887.149	3420
887.274	3268
887.399	3165
887.523	3207
887.648	3192
887.773	3241
887.897	3397
888.021	3389
888.146	3302
888.27	3481
888.395	3553
888.519	3431
888.643	3462
888.767	3488
888.891	3306
889.015	3260
889.139	3298
889.263	3272
889.387	3344
889.511	3519
889.635	3466
889.759	3283
889.883	3268
890.006	3382
890.13	3469
890.254	3275
890.377	3374
890.501	3203
890.624	3161
890.748	3268
890.871	3188
890.995	3127
891.118	3051
891.241	3207
891.364	3214
891.488	3298
891.611	3176
891.734	3241
891.857	3283
891.98	3230
892.103	3329
892.226	3348
892.349	3203
892.471	3100
892.594	3256
892.717	3325
892.839	3275
892.962	3298
893.085	3382
893.207	3313
893.33	3157
893.452	3207
893.575	3336
893.697	3268
893.819	3500
893.941	3492
894.064	3485
894.186	3306
894.308	3291
894.43	3496
894.552	3580
894.674	3485
894.796	3321
894.918	3332
895.04	3306
895.161	3428
895.283	3405
895.405	3294
895.526	3378
895.648	3389
895.769	3420
895.891	3435
896.012	3469
896.134	3488
896.255	3393
896.376	3401
896.498	3344
896.619	3420
896.74	3401
896.861	3374
896.982	3667
897.103	3850
897.224	3599
897.345	3534
897.466	3435
897.587	3511
897.708	3618
897.828	3542
897.949	3447
898.07	3359
898.19	3374
898.311	3591
898.431	3450
898.552	3496
898.672	3595
898.792	3591
898.913	3538
899.033	3428
899.153	3306
899.273	3207
899.393	3249
899.513	3287
899.633	3310
899.753	3329
899.873	3340
899.993	3424
900.113	3344
900.232	3393
900.352	3363
900.472	3306
900.591	3169
900.711	3298
900.83	3287
900.95	3405
901.069	3492
901.189	3344
901.308	3222
901.427	3161
901.546	3173
901.665	3279
901.784	3348
901.904	3222
902.023	3169
902.141	3036
902.26	2998
902.379	3108
902.498	3077
902.617	3070
902.735	3199
902.854	3241
902.973	3203
903.091	3051
903.21	3070
903.328	3131
903.446	3093
903.565	3093
903.683	3195
903.801	3146
903.919	3241
904.038	3291
904.156	3207
904.274	3287
904.392	3272
904.51	3291
904.627	3317
904.745	3439
904.863	3500
904.981	3294
905.098	3173
905.216	3233
905.334	3272
905.451	3306
905.569	3302
905.686	3420
905.803	3458
905.921	3317
906.038	3431
906.155	3370
906.272	3249
906.389	3351
906.506	3211
906.623	3291
906.74	3272
906.857	3218
906.974	3260
907.091	3477
907.208	3534
907.324	3477
907.441	3386
907.557	3241
907.674	3195
907.79	3199
907.907	3268
908.023	3370
908.139	3363
908.256	3386
908.372	3409
908.488	3351
908.604	3272
908.72	3211
908.836	3275
908.952	3264
909.068	3344
909.184	3469
909.3	3416
909.415	3496
909.531	3420
909.647	3268
909.762	3310
909.878	3306
909.993	3344
910.108	3374
910.224	3317
910.339	3393
910.454	3351
910.57	3302
910.685	3249
910.8	3561
910.915	3557
911.03	3412
911.145	3230
911.259	3268
911.374	3321
911.489	3214
911.604	3245
911.718	3108
911.833	3135
911.947	3032
912.062	2975
912.176	3150
912.291	3157
912.405	3188
912.519	3405
912.633	3500
912.748	3325
912.862	3256
912.976	3146
913.09	3070
913.204	3097
913.318	3192
913.431	3287
913.545	3386
913.659	3386
913.772	3344
913.886	3218
914	3264
914.113	3325
914.226	3420
914.34	3351
914.453	3207
914.566	3420
914.68	3279
914.793	3283
914.906	3154
915.019	3104
915.132	3070
915.245	3173
915.358	3173
915.47	3218
915.583	3264
915.696	3291
915.809	3374
915.921	3431
916.034	3253
916.146	3287
916.259	3237
916.371	3363
916.483	3370
916.595	3260
916.708	3348
916.82	3325
916.932	3409
917.044	3344
917.156	3325
917.268	3268
917.38	3294
917.491	3256
917.603	3386
917.715	3405
917.826	3447
917.938	3382
918.049	3294
918.161	3409
918.272	3568
918.384	3587
918.495	3504
918.606	3359
918.717	3272
918.828	3393
918.939	3405
919.05	3275
919.161	3374
919.272	3135
919.383	3294
919.494	3523
919.604	3709
919.715	3466
919.826	3439
919.936	3420
920.047	3580
920.157	3542
920.267	3740
920.378	3625
920.488	3534
920.598	3770
920.708	3934
920.818	3793
920.928	3804
921.038	3987
921.148	3930
921.258	3694
921.368	3629
921.477	3595
921.587	3515
921.697	3454
921.806	3629
921.916	3542
922.025	3348
922.134	3378
922.244	3329
922.353	3420
922.462	3260
922.571	3256
922.68	3093
922.789	3074
922.898	3135
923.007	3108
923.116	3188
923.224	3180
923.333	3169
923.442	3081
923.55	3116
923.659	3112
923.767	3176
923.876	3112
923.984	3260
924.092	3150
924.201	3195
924.309	3203
924.417	3268
924.525	3207
924.633	3218
924.741	4162
924.849	3039
924.956	3253
925.064	3081
925.172	3001
925.279	3081
925.387	3195
925.494	3169
925.602	3355
925.709	3313
925.816	3207
925.924	3275
926.031	3393
926.138	3340
926.245	3351
926.352	3245
926.459	3428
926.566	3507
926.673	3332
926.779	3241
926.886	3230
926.993	3165
927.099	3112
927.206	3093
927.312	3142
927.419	3241
927.525	3203
927.631	3264
927.737	3119
927.843	3116
927.95	3028
928.056	3157
928.162	3157
928.267	3253
928.373	3857
928.479	3268
928.585	3097
928.69	3218
928.796	3329
928.901	3176
929.007	3039
929.112	3207
929.218	3146
929.323	3165
929.428	3112
929.533	3378
929.638	3081
929.743	3188
929.848	3275
929.953	3192
930.058	3135
930.163	2990
930.267	3039
930.372	3233
930.477	3032
930.581	3298
930.685	3184
930.79	3024
930.894	3127
930.998	3112
931.103	3298
931.207	2960
931.311	2990
931.415	2902
931.519	2769
931.623	2811
