Data from test_V78500241_901.txt Node
Date: Fri Mar 25 16:21:26 CST 2022
User: usil
Spectrometer: V785-0024
Trigger mode: 0
Integration Time (sec): 4.000000E-1
Scans to average: 1
Nonlinearity correction enabled: false
Boxcar width: 0
Storing dark spectrum: false
XAxis mode: Wavelengths
Number of Pixels in Spectrum: 1024
>>>>>Begin Spectral Data<<<<<
801.071	2891
801.214	2929
801.356	2883
801.499	2902
801.641	2864
801.783	2933
801.926	3047
802.068	2975
802.211	2979
802.353	3047
802.496	2971
802.638	2979
802.78	3043
802.923	3116
803.065	3043
803.208	2891
803.35	2922
803.492	2956
803.635	2933
803.777	2788
803.919	2864
804.061	3199
804.204	2967
804.346	2937
804.488	2891
804.63	3024
804.773	2925
804.915	2933
805.057	3104
805.199	2929
805.341	2975
805.483	3032
805.626	2990
805.768	2998
805.91	3043
806.052	3089
806.194	3066
806.336	3253
806.478	3039
806.62	2975
806.762	3009
806.904	3074
807.046	3169
807.188	2994
807.33	2937
807.472	3017
807.614	2895
807.756	2986
807.898	2948
808.04	2944
808.182	3001
808.324	2975
808.465	2887
808.607	2872
808.749	2796
808.891	2853
809.033	3013
809.174	3009
809.316	2887
809.458	2906
809.6	2819
809.741	2788
809.883	2758
810.025	2868
810.166	2826
810.308	2838
810.45	2880
810.591	2762
810.733	2796
810.875	2880
811.016	2823
811.158	2781
811.299	2838
811.441	2952
811.582	2895
811.724	2845
811.865	2823
812.007	2925
812.148	2891
812.29	2834
812.431	2910
812.573	2944
812.714	2956
812.855	3055
812.997	3047
813.138	3116
813.279	3005
813.421	2998
813.562	2956
813.703	2883
813.845	2910
813.986	2781
814.127	2739
814.268	2834
814.41	2842
814.551	2849
814.692	2849
814.833	2815
814.974	2906
815.115	2941
815.256	2830
815.397	2785
815.539	2853
815.68	2769
815.821	2796
815.962	2929
816.103	2910
816.244	2887
816.385	2887
816.526	2933
816.666	2918
816.807	2724
816.948	2902
817.089	2914
817.23	2819
817.371	2777
817.512	2788
817.653	2872
817.793	2823
817.934	2872
818.075	2922
818.216	2994
818.356	3001
818.497	2891
818.638	2823
818.778	2826
818.919	2804
819.06	2762
819.2	2876
819.341	2811
819.481	2792
819.622	2918
819.762	3104
819.903	3039
820.043	2944
820.184	2902
820.324	2914
820.465	3001
820.605	3017
820.746	3024
820.886	2937
821.026	3123
821.167	3154
821.307	3245
821.447	3287
821.588	3195
821.728	3218
821.868	3188
822.008	3081
822.149	3180
822.289	3222
822.429	3112
822.569	3100
822.709	3211
822.849	3032
822.99	3089
823.13	3180
823.27	3203
823.41	3123
823.55	3135
823.69	3154
823.83	3199
823.97	3108
824.11	3028
824.25	3005
824.389	3062
824.529	3108
824.669	3058
824.809	3218
824.949	3249
825.089	3241
825.228	3150
825.368	2994
825.508	2971
825.648	2979
825.787	2986
825.927	3005
826.067	2982
826.206	3020
826.346	3039
826.485	3062
826.625	3081
826.765	3218
826.904	3199
827.044	3005
827.183	2933
827.323	2899
827.462	2998
827.601	2922
827.741	2918
827.88	2944
828.02	2830
828.159	2982
828.298	3036
828.437	3119
828.577	3066
828.716	3226
828.855	3097
828.994	2902
829.134	2899
829.273	2906
829.412	2883
829.551	2910
829.69	2883
829.829	2944
829.968	3123
830.107	3039
830.246	3032
830.385	2952
830.524	2883
830.663	2830
830.802	2724
830.941	2678
831.08	2663
831.219	2750
831.357	2777
831.496	2948
831.635	2739
831.774	2674
831.913	2689
832.051	2541
832.19	2556
832.329	2651
832.467	2526
832.606	2514
832.744	2583
832.883	2556
833.022	2583
833.16	2705
833.299	2693
833.437	2697
833.576	2697
833.714	2735
833.852	2720
833.991	2766
834.129	2834
834.267	2872
834.406	2804
834.544	2815
834.682	2883
834.821	2883
834.959	3058
835.097	2895
835.235	3074
835.373	3001
835.511	3020
835.65	2994
835.788	2941
835.926	2811
836.064	2769
836.202	2864
836.34	3100
836.478	3154
836.615	3020
836.753	3150
836.891	3211
837.029	3123
837.167	3104
837.305	3062
837.443	3028
837.58	2986
837.718	3093
837.856	3055
837.993	3058
838.131	3150
838.269	3112
838.406	3062
838.544	3089
838.681	2929
838.819	2948
838.956	2796
839.094	2838
839.231	2922
839.369	3013
839.506	3374
839.643	3211
839.781	3005
839.918	2971
840.055	3036
840.193	3055
840.33	3100
840.467	3070
840.604	3154
840.742	3370
840.879	3051
841.016	3055
841.153	3127
841.29	3363
841.427	3287
841.564	3253
841.701	3279
841.838	3222
841.975	3176
842.112	3226
842.249	3047
842.385	3001
842.522	3264
842.659	3085
842.796	3043
842.933	3116
843.069	3032
843.206	3020
843.343	3188
843.479	3142
843.616	3112
843.752	2902
843.889	2876
844.025	3116
844.162	2861
844.298	3093
844.435	2975
844.571	2910
844.708	3077
844.844	3211
844.98	3211
845.117	3180
845.253	3043
845.389	3001
845.525	3070
845.661	3138
845.798	2990
845.934	3116
846.07	3047
846.206	3211
846.342	3268
846.478	3211
846.614	3055
846.75	3024
846.886	3047
847.022	3256
847.158	3097
847.294	3188
847.429	3260
847.565	3173
847.701	3500
847.837	3013
847.972	2975
848.108	3165
848.244	3154
848.379	2990
848.515	2937
848.65	2929
848.786	2941
848.921	3009
849.057	3085
849.192	3108
849.328	3070
849.463	3085
849.598	3070
849.734	3036
849.869	2986
850.004	2883
850.14	2956
850.275	2910
850.41	2838
850.545	2845
850.68	2918
850.815	2956
850.95	3001
851.085	3184
851.22	3112
851.355	3009
851.49	2979
851.625	2971
851.76	3005
851.895	2914
852.03	2899
852.165	3005
852.299	3112
852.434	3192
852.569	3108
852.703	3138
852.838	3275
852.973	3359
853.107	3313
853.242	3161
853.376	3085
853.511	2956
853.645	3024
853.78	3226
853.914	3100
854.048	3123
854.183	3104
854.317	3165
854.451	3279
854.585	3135
854.72	3074
854.854	3211
854.988	3036
855.122	3070
855.256	2998
855.39	3127
855.524	3249
855.658	3184
855.792	3157
855.926	3173
856.06	3180
856.194	3245
856.327	3131
856.461	3039
856.595	3066
856.729	3077
856.862	3169
856.996	3154
857.13	3169
857.263	3249
857.397	3260
857.53	3154
857.664	3184
857.797	3218
857.931	3226
858.064	3192
858.197	3214
858.331	3119
858.464	3081
858.597	3009
858.731	3131
858.864	3123
858.997	3074
859.13	3157
859.263	3142
859.396	3169
859.529	3104
859.662	3066
859.795	3039
859.928	3135
860.061	3268
860.194	3302
860.327	3116
860.46	3032
860.592	3256
860.725	3203
860.858	3275
860.99	3104
861.123	3017
861.256	3036
861.388	3112
861.521	3835
861.653	2998
861.786	2975
861.918	2944
862.05	3066
862.183	3077
862.315	3146
862.447	3184
862.58	3112
862.712	2952
862.844	2887
862.976	2998
863.108	2994
863.24	3287
863.372	2891
863.504	2975
863.636	2956
863.768	3024
863.9	2967
864.032	2941
864.164	2975
864.296	2998
864.428	3112
864.559	3097
864.691	3066
864.823	3081
864.954	3039
865.086	3066
865.217	3017
865.349	2979
865.48	3039
865.612	3043
865.743	3127
865.875	2967
866.006	2960
866.137	2933
866.269	2967
866.4	2960
866.531	2868
866.662	2899
866.793	2883
866.924	2902
867.055	2960
867.186	2937
867.317	2876
867.448	2838
867.579	2834
867.71	2857
867.841	2815
867.972	2933
868.103	2864
868.233	2891
868.364	2902
868.495	2887
868.625	3039
868.756	3138
868.886	2975
869.017	3043
869.147	3157
869.278	3150
869.408	3047
869.539	3020
869.669	3089
869.799	3055
869.929	3161
870.06	3146
870.19	3321
870.32	3310
870.45	3298
870.58	3344
870.71	3450
870.84	3447
870.97	3260
871.1	3211
871.23	3473
871.36	3481
871.489	3348
871.619	3424
871.749	3435
871.879	3431
872.008	3458
872.138	3329
872.267	3253
872.397	3116
872.526	3085
872.656	3058
872.785	3100
872.915	3226
873.044	3313
873.173	3211
873.303	3264
873.432	3275
873.561	3188
873.69	3195
873.819	3150
873.948	3180
874.077	3150
874.206	3051
874.335	3043
874.464	3207
874.593	3344
874.722	3230
874.851	3401
874.979	3348
875.108	3321
875.237	3199
875.365	3180
875.494	3195
875.623	3226
875.751	3081
875.88	3119
876.008	3199
876.136	3207
876.265	3397
876.393	3492
876.521	3374
876.65	3389
876.778	3332
876.906	3233
877.034	3222
877.162	3211
877.29	3195
877.418	3222
877.546	3230
877.674	3226
877.802	3222
877.93	3207
878.058	3127
878.185	3104
878.313	3222
878.441	3207
878.568	3070
878.696	3142
878.824	3237
878.951	3310
879.079	3435
879.206	3606
879.333	3435
879.461	3348
879.588	3348
879.715	3507
879.842	3584
879.97	3363
880.097	3165
880.224	3142
880.351	3176
880.478	3233
880.605	3135
880.732	3184
880.859	3485
880.986	3283
881.112	3302
881.239	3218
881.366	3104
881.493	3028
881.619	2998
881.746	3085
881.872	3089
881.999	3104
882.125	3127
882.252	3241
882.378	3306
882.505	3435
882.631	3317
882.757	3157
882.883	3176
883.01	3222
883.136	3165
883.262	3100
883.388	3093
883.514	3291
883.64	3374
883.766	3291
883.892	3192
884.018	3237
884.143	3405
884.269	3488
884.395	3184
884.52	3180
884.646	3211
884.772	3127
884.897	3104
885.023	3192
885.148	3321
885.274	3409
885.399	3389
885.524	3291
885.65	3279
885.775	3348
885.9	3287
886.025	3450
886.15	3340
886.275	3253
886.4	3249
886.525	3302
886.65	3249
886.775	3279
886.9	3492
887.025	3618
887.149	3374
887.274	3264
887.399	3184
887.523	3184
887.648	3230
887.773	3222
887.897	3359
888.021	3397
888.146	3302
888.27	3409
888.395	3534
888.519	3420
888.643	3412
888.767	3435
888.891	3279
889.015	3230
889.139	3336
889.263	3264
889.387	3332
889.511	3515
889.635	3458
889.759	3302
889.883	3287
890.006	3393
890.13	3458
890.254	3287
890.377	3329
890.501	3169
890.624	3119
890.748	3264
890.871	3180
890.995	3119
891.118	3077
891.241	3165
891.364	3192
891.488	3279
891.611	3161
891.734	3192
891.857	3287
891.98	3249
892.103	3332
892.226	3264
892.349	3249
892.471	3150
892.594	3279
892.717	3287
892.839	3260
892.962	3321
893.085	3355
893.207	3310
893.33	3146
893.452	3192
893.575	3348
893.697	3207
893.819	3481
893.941	3523
894.064	3466
894.186	3264
894.308	3264
894.43	3454
894.552	3526
894.674	3485
894.796	3253
894.918	3332
895.04	3287
895.161	3397
895.283	3424
895.405	3313
895.526	3325
895.648	3428
895.769	3416
895.891	3458
896.012	3504
896.134	3462
896.255	3435
896.376	3367
896.498	3329
896.619	3416
896.74	3367
896.861	3393
896.982	3698
897.103	3831
897.224	3591
897.345	3488
897.466	3447
897.587	3477
897.708	3603
897.828	3553
897.949	3447
898.07	3317
898.19	3386
898.311	3648
898.431	3382
898.552	3500
898.672	3587
898.792	3564
898.913	3515
899.033	3405
899.153	3294
899.273	3233
899.393	3268
899.513	3340
899.633	3317
899.753	3321
899.873	3348
899.993	3332
900.113	3329
900.232	3382
900.352	3317
900.472	3298
900.591	3218
900.711	3287
900.83	3268
900.95	3420
901.069	3504
901.189	3336
901.308	3184
901.427	3131
901.546	3211
901.665	3272
901.784	3325
901.904	3222
902.023	3161
902.141	3032
902.26	3017
902.379	3108
902.498	3070
902.617	3055
902.735	3222
902.854	3203
902.973	3195
903.091	3055
903.21	3058
903.328	3150
903.446	3108
903.565	3112
903.683	3195
903.801	3138
903.919	3230
904.038	3241
904.156	3150
904.274	3298
904.392	3237
904.51	3241
904.627	3283
904.745	3450
904.863	3515
904.981	3275
905.098	3188
905.216	3211
905.334	3275
905.451	3272
905.569	3294
905.686	3424
905.803	3420
905.921	3302
906.038	3435
906.155	3351
906.272	3272
906.389	3340
906.506	3211
906.623	3237
906.74	3245
906.857	3176
906.974	3233
907.091	3420
907.208	3530
907.324	3420
907.441	3393
907.557	3230
907.674	3199
907.79	3226
907.907	3283
908.023	3370
908.139	3359
908.256	3351
908.372	3409
908.488	3344
908.604	3294
908.72	3241
908.836	3275
908.952	3272
909.068	3321
909.184	3504
909.3	3378
909.415	3504
909.531	3488
909.647	3272
909.762	3291
909.878	3253
909.993	3370
910.108	3336
910.224	3325
910.339	3435
910.454	3367
910.57	3294
910.685	3214
910.8	3534
910.915	3504
911.03	3401
911.145	3233
911.259	3264
911.374	3294
911.489	3203
911.604	3230
911.718	3119
911.833	3119
911.947	3009
912.062	2982
912.176	3146
912.291	3226
912.405	3199
912.519	3397
912.633	3473
912.748	3344
912.862	3287
912.976	3138
913.09	3028
913.204	3131
913.318	3199
913.431	3325
913.545	3336
913.659	3393
913.772	3291
913.886	3249
914	3161
914.113	3351
914.226	3386
914.34	3378
914.453	3233
914.566	3409
914.68	3294
914.793	3310
914.906	3135
915.019	3104
915.132	3097
915.245	3165
915.358	3161
915.47	3218
915.583	3294
915.696	3279
915.809	3348
915.921	3431
916.034	3253
916.146	3256
916.259	3245
916.371	3374
916.483	3374
916.595	3275
916.708	3367
916.82	3344
916.932	3351
917.044	3344
917.156	3313
917.268	3241
917.38	3268
917.491	3264
917.603	3348
917.715	3447
917.826	3443
917.938	3336
918.049	3253
918.161	3435
918.272	3545
918.384	3572
918.495	3488
918.606	3332
918.717	3268
918.828	3363
918.939	3401
919.05	3291
919.161	3382
919.272	3195
919.383	3230
919.494	3507
919.604	3641
919.715	3496
919.826	3405
919.936	3431
920.047	3572
920.157	3545
920.267	3736
920.378	3584
920.488	3564
920.598	3740
920.708	3972
920.818	3823
920.928	3819
921.038	4025
921.148	3960
921.258	3690
921.368	3663
921.477	3564
921.587	3534
921.697	3435
921.806	3644
921.916	3485
922.025	3317
922.134	3405
922.244	3302
922.353	3431
922.462	3260
922.571	3192
922.68	3077
922.789	3085
922.898	3135
923.007	3116
923.116	3195
923.224	3173
923.333	3211
923.442	3104
923.55	3058
923.659	3165
923.767	3245
923.876	3135
923.984	3230
924.092	3093
924.201	3211
924.309	3222
924.417	3275
924.525	3203
924.633	3199
924.741	4177
924.849	3074
924.956	3260
925.064	3108
925.172	3017
925.279	3116
925.387	3165
925.494	3169
925.602	3382
925.709	3310
925.816	3150
925.924	3272
926.031	3348
926.138	3336
926.245	3340
926.352	3203
926.459	3393
926.566	3424
926.673	3321
926.779	3279
926.886	3249
926.993	3142
927.099	3157
927.206	3123
927.312	3135
927.419	3226
927.525	3211
927.631	3264
927.737	3154
927.843	3089
927.95	3001
928.056	3154
928.162	3154
928.267	3226
928.373	3880
928.479	3325
928.585	3085
928.69	3199
928.796	3275
928.901	3195
929.007	3036
929.112	3222
929.218	3150
929.323	3119
929.428	3161
929.533	3340
929.638	3135
929.743	3184
929.848	3226
929.953	3207
930.058	3150
930.163	2979
930.267	3062
930.372	3237
930.477	3043
930.581	3321
930.685	3169
930.79	3043
930.894	3093
930.998	3097
931.103	3275
931.207	2944
931.311	2876
931.415	2910
931.519	2750
931.623	2826
