Data from test_V78500241_1276.txt Node
Date: Fri Mar 25 16:24:02 CST 2022
User: usil
Spectrometer: V785-0024
Trigger mode: 0
Integration Time (sec): 4.000000E-1
Scans to average: 1
Nonlinearity correction enabled: false
Boxcar width: 0
Storing dark spectrum: false
XAxis mode: Wavelengths
Number of Pixels in Spectrum: 1024
>>>>>Begin Spectral Data<<<<<
801.071	2960
801.214	2998
801.356	2918
801.499	2918
801.641	2849
801.783	2914
801.926	3077
802.068	3013
802.211	3032
802.353	3043
802.496	2956
802.638	2998
802.78	3055
802.923	3077
803.065	3009
803.208	2883
803.35	2899
803.492	2967
803.635	2914
803.777	2781
803.919	2864
804.061	3173
804.204	2986
804.346	2891
804.488	2864
804.63	2998
804.773	2861
804.915	2910
805.057	3116
805.199	2944
805.341	2971
805.483	3051
805.626	3013
805.768	2948
805.91	3089
806.052	3112
806.194	3028
806.336	3218
806.478	3066
806.62	2967
806.762	3013
806.904	3036
807.046	3165
807.188	2960
807.33	2899
807.472	3017
807.614	2918
807.756	2998
807.898	2948
808.04	2906
808.182	2975
808.324	2952
808.465	2880
808.607	2910
808.749	2826
808.891	2868
809.033	2979
809.174	2998
809.316	2872
809.458	2914
809.6	2762
809.741	2804
809.883	2746
810.025	2876
810.166	2876
810.308	2861
810.45	2849
810.591	2781
810.733	2785
810.875	2819
811.016	2781
811.158	2777
811.299	2838
811.441	2914
811.582	2918
811.724	2857
811.865	2826
812.007	2899
812.148	2872
812.29	2876
812.431	2906
812.573	2948
812.714	2971
812.855	3093
812.997	3032
813.138	3142
813.279	3036
813.421	2990
813.562	2944
813.703	2880
813.845	2899
813.986	2796
814.127	2739
814.268	2872
814.41	2853
814.551	2823
814.692	2899
814.833	2826
814.974	2933
815.115	2986
815.256	2868
815.397	2838
815.539	2883
815.68	2826
815.821	2796
815.962	2937
816.103	2948
816.244	2883
816.385	2868
816.526	2971
816.666	2922
816.807	2754
816.948	2902
817.089	2922
817.23	2857
817.371	2804
817.512	2804
817.653	2861
817.793	2849
817.934	2891
818.075	2960
818.216	2994
818.356	3024
818.497	2883
818.638	2766
818.778	2853
818.919	2796
819.06	2762
819.2	2891
819.341	2830
819.481	2800
819.622	2918
819.762	3116
819.903	3081
820.043	2914
820.184	2960
820.324	2918
820.465	3013
820.605	3017
820.746	3024
820.886	2933
821.026	3112
821.167	3146
821.307	3230
821.447	3321
821.588	3226
821.728	3192
821.868	3203
822.008	3055
822.149	3188
822.289	3283
822.429	3127
822.569	3123
822.709	3211
822.849	3024
822.99	3077
823.13	3176
823.27	3207
823.41	3131
823.55	3127
823.69	3150
823.83	3192
823.97	3104
824.11	3009
824.25	2994
824.389	3062
824.529	3100
824.669	3058
824.809	3195
824.949	3256
825.089	3230
825.228	3169
825.368	3043
825.508	2979
825.648	2971
825.787	3020
825.927	3055
826.067	2979
826.206	2963
826.346	3047
826.485	3123
826.625	3131
826.765	3272
826.904	3207
827.044	3032
827.183	2922
827.323	2872
827.462	3005
827.601	2922
827.741	2941
827.88	2975
828.02	2842
828.159	2982
828.298	3047
828.437	3119
828.577	3032
828.716	3237
828.855	3112
828.994	2918
829.134	2883
829.273	2906
829.412	2853
829.551	2868
829.69	2864
829.829	3005
829.968	3173
830.107	3017
830.246	3020
830.385	2956
830.524	2914
830.663	2826
830.802	2739
830.941	2659
831.08	2651
831.219	2777
831.357	2773
831.496	2922
831.635	2727
831.774	2667
831.913	2667
832.051	2522
832.19	2575
832.329	2670
832.467	2514
832.606	2480
832.744	2602
832.883	2606
833.022	2587
833.16	2674
833.299	2682
833.437	2674
833.576	2720
833.714	2678
833.852	2766
833.991	2766
834.129	2815
834.267	2834
834.406	2777
834.544	2857
834.682	2895
834.821	2861
834.959	3097
835.097	2883
835.235	3055
835.373	2994
835.511	3043
835.65	2952
835.788	2956
835.926	2826
836.064	2792
836.202	2887
836.34	3104
836.478	3173
836.615	3074
836.753	3135
836.891	3199
837.029	3161
837.167	3127
837.305	3055
837.443	3036
837.58	2948
837.718	3131
837.856	3058
837.993	3039
838.131	3123
838.269	3112
838.406	3070
838.544	3108
838.681	2929
838.819	2910
838.956	2788
839.094	2857
839.231	2902
839.369	3001
839.506	3367
839.643	3176
839.781	2998
839.918	2937
840.055	3047
840.193	3058
840.33	3085
840.467	3108
840.604	3165
840.742	3405
840.879	3013
841.016	3074
841.153	3123
841.29	3359
841.427	3306
841.564	3279
841.701	3310
841.838	3222
841.975	3176
842.112	3230
842.249	3104
842.385	3028
842.522	3264
842.659	3077
842.796	3081
842.933	3112
843.069	3043
843.206	3024
843.343	3203
843.479	3119
843.616	3161
843.752	2872
843.889	2876
844.025	3093
844.162	2872
844.298	3051
844.435	2952
844.571	2914
844.708	3058
844.844	3169
844.98	3264
845.117	3241
845.253	2994
845.389	2998
845.525	3116
845.661	3123
845.798	3020
845.934	3116
846.07	3055
846.206	3195
846.342	3317
846.478	3214
846.614	3074
846.75	3062
846.886	3093
847.022	3241
847.158	3150
847.294	3176
847.429	3233
847.565	3249
847.701	3469
847.837	3009
847.972	2998
848.108	3138
848.244	3154
848.379	2986
848.515	2918
848.65	2906
848.786	2956
848.921	3009
849.057	3108
849.192	3142
849.328	3066
849.463	3089
849.598	3074
849.734	3005
849.869	2971
850.004	2914
850.14	2979
850.275	2963
850.41	2864
850.545	2868
850.68	2937
850.815	2937
850.95	2998
851.085	3211
851.22	3074
851.355	3024
851.49	2990
851.625	2982
851.76	3009
851.895	2933
852.03	2933
852.165	3066
852.299	3081
852.434	3161
852.569	3157
852.703	3127
852.838	3241
852.973	3351
853.107	3317
853.242	3135
853.376	3085
853.511	2963
853.645	3017
853.78	3241
853.914	3058
854.048	3135
854.183	3108
854.317	3169
854.451	3298
854.585	3135
854.72	3070
854.854	3207
854.988	3081
855.122	3085
855.256	2990
855.39	3093
855.524	3203
855.658	3142
855.792	3169
855.926	3150
856.06	3199
856.194	3214
856.327	3123
856.461	3077
856.595	3093
856.729	3062
856.862	3211
856.996	3169
857.13	3195
857.263	3207
857.397	3279
857.53	3123
857.664	3184
857.797	3237
857.931	3279
858.064	3161
858.197	3173
858.331	3093
858.464	3116
858.597	2979
858.731	3100
858.864	3119
858.997	3077
859.13	3154
859.263	3123
859.396	3188
859.529	3055
859.662	3066
859.795	3055
859.928	3146
860.061	3256
860.194	3302
860.327	3157
860.46	3135
860.592	3211
860.725	3218
860.858	3218
860.99	3093
861.123	3020
861.256	3024
861.388	3142
861.521	3732
861.653	3009
861.786	2963
861.918	2994
862.05	3066
862.183	3085
862.315	3146
862.447	3180
862.58	3108
862.712	2963
862.844	2864
862.976	3058
863.108	3009
863.24	3329
863.372	2876
863.504	2967
863.636	2925
863.768	3043
863.9	2941
864.032	2925
864.164	2956
864.296	3032
864.428	3066
864.559	3051
864.691	3089
864.823	3036
864.954	2998
865.086	3013
865.217	3013
865.349	2944
865.48	3013
865.612	3009
865.743	3169
865.875	2998
866.006	2914
866.137	2948
866.269	2937
866.4	2922
866.531	2914
866.662	2902
866.793	2876
866.924	2914
867.055	2975
867.186	2925
867.317	2902
867.448	2834
867.579	2842
867.71	2868
867.841	2792
867.972	2864
868.103	2918
868.233	2899
868.364	2880
868.495	2922
868.625	3047
868.756	3112
868.886	2975
869.017	3032
869.147	3169
869.278	3146
869.408	3039
869.539	3047
869.669	3104
869.799	3036
869.929	3108
870.06	3138
870.19	3298
870.32	3287
870.45	3275
870.58	3374
870.71	3397
870.84	3447
870.97	3294
871.1	3233
871.23	3485
871.36	3428
871.489	3359
871.619	3389
871.749	3386
871.879	3412
872.008	3511
872.138	3336
872.267	3249
872.397	3150
872.526	3058
872.656	2990
872.785	3104
872.915	3226
873.044	3298
873.173	3203
873.303	3233
873.432	3264
873.561	3218
873.69	3138
873.819	3116
873.948	3146
874.077	3085
874.206	3043
874.335	3055
874.464	3230
874.593	3313
874.722	3222
874.851	3409
874.979	3321
875.108	3310
875.237	3169
875.365	3165
875.494	3154
875.623	3249
875.751	3066
875.88	3119
876.008	3195
876.136	3226
876.265	3370
876.393	3526
876.521	3389
876.65	3393
876.778	3348
876.906	3264
877.034	3161
877.162	3211
877.29	3203
877.418	3214
877.546	3264
877.674	3253
877.802	3203
877.93	3214
878.058	3127
878.185	3089
878.313	3214
878.441	3192
878.568	3028
878.696	3116
878.824	3184
878.951	3287
879.079	3431
879.206	3614
879.333	3458
879.461	3329
879.588	3359
879.715	3466
879.842	3564
879.97	3412
880.097	3142
880.224	3074
880.351	3154
880.478	3230
880.605	3188
880.732	3237
880.859	3485
880.986	3302
881.112	3329
881.239	3188
881.366	3020
881.493	3058
881.619	3024
881.746	3100
881.872	3085
881.999	3119
882.125	3142
882.252	3256
882.378	3256
882.505	3386
882.631	3272
882.757	3135
882.883	3199
883.01	3203
883.136	3131
883.262	3074
883.388	3108
883.514	3306
883.64	3336
883.766	3291
883.892	3218
884.018	3199
884.143	3374
884.269	3545
884.395	3199
884.52	3142
884.646	3138
884.772	3135
884.897	3085
885.023	3184
885.148	3313
885.274	3420
885.399	3336
885.524	3264
885.65	3253
885.775	3291
885.9	3264
886.025	3435
886.15	3332
886.275	3272
886.4	3214
886.525	3283
886.65	3230
886.775	3245
886.9	3492
887.025	3648
887.149	3401
887.274	3241
887.399	3203
887.523	3222
887.648	3142
887.773	3188
887.897	3370
888.021	3378
888.146	3272
888.27	3431
888.395	3545
888.519	3450
888.643	3420
888.767	3526
888.891	3336
889.015	3241
889.139	3275
889.263	3249
889.387	3435
889.511	3515
889.635	3428
889.759	3306
889.883	3279
890.006	3393
890.13	3485
890.254	3264
890.377	3344
890.501	3222
890.624	3207
890.748	3279
890.871	3161
890.995	3127
891.118	3097
891.241	3184
891.364	3237
891.488	3294
891.611	3199
891.734	3237
891.857	3302
891.98	3195
892.103	3332
892.226	3279
892.349	3218
892.471	3097
892.594	3233
892.717	3306
892.839	3260
892.962	3294
893.085	3348
893.207	3294
893.33	3157
893.452	3203
893.575	3313
893.697	3233
893.819	3454
893.941	3473
894.064	3458
894.186	3226
894.308	3287
894.43	3439
894.552	3515
894.674	3431
894.796	3264
894.918	3306
895.04	3283
895.161	3420
895.283	3386
895.405	3306
895.526	3344
895.648	3420
895.769	3405
895.891	3462
896.012	3481
896.134	3450
896.255	3397
896.376	3416
896.498	3329
896.619	3420
896.74	3332
896.861	3424
896.982	3663
897.103	3835
897.224	3595
897.345	3496
897.466	3439
897.587	3511
897.708	3603
897.828	3557
897.949	3439
898.07	3340
898.19	3412
898.311	3595
898.431	3424
898.552	3504
898.672	3641
898.792	3606
898.913	3481
899.033	3374
899.153	3313
899.273	3241
899.393	3256
899.513	3264
899.633	3287
899.753	3351
899.873	3294
899.993	3344
900.113	3348
900.232	3370
900.352	3344
900.472	3264
900.591	3203
900.711	3298
900.83	3226
900.95	3428
901.069	3492
901.189	3340
901.308	3173
901.427	3135
901.546	3161
901.665	3302
901.784	3313
901.904	3184
902.023	3176
902.141	3001
902.26	2971
902.379	3146
902.498	3070
902.617	3062
902.735	3188
902.854	3214
902.973	3169
903.091	3032
903.21	3097
903.328	3104
903.446	3081
903.565	3085
903.683	3214
903.801	3100
903.919	3195
904.038	3283
904.156	3135
904.274	3275
904.392	3249
904.51	3298
904.627	3359
904.745	3409
904.863	3507
904.981	3283
905.098	3142
905.216	3226
905.334	3283
905.451	3287
905.569	3272
905.686	3424
905.803	3409
905.921	3256
906.038	3439
906.155	3310
906.272	3272
906.389	3340
906.506	3195
906.623	3264
906.74	3291
906.857	3203
906.974	3211
907.091	3416
907.208	3591
907.324	3450
907.441	3363
907.557	3245
907.674	3218
907.79	3222
907.907	3249
908.023	3370
908.139	3382
908.256	3325
908.372	3344
908.488	3329
908.604	3237
908.72	3195
908.836	3275
908.952	3272
909.068	3367
909.184	3450
909.3	3344
909.415	3488
909.531	3485
909.647	3230
909.762	3329
909.878	3241
909.993	3302
910.108	3317
910.224	3336
910.339	3405
910.454	3332
910.57	3287
910.685	3272
910.8	3591
910.915	3477
911.03	3439
911.145	3230
911.259	3272
911.374	3329
911.489	3245
911.604	3233
911.718	3116
911.833	3192
911.947	3009
912.062	2979
912.176	3165
912.291	3180
912.405	3188
912.519	3458
912.633	3450
912.748	3313
912.862	3226
912.976	3161
913.09	3066
913.204	3123
913.318	3226
913.431	3329
913.545	3340
913.659	3393
913.772	3329
913.886	3230
914	3195
914.113	3367
914.226	3420
914.34	3370
914.453	3180
914.566	3367
914.68	3279
914.793	3344
914.906	3142
915.019	3131
915.132	3066
915.245	3176
915.358	3214
915.47	3249
915.583	3272
915.696	3283
915.809	3382
915.921	3450
916.034	3275
916.146	3291
916.259	3222
916.371	3382
916.483	3420
916.595	3264
916.708	3313
916.82	3355
916.932	3348
917.044	3336
917.156	3348
917.268	3283
917.38	3310
917.491	3272
917.603	3344
917.715	3447
917.826	3447
917.938	3386
918.049	3260
918.161	3431
918.272	3542
918.384	3580
918.495	3500
918.606	3332
918.717	3310
918.828	3370
918.939	3405
919.05	3298
919.161	3348
919.272	3176
919.383	3272
919.494	3526
919.604	3641
919.715	3462
919.826	3416
919.936	3469
920.047	3545
920.157	3545
920.267	3789
920.378	3644
920.488	3549
920.598	3797
920.708	3979
920.818	3808
920.928	3861
921.038	3979
921.148	3979
921.258	3709
921.368	3618
921.477	3587
921.587	3523
921.697	3481
921.806	3663
921.916	3534
922.025	3363
922.134	3378
922.244	3298
922.353	3435
922.462	3253
922.571	3211
922.68	3104
922.789	3036
922.898	3157
923.007	3127
923.116	3241
923.224	3135
923.333	3218
923.442	3104
923.55	3100
923.659	3123
923.767	3207
923.876	3123
923.984	3245
924.092	3085
924.201	3180
924.309	3188
924.417	3264
924.525	3188
924.633	3249
924.741	3941
924.849	3066
924.956	3256
925.064	3138
925.172	3032
925.279	3081
925.387	3214
925.494	3218
925.602	3348
925.709	3291
925.816	3165
925.924	3294
926.031	3355
926.138	3336
926.245	3367
926.352	3256
926.459	3382
926.566	3462
926.673	3310
926.779	3264
926.886	3241
926.993	3157
927.099	3135
927.206	3108
927.312	3104
927.419	3207
927.525	3207
927.631	3230
927.737	3127
927.843	3138
927.95	3070
928.056	3127
928.162	3195
928.267	3245
928.373	3869
928.479	3279
928.585	3081
928.69	3214
928.796	3275
928.901	3146
929.007	3013
929.112	3184
929.218	3192
929.323	3119
929.428	3203
929.533	3310
929.638	3116
929.743	3184
929.848	3226
929.953	3207
930.058	3138
930.163	3024
930.267	3047
930.372	3192
930.477	3036
930.581	3298
930.685	3157
930.79	3055
930.894	3116
930.998	3089
931.103	3245
931.207	2944
931.311	2899
931.415	2922
931.519	2762
931.623	2815
