Data from test_V78500241_1309.txt Node
Date: Fri Mar 25 16:24:16 CST 2022
User: usil
Spectrometer: V785-0024
Trigger mode: 0
Integration Time (sec): 4.000000E-1
Scans to average: 1
Nonlinearity correction enabled: false
Boxcar width: 0
Storing dark spectrum: false
XAxis mode: Wavelengths
Number of Pixels in Spectrum: 1024
>>>>>Begin Spectral Data<<<<<
801.071	2910
801.214	2941
801.356	2872
801.499	2895
801.641	2876
801.783	2933
801.926	3047
802.068	2979
802.211	2990
802.353	3009
802.496	2971
802.638	3009
802.78	3032
802.923	3100
803.065	2990
803.208	2899
803.35	2914
803.492	2906
803.635	2899
803.777	2766
803.919	2872
804.061	3184
804.204	2925
804.346	2914
804.488	2902
804.63	2948
804.773	2853
804.915	2925
805.057	3074
805.199	2929
805.341	2971
805.483	3058
805.626	3001
805.768	2956
805.91	3077
806.052	3093
806.194	3017
806.336	3249
806.478	3013
806.62	2967
806.762	2990
806.904	3058
807.046	3169
807.188	2975
807.33	2918
807.472	3009
807.614	2906
807.756	3009
807.898	2952
808.04	2891
808.182	2975
808.324	2956
808.465	2872
808.607	2872
808.749	2807
808.891	2845
809.033	3017
809.174	2971
809.316	2906
809.458	2857
809.6	2807
809.741	2788
809.883	2781
810.025	2826
810.166	2872
810.308	2830
810.45	2807
810.591	2845
810.733	2758
810.875	2845
811.016	2758
811.158	2785
811.299	2792
811.441	2922
811.582	2868
811.724	2861
811.865	2796
812.007	2906
812.148	2861
812.29	2880
812.431	2902
812.573	2922
812.714	2982
812.855	3043
812.997	3032
813.138	3154
813.279	3020
813.421	2971
813.562	2906
813.703	2853
813.845	2849
813.986	2804
814.127	2716
814.268	2834
814.41	2853
814.551	2811
814.692	2868
814.833	2804
814.974	2891
815.115	2952
815.256	2807
815.397	2823
815.539	2880
815.68	2785
815.821	2826
815.962	2922
816.103	2925
816.244	2864
816.385	2891
816.526	2979
816.666	2944
816.807	2743
816.948	2880
817.089	2929
817.23	2830
817.371	2811
817.512	2785
817.653	2845
817.793	2864
817.934	2883
818.075	2975
818.216	3017
818.356	3013
818.497	2883
818.638	2807
818.778	2788
818.919	2804
819.06	2724
819.2	2880
819.341	2792
819.481	2804
819.622	2937
819.762	3123
819.903	2990
820.043	2929
820.184	2895
820.324	2918
820.465	2975
820.605	2971
820.746	3028
820.886	2979
821.026	3093
821.167	3154
821.307	3283
821.447	3275
821.588	3230
821.728	3195
821.868	3176
822.008	3066
822.149	3192
822.289	3241
822.429	3024
822.569	3112
822.709	3203
822.849	2986
822.99	3070
823.13	3154
823.27	3173
823.41	3108
823.55	3119
823.69	3108
823.83	3173
823.97	3119
824.11	3013
824.25	2986
824.389	3055
824.529	3093
824.669	3051
824.809	3154
824.949	3268
825.089	3249
825.228	3169
825.368	2990
825.508	2952
825.648	2948
825.787	3020
825.927	2994
826.067	2944
826.206	2975
826.346	3028
826.485	3043
826.625	3127
826.765	3260
826.904	3192
827.044	2975
827.183	2941
827.323	2864
827.462	2967
827.601	2864
827.741	2922
827.88	2986
828.02	2868
828.159	2975
828.298	3032
828.437	3108
828.577	3051
828.716	3214
828.855	3074
828.994	2891
829.134	2887
829.273	2883
829.412	2887
829.551	2830
829.69	2895
829.829	2982
829.968	3093
830.107	3001
830.246	3032
830.385	2902
830.524	2849
830.663	2826
830.802	2686
830.941	2648
831.08	2640
831.219	2750
831.357	2743
831.496	2960
831.635	2705
831.774	2651
831.913	2629
832.051	2564
832.19	2556
832.329	2663
832.467	2530
832.606	2480
832.744	2587
832.883	2587
833.022	2560
833.16	2678
833.299	2663
833.437	2689
833.576	2670
833.714	2724
833.852	2712
833.991	2750
834.129	2811
834.267	2766
834.406	2785
834.544	2868
834.682	2876
834.821	2838
834.959	3036
835.097	2883
835.235	3043
835.373	3028
835.511	3043
835.65	2929
835.788	2944
835.926	2800
836.064	2785
836.202	2823
836.34	3074
836.478	3150
836.615	3055
836.753	3108
836.891	3195
837.029	3150
837.167	3123
837.305	3074
837.443	3039
837.58	2982
837.718	3119
837.856	3028
837.993	3020
838.131	3104
838.269	3116
838.406	3093
838.544	3066
838.681	2937
838.819	2956
838.956	2796
839.094	2849
839.231	2887
839.369	3017
839.506	3332
839.643	3184
839.781	3020
839.918	2979
840.055	3032
840.193	3074
840.33	3062
840.467	3123
840.604	3104
840.742	3412
840.879	3085
841.016	3062
841.153	3123
841.29	3332
841.427	3256
841.564	3272
841.701	3310
841.838	3203
841.975	3173
842.112	3264
842.249	3081
842.385	3047
842.522	3233
842.659	3089
842.796	3051
842.933	3093
843.069	3036
843.206	3070
843.343	3173
843.479	3100
843.616	3150
843.752	2880
843.889	2864
844.025	3070
844.162	2880
844.298	3085
844.435	2929
844.571	2925
844.708	3081
844.844	3169
844.98	3226
845.117	3173
845.253	3058
845.389	2998
845.525	3100
845.661	3074
845.798	2971
845.934	3127
846.07	3062
846.206	3207
846.342	3329
846.478	3237
846.614	3074
846.75	3043
846.886	3032
847.022	3226
847.158	3135
847.294	3195
847.429	3260
847.565	3222
847.701	3500
847.837	3009
847.972	2967
848.108	3150
848.244	3127
848.379	3028
848.515	2925
848.65	2918
848.786	2956
848.921	2986
849.057	3112
849.192	3119
849.328	3058
849.463	3112
849.598	3097
849.734	3051
849.869	2956
850.004	2910
850.14	2986
850.275	2902
850.41	2853
850.545	2887
850.68	2937
850.815	2963
850.95	2941
851.085	3176
851.22	3089
851.355	3005
851.49	2933
851.625	3009
851.76	3013
851.895	2937
852.03	2899
852.165	3043
852.299	3100
852.434	3176
852.569	3173
852.703	3154
852.838	3230
852.973	3351
853.107	3329
853.242	3146
853.376	3093
853.511	2960
853.645	3024
853.78	3207
853.914	3123
854.048	3062
854.183	3055
854.317	3123
854.451	3306
854.585	3123
854.72	3070
854.854	3192
854.988	3043
855.122	3070
855.256	2944
855.39	3066
855.524	3203
855.658	3146
855.792	3131
855.926	3199
856.06	3233
856.194	3218
856.327	3100
856.461	3074
856.595	3074
856.729	3097
856.862	3184
856.996	3119
857.13	3203
857.263	3203
857.397	3294
857.53	3112
857.664	3176
857.797	3264
857.931	3245
858.064	3211
858.197	3241
858.331	3123
858.464	3077
858.597	3013
858.731	3100
858.864	3138
858.997	3058
859.13	3157
859.263	3157
859.396	3188
859.529	3051
859.662	3043
859.795	3036
859.928	3112
860.061	3287
860.194	3291
860.327	3138
860.46	3119
860.592	3302
860.725	3230
860.858	3241
860.99	3104
861.123	3066
861.256	3074
861.388	3100
861.521	3682
861.653	3024
861.786	2967
861.918	2998
862.05	3066
862.183	3081
862.315	3184
862.447	3192
862.58	3070
862.712	2918
862.844	2857
862.976	3043
863.108	3017
863.24	3291
863.372	2891
863.504	2948
863.636	2941
863.768	3013
863.9	2971
864.032	2899
864.164	2941
864.296	3020
864.428	3089
864.559	3097
864.691	3051
864.823	3032
864.954	3039
865.086	3039
865.217	3005
865.349	2975
865.48	2994
865.612	2979
865.743	3116
865.875	3001
866.006	2933
866.137	2975
866.269	2975
866.4	2944
866.531	2933
866.662	2899
866.793	2914
866.924	2902
867.055	2960
867.186	2933
867.317	2872
867.448	2845
867.579	2849
867.71	2842
867.841	2826
867.972	2914
868.103	2906
868.233	2861
868.364	2861
868.495	2895
868.625	3066
868.756	3176
868.886	2967
869.017	3009
869.147	3157
869.278	3135
869.408	3032
869.539	2998
869.669	3097
869.799	3017
869.929	3119
870.06	3081
870.19	3275
870.32	3275
870.45	3283
870.58	3348
870.71	3462
870.84	3450
870.97	3283
871.1	3192
871.23	3488
871.36	3420
871.489	3401
871.619	3374
871.749	3397
871.879	3393
872.008	3488
872.138	3336
872.267	3256
872.397	3112
872.526	3119
872.656	3039
872.785	3077
872.915	3260
873.044	3310
873.173	3222
873.303	3230
873.432	3207
873.561	3211
873.69	3142
873.819	3138
873.948	3207
874.077	3077
874.206	3043
874.335	3066
874.464	3199
874.593	3317
874.722	3241
874.851	3416
874.979	3340
875.108	3317
875.237	3195
875.365	3150
875.494	3176
875.623	3241
875.751	3077
875.88	3127
876.008	3207
876.136	3233
876.265	3378
876.393	3526
876.521	3420
876.65	3416
876.778	3348
876.906	3283
877.034	3188
877.162	3222
877.29	3138
877.418	3233
877.546	3192
877.674	3253
877.802	3264
877.93	3218
878.058	3154
878.185	3066
878.313	3146
878.441	3207
878.568	3032
878.696	3169
878.824	3211
878.951	3253
879.079	3473
879.206	3644
879.333	3435
879.461	3332
879.588	3359
879.715	3435
879.842	3580
879.97	3370
880.097	3192
880.224	3119
880.351	3165
880.478	3161
880.605	3192
880.732	3214
880.859	3477
880.986	3294
881.112	3272
881.239	3195
881.366	3066
881.493	3070
881.619	2994
881.746	3020
881.872	3077
881.999	3074
882.125	3150
882.252	3214
882.378	3256
882.505	3466
882.631	3283
882.757	3135
882.883	3176
883.01	3161
883.136	3184
883.262	3070
883.388	3093
883.514	3332
883.64	3355
883.766	3264
883.892	3154
884.018	3256
884.143	3416
884.269	3507
884.395	3173
884.52	3116
884.646	3165
884.772	3112
884.897	3112
885.023	3222
885.148	3298
885.274	3424
885.399	3382
885.524	3260
885.65	3279
885.775	3306
885.9	3268
886.025	3447
886.15	3336
886.275	3275
886.4	3211
886.525	3340
886.65	3298
886.775	3268
886.9	3496
887.025	3584
887.149	3382
887.274	3264
887.399	3169
887.523	3176
887.648	3184
887.773	3203
887.897	3344
888.021	3374
888.146	3283
888.27	3412
888.395	3576
888.519	3428
888.643	3374
888.767	3443
888.891	3313
889.015	3253
889.139	3256
889.263	3249
889.387	3340
889.511	3477
889.635	3416
889.759	3298
889.883	3272
890.006	3428
890.13	3458
890.254	3264
890.377	3374
890.501	3233
890.624	3173
890.748	3268
890.871	3161
890.995	3074
891.118	3047
891.241	3188
891.364	3241
891.488	3298
891.611	3188
891.734	3245
891.857	3260
891.98	3230
892.103	3321
892.226	3279
892.349	3222
892.471	3085
892.594	3249
892.717	3279
892.839	3291
892.962	3298
893.085	3344
893.207	3272
893.33	3146
893.452	3184
893.575	3359
893.697	3249
893.819	3504
893.941	3481
894.064	3454
894.186	3268
894.308	3302
894.43	3420
894.552	3515
894.674	3401
894.796	3268
894.918	3321
895.04	3313
895.161	3420
895.283	3389
895.405	3310
895.526	3378
895.648	3431
895.769	3466
895.891	3454
896.012	3504
896.134	3454
896.255	3454
896.376	3348
896.498	3329
896.619	3409
896.74	3359
896.861	3412
896.982	3671
897.103	3800
897.224	3595
897.345	3485
897.466	3412
897.587	3530
897.708	3580
897.828	3538
897.949	3469
898.07	3329
898.19	3420
898.311	3660
898.431	3431
898.552	3523
898.672	3614
898.792	3618
898.913	3526
899.033	3443
899.153	3275
899.273	3211
899.393	3275
899.513	3310
899.633	3287
899.753	3321
899.873	3329
899.993	3359
900.113	3325
900.232	3363
900.352	3382
900.472	3256
900.591	3199
900.711	3272
900.83	3218
900.95	3431
901.069	3477
901.189	3351
901.308	3192
901.427	3100
901.546	3203
901.665	3317
901.784	3317
901.904	3199
902.023	3154
902.141	3047
902.26	3005
902.379	3123
902.498	3062
902.617	3047
902.735	3218
902.854	3203
902.973	3176
903.091	3055
903.21	3104
903.328	3112
903.446	3108
903.565	3081
903.683	3203
903.801	3138
903.919	3233
904.038	3268
904.156	3161
904.274	3302
904.392	3218
904.51	3268
904.627	3329
904.745	3439
904.863	3481
904.981	3222
905.098	3195
905.216	3230
905.334	3291
905.451	3275
905.569	3287
905.686	3447
905.803	3458
905.921	3272
906.038	3424
906.155	3313
906.272	3294
906.389	3302
906.506	3207
906.623	3237
906.74	3317
906.857	3218
906.974	3226
907.091	3466
907.208	3538
907.324	3488
907.441	3363
907.557	3211
907.674	3241
907.79	3184
907.907	3249
908.023	3386
908.139	3389
908.256	3283
908.372	3363
908.488	3374
908.604	3237
908.72	3203
908.836	3283
908.952	3306
909.068	3351
909.184	3473
909.3	3424
909.415	3504
909.531	3504
909.647	3253
909.762	3264
909.878	3226
909.993	3355
910.108	3329
910.224	3359
910.339	3428
910.454	3325
910.57	3329
910.685	3253
910.8	3603
910.915	3511
911.03	3447
911.145	3291
911.259	3287
911.374	3287
911.489	3233
911.604	3199
911.718	3108
911.833	3123
911.947	3062
912.062	2933
912.176	3142
912.291	3173
912.405	3218
912.519	3439
912.633	3473
912.748	3321
912.862	3268
912.976	3184
913.09	3081
913.204	3142
913.318	3230
913.431	3329
913.545	3336
913.659	3416
913.772	3298
913.886	3188
914	3207
914.113	3348
914.226	3412
914.34	3378
914.453	3195
914.566	3389
914.68	3294
914.793	3325
914.906	3138
915.019	3119
915.132	3058
915.245	3184
915.358	3195
915.47	3218
915.583	3256
915.696	3283
915.809	3424
915.921	3416
916.034	3279
916.146	3253
916.259	3218
916.371	3329
916.483	3412
916.595	3275
916.708	3310
916.82	3336
916.932	3313
917.044	3313
917.156	3367
917.268	3237
917.38	3272
917.491	3294
917.603	3340
917.715	3462
917.826	3450
917.938	3370
918.049	3294
918.161	3409
918.272	3584
918.384	3557
918.495	3450
918.606	3321
918.717	3302
918.828	3348
918.939	3443
919.05	3321
919.161	3355
919.272	3192
919.383	3272
919.494	3473
919.604	3663
919.715	3473
919.826	3378
919.936	3431
920.047	3549
920.157	3523
920.267	3755
920.378	3603
920.488	3523
920.598	3819
920.708	3956
920.818	3842
920.928	3850
921.038	4040
921.148	3979
921.258	3679
921.368	3572
921.477	3587
921.587	3523
921.697	3424
921.806	3606
921.916	3507
922.025	3378
922.134	3355
922.244	3317
922.353	3431
922.462	3245
922.571	3218
922.68	3077
922.789	3077
922.898	3146
923.007	3112
923.116	3180
923.224	3188
923.333	3184
923.442	3100
923.55	3081
923.659	3154
923.767	3226
923.876	3081
923.984	3226
924.092	3077
924.201	3222
924.309	3218
924.417	3275
924.525	3203
924.633	3241
924.741	4006
924.849	3039
924.956	3230
925.064	3074
925.172	3020
925.279	3089
925.387	3142
925.494	3203
925.602	3344
925.709	3313
925.816	3165
925.924	3264
926.031	3382
926.138	3317
926.245	3348
926.352	3218
926.459	3439
926.566	3401
926.673	3340
926.779	3268
926.886	3260
926.993	3127
927.099	3123
927.206	3146
927.312	3093
927.419	3226
927.525	3203
927.631	3279
927.737	3165
927.843	3123
927.95	3009
928.056	3116
928.162	3161
928.267	3268
928.373	3846
928.479	3302
928.585	3081
928.69	3241
928.796	3264
928.901	3180
929.007	3024
929.112	3188
929.218	3176
929.323	3150
929.428	3119
929.533	3382
929.638	3085
929.743	3199
929.848	3249
929.953	3207
930.058	3165
930.163	2990
930.267	3036
930.372	3207
930.477	3032
930.581	3332
930.685	3176
930.79	3058
930.894	3127
930.998	3112
931.103	3302
931.207	2925
931.311	2956
931.415	2895
931.519	2727
931.623	2811
