Data from test_V78500241_1016.txt Node
Date: Fri Mar 25 16:22:14 CST 2022
User: usil
Spectrometer: V785-0024
Trigger mode: 0
Integration Time (sec): 4.000000E-1
Scans to average: 1
Nonlinearity correction enabled: false
Boxcar width: 0
Storing dark spectrum: false
XAxis mode: Wavelengths
Number of Pixels in Spectrum: 1024
>>>>>Begin Spectral Data<<<<<
801.071	2925
801.214	2979
801.356	2918
801.499	2922
801.641	2872
801.783	2914
801.926	3058
802.068	3001
802.211	2979
802.353	3043
802.496	2986
802.638	3013
802.78	3100
802.923	3051
803.065	3013
803.208	2922
803.35	2906
803.492	2929
803.635	2918
803.777	2758
803.919	2895
804.061	3241
804.204	2998
804.346	2929
804.488	2857
804.63	3028
804.773	2887
804.915	2956
805.057	3119
805.199	2975
805.341	3001
805.483	3051
805.626	3009
805.768	2979
805.91	3108
806.052	3142
806.194	3047
806.336	3237
806.478	3051
806.62	2979
806.762	2971
806.904	3047
807.046	3138
807.188	2982
807.33	2868
807.472	3017
807.614	2902
807.756	2994
807.898	2925
808.04	2918
808.182	2937
808.324	2971
808.465	2883
808.607	2914
808.749	2785
808.891	2902
809.033	2998
809.174	2963
809.316	2902
809.458	2914
809.6	2758
809.741	2754
809.883	2800
810.025	2899
810.166	2853
810.308	2861
810.45	2830
810.591	2796
810.733	2758
810.875	2838
811.016	2792
811.158	2788
811.299	2792
811.441	2937
811.582	2902
811.724	2815
811.865	2804
812.007	2922
812.148	2895
812.29	2868
812.431	2914
812.573	2963
812.714	2979
812.855	3039
812.997	3062
813.138	3131
813.279	2998
813.421	3001
813.562	2952
813.703	2887
813.845	2876
813.986	2743
814.127	2727
814.268	2864
814.41	2842
814.551	2834
814.692	2902
814.833	2834
814.974	2902
815.115	2971
815.256	2811
815.397	2819
815.539	2861
815.68	2792
815.821	2823
815.962	2914
816.103	2944
816.244	2861
816.385	2895
816.526	2994
816.666	2929
816.807	2743
816.948	2895
817.089	2899
817.23	2853
817.371	2781
817.512	2819
817.653	2811
817.793	2819
817.934	2902
818.075	2956
818.216	2975
818.356	3070
818.497	2899
818.638	2811
818.778	2792
818.919	2788
819.06	2762
819.2	2899
819.341	2823
819.481	2819
819.622	2883
819.762	3077
819.903	3058
820.043	2899
820.184	2902
820.324	2876
820.465	3017
820.605	3058
820.746	3028
820.886	2948
821.026	3070
821.167	3146
821.307	3245
821.447	3275
821.588	3275
821.728	3192
821.868	3211
822.008	3070
822.149	3180
822.289	3249
822.429	3119
822.569	3081
822.709	3169
822.849	3020
822.99	3047
823.13	3165
823.27	3222
823.41	3119
823.55	3165
823.69	3154
823.83	3180
823.97	3062
824.11	3013
824.25	2998
824.389	3074
824.529	3161
824.669	3058
824.809	3188
824.949	3268
825.089	3256
825.228	3173
825.368	3013
825.508	2971
825.648	3005
825.787	3039
825.927	3058
826.067	2990
826.206	2994
826.346	3085
826.485	3097
826.625	3161
826.765	3279
826.904	3275
827.044	2986
827.183	2998
827.323	2880
827.462	2986
827.601	2960
827.741	2960
827.88	3001
828.02	2891
828.159	2990
828.298	3081
828.437	3157
828.577	3058
828.716	3275
828.855	3119
828.994	2941
829.134	2910
829.273	2956
829.412	2933
829.551	2864
829.69	2914
829.829	3051
829.968	3142
830.107	3100
830.246	3070
830.385	2948
830.524	2899
830.663	2853
830.802	2762
830.941	2701
831.08	2670
831.219	2785
831.357	2762
831.496	2990
831.635	2739
831.774	2667
831.913	2705
832.051	2583
832.19	2651
832.329	2735
832.467	2587
832.606	2533
832.744	2636
832.883	2613
833.022	2640
833.16	2670
833.299	2750
833.437	2727
833.576	2705
833.714	2750
833.852	2807
833.991	2762
834.129	2868
834.267	2880
834.406	2849
834.544	2895
834.682	2918
834.821	2895
834.959	3077
835.097	2910
835.235	3104
835.373	3028
835.511	3074
835.65	3005
835.788	2967
835.926	2883
836.064	2830
836.202	2906
836.34	3131
836.478	3203
836.615	3097
836.753	3192
836.891	3256
837.029	3176
837.167	3150
837.305	3135
837.443	3070
837.58	2979
837.718	3173
837.856	3123
837.993	3047
838.131	3135
838.269	3127
838.406	3131
838.544	3131
838.681	2979
838.819	2986
838.956	2834
839.094	2853
839.231	2910
839.369	3024
839.506	3386
839.643	3260
839.781	3058
839.918	3017
840.055	3047
840.193	3108
840.33	3097
840.467	3176
840.604	3184
840.742	3469
840.879	3066
841.016	3093
841.153	3154
841.29	3344
841.427	3317
841.564	3275
841.701	3344
841.838	3241
841.975	3226
842.112	3195
842.249	3085
842.385	3085
842.522	3302
842.659	3123
842.796	3089
842.933	3146
843.069	3066
843.206	3058
843.343	3222
843.479	3127
843.616	3207
843.752	2918
843.889	2918
844.025	3119
844.162	2914
844.298	3131
844.435	2986
844.571	2963
844.708	3085
844.844	3218
844.98	3264
845.117	3230
845.253	3062
845.389	3024
845.525	3123
845.661	3097
845.798	3036
845.934	3138
846.07	3085
846.206	3283
846.342	3359
846.478	3264
846.614	3123
846.75	3085
846.886	3043
847.022	3256
847.158	3169
847.294	3218
847.429	3291
847.565	3222
847.701	3542
847.837	3085
847.972	2998
848.108	3173
848.244	3157
848.379	3032
848.515	2956
848.65	2948
848.786	2979
848.921	2982
849.057	3154
849.192	3203
849.328	3100
849.463	3157
849.598	3093
849.734	3097
849.869	3020
850.004	2914
850.14	3005
850.275	2918
850.41	2845
850.545	2914
850.68	2952
850.815	2929
850.95	2982
851.085	3203
851.22	3119
851.355	3077
851.49	3039
851.625	3043
851.76	3062
851.895	2963
852.03	2952
852.165	3070
852.299	3161
852.434	3214
852.569	3173
852.703	3207
852.838	3268
852.973	3355
853.107	3355
853.242	3157
853.376	3108
853.511	2975
853.645	3062
853.78	3268
853.914	3180
854.048	3097
854.183	3089
854.317	3176
854.451	3348
854.585	3146
854.72	3146
854.854	3222
854.988	3043
855.122	3089
855.256	3024
855.39	3112
855.524	3264
855.658	3207
855.792	3199
855.926	3226
856.06	3260
856.194	3298
856.327	3169
856.461	3127
856.595	3150
856.729	3123
856.862	3253
856.996	3169
857.13	3233
857.263	3218
857.397	3294
857.53	3161
857.664	3211
857.797	3275
857.931	3298
858.064	3184
858.197	3211
858.331	3192
858.464	3116
858.597	3043
858.731	3116
858.864	3142
858.997	3119
859.13	3165
859.263	3176
859.396	3195
859.529	3093
859.662	3100
859.795	3039
859.928	3173
860.061	3317
860.194	3321
860.327	3142
860.46	3100
860.592	3260
860.725	3279
860.858	3317
860.99	3154
861.123	3055
861.256	3070
861.388	3142
861.521	3819
861.653	3036
861.786	3039
861.918	3036
862.05	3085
862.183	3119
862.315	3165
862.447	3222
862.58	3119
862.712	2986
862.844	2857
862.976	3028
863.108	3036
863.24	3431
863.372	2891
863.504	3017
863.636	2994
863.768	3051
863.9	3001
864.032	2937
864.164	2971
864.296	3028
864.428	3093
864.559	3116
864.691	3097
864.823	3108
864.954	3055
865.086	3074
865.217	3013
865.349	2941
865.48	3013
865.612	3077
865.743	3180
865.875	3009
866.006	2979
866.137	3005
866.269	2956
866.4	2967
866.531	2982
866.662	2906
866.793	2902
866.924	2933
867.055	2963
867.186	2952
867.317	2910
867.448	2891
867.579	2876
867.71	2861
867.841	2830
867.972	2899
868.103	2944
868.233	2952
868.364	2887
868.495	2948
868.625	3074
868.756	3192
868.886	3001
869.017	2998
869.147	3195
869.278	3218
869.408	3058
869.539	3051
869.669	3089
869.799	3051
869.929	3199
870.06	3100
870.19	3348
870.32	3332
870.45	3317
870.58	3431
870.71	3447
870.84	3473
870.97	3275
871.1	3245
871.23	3507
871.36	3488
871.489	3397
871.619	3389
871.749	3424
871.879	3443
872.008	3504
872.138	3401
872.267	3283
872.397	3176
872.526	3135
872.656	3009
872.785	3142
872.915	3226
873.044	3306
873.173	3256
873.303	3272
873.432	3268
873.561	3230
873.69	3192
873.819	3169
873.948	3203
874.077	3131
874.206	3051
874.335	3089
874.464	3192
874.593	3374
874.722	3218
874.851	3420
874.979	3401
875.108	3321
875.237	3226
875.365	3188
875.494	3173
875.623	3256
875.751	3135
875.88	3100
876.008	3211
876.136	3233
876.265	3416
876.393	3511
876.521	3466
876.65	3412
876.778	3359
876.906	3241
877.034	3199
877.162	3260
877.29	3203
877.418	3310
877.546	3253
877.674	3291
877.802	3237
877.93	3245
878.058	3192
878.185	3104
878.313	3249
878.441	3264
878.568	3062
878.696	3192
878.824	3260
878.951	3325
879.079	3458
879.206	3667
879.333	3439
879.461	3321
879.588	3374
879.715	3492
879.842	3614
879.97	3416
880.097	3161
880.224	3131
880.351	3184
880.478	3256
880.605	3214
880.732	3207
880.859	3504
880.986	3317
881.112	3359
881.239	3226
881.366	3097
881.493	3036
881.619	3043
881.746	3112
881.872	3138
881.999	3116
882.125	3188
882.252	3260
882.378	3287
882.505	3416
882.631	3336
882.757	3169
882.883	3230
883.01	3195
883.136	3214
883.262	3104
883.388	3123
883.514	3310
883.64	3363
883.766	3302
883.892	3184
884.018	3291
884.143	3393
884.269	3523
884.395	3241
884.52	3135
884.646	3226
884.772	3173
884.897	3131
885.023	3222
885.148	3306
885.274	3431
885.399	3389
885.524	3313
885.65	3279
885.775	3355
885.9	3279
886.025	3466
886.15	3374
886.275	3294
886.4	3275
886.525	3306
886.65	3310
886.775	3291
886.9	3515
887.025	3637
887.149	3401
887.274	3241
887.399	3188
887.523	3211
887.648	3211
887.773	3214
887.897	3428
888.021	3428
888.146	3294
888.27	3462
888.395	3564
888.519	3431
888.643	3462
888.767	3469
888.891	3340
889.015	3237
889.139	3325
889.263	3294
889.387	3382
889.511	3542
889.635	3481
889.759	3313
889.883	3298
890.006	3405
890.13	3496
890.254	3302
890.377	3313
890.501	3222
890.624	3176
890.748	3336
890.871	3184
890.995	3157
891.118	3058
891.241	3188
891.364	3203
891.488	3329
891.611	3188
891.734	3245
891.857	3306
891.98	3256
892.103	3367
892.226	3313
892.349	3222
892.471	3131
892.594	3226
892.717	3283
892.839	3298
892.962	3313
893.085	3344
893.207	3306
893.33	3173
893.452	3222
893.575	3317
893.697	3302
893.819	3454
893.941	3526
894.064	3466
894.186	3264
894.308	3283
894.43	3462
894.552	3519
894.674	3466
894.796	3256
894.918	3321
895.04	3329
895.161	3412
895.283	3359
895.405	3321
895.526	3405
895.648	3435
895.769	3439
895.891	3473
896.012	3526
896.134	3443
896.255	3397
896.376	3420
896.498	3367
896.619	3435
896.74	3378
896.861	3435
896.982	3698
897.103	3819
897.224	3591
897.345	3523
897.466	3477
897.587	3504
897.708	3637
897.828	3557
897.949	3416
898.07	3348
898.19	3405
898.311	3587
898.431	3458
898.552	3526
898.672	3591
898.792	3553
898.913	3576
899.033	3447
899.153	3317
899.273	3176
899.393	3291
899.513	3344
899.633	3329
899.753	3355
899.873	3325
899.993	3405
900.113	3363
900.232	3409
900.352	3344
900.472	3272
900.591	3207
900.711	3291
900.83	3245
900.95	3458
901.069	3488
901.189	3363
901.308	3154
901.427	3138
901.546	3245
901.665	3279
901.784	3378
901.904	3230
902.023	3173
902.141	3032
902.26	2990
902.379	3146
902.498	3066
902.617	3070
902.735	3195
902.854	3256
902.973	3199
903.091	3089
903.21	3081
903.328	3135
903.446	3154
903.565	3142
903.683	3222
903.801	3157
903.919	3264
904.038	3313
904.156	3161
904.274	3272
904.392	3253
904.51	3283
904.627	3294
904.745	3466
904.863	3500
904.981	3211
905.098	3157
905.216	3211
905.334	3313
905.451	3287
905.569	3336
905.686	3428
905.803	3435
905.921	3306
906.038	3492
906.155	3374
906.272	3283
906.389	3317
906.506	3233
906.623	3294
906.74	3302
906.857	3218
906.974	3230
907.091	3454
907.208	3595
907.324	3454
907.441	3382
907.557	3214
907.674	3237
907.79	3237
907.907	3313
908.023	3348
908.139	3363
908.256	3317
908.372	3405
908.488	3355
908.604	3233
908.72	3226
908.836	3291
908.952	3275
909.068	3336
909.184	3477
909.3	3397
909.415	3504
909.531	3488
909.647	3291
909.762	3302
909.878	3291
909.993	3351
910.108	3363
910.224	3370
910.339	3424
910.454	3348
910.57	3275
910.685	3264
910.8	3606
910.915	3534
911.03	3466
911.145	3245
911.259	3313
911.374	3332
911.489	3264
911.604	3306
911.718	3104
911.833	3188
911.947	3017
912.062	3013
912.176	3180
912.291	3230
912.405	3207
912.519	3458
912.633	3466
912.748	3367
912.862	3233
912.976	3230
913.09	3070
913.204	3100
913.318	3211
913.431	3359
913.545	3321
913.659	3454
913.772	3340
913.886	3207
914	3207
914.113	3374
914.226	3435
914.34	3363
914.453	3230
914.566	3393
914.68	3317
914.793	3298
914.906	3116
915.019	3135
915.132	3081
915.245	3157
915.358	3230
915.47	3237
915.583	3253
915.696	3310
915.809	3412
915.921	3428
916.034	3283
916.146	3287
916.259	3245
916.371	3397
916.483	3374
916.595	3256
916.708	3359
916.82	3363
916.932	3355
917.044	3317
917.156	3351
917.268	3260
917.38	3275
917.491	3294
917.603	3378
917.715	3477
917.826	3485
917.938	3389
918.049	3233
918.161	3412
918.272	3591
918.384	3561
918.495	3511
918.606	3344
918.717	3298
918.828	3382
918.939	3401
919.05	3272
919.161	3370
919.272	3214
919.383	3306
919.494	3477
919.604	3709
919.715	3496
919.826	3370
919.936	3431
920.047	3587
920.157	3538
920.267	3778
920.378	3663
920.488	3568
920.598	3774
920.708	3953
920.818	3835
920.928	3865
921.038	4010
921.148	4010
921.258	3736
921.368	3618
921.477	3542
921.587	3507
921.697	3462
921.806	3633
921.916	3500
922.025	3370
922.134	3401
922.244	3313
922.353	3424
922.462	3291
922.571	3233
922.68	3108
922.789	3097
922.898	3146
923.007	3108
923.116	3180
923.224	3180
923.333	3214
923.442	3097
923.55	3081
923.659	3150
923.767	3218
923.876	3108
923.984	3222
924.092	3112
924.201	3184
924.309	3222
924.417	3253
924.525	3184
924.633	3264
924.741	4147
924.849	3070
924.956	3268
925.064	3108
925.172	3020
925.279	3100
925.387	3230
925.494	3222
925.602	3389
925.709	3355
925.816	3188
925.924	3275
926.031	3428
926.138	3317
926.245	3348
926.352	3241
926.459	3401
926.566	3496
926.673	3313
926.779	3207
926.886	3253
926.993	3142
927.099	3154
927.206	3108
927.312	3100
927.419	3195
927.525	3180
927.631	3313
927.737	3135
927.843	3157
927.95	3055
928.056	3138
928.162	3176
928.267	3253
928.373	3892
928.479	3283
928.585	3077
928.69	3214
928.796	3294
928.901	3184
929.007	3074
929.112	3230
929.218	3154
929.323	3157
929.428	3199
929.533	3313
929.638	3119
929.743	3176
929.848	3256
929.953	3192
930.058	3161
930.163	2998
930.267	3055
930.372	3169
930.477	3013
930.581	3310
930.685	3169
930.79	3058
930.894	3142
930.998	3104
931.103	3275
931.207	2967
931.311	2933
931.415	2914
931.519	2807
931.623	2800
