Data from test_V78500241_1107.txt Node
Date: Fri Mar 25 16:22:52 CST 2022
User: usil
Spectrometer: V785-0024
Trigger mode: 0
Integration Time (sec): 4.000000E-1
Scans to average: 1
Nonlinearity correction enabled: false
Boxcar width: 0
Storing dark spectrum: false
XAxis mode: Wavelengths
Number of Pixels in Spectrum: 1024
>>>>>Begin Spectral Data<<<<<
801.071	2906
801.214	2933
801.356	2883
801.499	2922
801.641	2899
801.783	2937
801.926	3055
802.068	2986
802.211	3081
802.353	3036
802.496	3005
802.638	3058
802.78	3051
802.923	3081
803.065	2994
803.208	2910
803.35	2910
803.492	2944
803.635	2902
803.777	2788
803.919	2830
804.061	3180
804.204	2952
804.346	2922
804.488	2880
804.63	3001
804.773	2861
804.915	2906
805.057	3100
805.199	2963
805.341	2990
805.483	3043
805.626	2960
805.768	2937
805.91	3089
806.052	3100
806.194	3039
806.336	3211
806.478	3005
806.62	2963
806.762	2960
806.904	3036
807.046	3173
807.188	2986
807.33	2910
807.472	2979
807.614	2925
807.756	2986
807.898	2941
808.04	2902
808.182	2937
808.324	2937
808.465	2880
808.607	2868
808.749	2830
808.891	2842
809.033	2937
809.174	2994
809.316	2887
809.458	2918
809.6	2807
809.741	2785
809.883	2777
810.025	2834
810.166	2853
810.308	2853
810.45	2838
810.591	2773
810.733	2777
810.875	2849
811.016	2804
811.158	2796
811.299	2796
811.441	2967
811.582	2876
811.724	2796
811.865	2834
812.007	2941
812.148	2899
812.29	2853
812.431	2872
812.573	2925
812.714	2982
812.855	3093
812.997	3077
813.138	3138
813.279	3013
813.421	2937
813.562	2952
813.703	2868
813.845	2899
813.986	2769
814.127	2727
814.268	2823
814.41	2830
814.551	2804
814.692	2849
814.833	2868
814.974	2883
815.115	2982
815.256	2845
815.397	2785
815.539	2922
815.68	2746
815.821	2773
815.962	2944
816.103	2960
816.244	2868
816.385	2849
816.526	2937
816.666	2906
816.807	2766
816.948	2872
817.089	2933
817.23	2845
817.371	2788
817.512	2796
817.653	2838
817.793	2819
817.934	2925
818.075	2944
818.216	2960
818.356	3005
818.497	2891
818.638	2762
818.778	2838
818.919	2769
819.06	2724
819.2	2838
819.341	2804
819.481	2758
819.622	2933
819.762	3070
819.903	3028
820.043	2922
820.184	2880
820.324	2864
820.465	2990
820.605	2967
820.746	3005
820.886	2971
821.026	3119
821.167	3165
821.307	3245
821.447	3287
821.588	3214
821.728	3169
821.868	3192
822.008	3055
822.149	3161
822.289	3199
822.429	3108
822.569	3104
822.709	3195
822.849	3001
822.99	3077
823.13	3184
823.27	3214
823.41	3108
823.55	3123
823.69	3154
823.83	3173
823.97	3104
824.11	3013
824.25	3005
824.389	3100
824.529	3123
824.669	3108
824.809	3211
824.949	3287
825.089	3249
825.228	3169
825.368	3005
825.508	2967
825.648	2982
825.787	3036
825.927	3058
826.067	3005
826.206	3062
826.346	3043
826.485	3100
826.625	3154
826.765	3287
826.904	3249
827.044	3001
827.183	2944
827.323	2872
827.462	3028
827.601	2963
827.741	2948
827.88	3005
828.02	2895
828.159	3017
828.298	3085
828.437	3154
828.577	3112
828.716	3287
828.855	3108
828.994	2990
829.134	2941
829.273	2975
829.412	2918
829.551	2933
829.69	2929
829.829	3020
829.968	3203
830.107	3043
830.246	3039
830.385	2941
830.524	2876
830.663	2876
830.802	2758
830.941	2689
831.08	2686
831.219	2792
831.357	2788
831.496	2937
831.635	2777
831.774	2720
831.913	2724
832.051	2587
832.19	2629
832.329	2682
832.467	2587
832.606	2526
832.744	2613
832.883	2575
833.022	2625
833.16	2735
833.299	2731
833.437	2743
833.576	2754
833.714	2777
833.852	2781
833.991	2800
834.129	2842
834.267	2887
834.406	2823
834.544	2918
834.682	2922
834.821	2887
834.959	3097
835.097	2941
835.235	3081
835.373	3032
835.511	3062
835.65	2986
835.788	2990
835.926	2872
836.064	2876
836.202	2876
836.34	3135
836.478	3195
836.615	3077
836.753	3146
836.891	3264
837.029	3211
837.167	3157
837.305	3108
837.443	3058
837.58	2986
837.718	3165
837.856	3085
837.993	3058
838.131	3142
838.269	3165
838.406	3093
838.544	3123
838.681	2967
838.819	2960
838.956	2823
839.094	2868
839.231	2944
839.369	3074
839.506	3382
839.643	3275
839.781	3020
839.918	2967
840.055	3104
840.193	3100
840.33	3108
840.467	3127
840.604	3188
840.742	3477
840.879	3085
841.016	3062
841.153	3169
841.29	3416
841.427	3367
841.564	3302
841.701	3321
841.838	3199
841.975	3214
842.112	3256
842.249	3135
842.385	3058
842.522	3268
842.659	3104
842.796	3058
842.933	3142
843.069	3077
843.206	3077
843.343	3203
843.479	3123
843.616	3165
843.752	2922
843.889	2910
844.025	3081
844.162	2914
844.298	3104
844.435	2998
844.571	2941
844.708	3097
844.844	3241
844.98	3272
845.117	3237
845.253	3112
845.389	3047
845.525	3127
845.661	3108
845.798	3055
845.934	3165
846.07	3070
846.206	3241
846.342	3351
846.478	3260
846.614	3135
846.75	3081
846.886	3043
847.022	3268
847.158	3176
847.294	3211
847.429	3313
847.565	3264
847.701	3519
847.837	3108
847.972	3051
848.108	3188
848.244	3157
848.379	2998
848.515	2963
848.65	2979
848.786	3001
848.921	3070
849.057	3119
849.192	3173
849.328	3112
849.463	3100
849.598	3112
849.734	3032
849.869	3024
850.004	2941
850.14	2994
850.275	2937
850.41	2876
850.545	2933
850.68	2979
850.815	2994
850.95	3001
851.085	3222
851.22	3119
851.355	3070
851.49	3020
851.625	3047
851.76	3066
851.895	2986
852.03	2944
852.165	3055
852.299	3138
852.434	3226
852.569	3180
852.703	3237
852.838	3306
852.973	3374
853.107	3348
853.242	3161
853.376	3108
853.511	3005
853.645	3047
853.78	3218
853.914	3142
854.048	3165
854.183	3135
854.317	3188
854.451	3313
854.585	3161
854.72	3127
854.854	3218
854.988	3036
855.122	3131
855.256	3013
855.39	3123
855.524	3272
855.658	3237
855.792	3169
855.926	3199
856.06	3249
856.194	3310
856.327	3169
856.461	3108
856.595	3085
856.729	3108
856.862	3253
856.996	3161
857.13	3233
857.263	3253
857.397	3302
857.53	3142
857.664	3184
857.797	3275
857.931	3294
858.064	3180
858.197	3256
858.331	3173
858.464	3089
858.597	3058
858.731	3157
858.864	3142
858.997	3119
859.13	3195
859.263	3188
859.396	3237
859.529	3116
859.662	3123
859.795	3062
859.928	3192
860.061	3313
860.194	3310
860.327	3154
860.46	3093
860.592	3253
860.725	3279
860.858	3253
860.99	3154
861.123	3062
861.256	3089
861.388	3161
861.521	3701
861.653	3020
861.786	3020
861.918	3009
862.05	3074
862.183	3154
862.315	3211
862.447	3203
862.58	3085
862.712	2963
862.844	2902
862.976	3047
863.108	3036
863.24	3420
863.372	2899
863.504	3020
863.636	2982
863.768	2990
863.9	2982
864.032	2929
864.164	2986
864.296	3017
864.428	3104
864.559	3157
864.691	3104
864.823	3097
864.954	3070
865.086	3081
865.217	3017
865.349	2979
865.48	2986
865.612	3051
865.743	3135
865.875	2979
866.006	2956
866.137	3001
866.269	2948
866.4	2948
866.531	2906
866.662	2918
866.793	2899
866.924	2941
867.055	2967
867.186	2960
867.317	2922
867.448	2849
867.579	2864
867.71	2895
867.841	2823
867.972	2895
868.103	2895
868.233	2891
868.364	2887
868.495	2956
868.625	3108
868.756	3157
868.886	2986
869.017	3058
869.147	3192
869.278	3165
869.408	3028
869.539	3062
869.669	3142
869.799	3032
869.929	3104
870.06	3127
870.19	3336
870.32	3302
870.45	3325
870.58	3386
870.71	3496
870.84	3485
870.97	3310
871.1	3272
871.23	3507
871.36	3500
871.489	3386
871.619	3454
871.749	3428
871.879	3443
872.008	3492
872.138	3389
872.267	3310
872.397	3154
872.526	3093
872.656	3017
872.785	3138
872.915	3241
873.044	3351
873.173	3226
873.303	3249
873.432	3241
873.561	3256
873.69	3184
873.819	3123
873.948	3211
874.077	3142
874.206	2986
874.335	3077
874.464	3249
874.593	3348
874.722	3253
874.851	3374
874.979	3359
875.108	3298
875.237	3222
875.365	3218
875.494	3199
875.623	3279
875.751	3146
875.88	3112
876.008	3203
876.136	3211
876.265	3420
876.393	3507
876.521	3428
876.65	3431
876.778	3355
876.906	3279
877.034	3165
877.162	3279
877.29	3169
877.418	3264
877.546	3268
877.674	3237
877.802	3279
877.93	3241
878.058	3218
878.185	3108
878.313	3230
878.441	3241
878.568	3116
878.696	3150
878.824	3291
878.951	3332
879.079	3450
879.206	3660
879.333	3420
879.461	3351
879.588	3386
879.715	3481
879.842	3618
879.97	3409
880.097	3199
880.224	3142
880.351	3165
880.478	3241
880.605	3214
880.732	3218
880.859	3542
880.986	3351
881.112	3325
881.239	3173
881.366	3112
881.493	3039
881.619	3070
881.746	3100
881.872	3097
881.999	3138
882.125	3176
882.252	3245
882.378	3302
882.505	3454
882.631	3291
882.757	3211
882.883	3203
883.01	3241
883.136	3199
883.262	3123
883.388	3104
883.514	3325
883.64	3409
883.766	3329
883.892	3218
884.018	3264
884.143	3405
884.269	3576
884.395	3222
884.52	3184
884.646	3207
884.772	3146
884.897	3116
885.023	3237
885.148	3275
885.274	3420
885.399	3374
885.524	3268
885.65	3279
885.775	3329
885.9	3279
886.025	3466
886.15	3367
886.275	3279
886.4	3249
886.525	3310
886.65	3302
886.775	3272
886.9	3515
887.025	3629
887.149	3397
887.274	3294
887.399	3176
887.523	3226
887.648	3211
887.773	3218
887.897	3412
888.021	3447
888.146	3310
888.27	3500
888.395	3530
888.519	3488
888.643	3507
888.767	3496
888.891	3363
889.015	3241
889.139	3306
889.263	3287
889.387	3397
889.511	3504
889.635	3462
889.759	3310
889.883	3298
890.006	3351
890.13	3500
890.254	3313
890.377	3344
890.501	3203
890.624	3226
890.748	3302
890.871	3173
890.995	3146
891.118	3085
891.241	3176
891.364	3222
891.488	3340
891.611	3226
891.734	3226
891.857	3291
891.98	3207
892.103	3329
892.226	3298
892.349	3214
892.471	3142
892.594	3245
892.717	3294
892.839	3264
892.962	3325
893.085	3344
893.207	3313
893.33	3169
893.452	3214
893.575	3374
893.697	3249
893.819	3477
893.941	3515
894.064	3424
894.186	3245
894.308	3283
894.43	3435
894.552	3576
894.674	3492
894.796	3272
894.918	3351
895.04	3321
895.161	3450
895.283	3431
895.405	3340
895.526	3393
895.648	3477
895.769	3435
895.891	3515
896.012	3492
896.134	3454
896.255	3401
896.376	3382
896.498	3370
896.619	3443
896.74	3382
896.861	3424
896.982	3720
897.103	3823
897.224	3580
897.345	3549
897.466	3454
897.587	3507
897.708	3610
897.828	3584
897.949	3458
898.07	3351
898.19	3409
898.311	3603
898.431	3454
898.552	3538
898.672	3595
898.792	3584
898.913	3526
899.033	3389
899.153	3313
899.273	3218
899.393	3291
899.513	3336
899.633	3294
899.753	3336
899.873	3294
899.993	3405
900.113	3351
900.232	3397
900.352	3348
900.472	3294
900.591	3207
900.711	3329
900.83	3230
900.95	3450
901.069	3485
901.189	3370
901.308	3184
901.427	3169
901.546	3180
901.665	3348
901.784	3340
901.904	3199
902.023	3157
902.141	3043
902.26	3001
902.379	3142
902.498	3055
902.617	3058
902.735	3218
902.854	3226
902.973	3176
903.091	3028
903.21	3062
903.328	3150
903.446	3108
903.565	3154
903.683	3188
903.801	3123
903.919	3256
904.038	3317
904.156	3161
904.274	3287
904.392	3260
904.51	3283
904.627	3317
904.745	3416
904.863	3492
904.981	3253
905.098	3188
905.216	3253
905.334	3317
905.451	3279
905.569	3317
905.686	3458
905.803	3447
905.921	3245
906.038	3458
906.155	3370
906.272	3253
906.389	3351
906.506	3226
906.623	3241
906.74	3275
906.857	3195
906.974	3233
907.091	3435
907.208	3587
907.324	3492
907.441	3359
907.557	3192
907.674	3237
907.79	3256
907.907	3310
908.023	3363
908.139	3397
908.256	3313
908.372	3378
908.488	3363
908.604	3249
908.72	3245
908.836	3291
908.952	3294
909.068	3340
909.184	3488
909.3	3397
909.415	3473
909.531	3458
909.647	3268
909.762	3306
909.878	3268
909.993	3370
910.108	3310
910.224	3355
910.339	3401
910.454	3351
910.57	3272
910.685	3237
910.8	3599
910.915	3530
911.03	3462
911.145	3249
911.259	3275
911.374	3317
911.489	3226
911.604	3218
911.718	3116
911.833	3119
911.947	3062
912.062	3001
912.176	3157
912.291	3203
912.405	3195
912.519	3412
912.633	3488
912.748	3340
912.862	3291
912.976	3154
913.09	3085
913.204	3127
913.318	3226
913.431	3294
913.545	3321
913.659	3420
913.772	3336
913.886	3222
914	3184
914.113	3355
914.226	3405
914.34	3340
914.453	3226
914.566	3431
914.68	3298
914.793	3268
914.906	3157
915.019	3112
915.132	3051
915.245	3157
915.358	3222
915.47	3253
915.583	3249
915.696	3268
915.809	3409
915.921	3389
916.034	3245
916.146	3264
916.259	3253
916.371	3409
916.483	3344
916.595	3283
916.708	3298
916.82	3340
916.932	3367
917.044	3344
917.156	3363
917.268	3275
917.38	3310
917.491	3306
917.603	3401
917.715	3447
917.826	3488
917.938	3397
918.049	3291
918.161	3401
918.272	3595
918.384	3519
918.495	3488
918.606	3332
918.717	3287
918.828	3363
918.939	3401
919.05	3275
919.161	3386
919.272	3146
919.383	3291
919.494	3481
919.604	3701
919.715	3447
919.826	3420
919.936	3458
920.047	3564
920.157	3584
920.267	3747
920.378	3591
920.488	3553
920.598	3774
920.708	3975
920.818	3797
920.928	3816
921.038	3998
921.148	3975
921.258	3743
921.368	3606
921.477	3564
921.587	3549
921.697	3485
921.806	3625
921.916	3519
922.025	3359
922.134	3329
922.244	3298
922.353	3374
922.462	3253
922.571	3207
922.68	3119
922.789	3055
922.898	3176
923.007	3112
923.116	3218
923.224	3188
923.333	3173
923.442	3089
923.55	3097
923.659	3150
923.767	3218
923.876	3081
923.984	3253
924.092	3081
924.201	3154
924.309	3230
924.417	3230
924.525	3161
924.633	3230
924.741	4017
924.849	3062
924.956	3256
925.064	3119
925.172	3017
925.279	3058
925.387	3214
925.494	3211
925.602	3359
925.709	3359
925.816	3184
925.924	3321
926.031	3374
926.138	3336
926.245	3332
926.352	3245
926.459	3405
926.566	3485
926.673	3310
926.779	3249
926.886	3233
926.993	3135
927.099	3142
927.206	3112
927.312	3097
927.419	3245
927.525	3214
927.631	3294
927.737	3116
927.843	3135
927.95	3036
928.056	3138
928.162	3154
928.267	3237
928.373	3876
928.479	3325
928.585	3085
928.69	3207
928.796	3272
928.901	3150
929.007	3047
929.112	3230
929.218	3180
929.323	3104
929.428	3150
929.533	3306
929.638	3077
929.743	3161
929.848	3275
929.953	3230
930.058	3138
930.163	2998
930.267	3032
930.372	3199
930.477	3017
930.581	3344
930.685	3195
930.79	3058
930.894	3077
930.998	3066
931.103	3302
931.207	2948
931.311	2948
931.415	2918
931.519	2750
931.623	2834
