Data from test_V78500241_832.txt Node
Date: Fri Mar 25 16:20:58 CST 2022
User: usil
Spectrometer: V785-0024
Trigger mode: 0
Integration Time (sec): 4.000000E-1
Scans to average: 1
Nonlinearity correction enabled: false
Boxcar width: 0
Storing dark spectrum: false
XAxis mode: Wavelengths
Number of Pixels in Spectrum: 1024
>>>>>Begin Spectral Data<<<<<
801.071	2906
801.214	2948
801.356	2883
801.499	2895
801.641	2872
801.783	2887
801.926	3058
802.068	2982
802.211	3005
802.353	3020
802.496	2944
802.638	2975
802.78	3036
802.923	3055
803.065	2986
803.208	2880
803.35	2868
803.492	2914
803.635	2891
803.777	2766
803.919	2857
804.061	3218
804.204	2944
804.346	2918
804.488	2834
804.63	2982
804.773	2895
804.915	2902
805.057	3047
805.199	2918
805.341	2967
805.483	3036
805.626	3001
805.768	2922
805.91	3055
806.052	3127
806.194	2990
806.336	3233
806.478	3001
806.62	2922
806.762	2960
806.904	3028
807.046	3150
807.188	3005
807.33	2937
807.472	2956
807.614	2883
807.756	2982
807.898	2944
808.04	2845
808.182	2952
808.324	2952
808.465	2887
808.607	2861
808.749	2800
808.891	2849
809.033	2982
809.174	2937
809.316	2842
809.458	2891
809.6	2758
809.741	2743
809.883	2766
810.025	2823
810.166	2815
810.308	2826
810.45	2861
810.591	2739
810.733	2777
810.875	2811
811.016	2781
811.158	2727
811.299	2800
811.441	2933
811.582	2891
811.724	2830
811.865	2823
812.007	2941
812.148	2853
812.29	2861
812.431	2895
812.573	2895
812.714	3005
812.855	3036
812.997	3039
813.138	3142
813.279	2982
813.421	2990
813.562	2948
813.703	2845
813.845	2914
813.986	2746
814.127	2727
814.268	2792
814.41	2823
814.551	2823
814.692	2899
814.833	2830
814.974	2872
815.115	2971
815.256	2864
815.397	2815
815.539	2845
815.68	2766
815.821	2834
815.962	2914
816.103	2944
816.244	2868
816.385	2861
816.526	2944
816.666	2906
816.807	2735
816.948	2876
817.089	2880
817.23	2857
817.371	2769
817.512	2804
817.653	2857
817.793	2788
817.934	2872
818.075	2956
818.216	2956
818.356	3047
818.497	2899
818.638	2777
818.778	2811
818.919	2792
819.06	2743
819.2	2883
819.341	2792
819.481	2796
819.622	2944
819.762	3081
819.903	3051
820.043	2902
820.184	2906
820.324	2868
820.465	3005
820.605	3005
820.746	3036
820.886	2929
821.026	3093
821.167	3157
821.307	3260
821.447	3268
821.588	3245
821.728	3188
821.868	3195
822.008	3093
822.149	3173
822.289	3233
822.429	3112
822.569	3100
822.709	3176
822.849	3024
822.99	3097
823.13	3112
823.27	3199
823.41	3119
823.55	3135
823.69	3135
823.83	3138
823.97	3070
824.11	2960
824.25	3005
824.389	3055
824.529	3131
824.669	3051
824.809	3211
824.949	3260
825.089	3230
825.228	3146
825.368	2994
825.508	2960
825.648	3009
825.787	3039
825.927	3009
826.067	2979
826.206	2956
826.346	3032
826.485	3043
826.625	3131
826.765	3245
826.904	3192
827.044	3005
827.183	2899
827.323	2872
827.462	2975
827.601	2906
827.741	2914
827.88	2960
828.02	2853
828.159	2948
828.298	3020
828.437	3119
828.577	2990
828.716	3253
828.855	3142
828.994	2899
829.134	2864
829.273	2922
829.412	2842
829.551	2857
829.69	2857
829.829	2967
829.968	3135
830.107	3001
830.246	3005
830.385	2937
830.524	2868
830.663	2788
830.802	2693
830.941	2644
831.08	2655
831.219	2758
831.357	2781
831.496	2925
831.635	2705
831.774	2670
831.913	2629
832.051	2545
832.19	2560
832.329	2655
832.467	2507
832.606	2488
832.744	2571
832.883	2579
833.022	2575
833.16	2670
833.299	2686
833.437	2670
833.576	2663
833.714	2697
833.852	2716
833.991	2769
834.129	2834
834.267	2819
834.406	2754
834.544	2880
834.682	2883
834.821	2887
834.959	3039
835.097	2910
835.235	3119
835.373	3009
835.511	3013
835.65	2952
835.788	2944
835.926	2830
836.064	2788
836.202	2842
836.34	3093
836.478	3165
836.615	3020
836.753	3081
836.891	3135
837.029	3154
837.167	3127
837.305	3039
837.443	3017
837.58	2956
837.718	3135
837.856	3055
837.993	2975
838.131	3112
838.269	3077
838.406	3058
838.544	3081
838.681	2941
838.819	2899
838.956	2785
839.094	2823
839.231	2925
839.369	3039
839.506	3382
839.643	3207
839.781	3013
839.918	2963
840.055	3043
840.193	3009
840.33	3058
840.467	3085
840.604	3127
840.742	3389
840.879	3032
841.016	3047
841.153	3138
841.29	3332
841.427	3291
841.564	3275
841.701	3336
841.838	3222
841.975	3173
842.112	3207
842.249	3093
842.385	3020
842.522	3241
842.659	3074
842.796	3043
842.933	3062
843.069	3039
843.206	3005
843.343	3199
843.479	3112
843.616	3127
843.752	2891
843.889	2876
844.025	3062
844.162	2868
844.298	3058
844.435	2937
844.571	2891
844.708	3081
844.844	3192
844.98	3218
845.117	3184
845.253	3047
845.389	2979
845.525	3081
845.661	3104
845.798	3009
845.934	3116
846.07	3062
846.206	3203
846.342	3310
846.478	3214
846.614	3104
846.75	3028
846.886	3028
847.022	3253
847.158	3135
847.294	3135
847.429	3226
847.565	3211
847.701	3492
847.837	3009
847.972	2986
848.108	3154
848.244	3154
848.379	2982
848.515	2910
848.65	2899
848.786	2979
848.921	3043
849.057	3119
849.192	3135
849.328	3077
849.463	3089
849.598	3039
849.734	3055
849.869	2963
850.004	2895
850.14	2967
850.275	2899
850.41	2804
850.545	2906
850.68	2906
850.815	2933
850.95	2971
851.085	3203
851.22	3036
851.355	3024
851.49	2967
851.625	3001
851.76	2975
851.895	2929
852.03	2891
852.165	3028
852.299	3131
852.434	3173
852.569	3127
852.703	3169
852.838	3233
852.973	3355
853.107	3329
853.242	3161
853.376	3093
853.511	2902
853.645	3005
853.78	3230
853.914	3123
854.048	3108
854.183	3055
854.317	3119
854.451	3298
854.585	3116
854.72	3062
854.854	3203
854.988	3051
855.122	3104
855.256	3013
855.39	3089
855.524	3199
855.658	3161
855.792	3135
855.926	3154
856.06	3199
856.194	3241
856.327	3112
856.461	3093
856.595	3070
856.729	3081
856.862	3211
856.996	3165
857.13	3146
857.263	3188
857.397	3279
857.53	3097
857.664	3150
857.797	3241
857.931	3207
858.064	3123
858.197	3211
858.331	3116
858.464	3085
858.597	3009
858.731	3062
858.864	3108
858.997	3070
859.13	3184
859.263	3161
859.396	3188
859.529	3093
859.662	3047
859.795	3032
859.928	3150
860.061	3241
860.194	3249
860.327	3135
860.46	3089
860.592	3203
860.725	3233
860.858	3253
860.99	3081
861.123	3028
861.256	3047
861.388	3184
861.521	3934
861.653	2960
861.786	2982
861.918	2986
862.05	3032
862.183	3070
862.315	3131
862.447	3188
862.58	3062
862.712	2944
862.844	2868
862.976	2990
863.108	2994
863.24	3283
863.372	2880
863.504	2952
863.636	2925
863.768	3005
863.9	2922
864.032	2941
864.164	2941
864.296	3001
864.428	3123
864.559	3119
864.691	3028
864.823	3043
864.954	3039
865.086	3028
865.217	2982
865.349	2948
865.48	2960
865.612	3020
865.743	3150
865.875	2975
866.006	2925
866.137	2960
866.269	2910
866.4	2963
866.531	2929
866.662	2887
866.793	2910
866.924	2906
867.055	2948
867.186	2906
867.317	2857
867.448	2819
867.579	2861
867.71	2876
867.841	2811
867.972	2876
868.103	2910
868.233	2872
868.364	2861
868.495	2895
868.625	3066
868.756	3135
868.886	2956
869.017	3036
869.147	3150
869.278	3169
869.408	3028
869.539	3017
869.669	3131
869.799	2994
869.929	3157
870.06	3085
870.19	3313
870.32	3313
870.45	3298
870.58	3336
870.71	3435
870.84	3458
870.97	3306
871.1	3253
871.23	3485
871.36	3409
871.489	3325
871.619	3409
871.749	3397
871.879	3420
872.008	3473
872.138	3344
872.267	3279
872.397	3138
872.526	3108
872.656	3024
872.785	3097
872.915	3226
873.044	3298
873.173	3218
873.303	3260
873.432	3253
873.561	3218
873.69	3161
873.819	3138
873.948	3165
874.077	3085
874.206	3039
874.335	3077
874.464	3192
874.593	3306
874.722	3233
874.851	3336
874.979	3351
875.108	3291
875.237	3184
875.365	3157
875.494	3184
875.623	3211
875.751	3089
875.88	3100
876.008	3184
876.136	3226
876.265	3313
876.393	3523
876.521	3431
876.65	3340
876.778	3329
876.906	3211
877.034	3237
877.162	3249
877.29	3192
877.418	3241
877.546	3214
877.674	3253
877.802	3226
877.93	3211
878.058	3207
878.185	3131
878.313	3230
878.441	3211
878.568	3036
878.696	3131
878.824	3249
878.951	3298
879.079	3447
879.206	3622
879.333	3428
879.461	3344
879.588	3317
879.715	3496
879.842	3564
879.97	3435
880.097	3173
880.224	3154
880.351	3184
880.478	3188
880.605	3203
880.732	3195
880.859	3473
880.986	3310
881.112	3294
881.239	3188
881.366	3093
881.493	3051
881.619	3020
881.746	3066
881.872	3119
881.999	3070
882.125	3127
882.252	3237
882.378	3313
882.505	3428
882.631	3237
882.757	3146
882.883	3211
883.01	3176
883.136	3154
883.262	3070
883.388	3097
883.514	3298
883.64	3348
883.766	3294
883.892	3165
884.018	3184
884.143	3416
884.269	3549
884.395	3237
884.52	3180
884.646	3207
884.772	3169
884.897	3047
885.023	3195
885.148	3329
885.274	3435
885.399	3355
885.524	3287
885.65	3253
885.775	3298
885.9	3321
886.025	3409
886.15	3370
886.275	3294
886.4	3275
886.525	3291
886.65	3230
886.775	3275
886.9	3488
887.025	3572
887.149	3374
887.274	3249
887.399	3146
887.523	3188
887.648	3226
887.773	3207
887.897	3351
888.021	3416
888.146	3272
888.27	3412
888.395	3500
888.519	3428
888.643	3412
888.767	3450
888.891	3332
889.015	3222
889.139	3272
889.263	3237
889.387	3420
889.511	3538
889.635	3458
889.759	3260
889.883	3264
890.006	3386
890.13	3488
890.254	3253
890.377	3325
890.501	3199
890.624	3188
890.748	3283
890.871	3135
890.995	3058
891.118	3047
891.241	3195
891.364	3253
891.488	3264
891.611	3176
891.734	3173
891.857	3272
891.98	3245
892.103	3317
892.226	3237
892.349	3188
892.471	3089
892.594	3218
892.717	3294
892.839	3272
892.962	3306
893.085	3332
893.207	3291
893.33	3119
893.452	3218
893.575	3344
893.697	3230
893.819	3473
893.941	3496
894.064	3447
894.186	3226
894.308	3279
894.43	3428
894.552	3523
894.674	3500
894.796	3260
894.918	3294
895.04	3291
895.161	3393
895.283	3378
895.405	3325
895.526	3340
895.648	3412
895.769	3389
895.891	3447
896.012	3435
896.134	3462
896.255	3416
896.376	3351
896.498	3363
896.619	3424
896.74	3344
896.861	3416
896.982	3690
897.103	3873
897.224	3599
897.345	3519
897.466	3370
897.587	3477
897.708	3603
897.828	3542
897.949	3424
898.07	3302
898.19	3397
898.311	3591
898.431	3450
898.552	3466
898.672	3641
898.792	3587
898.913	3526
899.033	3420
899.153	3291
899.273	3253
899.393	3260
899.513	3336
899.633	3317
899.753	3332
899.873	3275
899.993	3374
900.113	3332
900.232	3389
900.352	3325
900.472	3287
900.591	3195
900.711	3294
900.83	3222
900.95	3367
901.069	3454
901.189	3359
901.308	3161
901.427	3085
901.546	3195
901.665	3268
901.784	3329
901.904	3226
902.023	3142
902.141	3017
902.26	3009
902.379	3112
902.498	3062
902.617	3032
902.735	3226
902.854	3218
902.973	3150
903.091	3039
903.21	3032
903.328	3161
903.446	3131
903.565	3093
903.683	3184
903.801	3123
903.919	3218
904.038	3310
904.156	3131
904.274	3268
904.392	3237
904.51	3275
904.627	3325
904.745	3435
904.863	3469
904.981	3241
905.098	3131
905.216	3230
905.334	3275
905.451	3317
905.569	3268
905.686	3412
905.803	3416
905.921	3298
906.038	3389
906.155	3313
906.272	3260
906.389	3287
906.506	3226
906.623	3226
906.74	3256
906.857	3214
906.974	3279
907.091	3447
907.208	3504
907.324	3420
907.441	3393
907.557	3245
907.674	3268
907.79	3207
907.907	3253
908.023	3363
908.139	3393
908.256	3298
908.372	3344
908.488	3310
908.604	3214
908.72	3226
908.836	3283
908.952	3264
909.068	3313
909.184	3477
909.3	3363
909.415	3481
909.531	3485
909.647	3245
909.762	3256
909.878	3256
909.993	3348
910.108	3329
910.224	3325
910.339	3393
910.454	3340
910.57	3241
910.685	3237
910.8	3568
910.915	3534
911.03	3431
911.145	3268
911.259	3306
911.374	3329
911.489	3211
911.604	3249
911.718	3131
911.833	3199
911.947	3036
912.062	3001
912.176	3211
912.291	3211
912.405	3218
912.519	3466
912.633	3481
912.748	3336
912.862	3256
912.976	3176
913.09	3062
913.204	3211
913.318	3218
913.431	3329
913.545	3351
913.659	3439
913.772	3370
913.886	3249
914	3222
914.113	3401
914.226	3469
914.34	3439
914.453	3268
914.566	3424
914.68	3302
914.793	3351
914.906	3188
915.019	3169
915.132	3112
915.245	3188
915.358	3233
915.47	3283
915.583	3291
915.696	3378
915.809	3469
915.921	3454
916.034	3272
916.146	3294
916.259	3279
916.371	3393
916.483	3405
916.595	3313
916.708	3378
916.82	3389
916.932	3382
917.044	3363
917.156	3416
917.268	3283
917.38	3344
917.491	3317
917.603	3405
917.715	3511
917.826	3485
917.938	3401
918.049	3291
918.161	3450
918.272	3641
918.384	3618
918.495	3564
918.606	3386
918.717	3329
918.828	3443
918.939	3431
919.05	3355
919.161	3382
919.272	3207
919.383	3287
919.494	3507
919.604	3728
919.715	3557
919.826	3458
919.936	3485
920.047	3603
920.157	3580
920.267	3827
920.378	3625
920.488	3584
920.598	3816
920.708	4036
920.818	3873
920.928	3857
921.038	4048
921.148	4010
921.258	3747
921.368	3679
921.477	3610
921.587	3564
921.697	3473
921.806	3644
921.916	3538
922.025	3386
922.134	3439
922.244	3329
922.353	3435
922.462	3321
922.571	3253
922.68	3146
922.789	3100
922.898	3169
923.007	3127
923.116	3237
923.224	3184
923.333	3184
923.442	3127
923.55	3131
923.659	3157
923.767	3253
923.876	3146
923.984	3287
924.092	3165
924.201	3237
924.309	3272
924.417	3279
924.525	3237
924.633	3275
924.741	4078
924.849	3089
924.956	3340
925.064	3089
925.172	3112
925.279	3154
925.387	3230
925.494	3233
925.602	3382
925.709	3367
925.816	3241
925.924	3321
926.031	3389
926.138	3363
926.245	3378
926.352	3302
926.459	3485
926.566	3530
926.673	3340
926.779	3268
926.886	3268
926.993	3192
927.099	3176
927.206	3146
927.312	3161
927.419	3264
927.525	3249
927.631	3260
927.737	3176
927.843	3138
927.95	3077
928.056	3150
928.162	3214
928.267	3306
928.373	3766
928.479	3321
928.585	3089
928.69	3264
928.796	3268
928.901	3199
929.007	3093
929.112	3268
929.218	3249
929.323	3188
929.428	3195
929.533	3405
929.638	3169
929.743	3226
929.848	3287
929.953	3264
930.058	3173
930.163	3020
930.267	3097
930.372	3211
930.477	3089
930.581	3363
930.685	3192
930.79	3070
930.894	3176
930.998	3097
931.103	3313
931.207	2986
931.311	2963
931.415	2948
931.519	2796
931.623	2861
