Data from test_V78500241_1782.txt Node
Date: Fri Mar 25 16:27:32 CST 2022
User: usil
Spectrometer: V785-0024
Trigger mode: 0
Integration Time (sec): 4.000000E-1
Scans to average: 1
Nonlinearity correction enabled: false
Boxcar width: 0
Storing dark spectrum: false
XAxis mode: Wavelengths
Number of Pixels in Spectrum: 1024
>>>>>Begin Spectral Data<<<<<
801.071	2937
801.214	3013
801.356	2891
801.499	2880
801.641	2902
801.783	2944
801.926	3028
802.068	2979
802.211	3017
802.353	3070
802.496	2967
802.638	3039
802.78	3028
802.923	3123
803.065	3024
803.208	2899
803.35	2906
803.492	2948
803.635	2975
803.777	2785
803.919	2834
804.061	3199
804.204	2971
804.346	2925
804.488	2857
804.63	2982
804.773	2864
804.915	2925
805.057	3089
805.199	2948
805.341	2998
805.483	3085
805.626	3005
805.768	2963
805.91	3085
806.052	3108
806.194	3062
806.336	3241
806.478	3009
806.62	2963
806.762	3020
806.904	3097
807.046	3135
807.188	2979
807.33	2937
807.472	3013
807.614	2941
807.756	3013
807.898	2952
808.04	2902
808.182	2994
808.324	2971
808.465	2895
808.607	2872
808.749	2823
808.891	2876
809.033	2994
809.174	2956
809.316	2910
809.458	2891
809.6	2804
809.741	2781
809.883	2781
810.025	2880
810.166	2845
810.308	2880
810.45	2849
810.591	2788
810.733	2792
810.875	2834
811.016	2788
811.158	2727
811.299	2796
811.441	2937
811.582	2910
811.724	2842
811.865	2811
812.007	2887
812.148	2864
812.29	2872
812.431	2887
812.573	2929
812.714	2971
812.855	3028
812.997	3058
813.138	3154
813.279	3036
813.421	3009
813.562	2982
813.703	2887
813.845	2872
813.986	2804
814.127	2754
814.268	2815
814.41	2826
814.551	2766
814.692	2887
814.833	2811
814.974	2918
815.115	2971
815.256	2834
815.397	2807
815.539	2880
815.68	2785
815.821	2766
815.962	2925
816.103	2956
816.244	2880
816.385	2857
816.526	3009
816.666	2914
816.807	2777
816.948	2872
817.089	2910
817.23	2876
817.371	2785
817.512	2781
817.653	2819
817.793	2811
817.934	2910
818.075	2944
818.216	2998
818.356	3043
818.497	2899
818.638	2785
818.778	2838
818.919	2796
819.06	2769
819.2	2914
819.341	2807
819.481	2842
819.622	2914
819.762	3116
819.903	3043
820.043	2941
820.184	2914
820.324	2895
820.465	2990
820.605	3017
820.746	3047
820.886	2929
821.026	3119
821.167	3165
821.307	3321
821.447	3283
821.588	3233
821.728	3218
821.868	3188
822.008	3055
822.149	3180
822.289	3195
822.429	3089
822.569	3081
822.709	3180
822.849	3089
822.99	3074
823.13	3161
823.27	3188
823.41	3077
823.55	3180
823.69	3173
823.83	3192
823.97	3142
824.11	3028
824.25	3001
824.389	3093
824.529	3112
824.669	3097
824.809	3218
824.949	3283
825.089	3249
825.228	3184
825.368	3039
825.508	2982
825.648	2994
825.787	3024
825.927	3070
826.067	3001
826.206	2994
826.346	3081
826.485	3112
826.625	3135
826.765	3310
826.904	3275
827.044	3024
827.183	2967
827.323	2883
827.462	3024
827.601	2956
827.741	2960
827.88	3009
828.02	2895
828.159	2986
828.298	3055
828.437	3146
828.577	3066
828.716	3294
828.855	3135
828.994	2960
829.134	2944
829.273	2971
829.412	2895
829.551	2933
829.69	2952
829.829	3017
829.968	3157
830.107	3066
830.246	3055
830.385	2963
830.524	2902
830.663	2861
830.802	2773
830.941	2682
831.08	2697
831.219	2819
831.357	2826
831.496	2986
831.635	2754
831.774	2682
831.913	2663
832.051	2583
832.19	2594
832.329	2750
832.467	2598
832.606	2537
832.744	2613
832.883	2667
833.022	2594
833.16	2689
833.299	2739
833.437	2708
833.576	2769
833.714	2788
833.852	2762
833.991	2800
834.129	2902
834.267	2830
834.406	2830
834.544	2891
834.682	2914
834.821	2902
834.959	3123
835.097	2941
835.235	3081
835.373	3043
835.511	3058
835.65	2979
835.788	2971
835.926	2861
836.064	2902
836.202	2899
836.34	3135
836.478	3180
836.615	3077
836.753	3165
836.891	3233
837.029	3192
837.167	3165
837.305	3085
837.443	3077
837.58	2994
837.718	3150
837.856	3097
837.993	3028
838.131	3173
838.269	3150
838.406	3123
838.544	3131
838.681	2975
838.819	2929
838.956	2853
839.094	2864
839.231	2971
839.369	3032
839.506	3431
839.643	3249
839.781	3036
839.918	2994
840.055	3062
840.193	3127
840.33	3116
840.467	3154
840.604	3214
840.742	3401
840.879	3108
841.016	3097
841.153	3142
841.29	3351
841.427	3351
841.564	3291
841.701	3340
841.838	3241
841.975	3222
842.112	3249
842.249	3089
842.385	3062
842.522	3283
842.659	3127
842.796	3097
842.933	3123
843.069	3089
843.206	3066
843.343	3199
843.479	3138
843.616	3154
843.752	2910
843.889	2925
844.025	3119
844.162	2895
844.298	3104
844.435	2990
844.571	2948
844.708	3097
844.844	3173
844.98	3253
845.117	3218
845.253	3093
845.389	3062
845.525	3165
845.661	3138
845.798	3032
845.934	3173
846.07	3047
846.206	3218
846.342	3348
846.478	3237
846.614	3123
846.75	3116
846.886	2998
847.022	3264
847.158	3184
847.294	3260
847.429	3256
847.565	3237
847.701	3500
847.837	3066
847.972	3028
848.108	3199
848.244	3157
848.379	3013
848.515	2960
848.65	2963
848.786	2998
848.921	3039
849.057	3135
849.192	3184
849.328	3108
849.463	3157
849.598	3070
849.734	3028
849.869	3039
850.004	2948
850.14	3009
850.275	2933
850.41	2864
850.545	2929
850.68	2998
850.815	2990
850.95	2994
851.085	3218
851.22	3127
851.355	3039
851.49	2986
851.625	3024
851.76	3062
851.895	2944
852.03	2910
852.165	3077
852.299	3150
852.434	3241
852.569	3188
852.703	3192
852.838	3291
852.973	3344
853.107	3321
853.242	3195
853.376	3108
853.511	3047
853.645	3074
853.78	3279
853.914	3138
854.048	3135
854.183	3112
854.317	3195
854.451	3306
854.585	3188
854.72	3108
854.854	3233
854.988	3062
855.122	3104
855.256	2982
855.39	3135
855.524	3260
855.658	3188
855.792	3192
855.926	3253
856.06	3241
856.194	3272
856.327	3176
856.461	3116
856.595	3104
856.729	3131
856.862	3241
856.996	3173
857.13	3230
857.263	3291
857.397	3310
857.53	3123
857.664	3192
857.797	3253
857.931	3283
858.064	3184
858.197	3241
858.331	3135
858.464	3097
858.597	3005
858.731	3146
858.864	3199
858.997	3146
859.13	3176
859.263	3184
859.396	3233
859.529	3127
859.662	3108
859.795	3070
859.928	3180
860.061	3253
860.194	3306
860.327	3138
860.46	3119
860.592	3279
860.725	3218
860.858	3272
860.99	3119
861.123	3085
861.256	3062
861.388	3142
861.521	3880
861.653	2994
861.786	3005
861.918	3039
862.05	3077
862.183	3138
862.315	3142
862.447	3211
862.58	3135
862.712	2979
862.844	2895
862.976	3036
863.108	3032
863.24	3325
863.372	2933
863.504	2971
863.636	2979
863.768	3036
863.9	3001
864.032	2960
864.164	3005
864.296	3047
864.428	3108
864.559	3142
864.691	3074
864.823	3116
864.954	3032
865.086	3093
865.217	2986
865.349	2986
865.48	3005
865.612	3047
865.743	3146
865.875	2975
866.006	2925
866.137	3005
866.269	2979
866.4	2960
866.531	2963
866.662	2902
866.793	2899
866.924	2929
867.055	2963
867.186	2929
867.317	2952
867.448	2872
867.579	2834
867.71	2876
867.841	2876
867.972	2944
868.103	2922
868.233	2906
868.364	2918
868.495	2918
868.625	3081
868.756	3192
868.886	2986
869.017	3058
869.147	3150
869.278	3176
869.408	3077
869.539	3028
869.669	3138
869.799	3058
869.929	3154
870.06	3131
870.19	3351
870.32	3298
870.45	3310
870.58	3397
870.71	3458
870.84	3473
870.97	3294
871.1	3275
871.23	3511
871.36	3485
871.489	3370
871.619	3431
871.749	3439
871.879	3473
872.008	3534
872.138	3397
872.267	3260
872.397	3146
872.526	3116
872.656	2986
872.785	3119
872.915	3233
873.044	3344
873.173	3230
873.303	3279
873.432	3264
873.561	3272
873.69	3138
873.819	3169
873.948	3249
874.077	3108
874.206	3066
874.335	3146
874.464	3214
874.593	3378
874.722	3218
874.851	3363
874.979	3374
875.108	3344
875.237	3218
875.365	3184
875.494	3176
875.623	3245
875.751	3123
875.88	3142
876.008	3203
876.136	3245
876.265	3393
876.393	3549
876.521	3469
876.65	3405
876.778	3367
876.906	3249
877.034	3226
877.162	3268
877.29	3241
877.418	3283
877.546	3218
877.674	3253
877.802	3222
877.93	3207
878.058	3180
878.185	3104
878.313	3192
878.441	3214
878.568	3100
878.696	3150
878.824	3291
878.951	3302
879.079	3454
879.206	3641
879.333	3504
879.461	3355
879.588	3344
879.715	3519
879.842	3599
879.97	3389
880.097	3199
880.224	3142
880.351	3214
880.478	3249
880.605	3199
880.732	3199
880.859	3488
880.986	3348
881.112	3351
881.239	3188
881.366	3127
881.493	3032
881.619	3047
881.746	3100
881.872	3112
881.999	3131
882.125	3150
882.252	3275
882.378	3313
882.505	3447
882.631	3260
882.757	3188
882.883	3249
883.01	3222
883.136	3176
883.262	3138
883.388	3169
883.514	3367
883.64	3386
883.766	3332
883.892	3180
884.018	3249
884.143	3397
884.269	3580
884.395	3256
884.52	3207
884.646	3176
884.772	3119
884.897	3097
885.023	3184
885.148	3386
885.274	3443
885.399	3374
885.524	3294
885.65	3321
885.775	3321
885.9	3325
886.025	3466
886.15	3405
886.275	3340
886.4	3260
886.525	3329
886.65	3291
886.775	3313
886.9	3526
887.025	3606
887.149	3439
887.274	3253
887.399	3192
887.523	3211
887.648	3203
887.773	3211
887.897	3386
888.021	3428
888.146	3332
888.27	3405
888.395	3549
888.519	3447
888.643	3469
888.767	3473
888.891	3321
889.015	3275
889.139	3291
889.263	3268
889.387	3428
889.511	3515
889.635	3462
889.759	3321
889.883	3275
890.006	3378
890.13	3496
890.254	3294
890.377	3355
890.501	3245
890.624	3214
890.748	3321
890.871	3169
890.995	3138
891.118	3070
891.241	3176
891.364	3233
891.488	3310
891.611	3154
891.734	3268
891.857	3283
891.98	3226
892.103	3332
892.226	3230
892.349	3218
892.471	3081
892.594	3264
892.717	3272
892.839	3313
892.962	3306
893.085	3351
893.207	3317
893.33	3138
893.452	3207
893.575	3329
893.697	3298
893.819	3477
893.941	3492
894.064	3466
894.186	3291
894.308	3302
894.43	3435
894.552	3538
894.674	3477
894.796	3241
894.918	3321
895.04	3325
895.161	3431
895.283	3401
895.405	3317
895.526	3363
895.648	3469
895.769	3450
895.891	3477
896.012	3462
896.134	3507
896.255	3443
896.376	3370
896.498	3351
896.619	3409
896.74	3409
896.861	3389
896.982	3717
897.103	3861
897.224	3637
897.345	3564
897.466	3469
897.587	3519
897.708	3595
897.828	3511
897.949	3492
898.07	3325
898.19	3435
898.311	3595
898.431	3481
898.552	3473
898.672	3637
898.792	3599
898.913	3538
899.033	3386
899.153	3317
899.273	3199
899.393	3355
899.513	3348
899.633	3329
899.753	3344
899.873	3310
899.993	3389
900.113	3332
900.232	3382
900.352	3359
900.472	3313
900.591	3226
900.711	3321
900.83	3207
900.95	3428
901.069	3515
901.189	3370
901.308	3176
901.427	3192
901.546	3214
901.665	3325
901.784	3336
901.904	3233
902.023	3138
902.141	3047
902.26	3051
902.379	3138
902.498	3081
902.617	3066
902.735	3207
902.854	3237
902.973	3245
903.091	3070
903.21	3085
903.328	3138
903.446	3089
903.565	3119
903.683	3222
903.801	3169
903.919	3233
904.038	3287
904.156	3192
904.274	3336
904.392	3253
904.51	3306
904.627	3321
904.745	3450
904.863	3526
904.981	3245
905.098	3207
905.216	3256
905.334	3287
905.451	3306
905.569	3325
905.686	3450
905.803	3481
905.921	3283
906.038	3447
906.155	3393
906.272	3272
906.389	3344
906.506	3222
906.623	3253
906.74	3249
906.857	3211
906.974	3256
907.091	3485
907.208	3553
907.324	3492
907.441	3386
907.557	3222
907.674	3230
907.79	3226
907.907	3275
908.023	3370
908.139	3374
908.256	3302
908.372	3393
908.488	3378
908.604	3230
908.72	3245
908.836	3249
908.952	3340
909.068	3382
909.184	3466
909.3	3367
909.415	3511
909.531	3473
909.647	3294
909.762	3287
909.878	3233
909.993	3329
910.108	3344
910.224	3367
910.339	3412
910.454	3351
910.57	3294
910.685	3272
910.8	3580
910.915	3557
911.03	3473
911.145	3264
911.259	3287
911.374	3344
911.489	3260
911.604	3214
911.718	3116
911.833	3146
911.947	2986
912.062	2990
912.176	3176
912.291	3260
912.405	3253
912.519	3462
912.633	3477
912.748	3351
912.862	3264
912.976	3180
913.09	3074
913.204	3154
913.318	3230
913.431	3351
913.545	3367
913.659	3416
913.772	3367
913.886	3211
914	3214
914.113	3378
914.226	3412
914.34	3325
914.453	3211
914.566	3416
914.68	3302
914.793	3302
914.906	3176
915.019	3093
915.132	3051
915.245	3131
915.358	3241
915.47	3230
915.583	3253
915.696	3294
915.809	3416
915.921	3435
916.034	3241
916.146	3256
916.259	3260
916.371	3420
916.483	3386
916.595	3272
916.708	3351
916.82	3329
916.932	3310
917.044	3386
917.156	3378
917.268	3241
917.38	3306
917.491	3264
917.603	3351
917.715	3466
917.826	3469
917.938	3389
918.049	3249
918.161	3443
918.272	3584
918.384	3599
918.495	3458
918.606	3302
918.717	3287
918.828	3363
918.939	3393
919.05	3317
919.161	3397
919.272	3192
919.383	3283
919.494	3481
919.604	3701
919.715	3515
919.826	3416
919.936	3428
920.047	3595
920.157	3561
920.267	3789
920.378	3599
920.488	3557
920.598	3766
920.708	3991
920.818	3854
920.928	3846
921.038	4021
921.148	3991
921.258	3682
921.368	3595
921.477	3595
921.587	3526
921.697	3416
921.806	3656
921.916	3530
922.025	3329
922.134	3351
922.244	3348
922.353	3439
922.462	3260
922.571	3233
922.68	3127
922.789	3070
922.898	3161
923.007	3127
923.116	3207
923.224	3188
923.333	3237
923.442	3116
923.55	3081
923.659	3119
923.767	3195
923.876	3123
923.984	3264
924.092	3085
924.201	3184
924.309	3218
924.417	3241
924.525	3184
924.633	3237
924.741	4017
924.849	3070
924.956	3237
925.064	3074
925.172	3020
925.279	3119
925.387	3222
925.494	3173
925.602	3351
925.709	3367
925.816	3214
925.924	3310
926.031	3420
926.138	3317
926.245	3344
926.352	3260
926.459	3450
926.566	3500
926.673	3351
926.779	3241
926.886	3233
926.993	3165
927.099	3161
927.206	3131
927.312	3142
927.419	3233
927.525	3203
927.631	3253
927.737	3150
927.843	3165
927.95	3032
928.056	3108
928.162	3192
928.267	3226
928.373	3876
928.479	3329
928.585	3081
928.69	3245
928.796	3291
928.901	3173
929.007	3036
929.112	3184
929.218	3138
929.323	3176
929.428	3173
929.533	3329
929.638	3150
929.743	3188
929.848	3226
929.953	3207
930.058	3142
930.163	3017
930.267	3077
930.372	3214
930.477	3081
930.581	3321
930.685	3157
930.79	3028
930.894	3142
930.998	3093
931.103	3279
931.207	2967
931.311	2914
931.415	2906
931.519	2746
931.623	2815
