Data from test_V78500241_324.txt Node
Date: Fri Mar 25 16:17:26 CST 2022
User: usil
Spectrometer: V785-0024
Trigger mode: 0
Integration Time (sec): 4.000000E-1
Scans to average: 1
Nonlinearity correction enabled: false
Boxcar width: 0
Storing dark spectrum: false
XAxis mode: Wavelengths
Number of Pixels in Spectrum: 1024
>>>>>Begin Spectral Data<<<<<
801.071	2899
801.214	2941
801.356	2883
801.499	2883
801.641	2929
801.783	2880
801.926	3077
802.068	2979
802.211	3055
802.353	3039
802.496	2963
802.638	3024
802.78	2998
802.923	3108
803.065	3020
803.208	2891
803.35	2937
803.492	2910
803.635	2914
803.777	2758
803.919	2857
804.061	3180
804.204	2963
804.346	2952
804.488	2864
804.63	2990
804.773	2899
804.915	2948
805.057	3104
805.199	2906
805.341	2963
805.483	3028
805.626	3047
805.768	2975
805.91	3127
806.052	3112
806.194	3028
806.336	3222
806.478	3047
806.62	3001
806.762	2982
806.904	3066
807.046	3161
807.188	2971
807.33	2956
807.472	2952
807.614	2880
807.756	2982
807.898	2944
808.04	2910
808.182	2979
808.324	2948
808.465	2891
808.607	2880
808.749	2807
808.891	2845
809.033	2986
809.174	2986
809.316	2910
809.458	2906
809.6	2785
809.741	2769
809.883	2766
810.025	2845
810.166	2857
810.308	2842
810.45	2868
810.591	2762
810.733	2758
810.875	2857
811.016	2762
811.158	2796
811.299	2826
811.441	2937
811.582	2914
811.724	2811
811.865	2834
812.007	2910
812.148	2880
812.29	2845
812.431	2906
812.573	2952
812.714	2948
812.855	3028
812.997	3077
813.138	3104
813.279	3032
813.421	3005
813.562	2937
813.703	2887
813.845	2902
813.986	2781
814.127	2735
814.268	2857
814.41	2838
814.551	2815
814.692	2883
814.833	2842
814.974	2891
815.115	2933
815.256	2807
815.397	2834
815.539	2861
815.68	2762
815.821	2766
815.962	2922
816.103	2910
816.244	2887
816.385	2861
816.526	2952
816.666	2906
816.807	2754
816.948	2922
817.089	2918
817.23	2902
817.371	2788
817.512	2815
817.653	2845
817.793	2823
817.934	2914
818.075	2998
818.216	2979
818.356	3058
818.497	2918
818.638	2743
818.778	2830
818.919	2785
819.06	2773
819.2	2853
819.341	2804
819.481	2819
819.622	2937
819.762	3108
819.903	3077
820.043	2922
820.184	2922
820.324	2845
820.465	3001
820.605	3028
820.746	3020
820.886	2925
821.026	3108
821.167	3157
821.307	3222
821.447	3279
821.588	3222
821.728	3230
821.868	3161
822.008	3077
822.149	3169
822.289	3241
822.429	3100
822.569	3119
822.709	3142
822.849	3051
822.99	3097
823.13	3176
823.27	3211
823.41	3104
823.55	3100
823.69	3176
823.83	3165
823.97	3108
824.11	3020
824.25	2994
824.389	3024
824.529	3112
824.669	3066
824.809	3207
824.949	3222
825.089	3214
825.228	3157
825.368	2998
825.508	2922
825.648	2952
825.787	3020
825.927	3013
826.067	2941
826.206	2975
826.346	3039
826.485	3074
826.625	3142
826.765	3291
826.904	3268
827.044	3020
827.183	2952
827.323	2864
827.462	3005
827.601	2922
827.741	2891
827.88	2952
828.02	2857
828.159	2963
828.298	3032
828.437	3104
828.577	3020
828.716	3260
828.855	3039
828.994	2918
829.134	2864
829.273	2902
829.412	2887
829.551	2861
829.69	2857
829.829	2986
829.968	3100
830.107	3055
830.246	3005
830.385	2910
830.524	2872
830.663	2773
830.802	2746
830.941	2689
831.08	2667
831.219	2777
831.357	2746
831.496	2971
831.635	2708
831.774	2640
831.913	2659
832.051	2568
832.19	2571
832.329	2678
832.467	2507
832.606	2473
832.744	2564
832.883	2602
833.022	2598
833.16	2644
833.299	2693
833.437	2693
833.576	2697
833.714	2743
833.852	2746
833.991	2792
834.129	2834
834.267	2838
834.406	2762
834.544	2887
834.682	2880
834.821	2845
834.959	3055
835.097	2891
835.235	3085
835.373	2982
835.511	3009
835.65	2933
835.788	2998
835.926	2823
836.064	2792
836.202	2849
836.34	3093
836.478	3138
836.615	3028
836.753	3116
836.891	3207
837.029	3157
837.167	3093
837.305	3062
837.443	3032
837.58	2982
837.718	3108
837.856	3066
837.993	3024
838.131	3116
838.269	3108
838.406	3112
838.544	3077
838.681	2910
838.819	2895
838.956	2842
839.094	2834
839.231	2914
839.369	3001
839.506	3340
839.643	3222
839.781	2986
839.918	2952
840.055	3043
840.193	3077
840.33	3055
840.467	3062
840.604	3131
840.742	3412
840.879	3024
841.016	3051
841.153	3108
841.29	3310
841.427	3325
841.564	3249
841.701	3325
841.838	3218
841.975	3173
842.112	3207
842.249	3081
842.385	3047
842.522	3245
842.659	3055
842.796	3070
842.933	3081
843.069	3055
843.206	3017
843.343	3169
843.479	3127
843.616	3135
843.752	2929
843.889	2864
844.025	3081
844.162	2864
844.298	3089
844.435	2941
844.571	2925
844.708	3043
844.844	3188
844.98	3222
845.117	3199
845.253	3047
845.389	3028
845.525	3104
845.661	3077
845.798	2979
845.934	3112
846.07	3070
846.206	3195
846.342	3310
846.478	3233
846.614	3077
846.75	3013
846.886	3036
847.022	3260
847.158	3142
847.294	3169
847.429	3222
847.565	3214
847.701	3458
847.837	3001
847.972	2971
848.108	3161
848.244	3127
848.379	3013
848.515	2918
848.65	2948
848.786	2914
848.921	2967
849.057	3066
849.192	3135
849.328	3081
849.463	3093
849.598	3097
849.734	3039
849.869	2971
850.004	2914
850.14	2960
850.275	2922
850.41	2849
850.545	2887
850.68	2902
850.815	3005
850.95	2979
851.085	3176
851.22	3104
851.355	3047
851.49	3005
851.625	2994
851.76	3017
851.895	2929
852.03	2864
852.165	2990
852.299	3131
852.434	3176
852.569	3135
852.703	3161
852.838	3207
852.973	3359
853.107	3348
853.242	3123
853.376	3112
853.511	2971
853.645	3024
853.78	3268
853.914	3108
854.048	3138
854.183	3089
854.317	3165
854.451	3298
854.585	3157
854.72	3081
854.854	3237
854.988	3013
855.122	3085
855.256	2967
855.39	3093
855.524	3249
855.658	3165
855.792	3157
855.926	3176
856.06	3192
856.194	3237
856.327	3150
856.461	3051
856.595	3100
856.729	3104
856.862	3211
856.996	3116
857.13	3146
857.263	3226
857.397	3260
857.53	3116
857.664	3184
857.797	3203
857.931	3233
858.064	3142
858.197	3222
858.331	3165
858.464	3116
858.597	3017
858.731	3154
858.864	3131
858.997	3123
859.13	3135
859.263	3157
859.396	3192
859.529	3112
859.662	3089
859.795	3077
859.928	3169
860.061	3291
860.194	3264
860.327	3097
860.46	3131
860.592	3264
860.725	3264
860.858	3222
860.99	3146
861.123	3028
861.256	3047
861.388	3146
861.521	3819
861.653	3020
861.786	2948
861.918	3001
862.05	3077
862.183	3093
862.315	3188
862.447	3226
862.58	3104
862.712	2906
862.844	2872
862.976	3043
863.108	3032
863.24	3287
863.372	2925
863.504	2952
863.636	2956
863.768	3020
863.9	2998
864.032	2925
864.164	2941
864.296	3001
864.428	3097
864.559	3116
864.691	3039
864.823	3058
864.954	3013
865.086	3028
865.217	3009
865.349	2937
865.48	3009
865.612	3020
865.743	3146
865.875	2998
866.006	2944
866.137	2944
866.269	2960
866.4	2937
866.531	2937
866.662	2906
866.793	2914
866.924	2899
867.055	2960
867.186	2937
867.317	2857
867.448	2853
867.579	2830
867.71	2819
867.841	2785
867.972	2887
868.103	2910
868.233	2891
868.364	2914
868.495	2891
868.625	3100
868.756	3165
868.886	2971
869.017	3001
869.147	3138
869.278	3119
869.408	3032
869.539	3009
869.669	3077
869.799	3043
869.929	3100
870.06	3108
870.19	3313
870.32	3298
870.45	3302
870.58	3367
870.71	3473
870.84	3447
870.97	3313
871.1	3176
871.23	3511
871.36	3458
871.489	3370
871.619	3401
871.749	3405
871.879	3416
872.008	3500
872.138	3374
872.267	3256
872.397	3157
872.526	3089
872.656	2986
872.785	3112
872.915	3176
873.044	3275
873.173	3203
873.303	3272
873.432	3230
873.561	3199
873.69	3138
873.819	3138
873.948	3180
874.077	3093
874.206	3036
874.335	3089
874.464	3192
874.593	3340
874.722	3253
874.851	3409
874.979	3367
875.108	3313
875.237	3203
875.365	3142
875.494	3142
875.623	3249
875.751	3062
875.88	3100
876.008	3195
876.136	3199
876.265	3382
876.393	3473
876.521	3428
876.65	3424
876.778	3332
876.906	3268
877.034	3214
877.162	3226
877.29	3157
877.418	3195
877.546	3253
877.674	3230
877.802	3230
877.93	3203
878.058	3146
878.185	3112
878.313	3169
878.441	3180
878.568	3077
878.696	3123
878.824	3264
878.951	3287
879.079	3435
879.206	3633
879.333	3424
879.461	3302
879.588	3378
879.715	3477
879.842	3580
879.97	3412
880.097	3165
880.224	3135
880.351	3188
880.478	3218
880.605	3211
880.732	3207
880.859	3477
880.986	3302
881.112	3291
881.239	3218
881.366	3074
881.493	3047
881.619	3036
881.746	3070
881.872	3066
881.999	3108
882.125	3154
882.252	3230
882.378	3291
882.505	3443
882.631	3287
882.757	3173
882.883	3226
883.01	3199
883.136	3165
883.262	3093
883.388	3119
883.514	3321
883.64	3363
883.766	3272
883.892	3188
884.018	3245
884.143	3405
884.269	3523
884.395	3184
884.52	3154
884.646	3180
884.772	3108
884.897	3089
885.023	3203
885.148	3340
885.274	3435
885.399	3416
885.524	3294
885.65	3249
885.775	3283
885.9	3275
886.025	3431
886.15	3344
886.275	3272
886.4	3249
886.525	3317
886.65	3264
886.775	3260
886.9	3466
887.025	3603
887.149	3420
887.274	3245
887.399	3195
887.523	3176
887.648	3237
887.773	3211
887.897	3367
888.021	3431
888.146	3317
888.27	3443
888.395	3511
888.519	3393
888.643	3462
888.767	3458
888.891	3283
889.015	3245
889.139	3287
889.263	3226
889.387	3378
889.511	3545
889.635	3443
889.759	3298
889.883	3291
890.006	3351
890.13	3530
890.254	3264
890.377	3336
890.501	3226
890.624	3241
890.748	3298
890.871	3154
890.995	3131
891.118	3093
891.241	3169
891.364	3249
891.488	3306
891.611	3184
891.734	3241
891.857	3272
891.98	3253
892.103	3321
892.226	3272
892.349	3211
892.471	3119
892.594	3264
892.717	3321
892.839	3268
892.962	3321
893.085	3348
893.207	3325
893.33	3150
893.452	3195
893.575	3336
893.697	3264
893.819	3439
893.941	3485
894.064	3450
894.186	3245
894.308	3253
894.43	3443
894.552	3545
894.674	3443
894.796	3275
894.918	3325
895.04	3313
895.161	3428
895.283	3389
895.405	3340
895.526	3363
895.648	3424
895.769	3462
895.891	3488
896.012	3462
896.134	3485
896.255	3431
896.376	3435
896.498	3374
896.619	3435
896.74	3412
896.861	3367
896.982	3671
897.103	3846
897.224	3595
897.345	3477
897.466	3473
897.587	3481
897.708	3633
897.828	3587
897.949	3443
898.07	3287
898.19	3416
898.311	3580
898.431	3462
898.552	3511
898.672	3580
898.792	3538
898.913	3538
899.033	3412
899.153	3298
899.273	3233
899.393	3268
899.513	3321
899.633	3340
899.753	3336
899.873	3306
899.993	3389
900.113	3340
900.232	3378
900.352	3336
900.472	3302
900.591	3180
900.711	3306
900.83	3268
900.95	3443
901.069	3530
901.189	3310
901.308	3176
901.427	3131
901.546	3188
901.665	3283
901.784	3344
901.904	3184
902.023	3138
902.141	3028
902.26	3005
902.379	3173
902.498	3116
902.617	3066
902.735	3214
902.854	3226
902.973	3214
903.091	3043
903.21	3047
903.328	3154
903.446	3127
903.565	3097
903.683	3184
903.801	3135
903.919	3256
904.038	3310
904.156	3199
904.274	3302
904.392	3260
904.51	3294
904.627	3317
904.745	3424
904.863	3466
904.981	3294
905.098	3157
905.216	3249
905.334	3302
905.451	3275
905.569	3287
905.686	3405
905.803	3462
905.921	3287
906.038	3424
906.155	3355
906.272	3260
906.389	3332
906.506	3249
906.623	3264
906.74	3298
906.857	3192
906.974	3249
907.091	3435
907.208	3580
907.324	3492
907.441	3382
907.557	3199
907.674	3253
907.79	3222
907.907	3306
908.023	3389
908.139	3393
908.256	3336
908.372	3378
908.488	3378
908.604	3253
908.72	3256
908.836	3264
908.952	3279
909.068	3348
909.184	3526
909.3	3359
909.415	3477
909.531	3450
909.647	3253
909.762	3279
909.878	3256
909.993	3359
910.108	3348
910.224	3344
910.339	3409
910.454	3340
910.57	3302
910.685	3268
910.8	3618
910.915	3526
911.03	3428
911.145	3275
911.259	3253
911.374	3363
911.489	3233
911.604	3233
911.718	3104
911.833	3173
911.947	2994
912.062	2990
912.176	3165
912.291	3218
912.405	3195
912.519	3412
912.633	3485
912.748	3355
912.862	3268
912.976	3161
913.09	3062
913.204	3142
913.318	3203
913.431	3325
913.545	3329
913.659	3424
913.772	3317
913.886	3256
914	3230
914.113	3298
914.226	3447
914.34	3378
914.453	3195
914.566	3378
914.68	3291
914.793	3332
914.906	3154
915.019	3131
915.132	3081
915.245	3146
915.358	3199
915.47	3260
915.583	3283
915.696	3275
915.809	3473
915.921	3405
916.034	3226
916.146	3268
916.259	3218
916.371	3382
916.483	3378
916.595	3302
916.708	3340
916.82	3317
916.932	3359
917.044	3336
917.156	3359
917.268	3245
917.38	3279
917.491	3279
917.603	3374
917.715	3450
917.826	3500
917.938	3393
918.049	3275
918.161	3431
918.272	3618
918.384	3572
918.495	3481
918.606	3359
918.717	3287
918.828	3405
918.939	3454
919.05	3298
919.161	3378
919.272	3207
919.383	3260
919.494	3523
919.604	3709
919.715	3507
919.826	3393
919.936	3477
920.047	3576
920.157	3549
920.267	3808
920.378	3587
920.488	3564
920.598	3759
920.708	3918
920.818	3831
920.928	3835
921.038	4063
921.148	4002
921.258	3717
921.368	3584
921.477	3610
921.587	3523
921.697	3450
921.806	3652
921.916	3530
922.025	3370
922.134	3363
922.244	3306
922.353	3424
922.462	3298
922.571	3253
922.68	3097
922.789	3085
922.898	3119
923.007	3097
923.116	3211
923.224	3169
923.333	3195
923.442	3112
923.55	3070
923.659	3116
923.767	3260
923.876	3116
923.984	3222
924.092	3066
924.201	3203
924.309	3272
924.417	3279
924.525	3226
924.633	3214
924.741	4181
924.849	3070
924.956	3283
925.064	3108
925.172	3051
925.279	3104
925.387	3173
925.494	3180
925.602	3359
925.709	3340
925.816	3188
925.924	3279
926.031	3405
926.138	3302
926.245	3359
926.352	3253
926.459	3428
926.566	3481
926.673	3306
926.779	3253
926.886	3249
926.993	3112
927.099	3146
927.206	3108
927.312	3138
927.419	3233
927.525	3214
927.631	3264
927.737	3154
927.843	3176
927.95	3043
928.056	3142
928.162	3207
928.267	3233
928.373	3865
928.479	3287
928.585	3097
928.69	3222
928.796	3275
928.901	3180
929.007	3020
929.112	3230
929.218	3199
929.323	3123
929.428	3165
929.533	3302
929.638	3100
929.743	3192
929.848	3268
929.953	3188
930.058	3146
930.163	3005
930.267	3024
930.372	3207
930.477	3017
930.581	3317
930.685	3154
930.79	3051
930.894	3100
930.998	3119
931.103	3275
931.207	2975
931.311	2902
931.415	2922
931.519	2788
931.623	2804
