Data from test_V78500241_689.txt Node
Date: Fri Mar 25 16:19:58 CST 2022
User: usil
Spectrometer: V785-0024
Trigger mode: 0
Integration Time (sec): 4.000000E-1
Scans to average: 1
Nonlinearity correction enabled: false
Boxcar width: 0
Storing dark spectrum: false
XAxis mode: Wavelengths
Number of Pixels in Spectrum: 1024
>>>>>Begin Spectral Data<<<<<
801.071	2960
801.214	2982
801.356	2891
801.499	2971
801.641	2899
801.783	2982
801.926	3077
802.068	3032
802.211	3039
802.353	3066
802.496	3017
802.638	3039
802.78	3077
802.923	3112
803.065	3043
803.208	2944
803.35	2960
803.492	2979
803.635	2975
803.777	2804
803.919	2914
804.061	3241
804.204	2986
804.346	2990
804.488	2895
804.63	3009
804.773	2914
804.915	2960
805.057	3123
805.199	2956
805.341	2998
805.483	3089
805.626	3032
805.768	3047
805.91	3127
806.052	3165
806.194	3058
806.336	3245
806.478	3100
806.62	2975
806.762	3036
806.904	3123
807.046	3195
807.188	3024
807.33	2975
807.472	3032
807.614	3024
807.756	3005
807.898	2956
808.04	2910
808.182	3036
808.324	2975
808.465	2944
808.607	2925
808.749	2842
808.891	2914
809.033	3001
809.174	3005
809.316	2925
809.458	2944
809.6	2804
809.741	2804
809.883	2823
810.025	2899
810.166	2902
810.308	2864
810.45	2918
810.591	2823
810.733	2807
810.875	2868
811.016	2819
811.158	2788
811.299	2845
811.441	2982
811.582	2956
811.724	2849
811.865	2914
812.007	2952
812.148	2937
812.29	2880
812.431	2906
812.573	2975
812.714	3005
812.855	3081
812.997	3089
813.138	3146
813.279	3005
813.421	3043
813.562	3005
813.703	2929
813.845	2929
813.986	2807
814.127	2781
814.268	2868
814.41	2849
814.551	2864
814.692	2902
814.833	2823
814.974	2914
815.115	2986
815.256	2872
815.397	2849
815.539	2876
815.68	2804
815.821	2830
815.962	2982
816.103	2990
816.244	2933
816.385	2918
816.526	3009
816.666	2963
816.807	2773
816.948	2880
817.089	2990
817.23	2883
817.371	2842
817.512	2845
817.653	2883
817.793	2845
817.934	2925
818.075	2956
818.216	3013
818.356	3055
818.497	2941
818.638	2823
818.778	2868
818.919	2830
819.06	2781
819.2	2902
819.341	2838
819.481	2823
819.622	2922
819.762	3116
819.903	3077
820.043	2918
820.184	2922
820.324	2922
820.465	3036
820.605	3036
820.746	3066
820.886	2975
821.026	3116
821.167	3192
821.307	3317
821.447	3310
821.588	3260
821.728	3207
821.868	3230
822.008	3104
822.149	3226
822.289	3214
822.429	3138
822.569	3127
822.709	3256
822.849	3017
822.99	3119
823.13	3173
823.27	3249
823.41	3135
823.55	3173
823.69	3211
823.83	3161
823.97	3077
824.11	3032
824.25	3032
824.389	3093
824.529	3116
824.669	3104
824.809	3214
824.949	3279
825.089	3253
825.228	3192
825.368	3032
825.508	3017
825.648	2998
825.787	3013
825.927	3039
826.067	3001
826.206	2990
826.346	3081
826.485	3081
826.625	3089
826.765	3272
826.904	3256
827.044	3017
827.183	2956
827.323	2914
827.462	3051
827.601	2922
827.741	2929
827.88	2963
828.02	2891
828.159	2952
828.298	3051
828.437	3131
828.577	3051
828.716	3241
828.855	3123
828.994	2918
829.134	2944
829.273	2944
829.412	2902
829.551	2880
829.69	2975
829.829	3017
829.968	3154
830.107	3028
830.246	3051
830.385	2918
830.524	2872
830.663	2838
830.802	2754
830.941	2659
831.08	2648
831.219	2750
831.357	2785
831.496	2971
831.635	2720
831.774	2663
831.913	2708
832.051	2560
832.19	2613
832.329	2735
832.467	2549
832.606	2503
832.744	2613
832.883	2587
833.022	2636
833.16	2697
833.299	2727
833.437	2743
833.576	2731
833.714	2762
833.852	2785
833.991	2762
834.129	2819
834.267	2853
834.406	2807
834.544	2899
834.682	2910
834.821	2937
834.959	3085
835.097	2902
835.235	3104
835.373	3009
835.511	3017
835.65	2986
835.788	2979
835.926	2823
836.064	2842
836.202	2887
836.34	3081
836.478	3157
836.615	3066
836.753	3180
836.891	3230
837.029	3157
837.167	3108
837.305	3077
837.443	3055
837.58	2979
837.718	3146
837.856	3089
837.993	3047
838.131	3131
838.269	3157
838.406	3138
838.544	3112
838.681	2941
838.819	2975
838.956	2838
839.094	2864
839.231	2902
839.369	3047
839.506	3382
839.643	3283
839.781	3058
839.918	3005
840.055	3085
840.193	3077
840.33	3108
840.467	3100
840.604	3142
840.742	3435
840.879	3081
841.016	3032
841.153	3135
841.29	3367
841.427	3294
841.564	3237
841.701	3306
841.838	3245
841.975	3214
842.112	3214
842.249	3119
842.385	3039
842.522	3302
842.659	3104
842.796	3077
842.933	3146
843.069	3108
843.206	3062
843.343	3188
843.479	3150
843.616	3146
843.752	2910
843.889	2899
844.025	3055
844.162	2899
844.298	3104
844.435	2979
844.571	2910
844.708	3093
844.844	3199
844.98	3195
845.117	3199
845.253	3051
845.389	3020
845.525	3131
845.661	3146
845.798	3032
845.934	3112
846.07	3055
846.206	3230
846.342	3317
846.478	3249
846.614	3142
846.75	3032
846.886	2990
847.022	3279
847.158	3131
847.294	3203
847.429	3268
847.565	3283
847.701	3519
847.837	3070
847.972	3017
848.108	3173
848.244	3188
848.379	3001
848.515	2948
848.65	2960
848.786	2960
848.921	3039
849.057	3108
849.192	3176
849.328	3089
849.463	3131
849.598	3097
849.734	3058
849.869	2994
850.004	2956
850.14	2967
850.275	2975
850.41	2857
850.545	2899
850.68	2933
850.815	2956
850.95	2952
851.085	3233
851.22	3097
851.355	3028
851.49	3009
851.625	3005
851.76	3043
851.895	2960
852.03	2937
852.165	3009
852.299	3138
852.434	3199
852.569	3142
852.703	3203
852.838	3249
852.973	3401
853.107	3298
853.242	3184
853.376	3119
853.511	2990
853.645	3043
853.78	3256
853.914	3142
854.048	3089
854.183	3104
854.317	3157
854.451	3336
854.585	3116
854.72	3119
854.854	3169
854.988	3104
855.122	3119
855.256	2956
855.39	3150
855.524	3260
855.658	3184
855.792	3157
855.926	3180
856.06	3253
856.194	3306
856.327	3195
856.461	3119
856.595	3097
856.729	3108
856.862	3226
856.996	3192
857.13	3218
857.263	3287
857.397	3272
857.53	3119
857.664	3233
857.797	3207
857.931	3260
858.064	3188
858.197	3207
858.331	3165
858.464	3066
858.597	3020
858.731	3085
858.864	3116
858.997	3108
859.13	3184
859.263	3173
859.396	3218
859.529	3100
859.662	3116
859.795	3097
859.928	3127
860.061	3287
860.194	3302
860.327	3180
860.46	3116
860.592	3256
860.725	3245
860.858	3256
860.99	3104
861.123	3051
861.256	3070
861.388	3161
861.521	3983
861.653	3051
861.786	2971
861.918	3005
862.05	3074
862.183	3104
862.315	3154
862.447	3222
862.58	3085
862.712	2979
862.844	2887
862.976	3043
863.108	3020
863.24	3431
863.372	2891
863.504	2971
863.636	2937
863.768	3039
863.9	2982
864.032	2925
864.164	2960
864.296	2994
864.428	3089
864.559	3116
864.691	3077
864.823	3108
864.954	3032
865.086	3055
865.217	2971
865.349	2963
865.48	2986
865.612	3024
865.743	3157
865.875	3020
866.006	2979
866.137	3009
866.269	2967
866.4	2941
866.531	2929
866.662	2876
866.793	2899
866.924	2922
867.055	2967
867.186	2941
867.317	2922
867.448	2857
867.579	2845
867.71	2861
867.841	2819
867.972	2891
868.103	2918
868.233	2910
868.364	2864
868.495	2933
868.625	3085
868.756	3150
868.886	2975
869.017	3020
869.147	3173
869.278	3173
869.408	3032
869.539	2998
869.669	3085
869.799	3051
869.929	3093
870.06	3077
870.19	3359
870.32	3298
870.45	3332
870.58	3370
870.71	3481
870.84	3496
870.97	3294
871.1	3272
871.23	3488
871.36	3462
871.489	3317
871.619	3409
871.749	3424
871.879	3405
872.008	3481
872.138	3382
872.267	3325
872.397	3150
872.526	3119
872.656	3001
872.785	3138
872.915	3260
873.044	3317
873.173	3268
873.303	3207
873.432	3211
873.561	3230
873.69	3180
873.819	3135
873.948	3249
874.077	3089
874.206	3055
874.335	3131
874.464	3241
874.593	3363
874.722	3264
874.851	3389
874.979	3336
875.108	3351
875.237	3233
875.365	3184
875.494	3154
875.623	3256
875.751	3051
875.88	3097
876.008	3192
876.136	3233
876.265	3370
876.393	3511
876.521	3389
876.65	3389
876.778	3336
876.906	3279
877.034	3233
877.162	3230
877.29	3195
877.418	3268
877.546	3253
877.674	3256
877.802	3237
877.93	3253
878.058	3165
878.185	3097
878.313	3226
878.441	3214
878.568	3077
878.696	3180
878.824	3279
878.951	3279
879.079	3473
879.206	3644
879.333	3397
879.461	3317
879.588	3370
879.715	3469
879.842	3584
879.97	3382
880.097	3199
880.224	3127
880.351	3226
880.478	3192
880.605	3195
880.732	3195
880.859	3504
880.986	3306
881.112	3325
881.239	3165
881.366	3089
881.493	3047
881.619	3005
881.746	3138
881.872	3104
881.999	3104
882.125	3146
882.252	3256
882.378	3287
882.505	3420
882.631	3279
882.757	3226
882.883	3226
883.01	3233
883.136	3180
883.262	3097
883.388	3100
883.514	3291
883.64	3332
883.766	3317
883.892	3211
884.018	3230
884.143	3401
884.269	3564
884.395	3199
884.52	3138
884.646	3146
884.772	3089
884.897	3085
885.023	3207
885.148	3336
885.274	3397
885.399	3397
885.524	3233
885.65	3302
885.775	3298
885.9	3275
886.025	3431
886.15	3393
886.275	3298
886.4	3192
886.525	3306
886.65	3268
886.775	3298
886.9	3477
887.025	3614
887.149	3416
887.274	3268
887.399	3173
887.523	3241
887.648	3211
887.773	3142
887.897	3351
888.021	3412
888.146	3291
888.27	3469
888.395	3526
888.519	3450
888.643	3431
888.767	3477
888.891	3321
889.015	3203
889.139	3325
889.263	3264
889.387	3401
889.511	3496
889.635	3469
889.759	3291
889.883	3283
890.006	3378
890.13	3515
890.254	3253
890.377	3351
890.501	3188
890.624	3195
890.748	3298
890.871	3188
890.995	3108
891.118	3062
891.241	3207
891.364	3226
891.488	3332
891.611	3169
891.734	3184
891.857	3294
891.98	3249
892.103	3351
892.226	3298
892.349	3226
892.471	3119
892.594	3226
892.717	3340
892.839	3264
892.962	3294
893.085	3344
893.207	3321
893.33	3157
893.452	3161
893.575	3336
893.697	3241
893.819	3481
893.941	3534
894.064	3466
894.186	3302
894.308	3306
894.43	3428
894.552	3523
894.674	3454
894.796	3264
894.918	3294
895.04	3291
895.161	3443
895.283	3412
895.405	3287
895.526	3389
895.648	3401
895.769	3431
895.891	3477
896.012	3488
896.134	3477
896.255	3401
896.376	3363
896.498	3351
896.619	3450
896.74	3386
896.861	3389
896.982	3717
897.103	3835
897.224	3625
897.345	3561
897.466	3458
897.587	3507
897.708	3584
897.828	3557
897.949	3466
898.07	3367
898.19	3397
898.311	3603
898.431	3492
898.552	3523
898.672	3603
898.792	3587
898.913	3500
899.033	3416
899.153	3302
899.273	3245
899.393	3298
899.513	3264
899.633	3302
899.753	3321
899.873	3294
899.993	3374
900.113	3306
900.232	3397
900.352	3363
900.472	3313
900.591	3218
900.711	3279
900.83	3233
900.95	3416
901.069	3485
901.189	3359
901.308	3184
901.427	3135
901.546	3203
901.665	3283
901.784	3355
901.904	3222
902.023	3131
902.141	2998
902.26	2990
902.379	3123
902.498	3074
902.617	3074
902.735	3214
902.854	3207
902.973	3195
903.091	3032
903.21	3066
903.328	3123
903.446	3135
903.565	3077
903.683	3169
903.801	3135
903.919	3294
904.038	3264
904.156	3157
904.274	3325
904.392	3241
904.51	3291
904.627	3329
904.745	3428
904.863	3469
904.981	3241
905.098	3154
905.216	3260
905.334	3298
905.451	3268
905.569	3313
905.686	3405
905.803	3458
905.921	3283
906.038	3416
906.155	3374
906.272	3272
906.389	3336
906.506	3237
906.623	3283
906.74	3283
906.857	3195
906.974	3237
907.091	3378
907.208	3584
907.324	3473
907.441	3351
907.557	3306
907.674	3237
907.79	3214
907.907	3287
908.023	3382
908.139	3370
908.256	3321
908.372	3378
908.488	3351
908.604	3207
908.72	3222
908.836	3298
908.952	3317
909.068	3321
909.184	3450
909.3	3393
909.415	3504
909.531	3469
909.647	3245
909.762	3268
909.878	3268
909.993	3317
910.108	3329
910.224	3336
910.339	3428
910.454	3310
910.57	3298
910.685	3245
910.8	3603
910.915	3534
911.03	3420
911.145	3260
911.259	3283
911.374	3306
911.489	3214
911.604	3233
911.718	3161
911.833	3154
911.947	3039
912.062	2963
912.176	3165
912.291	3131
912.405	3195
912.519	3443
912.633	3477
912.748	3313
912.862	3245
912.976	3180
913.09	3047
913.204	3142
913.318	3241
913.431	3310
913.545	3348
913.659	3397
913.772	3332
913.886	3230
914	3180
914.113	3355
914.226	3386
914.34	3370
914.453	3195
914.566	3420
914.68	3287
914.793	3298
914.906	3135
915.019	3123
915.132	3047
915.245	3142
915.358	3199
915.47	3214
915.583	3245
915.696	3264
915.809	3359
915.921	3412
916.034	3256
916.146	3264
916.259	3222
916.371	3363
916.483	3359
916.595	3230
916.708	3344
916.82	3317
916.932	3321
917.044	3378
917.156	3336
917.268	3233
917.38	3275
917.491	3275
917.603	3393
917.715	3409
917.826	3439
917.938	3412
918.049	3294
918.161	3447
918.272	3568
918.384	3557
918.495	3507
918.606	3325
918.717	3268
918.828	3382
918.939	3428
919.05	3275
919.161	3359
919.272	3192
919.383	3264
919.494	3504
919.604	3747
919.715	3428
919.826	3439
919.936	3481
920.047	3572
920.157	3523
920.267	3762
920.378	3591
920.488	3572
920.598	3762
920.708	3911
920.818	3797
920.928	3816
921.038	4051
921.148	3922
921.258	3720
921.368	3629
921.477	3564
921.587	3519
921.697	3458
921.806	3629
921.916	3515
922.025	3359
922.134	3359
922.244	3325
922.353	3424
922.462	3268
922.571	3241
922.68	3100
922.789	3081
922.898	3138
923.007	3146
923.116	3241
923.224	3157
923.333	3214
923.442	3108
923.55	3100
923.659	3135
923.767	3249
923.876	3138
923.984	3230
924.092	3089
924.201	3214
924.309	3192
924.417	3233
924.525	3241
924.633	3211
924.741	4017
924.849	3062
924.956	3237
925.064	3085
925.172	3066
925.279	3116
925.387	3192
925.494	3207
925.602	3363
925.709	3310
925.816	3157
925.924	3306
926.031	3348
926.138	3340
926.245	3374
926.352	3279
926.459	3401
926.566	3469
926.673	3283
926.779	3268
926.886	3241
926.993	3165
927.099	3112
927.206	3112
927.312	3081
927.419	3222
927.525	3157
927.631	3256
927.737	3150
927.843	3127
927.95	3055
928.056	3135
928.162	3169
928.267	3256
928.373	3835
928.479	3287
928.585	3070
928.69	3180
928.796	3302
928.901	3176
929.007	3020
929.112	3226
929.218	3146
929.323	3150
929.428	3138
929.533	3283
929.638	3108
929.743	3161
929.848	3241
929.953	3161
930.058	3135
930.163	2960
930.267	3039
930.372	3176
930.477	3047
930.581	3310
930.685	3214
930.79	3032
930.894	3097
930.998	3089
931.103	3275
931.207	2952
931.311	2948
931.415	2902
931.519	2804
931.623	2807
