Data from test_V78500241_626.txt Node
Date: Fri Mar 25 16:19:32 CST 2022
User: usil
Spectrometer: V785-0024
Trigger mode: 0
Integration Time (sec): 4.000000E-1
Scans to average: 1
Nonlinearity correction enabled: false
Boxcar width: 0
Storing dark spectrum: false
XAxis mode: Wavelengths
Number of Pixels in Spectrum: 1024
>>>>>Begin Spectral Data<<<<<
801.071	2937
801.214	2952
801.356	2891
801.499	2887
801.641	2872
801.783	2925
801.926	3066
802.068	2982
802.211	3013
802.353	3097
802.496	2975
802.638	3017
802.78	3055
802.923	3074
803.065	2967
803.208	2929
803.35	2948
803.492	2902
803.635	2922
803.777	2785
803.919	2891
804.061	3203
804.204	2937
804.346	2918
804.488	2853
804.63	3020
804.773	2845
804.915	2902
805.057	3119
805.199	2887
805.341	2998
805.483	3066
805.626	2982
805.768	2960
805.91	3093
806.052	3146
806.194	3020
806.336	3237
806.478	3070
806.62	3005
806.762	3009
806.904	3047
807.046	3211
807.188	2982
807.33	2963
807.472	3005
807.614	2941
807.756	3005
807.898	2906
808.04	2918
808.182	2979
808.324	3005
808.465	2933
808.607	2895
808.749	2777
808.891	2864
809.033	3001
809.174	2979
809.316	2880
809.458	2887
809.6	2788
809.741	2777
809.883	2815
810.025	2838
810.166	2883
810.308	2864
810.45	2838
810.591	2777
810.733	2792
810.875	2849
811.016	2785
811.158	2800
811.299	2853
811.441	2941
811.582	2925
811.724	2842
811.865	2830
812.007	2937
812.148	2880
812.29	2857
812.431	2925
812.573	2922
812.714	2971
812.855	3055
812.997	3047
813.138	3161
813.279	3017
813.421	3036
813.562	2979
813.703	2872
813.845	2914
813.986	2788
814.127	2743
814.268	2819
814.41	2830
814.551	2823
814.692	2910
814.833	2807
814.974	2929
815.115	2986
815.256	2811
815.397	2826
815.539	2872
815.68	2800
815.821	2807
815.962	2982
816.103	2937
816.244	2902
816.385	2883
816.526	2975
816.666	2944
816.807	2762
816.948	2876
817.089	2895
817.23	2880
817.371	2792
817.512	2807
817.653	2830
817.793	2861
817.934	2849
818.075	2990
818.216	3020
818.356	3028
818.497	2914
818.638	2834
818.778	2815
818.919	2811
819.06	2762
819.2	2906
819.341	2826
819.481	2842
819.622	2891
819.762	3074
819.903	3043
820.043	2982
820.184	2895
820.324	2944
820.465	3017
820.605	3028
820.746	3043
820.886	2948
821.026	3070
821.167	3154
821.307	3233
821.447	3306
821.588	3222
821.728	3207
821.868	3199
822.008	3089
822.149	3184
822.289	3214
822.429	3074
822.569	3062
822.709	3195
822.849	3036
822.99	3081
823.13	3161
823.27	3218
823.41	3157
823.55	3154
823.69	3169
823.83	3199
823.97	3127
824.11	3020
824.25	2971
824.389	3097
824.529	3093
824.669	3066
824.809	3218
824.949	3249
825.089	3203
825.228	3176
825.368	3028
825.508	2960
825.648	2948
825.787	3013
825.927	3005
826.067	2975
826.206	2982
826.346	3020
826.485	3093
826.625	3104
826.765	3268
826.904	3226
827.044	2967
827.183	2956
827.323	2895
827.462	3009
827.601	2899
827.741	2918
827.88	2963
828.02	2883
828.159	2967
828.298	3017
828.437	3112
828.577	3024
828.716	3207
828.855	3089
828.994	2933
829.134	2849
829.273	2952
829.412	2887
829.551	2845
829.69	2880
829.829	2994
829.968	3119
830.107	3009
830.246	3062
830.385	2956
830.524	2918
830.663	2830
830.802	2712
830.941	2674
831.08	2648
831.219	2766
831.357	2777
831.496	2937
831.635	2724
831.774	2659
831.913	2667
832.051	2568
832.19	2602
832.329	2678
832.467	2552
832.606	2473
832.744	2545
832.883	2598
833.022	2602
833.16	2663
833.299	2735
833.437	2697
833.576	2708
833.714	2727
833.852	2731
833.991	2766
834.129	2842
834.267	2842
834.406	2788
834.544	2899
834.682	2891
834.821	2887
834.959	3097
835.097	2937
835.235	3097
835.373	3005
835.511	3017
835.65	2960
835.788	3001
835.926	2845
836.064	2811
836.202	2849
836.34	3116
836.478	3150
836.615	3047
836.753	3150
836.891	3218
837.029	3192
837.167	3123
837.305	3100
837.443	3055
837.58	2975
837.718	3093
837.856	3028
837.993	3009
838.131	3123
838.269	3116
838.406	3131
838.544	3077
838.681	2960
838.819	2922
838.956	2823
839.094	2838
839.231	2895
839.369	3028
839.506	3344
839.643	3237
839.781	3024
839.918	2948
840.055	3013
840.193	3039
840.33	3043
840.467	3066
840.604	3146
840.742	3389
840.879	3051
841.016	3039
841.153	3104
841.29	3351
841.427	3260
841.564	3226
841.701	3294
841.838	3188
841.975	3188
842.112	3214
842.249	3055
842.385	3055
842.522	3272
842.659	3119
842.796	3032
842.933	3077
843.069	3017
843.206	3055
843.343	3157
843.479	3108
843.616	3184
843.752	2925
843.889	2895
844.025	3100
844.162	2868
844.298	3108
844.435	2944
844.571	2910
844.708	3093
844.844	3218
844.98	3199
845.117	3218
845.253	3036
845.389	3001
845.525	3100
845.661	3081
845.798	3047
845.934	3127
846.07	3039
846.206	3222
846.342	3317
846.478	3207
846.614	3055
846.75	3081
846.886	3013
847.022	3214
847.158	3169
847.294	3222
847.429	3233
847.565	3207
847.701	3466
847.837	3070
847.972	3005
848.108	3169
848.244	3127
848.379	2998
848.515	3001
848.65	2948
848.786	2963
848.921	3009
849.057	3108
849.192	3116
849.328	3074
849.463	3100
849.598	3047
849.734	3043
849.869	2963
850.004	2922
850.14	2967
850.275	2929
850.41	2830
850.545	2891
850.68	2941
850.815	2952
850.95	2967
851.085	3150
851.22	3093
851.355	3043
851.49	2975
851.625	2963
851.76	3005
851.895	2979
852.03	2910
852.165	3028
852.299	3093
852.434	3249
852.569	3127
852.703	3154
852.838	3253
852.973	3351
853.107	3340
853.242	3138
853.376	3089
853.511	2967
853.645	3028
853.78	3218
853.914	3146
854.048	3077
854.183	3097
854.317	3169
854.451	3340
854.585	3089
854.72	3085
854.854	3260
854.988	3062
855.122	3055
855.256	2956
855.39	3097
855.524	3264
855.658	3199
855.792	3165
855.926	3154
856.06	3241
856.194	3264
856.327	3150
856.461	3055
856.595	3085
856.729	3062
856.862	3199
856.996	3142
857.13	3211
857.263	3211
857.397	3226
857.53	3097
857.664	3207
857.797	3195
857.931	3226
858.064	3135
858.197	3230
858.331	3146
858.464	3062
858.597	3013
858.731	3081
858.864	3108
858.997	3077
859.13	3188
859.263	3180
859.396	3253
859.529	3085
859.662	3047
859.795	3074
859.928	3154
860.061	3275
860.194	3253
860.327	3131
860.46	3036
860.592	3237
860.725	3218
860.858	3260
860.99	3081
861.123	3005
861.256	3043
861.388	3123
861.521	3690
861.653	3039
861.786	2975
861.918	2990
862.05	3070
862.183	3055
862.315	3127
862.447	3192
862.58	3097
862.712	2960
862.844	2876
862.976	3055
863.108	3047
863.24	3397
863.372	2876
863.504	2982
863.636	2929
863.768	3017
863.9	2975
864.032	2929
864.164	2944
864.296	3005
864.428	3070
864.559	3085
864.691	3047
864.823	3062
864.954	3013
865.086	3055
865.217	3005
865.349	2952
865.48	2994
865.612	3001
865.743	3123
865.875	2948
866.006	2967
866.137	2998
866.269	2929
866.4	2948
866.531	2922
866.662	2899
866.793	2910
866.924	2902
867.055	2979
867.186	2941
867.317	2906
867.448	2826
867.579	2830
867.71	2842
867.841	2823
867.972	2922
868.103	2868
868.233	2853
868.364	2853
868.495	2883
868.625	3028
868.756	3214
868.886	2963
869.017	3013
869.147	3154
869.278	3169
869.408	3028
869.539	2998
869.669	3093
869.799	3009
869.929	3108
870.06	3066
870.19	3298
870.32	3321
870.45	3287
870.58	3355
870.71	3439
870.84	3439
870.97	3268
871.1	3188
871.23	3469
871.36	3454
871.489	3397
871.619	3370
871.749	3378
871.879	3450
872.008	3481
872.138	3340
872.267	3294
872.397	3154
872.526	3081
872.656	3013
872.785	3055
872.915	3245
873.044	3325
873.173	3226
873.303	3253
873.432	3233
873.561	3260
873.69	3154
873.819	3119
873.948	3188
874.077	3112
874.206	3013
874.335	3047
874.464	3188
874.593	3389
874.722	3230
874.851	3389
874.979	3287
875.108	3283
875.237	3199
875.365	3154
875.494	3135
875.623	3233
875.751	3089
875.88	3116
876.008	3188
876.136	3222
876.265	3340
876.393	3450
876.521	3428
876.65	3431
876.778	3340
876.906	3249
877.034	3150
877.162	3226
877.29	3150
877.418	3260
877.546	3230
877.674	3245
877.802	3222
877.93	3222
878.058	3157
878.185	3062
878.313	3184
878.441	3203
878.568	3074
878.696	3154
878.824	3233
878.951	3294
879.079	3458
879.206	3587
879.333	3443
879.461	3359
879.588	3355
879.715	3485
879.842	3576
879.97	3363
880.097	3123
880.224	3116
880.351	3192
880.478	3218
880.605	3218
880.732	3233
880.859	3507
880.986	3310
881.112	3344
881.239	3199
881.366	3066
881.493	3055
881.619	3013
881.746	3081
881.872	3100
881.999	3058
882.125	3138
882.252	3272
882.378	3272
882.505	3462
882.631	3291
882.757	3116
882.883	3256
883.01	3199
883.136	3176
883.262	3081
883.388	3085
883.514	3279
883.64	3382
883.766	3310
883.892	3176
884.018	3241
884.143	3443
884.269	3534
884.395	3161
884.52	3135
884.646	3184
884.772	3116
884.897	3116
885.023	3199
885.148	3321
885.274	3363
885.399	3374
885.524	3256
885.65	3291
885.775	3321
885.9	3256
886.025	3431
886.15	3351
886.275	3264
886.4	3241
886.525	3332
886.65	3264
886.775	3283
886.9	3496
887.025	3591
887.149	3393
887.274	3230
887.399	3199
887.523	3169
887.648	3173
887.773	3203
887.897	3355
888.021	3393
888.146	3279
888.27	3420
888.395	3523
888.519	3389
888.643	3454
888.767	3424
888.891	3313
889.015	3230
889.139	3294
889.263	3237
889.387	3397
889.511	3526
889.635	3439
889.759	3294
889.883	3275
890.006	3382
890.13	3466
890.254	3253
890.377	3325
890.501	3192
890.624	3176
890.748	3256
890.871	3199
890.995	3119
891.118	3062
891.241	3176
891.364	3233
891.488	3355
891.611	3157
891.734	3211
891.857	3264
891.98	3218
892.103	3340
892.226	3260
892.349	3214
892.471	3142
892.594	3249
892.717	3264
892.839	3245
892.962	3306
893.085	3325
893.207	3325
893.33	3161
893.452	3233
893.575	3355
893.697	3272
893.819	3488
893.941	3450
894.064	3477
894.186	3294
894.308	3264
894.43	3428
894.552	3580
894.674	3431
894.796	3245
894.918	3332
895.04	3287
895.161	3450
895.283	3340
895.405	3321
895.526	3340
895.648	3393
895.769	3382
895.891	3458
896.012	3450
896.134	3469
896.255	3412
896.376	3405
896.498	3344
896.619	3431
896.74	3351
896.861	3393
896.982	3663
897.103	3766
897.224	3561
897.345	3500
897.466	3420
897.587	3447
897.708	3618
897.828	3530
897.949	3435
898.07	3329
898.19	3382
898.311	3580
898.431	3435
898.552	3530
898.672	3580
898.792	3542
898.913	3526
899.033	3378
899.153	3268
899.273	3226
899.393	3279
899.513	3298
899.633	3348
899.753	3313
899.873	3310
899.993	3378
900.113	3321
900.232	3370
900.352	3298
900.472	3298
900.591	3169
900.711	3245
900.83	3195
900.95	3424
901.069	3473
901.189	3382
901.308	3165
901.427	3089
901.546	3211
901.665	3287
901.784	3317
901.904	3195
902.023	3173
902.141	3032
902.26	2986
902.379	3127
902.498	3062
902.617	3077
902.735	3176
902.854	3272
902.973	3165
903.091	3043
903.21	3047
903.328	3123
903.446	3123
903.565	3062
903.683	3207
903.801	3123
903.919	3245
904.038	3279
904.156	3135
904.274	3313
904.392	3291
904.51	3313
904.627	3359
904.745	3454
904.863	3492
904.981	3272
905.098	3180
905.216	3222
905.334	3336
905.451	3283
905.569	3291
905.686	3401
905.803	3409
905.921	3268
906.038	3439
906.155	3272
906.272	3298
906.389	3340
906.506	3233
906.623	3283
906.74	3207
906.857	3169
906.974	3253
907.091	3409
907.208	3545
907.324	3462
907.441	3348
907.557	3226
907.674	3249
907.79	3230
907.907	3253
908.023	3355
908.139	3363
908.256	3329
908.372	3386
908.488	3344
908.604	3264
908.72	3222
908.836	3256
908.952	3272
909.068	3325
909.184	3469
909.3	3389
909.415	3469
909.531	3458
909.647	3249
909.762	3298
909.878	3264
909.993	3370
910.108	3313
910.224	3336
910.339	3374
910.454	3329
910.57	3310
910.685	3264
910.8	3610
910.915	3519
911.03	3447
911.145	3279
911.259	3256
911.374	3317
911.489	3256
911.604	3233
911.718	3100
911.833	3138
911.947	3020
912.062	2998
912.176	3195
912.291	3192
912.405	3214
912.519	3454
912.633	3454
912.748	3302
912.862	3283
912.976	3169
913.09	3062
913.204	3112
913.318	3230
913.431	3310
913.545	3355
913.659	3405
913.772	3329
913.886	3211
914	3211
914.113	3355
914.226	3428
914.34	3416
914.453	3218
914.566	3401
914.68	3279
914.793	3294
914.906	3131
915.019	3089
915.132	3047
915.245	3211
915.358	3233
915.47	3211
915.583	3256
915.696	3317
915.809	3393
915.921	3439
916.034	3264
916.146	3256
916.259	3211
916.371	3393
916.483	3363
916.595	3268
916.708	3332
916.82	3389
916.932	3374
917.044	3325
917.156	3351
917.268	3264
917.38	3306
917.491	3275
917.603	3359
917.715	3435
917.826	3454
917.938	3367
918.049	3230
918.161	3454
918.272	3553
918.384	3618
918.495	3477
918.606	3329
918.717	3279
918.828	3374
918.939	3420
919.05	3332
919.161	3344
919.272	3222
919.383	3306
919.494	3515
919.604	3728
919.715	3447
919.826	3435
919.936	3473
920.047	3618
920.157	3519
920.267	3778
920.378	3610
920.488	3561
920.598	3789
920.708	3945
920.818	3827
920.928	3800
921.038	4006
921.148	3987
921.258	3728
921.368	3618
921.477	3595
921.587	3545
921.697	3477
921.806	3656
921.916	3492
922.025	3310
922.134	3374
922.244	3325
922.353	3416
922.462	3245
922.571	3272
922.68	3104
922.789	3055
922.898	3157
923.007	3104
923.116	3222
923.224	3154
923.333	3173
923.442	3089
923.55	3074
923.659	3138
923.767	3188
923.876	3116
923.984	3249
924.092	3093
924.201	3211
924.309	3233
924.417	3237
924.525	3203
924.633	3249
924.741	4006
924.849	3039
924.956	3253
925.064	3081
925.172	3028
925.279	3085
925.387	3214
925.494	3165
925.602	3374
925.709	3340
925.816	3195
925.924	3279
926.031	3374
926.138	3313
926.245	3344
926.352	3241
926.459	3409
926.566	3466
926.673	3321
926.779	3241
926.886	3211
926.993	3173
927.099	3127
927.206	3127
927.312	3146
927.419	3237
927.525	3222
927.631	3256
927.737	3127
927.843	3119
927.95	3036
928.056	3165
928.162	3180
928.267	3241
928.373	3770
928.479	3298
928.585	3119
928.69	3173
928.796	3245
928.901	3138
929.007	3028
929.112	3173
929.218	3180
929.323	3108
929.428	3138
929.533	3294
929.638	3089
929.743	3154
929.848	3233
929.953	3253
930.058	3131
930.163	2979
930.267	3074
930.372	3207
930.477	3020
930.581	3321
930.685	3150
930.79	3051
930.894	3116
930.998	3104
931.103	3294
931.207	2963
931.311	2963
931.415	2914
931.519	2777
931.623	2788
