Data from test_V78500241_729.txt Node
Date: Fri Mar 25 16:20:15 CST 2022
User: usil
Spectrometer: V785-0024
Trigger mode: 0
Integration Time (sec): 4.000000E-1
Scans to average: 1
Nonlinearity correction enabled: false
Boxcar width: 0
Storing dark spectrum: false
XAxis mode: Wavelengths
Number of Pixels in Spectrum: 1024
>>>>>Begin Spectral Data<<<<<
801.071	2883
801.214	2948
801.356	2861
801.499	2899
801.641	2834
801.783	2941
801.926	3020
802.068	2986
802.211	2998
802.353	2975
802.496	2933
802.638	2994
802.78	3017
802.923	3074
803.065	2990
803.208	2880
803.35	2864
803.492	2902
803.635	2876
803.777	2739
803.919	2845
804.061	3203
804.204	2929
804.346	2910
804.488	2845
804.63	2963
804.773	2864
804.915	2902
805.057	3081
805.199	2914
805.341	2975
805.483	3013
805.626	3009
805.768	2952
805.91	3051
806.052	3108
806.194	2990
806.336	3222
806.478	3009
806.62	2963
806.762	2956
806.904	3032
807.046	3127
807.188	2956
807.33	2910
807.472	2979
807.614	2868
807.756	2971
807.898	2918
808.04	2906
808.182	2933
808.324	2979
808.465	2876
808.607	2849
808.749	2800
808.891	2834
809.033	2929
809.174	2975
809.316	2895
809.458	2914
809.6	2773
809.741	2746
809.883	2739
810.025	2849
810.166	2868
810.308	2880
810.45	2815
810.591	2777
810.733	2739
810.875	2826
811.016	2754
811.158	2762
811.299	2800
811.441	2918
811.582	2906
811.724	2804
811.865	2834
812.007	2910
812.148	2834
812.29	2838
812.431	2861
812.573	2902
812.714	2937
812.855	3047
812.997	3047
813.138	3089
813.279	2982
813.421	2986
813.562	2929
813.703	2845
813.845	2902
813.986	2788
814.127	2735
814.268	2807
814.41	2834
814.551	2823
814.692	2861
814.833	2811
814.974	2857
815.115	2948
815.256	2853
815.397	2807
815.539	2838
815.68	2792
815.821	2796
815.962	2910
816.103	2941
816.244	2853
816.385	2853
816.526	2975
816.666	2902
816.807	2739
816.948	2906
817.089	2895
817.23	2857
817.371	2811
817.512	2807
817.653	2845
817.793	2811
817.934	2826
818.075	2967
818.216	3013
818.356	3009
818.497	2902
818.638	2811
818.778	2830
818.919	2750
819.06	2743
819.2	2895
819.341	2766
819.481	2800
819.622	2925
819.762	3123
819.903	3039
820.043	2906
820.184	2872
820.324	2906
820.465	3020
820.605	2998
820.746	2975
820.886	2922
821.026	3074
821.167	3146
821.307	3241
821.447	3230
821.588	3184
821.728	3214
821.868	3195
822.008	3051
822.149	3195
822.289	3176
822.429	3085
822.569	3108
822.709	3146
822.849	3032
822.99	3089
823.13	3150
823.27	3203
823.41	3077
823.55	3157
823.69	3123
823.83	3211
823.97	3062
824.11	3013
824.25	3009
824.389	3070
824.529	3108
824.669	3066
824.809	3173
824.949	3245
825.089	3211
825.228	3150
825.368	3005
825.508	2990
825.648	2990
825.787	3013
825.927	3013
826.067	2979
826.206	2929
826.346	3066
826.485	3062
826.625	3127
826.765	3268
826.904	3260
827.044	2994
827.183	2952
827.323	2914
827.462	3051
827.601	2963
827.741	2994
827.88	3001
828.02	2887
828.159	2979
828.298	3032
828.437	3146
828.577	3058
828.716	3260
828.855	3089
828.994	2967
829.134	2906
829.273	2952
829.412	2910
829.551	2895
829.69	2902
829.829	3051
829.968	3161
830.107	3043
830.246	3058
830.385	2933
830.524	2895
830.663	2876
830.802	2758
830.941	2670
831.08	2678
831.219	2800
831.357	2807
831.496	2967
831.635	2754
831.774	2705
831.913	2689
832.051	2590
832.19	2594
832.329	2724
832.467	2598
832.606	2518
832.744	2640
832.883	2617
833.022	2625
833.16	2693
833.299	2743
833.437	2716
833.576	2731
833.714	2758
833.852	2769
833.991	2807
834.129	2876
834.267	2853
834.406	2811
834.544	2914
834.682	2933
834.821	2914
834.959	3093
835.097	2899
835.235	3100
835.373	3017
835.511	3032
835.65	2998
835.788	2971
835.926	2849
836.064	2876
836.202	2887
836.34	3161
836.478	3173
836.615	3093
836.753	3199
836.891	3226
837.029	3188
837.167	3161
837.305	3108
837.443	3081
837.58	2971
837.718	3135
837.856	3127
837.993	3051
838.131	3142
838.269	3127
838.406	3108
838.544	3085
838.681	2937
838.819	2937
838.956	2826
839.094	2880
839.231	2929
839.369	3032
839.506	3401
839.643	3218
839.781	3039
839.918	3001
840.055	3058
840.193	3104
840.33	3097
840.467	3154
840.604	3188
840.742	3466
840.879	3127
841.016	3066
841.153	3169
841.29	3382
841.427	3344
841.564	3302
841.701	3351
841.838	3268
841.975	3207
842.112	3253
842.249	3127
842.385	3051
842.522	3272
842.659	3119
842.796	3085
842.933	3154
843.069	3058
843.206	3074
843.343	3207
843.479	3123
843.616	3165
843.752	2902
843.889	2941
844.025	3146
844.162	2922
844.298	3135
844.435	2979
844.571	2963
844.708	3089
844.844	3245
844.98	3230
845.117	3249
845.253	3085
845.389	3036
845.525	3097
845.661	3112
845.798	3047
845.934	3154
846.07	3116
846.206	3272
846.342	3344
846.478	3272
846.614	3161
846.75	3097
846.886	3070
847.022	3298
847.158	3184
847.294	3214
847.429	3249
847.565	3211
847.701	3542
847.837	3047
847.972	3009
848.108	3169
848.244	3161
848.379	2994
848.515	2963
848.65	2952
848.786	3001
848.921	3024
849.057	3097
849.192	3195
849.328	3108
849.463	3165
849.598	3081
849.734	3043
849.869	3024
850.004	2948
850.14	3024
850.275	2910
850.41	2887
850.545	2922
850.68	2975
850.815	2971
850.95	2990
851.085	3226
851.22	3131
851.355	3055
851.49	2971
851.625	3009
851.76	3005
851.895	2971
852.03	2982
852.165	3039
852.299	3123
852.434	3211
852.569	3142
852.703	3211
852.838	3260
852.973	3389
853.107	3370
853.242	3157
853.376	3165
853.511	2944
853.645	3097
853.78	3222
853.914	3154
854.048	3131
854.183	3093
854.317	3184
854.451	3287
854.585	3127
854.72	3119
854.854	3249
854.988	3036
855.122	3127
855.256	3028
855.39	3150
855.524	3275
855.658	3218
855.792	3173
855.926	3173
856.06	3245
856.194	3249
856.327	3188
856.461	3097
856.595	3097
856.729	3123
856.862	3226
856.996	3165
857.13	3272
857.263	3245
857.397	3287
857.53	3173
857.664	3222
857.797	3291
857.931	3302
858.064	3173
858.197	3241
858.331	3150
858.464	3089
858.597	3020
858.731	3135
858.864	3123
858.997	3123
859.13	3199
859.263	3195
859.396	3260
859.529	3081
859.662	3138
859.795	3066
859.928	3176
860.061	3321
860.194	3340
860.327	3150
860.46	3146
860.592	3245
860.725	3291
860.858	3249
860.99	3138
861.123	3097
861.256	3077
861.388	3150
861.521	3857
861.653	3051
861.786	2986
861.918	3028
862.05	3112
862.183	3112
862.315	3146
862.447	3253
862.58	3123
862.712	2986
862.844	2868
862.976	3039
863.108	3013
863.24	3439
863.372	2925
863.504	2971
863.636	2952
863.768	3062
863.9	2971
864.032	2929
864.164	2979
864.296	3032
864.428	3104
864.559	3154
864.691	3116
864.823	3142
864.954	3032
865.086	3058
865.217	3009
865.349	2952
865.48	2979
865.612	3024
865.743	3161
865.875	2994
866.006	2963
866.137	3017
866.269	2960
866.4	2925
866.531	2914
866.662	2925
866.793	2948
866.924	2918
867.055	2986
867.186	2952
867.317	2925
867.448	2849
867.579	2830
867.71	2891
867.841	2823
867.972	2925
868.103	2918
868.233	2872
868.364	2910
868.495	2971
868.625	3108
868.756	3180
868.886	2971
869.017	3039
869.147	3192
869.278	3142
869.408	3066
869.539	3043
869.669	3119
869.799	3024
869.929	3146
870.06	3116
870.19	3313
870.32	3298
870.45	3298
870.58	3378
870.71	3469
870.84	3458
870.97	3287
871.1	3291
871.23	3462
871.36	3458
871.489	3355
871.619	3412
871.749	3386
871.879	3450
872.008	3481
872.138	3416
872.267	3329
872.397	3169
872.526	3135
872.656	3062
872.785	3116
872.915	3260
873.044	3344
873.173	3249
873.303	3260
873.432	3241
873.561	3241
873.69	3188
873.819	3173
873.948	3222
874.077	3123
874.206	3104
874.335	3123
874.464	3214
874.593	3405
874.722	3275
874.851	3386
874.979	3336
875.108	3355
875.237	3230
875.365	3180
875.494	3131
875.623	3249
875.751	3093
875.88	3135
876.008	3199
876.136	3218
876.265	3386
876.393	3530
876.521	3382
876.65	3378
876.778	3393
876.906	3260
877.034	3195
877.162	3237
877.29	3184
877.418	3294
877.546	3249
877.674	3256
877.802	3264
877.93	3218
878.058	3173
878.185	3119
878.313	3207
878.441	3245
878.568	3116
878.696	3180
878.824	3272
878.951	3351
879.079	3447
879.206	3622
879.333	3431
879.461	3348
879.588	3348
879.715	3431
879.842	3591
879.97	3420
880.097	3192
880.224	3138
880.351	3218
880.478	3272
880.605	3203
880.732	3199
880.859	3553
880.986	3302
881.112	3386
881.239	3222
881.366	3127
881.493	3047
881.619	3032
881.746	3108
881.872	3100
881.999	3108
882.125	3146
882.252	3237
882.378	3325
882.505	3473
882.631	3264
882.757	3154
882.883	3184
883.01	3192
883.136	3237
883.262	3085
883.388	3142
883.514	3310
883.64	3397
883.766	3279
883.892	3207
884.018	3253
884.143	3420
884.269	3561
884.395	3192
884.52	3169
884.646	3173
884.772	3157
884.897	3119
885.023	3230
885.148	3332
885.274	3389
885.399	3329
885.524	3268
885.65	3298
885.775	3317
885.9	3279
886.025	3447
886.15	3393
886.275	3336
886.4	3222
886.525	3310
886.65	3275
886.775	3294
886.9	3523
887.025	3637
887.149	3393
887.274	3275
887.399	3176
887.523	3222
887.648	3180
887.773	3222
887.897	3397
888.021	3420
888.146	3272
888.27	3409
888.395	3523
888.519	3435
888.643	3473
888.767	3481
888.891	3363
889.015	3260
889.139	3310
889.263	3214
889.387	3367
889.511	3523
889.635	3469
889.759	3279
889.883	3310
890.006	3409
890.13	3496
890.254	3275
890.377	3363
890.501	3214
890.624	3195
890.748	3306
890.871	3188
890.995	3146
891.118	3100
891.241	3203
891.364	3214
891.488	3321
891.611	3199
891.734	3192
891.857	3310
891.98	3264
892.103	3317
892.226	3291
892.349	3211
892.471	3112
892.594	3245
892.717	3275
892.839	3298
892.962	3310
893.085	3386
893.207	3329
893.33	3192
893.452	3222
893.575	3325
893.697	3253
893.819	3458
893.941	3515
894.064	3439
894.186	3279
894.308	3233
894.43	3450
894.552	3538
894.674	3477
894.796	3275
894.918	3313
895.04	3310
895.161	3420
895.283	3393
895.405	3325
895.526	3393
895.648	3431
895.769	3409
895.891	3496
896.012	3485
896.134	3439
896.255	3405
896.376	3351
896.498	3389
896.619	3439
896.74	3344
896.861	3405
896.982	3690
897.103	3865
897.224	3629
897.345	3511
897.466	3447
897.587	3504
897.708	3606
897.828	3584
897.949	3424
898.07	3348
898.19	3416
898.311	3606
898.431	3481
898.552	3515
898.672	3663
898.792	3580
898.913	3538
899.033	3416
899.153	3340
899.273	3184
899.393	3275
899.513	3336
899.633	3332
899.753	3325
899.873	3310
899.993	3420
900.113	3340
900.232	3409
900.352	3367
900.472	3283
900.591	3180
900.711	3291
900.83	3214
900.95	3409
901.069	3469
901.189	3412
901.308	3157
901.427	3154
901.546	3218
901.665	3310
901.784	3348
901.904	3192
902.023	3173
902.141	3013
902.26	2971
902.379	3127
902.498	3089
902.617	3058
902.735	3180
902.854	3226
902.973	3222
903.091	3077
903.21	3070
903.328	3157
903.446	3154
903.565	3127
903.683	3214
903.801	3169
903.919	3241
904.038	3291
904.156	3161
904.274	3291
904.392	3264
904.51	3291
904.627	3340
904.745	3447
904.863	3511
904.981	3264
905.098	3169
905.216	3226
905.334	3348
905.451	3264
905.569	3287
905.686	3409
905.803	3420
905.921	3279
906.038	3428
906.155	3332
906.272	3291
906.389	3351
906.506	3256
906.623	3226
906.74	3268
906.857	3180
906.974	3275
907.091	3409
907.208	3564
907.324	3466
907.441	3370
907.557	3218
907.674	3230
907.79	3211
907.907	3256
908.023	3405
908.139	3386
908.256	3370
908.372	3359
908.488	3382
908.604	3268
908.72	3214
908.836	3291
908.952	3268
909.068	3325
909.184	3485
909.3	3374
909.415	3523
909.531	3485
909.647	3245
909.762	3245
909.878	3249
909.993	3382
910.108	3336
910.224	3332
910.339	3397
910.454	3321
910.57	3294
910.685	3268
910.8	3618
910.915	3530
911.03	3389
911.145	3294
911.259	3279
911.374	3310
911.489	3233
911.604	3214
911.718	3116
911.833	3138
911.947	3039
912.062	2994
912.176	3161
912.291	3241
912.405	3211
912.519	3428
912.633	3477
912.748	3325
912.862	3298
912.976	3180
913.09	3070
913.204	3161
913.318	3207
913.431	3355
913.545	3313
913.659	3435
913.772	3332
913.886	3233
914	3203
914.113	3367
914.226	3409
914.34	3374
914.453	3207
914.566	3431
914.68	3283
914.793	3298
914.906	3119
915.019	3074
915.132	3039
915.245	3157
915.358	3237
915.47	3226
915.583	3245
915.696	3298
915.809	3409
915.921	3435
916.034	3291
916.146	3253
916.259	3211
916.371	3405
916.483	3397
916.595	3268
916.708	3367
916.82	3329
916.932	3325
917.044	3332
917.156	3393
917.268	3256
917.38	3306
917.491	3291
917.603	3340
917.715	3397
917.826	3450
917.938	3393
918.049	3287
918.161	3477
918.272	3603
918.384	3549
918.495	3492
918.606	3363
918.717	3264
918.828	3382
918.939	3389
919.05	3298
919.161	3321
919.272	3161
919.383	3298
919.494	3504
919.604	3698
919.715	3500
919.826	3393
919.936	3450
920.047	3576
920.157	3534
920.267	3789
920.378	3584
920.488	3549
920.598	3770
920.708	3983
920.818	3842
920.928	3854
921.038	4025
921.148	4002
921.258	3675
921.368	3606
921.477	3564
921.587	3515
921.697	3420
921.806	3580
921.916	3485
922.025	3367
922.134	3332
922.244	3367
922.353	3462
922.462	3253
922.571	3222
922.68	3077
922.789	3089
922.898	3108
923.007	3108
923.116	3195
923.224	3218
923.333	3207
923.442	3100
923.55	3142
923.659	3127
923.767	3207
923.876	3135
923.984	3226
924.092	3100
924.201	3237
924.309	3256
924.417	3230
924.525	3173
924.633	3275
924.741	4158
924.849	3036
924.956	3283
925.064	3119
925.172	3062
925.279	3123
925.387	3222
925.494	3195
925.602	3389
925.709	3359
925.816	3184
925.924	3279
926.031	3393
926.138	3321
926.245	3348
926.352	3222
926.459	3416
926.566	3447
926.673	3336
926.779	3222
926.886	3230
926.993	3135
927.099	3119
927.206	3097
927.312	3157
927.419	3222
927.525	3211
927.631	3298
927.737	3119
927.843	3119
927.95	3005
928.056	3112
928.162	3154
928.267	3237
928.373	3899
928.479	3313
928.585	3066
928.69	3180
928.796	3272
928.901	3154
929.007	3032
929.112	3184
929.218	3192
929.323	3138
929.428	3138
929.533	3302
929.638	3150
929.743	3146
929.848	3306
929.953	3211
930.058	3165
930.163	2994
930.267	3074
930.372	3222
930.477	3070
930.581	3291
930.685	3146
930.79	3066
930.894	3112
930.998	3077
931.103	3272
931.207	3009
931.311	2914
931.415	2944
931.519	2785
931.623	2811
