Data from test_V78500241_246.txt Node
Date: Fri Mar 25 16:16:54 CST 2022
User: usil
Spectrometer: V785-0024
Trigger mode: 0
Integration Time (sec): 4.000000E-1
Scans to average: 1
Nonlinearity correction enabled: false
Boxcar width: 0
Storing dark spectrum: false
XAxis mode: Wavelengths
Number of Pixels in Spectrum: 1024
>>>>>Begin Spectral Data<<<<<
801.071	2906
801.214	2952
801.356	2922
801.499	2876
801.641	2883
801.783	2948
801.926	3017
802.068	3005
802.211	3020
802.353	3093
802.496	2963
802.638	2990
802.78	3051
802.923	3100
803.065	3001
803.208	2918
803.35	2933
803.492	2948
803.635	2937
803.777	2758
803.919	2895
804.061	3211
804.204	2944
804.346	2891
804.488	2891
804.63	2986
804.773	2887
804.915	2906
805.057	3093
805.199	2937
805.341	2975
805.483	3062
805.626	3013
805.768	2952
805.91	3085
806.052	3077
806.194	3013
806.336	3237
806.478	3043
806.62	2960
806.762	3009
806.904	3062
807.046	3203
807.188	3032
807.33	2937
807.472	2979
807.614	2937
807.756	3005
807.898	2929
808.04	2910
808.182	3009
808.324	2918
808.465	2864
808.607	2895
808.749	2819
808.891	2861
809.033	2979
809.174	2990
809.316	2929
809.458	2925
809.6	2796
809.741	2754
809.883	2785
810.025	2838
810.166	2830
810.308	2864
810.45	2876
810.591	2773
810.733	2800
810.875	2815
811.016	2781
811.158	2773
811.299	2823
811.441	2925
811.582	2899
811.724	2815
811.865	2834
812.007	2906
812.148	2853
812.29	2845
812.431	2891
812.573	2982
812.714	2971
812.855	3028
812.997	3051
813.138	3127
813.279	2994
813.421	2990
813.562	2960
813.703	2899
813.845	2876
813.986	2792
814.127	2735
814.268	2807
814.41	2872
814.551	2785
814.692	2868
814.833	2830
814.974	2887
815.115	2982
815.256	2819
815.397	2830
815.539	2845
815.68	2777
815.821	2804
815.962	2960
816.103	2918
816.244	2883
816.385	2853
816.526	2963
816.666	2922
816.807	2746
816.948	2876
817.089	2922
817.23	2849
817.371	2785
817.512	2807
817.653	2807
817.793	2819
817.934	2883
818.075	2967
818.216	2994
818.356	3036
818.497	2842
818.638	2796
818.778	2819
818.919	2781
819.06	2739
819.2	2857
819.341	2807
819.481	2796
819.622	2937
819.762	3100
819.903	3058
820.043	2891
820.184	2918
820.324	2883
820.465	2990
820.605	3051
820.746	3017
820.886	2918
821.026	3123
821.167	3142
821.307	3260
821.447	3249
821.588	3260
821.728	3188
821.868	3203
822.008	3097
822.149	3192
822.289	3218
822.429	3070
822.569	3070
822.709	3184
822.849	3074
822.99	3100
823.13	3161
823.27	3192
823.41	3127
823.55	3157
823.69	3131
823.83	3180
823.97	3112
824.11	2990
824.25	3009
824.389	3047
824.529	3116
824.669	3051
824.809	3203
824.949	3291
825.089	3214
825.228	3169
825.368	3013
825.508	2963
825.648	2952
825.787	3017
825.927	3013
826.067	2986
826.206	2986
826.346	3032
826.485	3093
826.625	3108
826.765	3264
826.904	3214
827.044	3001
827.183	2914
827.323	2883
827.462	3020
827.601	2902
827.741	2941
827.88	2948
828.02	2845
828.159	2994
828.298	3039
828.437	3123
828.577	3005
828.716	3287
828.855	3062
828.994	2922
829.134	2887
829.273	2895
829.412	2872
829.551	2853
829.69	2895
829.829	2979
829.968	3119
830.107	3005
830.246	3013
830.385	2929
830.524	2876
830.663	2815
830.802	2746
830.941	2682
831.08	2648
831.219	2796
831.357	2762
831.496	2956
831.635	2708
831.774	2667
831.913	2648
832.051	2568
832.19	2579
832.329	2708
832.467	2594
832.606	2492
832.744	2552
832.883	2575
833.022	2579
833.16	2674
833.299	2701
833.437	2674
833.576	2667
833.714	2689
833.852	2769
833.991	2754
834.129	2849
834.267	2830
834.406	2781
834.544	2899
834.682	2849
834.821	2872
834.959	3047
835.097	2914
835.235	3047
835.373	2986
835.511	3009
835.65	2986
835.788	2952
835.926	2838
836.064	2849
836.202	2838
836.34	3119
836.478	3157
836.615	3024
836.753	3146
836.891	3230
837.029	3150
837.167	3142
837.305	3066
837.443	3005
837.58	2941
837.718	3176
837.856	3100
837.993	3039
838.131	3108
838.269	3112
838.406	3077
838.544	3077
838.681	2960
838.819	2891
838.956	2834
839.094	2811
839.231	2925
839.369	3005
839.506	3378
839.643	3188
839.781	2960
839.918	3005
840.055	3043
840.193	3055
840.33	3066
840.467	3089
840.604	3154
840.742	3378
840.879	3081
841.016	3020
841.153	3127
841.29	3351
841.427	3298
841.564	3268
841.701	3302
841.838	3275
841.975	3192
842.112	3199
842.249	3036
842.385	3036
842.522	3298
842.659	3085
842.796	3062
842.933	3146
843.069	3036
843.206	3020
843.343	3154
843.479	3108
843.616	3169
843.752	2906
843.889	2849
844.025	3074
844.162	2853
844.298	3085
844.435	2891
844.571	2895
844.708	3077
844.844	3184
844.98	3188
845.117	3214
845.253	3074
845.389	3020
845.525	3097
845.661	3108
845.798	3032
845.934	3116
846.07	3051
846.206	3230
846.342	3336
846.478	3241
846.614	3070
846.75	3074
846.886	3051
847.022	3241
847.158	3161
847.294	3233
847.429	3253
847.565	3192
847.701	3466
847.837	2990
847.972	3005
848.108	3154
848.244	3135
848.379	3001
848.515	2925
848.65	2941
848.786	2960
848.921	2994
849.057	3127
849.192	3142
849.328	3074
849.463	3150
849.598	3058
849.734	3024
849.869	2948
850.004	2914
850.14	2960
850.275	2899
850.41	2845
850.545	2883
850.68	2899
850.815	2952
850.95	2960
851.085	3192
851.22	3116
851.355	3036
851.49	2982
851.625	2948
851.76	3009
851.895	2925
852.03	2914
852.165	3055
852.299	3108
852.434	3203
852.569	3119
852.703	3165
852.838	3233
852.973	3344
853.107	3340
853.242	3135
853.376	3081
853.511	3001
853.645	3055
853.78	3226
853.914	3127
854.048	3165
854.183	3081
854.317	3135
854.451	3313
854.585	3138
854.72	3070
854.854	3241
854.988	3070
855.122	3062
855.256	2952
855.39	3116
855.524	3245
855.658	3188
855.792	3176
855.926	3142
856.06	3230
856.194	3275
856.327	3173
856.461	3077
856.595	3085
856.729	3104
856.862	3222
856.996	3211
857.13	3226
857.263	3218
857.397	3291
857.53	3108
857.664	3203
857.797	3237
857.931	3233
858.064	3173
858.197	3256
858.331	3131
858.464	3055
858.597	2990
858.731	3131
858.864	3108
858.997	3104
859.13	3150
859.263	3203
859.396	3260
859.529	3077
859.662	3077
859.795	3020
859.928	3146
860.061	3264
860.194	3313
860.327	3150
860.46	3093
860.592	3268
860.725	3253
860.858	3279
860.99	3142
861.123	3058
861.256	3077
861.388	3116
861.521	3850
861.653	2979
861.786	2986
861.918	2982
862.05	3081
862.183	3100
862.315	3165
862.447	3154
862.58	3108
862.712	2948
862.844	2872
862.976	3024
863.108	3009
863.24	3329
863.372	2872
863.504	2941
863.636	2952
863.768	3013
863.9	2982
864.032	2906
864.164	2960
864.296	3013
864.428	3051
864.559	3097
864.691	3062
864.823	3062
864.954	3036
865.086	3028
865.217	2990
865.349	2941
865.48	2956
865.612	3032
865.743	3157
865.875	3001
866.006	2922
866.137	2975
866.269	2952
866.4	2929
866.531	2910
866.662	2918
866.793	2891
866.924	2868
867.055	2948
867.186	2922
867.317	2857
867.448	2830
867.579	2861
867.71	2842
867.841	2853
867.972	2876
868.103	2887
868.233	2876
868.364	2910
868.495	2887
868.625	3085
868.756	3169
868.886	2952
869.017	3028
869.147	3203
869.278	3146
869.408	3032
869.539	3051
869.669	3108
869.799	3020
869.929	3119
870.06	3066
870.19	3344
870.32	3279
870.45	3321
870.58	3336
870.71	3389
870.84	3439
870.97	3291
871.1	3195
871.23	3515
871.36	3481
871.489	3336
871.619	3378
871.749	3405
871.879	3424
872.008	3488
872.138	3389
872.267	3306
872.397	3176
872.526	3066
872.656	3039
872.785	3051
872.915	3218
873.044	3317
873.173	3222
873.303	3226
873.432	3233
873.561	3249
873.69	3161
873.819	3150
873.948	3184
874.077	3112
874.206	3024
874.335	3081
874.464	3184
874.593	3329
874.722	3256
874.851	3439
874.979	3389
875.108	3340
875.237	3165
875.365	3161
875.494	3207
875.623	3233
875.751	3089
875.88	3089
876.008	3184
876.136	3218
876.265	3367
876.393	3530
876.521	3435
876.65	3401
876.778	3336
876.906	3279
877.034	3226
877.162	3180
877.29	3184
877.418	3249
877.546	3237
877.674	3249
877.802	3222
877.93	3195
878.058	3157
878.185	3074
878.313	3211
878.441	3184
878.568	3100
878.696	3135
878.824	3222
878.951	3279
879.079	3431
879.206	3610
879.333	3439
879.461	3291
879.588	3325
879.715	3515
879.842	3591
879.97	3355
880.097	3161
880.224	3150
880.351	3157
880.478	3230
880.605	3188
880.732	3192
880.859	3496
880.986	3302
881.112	3321
881.239	3192
881.366	3093
881.493	3039
881.619	3017
881.746	3081
881.872	3104
881.999	3077
882.125	3127
882.252	3218
882.378	3256
882.505	3424
882.631	3310
882.757	3154
882.883	3230
883.01	3207
883.136	3157
883.262	3108
883.388	3100
883.514	3302
883.64	3340
883.766	3317
883.892	3173
884.018	3249
884.143	3374
884.269	3526
884.395	3184
884.52	3176
884.646	3165
884.772	3123
884.897	3085
885.023	3184
885.148	3340
885.274	3405
885.399	3348
885.524	3256
885.65	3264
885.775	3291
885.9	3302
886.025	3431
886.15	3382
886.275	3256
886.4	3237
886.525	3313
886.65	3245
886.775	3294
886.9	3545
887.025	3656
887.149	3428
887.274	3233
887.399	3165
887.523	3237
887.648	3241
887.773	3180
887.897	3378
888.021	3401
888.146	3344
888.27	3428
888.395	3496
888.519	3435
888.643	3454
888.767	3492
888.891	3298
889.015	3256
889.139	3306
889.263	3264
889.387	3431
889.511	3504
889.635	3462
889.759	3321
889.883	3336
890.006	3420
890.13	3519
890.254	3264
890.377	3359
890.501	3245
890.624	3195
890.748	3359
890.871	3188
890.995	3146
891.118	3123
891.241	3256
891.364	3264
891.488	3355
891.611	3233
891.734	3283
891.857	3370
891.98	3310
892.103	3370
892.226	3332
892.349	3291
892.471	3192
892.594	3264
892.717	3329
892.839	3336
892.962	3329
893.085	3386
893.207	3298
893.33	3203
893.452	3226
893.575	3435
893.697	3317
893.819	3538
893.941	3553
894.064	3477
894.186	3268
894.308	3310
894.43	3454
894.552	3599
894.674	3504
894.796	3329
894.918	3363
895.04	3359
895.161	3435
895.283	3447
895.405	3329
895.526	3397
895.648	3469
895.769	3492
895.891	3511
896.012	3504
896.134	3519
896.255	3469
896.376	3431
896.498	3393
896.619	3485
896.74	3416
896.861	3439
896.982	3713
897.103	3861
897.224	3644
897.345	3549
897.466	3519
897.587	3549
897.708	3652
897.828	3618
897.949	3477
898.07	3363
898.19	3420
898.311	3671
898.431	3454
898.552	3545
898.672	3618
898.792	3614
898.913	3549
899.033	3412
899.153	3336
899.273	3264
899.393	3325
899.513	3329
899.633	3348
899.753	3389
899.873	3412
899.993	3405
900.113	3382
900.232	3420
900.352	3401
900.472	3332
900.591	3272
900.711	3344
900.83	3294
900.95	3416
901.069	3534
901.189	3397
901.308	3184
901.427	3184
901.546	3226
901.665	3310
901.784	3397
901.904	3233
902.023	3184
902.141	3047
902.26	3039
902.379	3188
902.498	3142
902.617	3047
902.735	3245
902.854	3253
902.973	3218
903.091	3097
903.21	3074
903.328	3207
903.446	3138
903.565	3146
903.683	3249
903.801	3192
903.919	3256
904.038	3287
904.156	3195
904.274	3340
904.392	3268
904.51	3370
904.627	3336
904.745	3492
904.863	3549
904.981	3294
905.098	3211
905.216	3264
905.334	3298
905.451	3355
905.569	3321
905.686	3454
905.803	3477
905.921	3298
906.038	3443
906.155	3363
906.272	3306
906.389	3412
906.506	3256
906.623	3298
906.74	3332
906.857	3241
906.974	3310
907.091	3504
907.208	3622
907.324	3496
907.441	3397
907.557	3241
907.674	3279
907.79	3291
907.907	3313
908.023	3416
908.139	3409
908.256	3389
908.372	3439
908.488	3401
908.604	3291
908.72	3245
908.836	3329
908.952	3317
909.068	3336
909.184	3507
909.3	3397
909.415	3526
909.531	3530
909.647	3344
909.762	3329
909.878	3298
909.993	3405
910.108	3363
910.224	3355
910.339	3424
910.454	3389
910.57	3348
910.685	3291
910.8	3641
910.915	3576
911.03	3447
911.145	3348
911.259	3332
911.374	3325
911.489	3279
911.604	3237
911.718	3131
911.833	3169
911.947	3043
912.062	3062
912.176	3173
912.291	3195
912.405	3245
912.519	3462
912.633	3485
912.748	3389
912.862	3291
912.976	3214
913.09	3089
913.204	3161
913.318	3287
913.431	3386
913.545	3367
913.659	3447
913.772	3370
913.886	3230
914	3241
914.113	3416
914.226	3443
914.34	3405
914.453	3222
914.566	3447
914.68	3287
914.793	3340
914.906	3176
915.019	3184
915.132	3097
915.245	3233
915.358	3233
915.47	3294
915.583	3291
915.696	3332
915.809	3481
915.921	3450
916.034	3283
916.146	3253
916.259	3268
916.371	3454
916.483	3378
916.595	3306
916.708	3367
916.82	3378
916.932	3420
917.044	3405
917.156	3382
917.268	3313
917.38	3336
917.491	3340
917.603	3424
917.715	3515
917.826	3462
917.938	3412
918.049	3272
918.161	3443
918.272	3622
918.384	3606
918.495	3496
918.606	3401
918.717	3310
918.828	3393
918.939	3416
919.05	3313
919.161	3435
919.272	3268
919.383	3329
919.494	3504
919.604	3690
919.715	3500
919.826	3447
919.936	3469
920.047	3618
920.157	3603
920.267	3774
920.378	3644
920.488	3580
920.598	3808
920.708	4002
920.818	3884
920.928	3846
921.038	4040
921.148	4021
921.258	3732
921.368	3698
921.477	3663
921.587	3603
921.697	3538
921.806	3663
921.916	3538
922.025	3389
922.134	3393
922.244	3340
922.353	3500
922.462	3302
922.571	3226
922.68	3157
922.789	3062
922.898	3192
923.007	3161
923.116	3222
923.224	3218
923.333	3230
923.442	3127
923.55	3119
923.659	3199
923.767	3249
923.876	3150
923.984	3275
924.092	3104
924.201	3214
924.309	3230
924.417	3260
924.525	3192
924.633	3294
924.741	4223
924.849	3039
924.956	3321
925.064	3161
925.172	3074
925.279	3180
925.387	3230
925.494	3253
925.602	3393
925.709	3389
925.816	3249
925.924	3332
926.031	3428
926.138	3351
926.245	3393
926.352	3291
926.459	3462
926.566	3504
926.673	3363
926.779	3279
926.886	3298
926.993	3195
927.099	3161
927.206	3123
927.312	3116
927.419	3256
927.525	3260
927.631	3329
927.737	3146
927.843	3157
927.95	3039
928.056	3180
928.162	3173
928.267	3321
928.373	3884
928.479	3348
928.585	3100
928.69	3237
928.796	3294
928.901	3211
929.007	3085
929.112	3230
929.218	3253
929.323	3165
929.428	3169
929.533	3348
929.638	3161
929.743	3214
929.848	3291
929.953	3256
930.058	3173
930.163	3036
930.267	3055
930.372	3233
930.477	3043
930.581	3336
930.685	3180
930.79	3135
930.894	3131
930.998	3081
931.103	3329
931.207	2990
931.311	2960
931.415	2922
931.519	2819
931.623	2845
