Data from test_V78500241_1611.txt Node
Date: Fri Mar 25 16:26:21 CST 2022
User: usil
Spectrometer: V785-0024
Trigger mode: 0
Integration Time (sec): 4.000000E-1
Scans to average: 1
Nonlinearity correction enabled: false
Boxcar width: 0
Storing dark spectrum: false
XAxis mode: Wavelengths
Number of Pixels in Spectrum: 1024
>>>>>Begin Spectral Data<<<<<
801.071	2925
801.214	2952
801.356	2861
801.499	2933
801.641	2853
801.783	2906
801.926	3058
802.068	2952
802.211	3005
802.353	3036
802.496	2979
802.638	3020
802.78	3047
802.923	3039
803.065	2994
803.208	2876
803.35	2914
803.492	2922
803.635	2956
803.777	2754
803.919	2883
804.061	3218
804.204	2937
804.346	2948
804.488	2872
804.63	2941
804.773	2872
804.915	2944
805.057	3093
805.199	2918
805.341	2967
805.483	3032
805.626	3001
805.768	2929
805.91	3066
806.052	3138
806.194	3028
806.336	3245
806.478	2998
806.62	2944
806.762	2948
806.904	3093
807.046	3173
807.188	3020
807.33	2906
807.472	3009
807.614	2925
807.756	2994
807.898	2944
808.04	2861
808.182	2941
808.324	2933
808.465	2895
808.607	2906
808.749	2804
808.891	2830
809.033	2971
809.174	2952
809.316	2872
809.458	2864
809.6	2762
809.741	2758
809.883	2758
810.025	2834
810.166	2830
810.308	2834
810.45	2864
810.591	2781
810.733	2788
810.875	2872
811.016	2781
811.158	2754
811.299	2785
811.441	2937
811.582	2906
811.724	2815
811.865	2815
812.007	2937
812.148	2876
812.29	2861
812.431	2883
812.573	2922
812.714	2933
812.855	3043
812.997	3077
813.138	3104
813.279	3028
813.421	2979
813.562	2948
813.703	2872
813.845	2910
813.986	2792
814.127	2735
814.268	2807
814.41	2823
814.551	2823
814.692	2826
814.833	2792
814.974	2868
815.115	2960
815.256	2826
815.397	2781
815.539	2891
815.68	2766
815.821	2777
815.962	2922
816.103	2952
816.244	2861
816.385	2864
816.526	2960
816.666	2937
816.807	2754
816.948	2880
817.089	2899
817.23	2838
817.371	2777
817.512	2807
817.653	2842
817.793	2830
817.934	2895
818.075	2971
818.216	2994
818.356	3047
818.497	2922
818.638	2781
818.778	2777
818.919	2773
819.06	2758
819.2	2899
819.341	2830
819.481	2807
819.622	2933
819.762	3100
819.903	3039
820.043	2910
820.184	2910
820.324	2906
820.465	3013
820.605	3020
820.746	3009
820.886	2929
821.026	3116
821.167	3184
821.307	3272
821.447	3256
821.588	3226
821.728	3180
821.868	3184
822.008	3058
822.149	3207
822.289	3214
822.429	3081
822.569	3077
822.709	3192
822.849	2994
822.99	3051
823.13	3195
823.27	3176
823.41	3089
823.55	3184
823.69	3146
823.83	3195
823.97	3081
824.11	3032
824.25	2990
824.389	3074
824.529	3074
824.669	3062
824.809	3165
824.949	3264
825.089	3184
825.228	3154
825.368	3005
825.508	2933
825.648	2933
825.787	2998
825.927	3017
826.067	2982
826.206	2952
826.346	2998
826.485	3070
826.625	3100
826.765	3249
826.904	3203
827.044	3009
827.183	2937
827.323	2872
827.462	2963
827.601	2929
827.741	2941
827.88	2948
828.02	2842
828.159	2982
828.298	3062
828.437	3104
828.577	3032
828.716	3237
828.855	3074
828.994	2906
829.134	2887
829.273	2868
829.412	2864
829.551	2853
829.69	2887
829.829	2982
829.968	3119
830.107	3013
830.246	3017
830.385	2895
830.524	2906
830.663	2796
830.802	2735
830.941	2632
831.08	2644
831.219	2800
831.357	2766
831.496	2944
831.635	2705
831.774	2621
831.913	2667
832.051	2541
832.19	2587
832.329	2686
832.467	2522
832.606	2492
832.744	2587
832.883	2590
833.022	2594
833.16	2651
833.299	2678
833.437	2693
833.576	2701
833.714	2727
833.852	2716
833.991	2746
834.129	2845
834.267	2815
834.406	2800
834.544	2845
834.682	2906
834.821	2861
834.959	3070
835.097	2899
835.235	3043
835.373	3036
835.511	3032
835.65	2929
835.788	2971
835.926	2838
836.064	2785
836.202	2845
836.34	3085
836.478	3142
836.615	3047
836.753	3093
836.891	3211
837.029	3135
837.167	3108
837.305	3051
837.443	3055
837.58	2986
837.718	3138
837.856	3074
837.993	3047
838.131	3127
838.269	3108
838.406	3100
838.544	3070
838.681	2948
838.819	2929
838.956	2796
839.094	2838
839.231	2933
839.369	3024
839.506	3332
839.643	3184
839.781	3005
839.918	2963
840.055	3074
840.193	3020
840.33	3112
840.467	3066
840.604	3142
840.742	3363
840.879	3055
841.016	3036
841.153	3142
841.29	3325
841.427	3283
841.564	3256
841.701	3298
841.838	3184
841.975	3176
842.112	3188
842.249	3081
842.385	3024
842.522	3230
842.659	3093
842.796	3055
842.933	3074
843.069	3020
843.206	3020
843.343	3180
843.479	3131
843.616	3161
843.752	2895
843.889	2864
844.025	3066
844.162	2861
844.298	3039
844.435	2910
844.571	2899
844.708	3081
844.844	3173
844.98	3233
845.117	3192
845.253	3039
845.389	3020
845.525	3085
845.661	3135
845.798	3055
845.934	3097
846.07	3055
846.206	3211
846.342	3279
846.478	3237
846.614	3066
846.75	3062
846.886	3017
847.022	3230
847.158	3135
847.294	3180
847.429	3260
847.565	3199
847.701	3458
847.837	3055
847.972	2994
848.108	3203
848.244	3116
848.379	2998
848.515	2952
848.65	2925
848.786	2967
848.921	2952
849.057	3116
849.192	3142
849.328	3028
849.463	3135
849.598	3058
849.734	3001
849.869	2982
850.004	2914
850.14	2952
850.275	2895
850.41	2849
850.545	2910
850.68	2899
850.815	2937
850.95	2944
851.085	3180
851.22	3081
851.355	2990
851.49	2986
851.625	2982
851.76	3020
851.895	2910
852.03	2925
852.165	3017
852.299	3093
852.434	3180
852.569	3104
852.703	3176
852.838	3226
852.973	3306
853.107	3313
853.242	3157
853.376	3116
853.511	2963
853.645	3017
853.78	3233
853.914	3123
854.048	3116
854.183	3066
854.317	3157
854.451	3283
854.585	3104
854.72	3116
854.854	3169
854.988	3036
855.122	3089
855.256	2979
855.39	3142
855.524	3226
855.658	3214
855.792	3104
855.926	3192
856.06	3233
856.194	3260
856.327	3135
856.461	3055
856.595	3077
856.729	3131
856.862	3226
856.996	3112
857.13	3241
857.263	3218
857.397	3253
857.53	3097
857.664	3218
857.797	3241
857.931	3256
858.064	3123
858.197	3207
858.331	3108
858.464	3085
858.597	2990
858.731	3119
858.864	3100
858.997	3085
859.13	3161
859.263	3173
859.396	3169
859.529	3112
859.662	3055
859.795	3058
859.928	3123
860.061	3249
860.194	3253
860.327	3142
860.46	3097
860.592	3233
860.725	3268
860.858	3237
860.99	3135
861.123	3062
861.256	3024
861.388	3131
861.521	3880
861.653	2994
861.786	2960
861.918	3001
862.05	3104
862.183	3100
862.315	3127
862.447	3203
862.58	3085
862.712	2918
862.844	2895
862.976	3055
863.108	3017
863.24	3329
863.372	2861
863.504	2990
863.636	2944
863.768	3024
863.9	2967
864.032	2902
864.164	2899
864.296	2960
864.428	3100
864.559	3089
864.691	3112
864.823	3070
864.954	3058
865.086	3017
865.217	2982
865.349	2948
865.48	2979
865.612	3017
865.743	3169
865.875	3020
866.006	2937
866.137	2979
866.269	2948
866.4	2918
866.531	2895
866.662	2887
866.793	2895
866.924	2948
867.055	2960
867.186	2929
867.317	2891
867.448	2811
867.579	2868
867.71	2842
867.841	2815
867.972	2895
868.103	2902
868.233	2887
868.364	2868
868.495	2910
868.625	3020
868.756	3150
868.886	2990
869.017	3028
869.147	3169
869.278	3142
869.408	3043
869.539	3013
869.669	3070
869.799	3066
869.929	3123
870.06	3100
870.19	3313
870.32	3283
870.45	3256
870.58	3355
870.71	3435
870.84	3458
870.97	3256
871.1	3237
871.23	3473
871.36	3435
871.489	3351
871.619	3401
871.749	3405
871.879	3466
872.008	3454
872.138	3317
872.267	3268
872.397	3135
872.526	3085
872.656	3009
872.785	3108
872.915	3249
873.044	3294
873.173	3222
873.303	3275
873.432	3253
873.561	3222
873.69	3135
873.819	3150
873.948	3161
874.077	3104
874.206	3070
874.335	3081
874.464	3203
874.593	3310
874.722	3237
874.851	3397
874.979	3298
875.108	3344
875.237	3199
875.365	3165
875.494	3146
875.623	3260
875.751	3089
875.88	3089
876.008	3226
876.136	3214
876.265	3382
876.393	3530
876.521	3401
876.65	3424
876.778	3370
876.906	3264
877.034	3222
877.162	3218
877.29	3192
877.418	3253
877.546	3233
877.674	3249
877.802	3253
877.93	3199
878.058	3116
878.185	3100
878.313	3214
878.441	3199
878.568	3066
878.696	3146
878.824	3268
878.951	3325
879.079	3416
879.206	3625
879.333	3447
879.461	3302
879.588	3344
879.715	3447
879.842	3587
879.97	3367
880.097	3165
880.224	3138
880.351	3157
880.478	3199
880.605	3180
880.732	3180
880.859	3492
880.986	3287
881.112	3329
881.239	3188
881.366	3131
881.493	3017
881.619	2998
881.746	3047
881.872	3119
881.999	3100
882.125	3165
882.252	3260
882.378	3291
882.505	3412
882.631	3302
882.757	3131
882.883	3207
883.01	3207
883.136	3138
883.262	3112
883.388	3123
883.514	3298
883.64	3351
883.766	3332
883.892	3207
884.018	3203
884.143	3386
884.269	3511
884.395	3173
884.52	3131
884.646	3180
884.772	3127
884.897	3104
885.023	3180
885.148	3321
885.274	3431
885.399	3340
885.524	3241
885.65	3256
885.775	3317
885.9	3287
886.025	3431
886.15	3389
886.275	3329
886.4	3245
886.525	3302
886.65	3256
886.775	3256
886.9	3545
887.025	3625
887.149	3439
887.274	3226
887.399	3203
887.523	3222
887.648	3211
887.773	3222
887.897	3363
888.021	3397
888.146	3287
888.27	3439
888.395	3530
888.519	3450
888.643	3450
888.767	3431
888.891	3298
889.015	3237
889.139	3291
889.263	3226
889.387	3416
889.511	3523
889.635	3409
889.759	3283
889.883	3275
890.006	3374
890.13	3496
890.254	3275
890.377	3348
890.501	3207
890.624	3165
890.748	3294
890.871	3157
890.995	3070
891.118	3070
891.241	3184
891.364	3260
891.488	3291
891.611	3176
891.734	3207
891.857	3298
891.98	3241
892.103	3321
892.226	3218
892.349	3199
892.471	3112
892.594	3214
892.717	3237
892.839	3264
892.962	3283
893.085	3332
893.207	3302
893.33	3142
893.452	3207
893.575	3355
893.697	3264
893.819	3481
893.941	3507
894.064	3447
894.186	3268
894.308	3249
894.43	3416
894.552	3507
894.674	3439
894.796	3264
894.918	3283
895.04	3321
895.161	3389
895.283	3359
895.405	3302
895.526	3325
895.648	3454
895.769	3401
895.891	3439
896.012	3405
896.134	3462
896.255	3458
896.376	3382
896.498	3359
896.619	3401
896.74	3348
896.861	3416
896.982	3671
897.103	3819
897.224	3584
897.345	3485
897.466	3416
897.587	3477
897.708	3652
897.828	3549
897.949	3401
898.07	3325
898.19	3401
898.311	3584
898.431	3420
898.552	3511
898.672	3580
898.792	3599
898.913	3545
899.033	3401
899.153	3310
899.273	3211
899.393	3302
899.513	3279
899.633	3325
899.753	3363
899.873	3313
899.993	3348
900.113	3321
900.232	3409
900.352	3340
900.472	3294
900.591	3214
900.711	3272
900.83	3237
900.95	3401
901.069	3473
901.189	3363
901.308	3173
901.427	3100
901.546	3199
901.665	3291
901.784	3321
901.904	3253
902.023	3127
902.141	3047
902.26	2986
902.379	3142
902.498	3047
902.617	3066
902.735	3211
902.854	3249
902.973	3192
903.091	3066
903.21	3066
903.328	3127
903.446	3142
903.565	3070
903.683	3207
903.801	3055
903.919	3264
904.038	3302
904.156	3169
904.274	3294
904.392	3272
904.51	3294
904.627	3332
904.745	3416
904.863	3496
904.981	3287
905.098	3169
905.216	3211
905.334	3272
905.451	3310
905.569	3275
905.686	3428
905.803	3454
905.921	3302
906.038	3409
906.155	3367
906.272	3279
906.389	3340
906.506	3249
906.623	3230
906.74	3306
906.857	3188
906.974	3275
907.091	3466
907.208	3545
907.324	3485
907.441	3355
907.557	3245
907.674	3241
907.79	3192
907.907	3272
908.023	3367
908.139	3344
908.256	3355
908.372	3374
908.488	3332
908.604	3245
908.72	3241
908.836	3253
908.952	3275
909.068	3359
909.184	3481
909.3	3393
909.415	3469
909.531	3492
909.647	3298
909.762	3298
909.878	3272
909.993	3363
910.108	3348
910.224	3348
910.339	3409
910.454	3310
910.57	3283
910.685	3226
910.8	3580
910.915	3526
911.03	3405
911.145	3275
911.259	3272
911.374	3336
911.489	3241
911.604	3218
911.718	3074
911.833	3146
911.947	3074
912.062	2986
912.176	3180
912.291	3222
912.405	3211
912.519	3409
912.633	3439
912.748	3344
912.862	3203
912.976	3154
913.09	3085
913.204	3116
913.318	3230
913.431	3344
913.545	3329
913.659	3409
913.772	3340
913.886	3192
914	3161
914.113	3351
914.226	3435
914.34	3386
914.453	3203
914.566	3416
914.68	3275
914.793	3256
914.906	3180
915.019	3100
915.132	3097
915.245	3199
915.358	3192
915.47	3218
915.583	3264
915.696	3313
915.809	3439
915.921	3409
916.034	3256
916.146	3237
916.259	3222
916.371	3389
916.483	3382
916.595	3306
916.708	3321
916.82	3317
916.932	3344
917.044	3363
917.156	3340
917.268	3264
917.38	3310
917.491	3287
917.603	3359
917.715	3450
917.826	3450
917.938	3348
918.049	3302
918.161	3431
918.272	3580
918.384	3587
918.495	3488
918.606	3351
918.717	3287
918.828	3378
918.939	3389
919.05	3321
919.161	3355
919.272	3226
919.383	3268
919.494	3519
919.604	3720
919.715	3477
919.826	3420
919.936	3439
920.047	3614
920.157	3576
920.267	3778
920.378	3587
920.488	3549
920.598	3781
920.708	3968
920.818	3835
920.928	3846
921.038	4055
921.148	4002
921.258	3671
921.368	3656
921.477	3561
921.587	3545
921.697	3485
921.806	3614
921.916	3553
922.025	3359
922.134	3325
922.244	3306
922.353	3428
922.462	3249
922.571	3222
922.68	3077
922.789	3104
922.898	3135
923.007	3089
923.116	3222
923.224	3169
923.333	3199
923.442	3100
923.55	3085
923.659	3131
923.767	3222
923.876	3150
923.984	3233
924.092	3100
924.201	3195
924.309	3241
924.417	3249
924.525	3203
924.633	3214
924.741	4219
924.849	3077
924.956	3253
925.064	3131
925.172	3036
925.279	3062
925.387	3199
925.494	3195
925.602	3359
925.709	3355
925.816	3199
925.924	3287
926.031	3363
926.138	3336
926.245	3412
926.352	3218
926.459	3386
926.566	3481
926.673	3348
926.779	3226
926.886	3268
926.993	3192
927.099	3089
927.206	3100
927.312	3142
927.419	3207
927.525	3218
927.631	3279
927.737	3138
927.843	3104
927.95	3020
928.056	3108
928.162	3188
928.267	3260
928.373	3888
928.479	3325
928.585	3081
928.69	3233
928.796	3272
928.901	3169
929.007	3055
929.112	3195
929.218	3192
929.323	3154
929.428	3138
929.533	3367
929.638	3146
929.743	3146
929.848	3237
929.953	3195
930.058	3146
930.163	2982
930.267	3081
930.372	3184
930.477	3001
930.581	3294
930.685	3203
930.79	3085
930.894	3097
930.998	3077
931.103	3268
931.207	2944
931.311	2941
931.415	2899
931.519	2796
931.623	2788
