Data from test_V78500241_1197.txt Node
Date: Fri Mar 25 16:23:29 CST 2022
User: usil
Spectrometer: V785-0024
Trigger mode: 0
Integration Time (sec): 4.000000E-1
Scans to average: 1
Nonlinearity correction enabled: false
Boxcar width: 0
Storing dark spectrum: false
XAxis mode: Wavelengths
Number of Pixels in Spectrum: 1024
>>>>>Begin Spectral Data<<<<<
801.071	2941
801.214	2922
801.356	2887
801.499	2891
801.641	2902
801.783	2948
801.926	3074
802.068	3009
802.211	3028
802.353	3058
802.496	2948
802.638	3024
802.78	3093
802.923	3112
803.065	3024
803.208	2910
803.35	2899
803.492	2922
803.635	2944
803.777	2800
803.919	2891
804.061	3226
804.204	2952
804.346	2895
804.488	2861
804.63	3028
804.773	2864
804.915	2944
805.057	3108
805.199	2937
805.341	2967
805.483	3017
805.626	2986
805.768	2956
805.91	3100
806.052	3123
806.194	3024
806.336	3256
806.478	3055
806.62	2937
806.762	2990
806.904	3119
807.046	3161
807.188	2971
807.33	2895
807.472	2975
807.614	2914
807.756	3009
807.898	2899
808.04	2914
808.182	2967
808.324	2971
808.465	2944
808.607	2891
808.749	2819
808.891	2842
809.033	2975
809.174	2990
809.316	2853
809.458	2895
809.6	2762
809.741	2804
809.883	2834
810.025	2872
810.166	2864
810.308	2823
810.45	2861
810.591	2762
810.733	2773
810.875	2826
811.016	2807
811.158	2815
811.299	2796
811.441	2952
811.582	2914
811.724	2842
811.865	2823
812.007	2906
812.148	2842
812.29	2880
812.431	2914
812.573	2948
812.714	2963
812.855	3108
812.997	3066
813.138	3119
813.279	3020
813.421	2979
813.562	2982
813.703	2880
813.845	2891
813.986	2731
814.127	2720
814.268	2838
814.41	2819
814.551	2815
814.692	2845
814.833	2811
814.974	2872
815.115	2960
815.256	2842
815.397	2807
815.539	2891
815.68	2800
815.821	2796
815.962	2937
816.103	2941
816.244	2887
816.385	2876
816.526	2975
816.666	2902
816.807	2754
816.948	2883
817.089	2895
817.23	2826
817.371	2785
817.512	2777
817.653	2853
817.793	2849
817.934	2929
818.075	2948
818.216	2986
818.356	3017
818.497	2906
818.638	2754
818.778	2811
818.919	2777
819.06	2773
819.2	2830
819.341	2842
819.481	2830
819.622	2925
819.762	3108
819.903	3051
820.043	2929
820.184	2899
820.324	2895
820.465	2979
820.605	3013
820.746	2986
820.886	2914
821.026	3104
821.167	3150
821.307	3237
821.447	3268
821.588	3207
821.728	3161
821.868	3222
822.008	3077
822.149	3218
822.289	3253
822.429	3066
822.569	3077
822.709	3195
822.849	3017
822.99	3104
823.13	3138
823.27	3195
823.41	3138
823.55	3150
823.69	3173
823.83	3199
823.97	3055
824.11	2975
824.25	2998
824.389	3070
824.529	3093
824.669	3062
824.809	3207
824.949	3253
825.089	3218
825.228	3165
825.368	2998
825.508	2990
825.648	3001
825.787	3001
825.927	2971
826.067	2975
826.206	2990
826.346	3074
826.485	3085
826.625	3104
826.765	3287
826.904	3214
827.044	3028
827.183	2941
827.323	2956
827.462	3017
827.601	2899
827.741	2937
827.88	2982
828.02	2883
828.159	2990
828.298	3089
828.437	3138
828.577	3055
828.716	3249
828.855	3104
828.994	2937
829.134	2960
829.273	2922
829.412	2906
829.551	2914
829.69	2956
829.829	3043
829.968	3138
830.107	3051
830.246	3062
830.385	2948
830.524	2922
830.663	2861
830.802	2785
830.941	2697
831.08	2678
831.219	2800
831.357	2785
831.496	2975
831.635	2766
831.774	2708
831.913	2720
832.051	2583
832.19	2632
832.329	2762
832.467	2545
832.606	2530
832.744	2617
832.883	2606
833.022	2602
833.16	2678
833.299	2712
833.437	2720
833.576	2727
833.714	2727
833.852	2769
833.991	2781
834.129	2876
834.267	2872
834.406	2845
834.544	2902
834.682	2922
834.821	2925
834.959	3116
835.097	2891
835.235	3112
835.373	3055
835.511	3058
835.65	3001
835.788	2986
835.926	2861
836.064	2880
836.202	2861
836.34	3104
836.478	3154
836.615	3085
836.753	3173
836.891	3245
837.029	3199
837.167	3142
837.305	3093
837.443	3062
837.58	2975
837.718	3176
837.856	3074
837.993	3062
838.131	3157
838.269	3146
838.406	3119
838.544	3135
838.681	2956
838.819	2971
838.956	2823
839.094	2868
839.231	2944
839.369	3058
839.506	3393
839.643	3245
839.781	3028
839.918	2998
840.055	3085
840.193	3070
840.33	3097
840.467	3093
840.604	3188
840.742	3450
840.879	3043
841.016	3062
841.153	3108
841.29	3317
841.427	3329
841.564	3279
841.701	3344
841.838	3245
841.975	3195
842.112	3237
842.249	3131
842.385	3093
842.522	3264
842.659	3146
842.796	3074
842.933	3154
843.069	3074
843.206	3062
843.343	3207
843.479	3127
843.616	3184
843.752	2941
843.889	2914
844.025	3127
844.162	2914
844.298	3081
844.435	2979
844.571	2937
844.708	3104
844.844	3230
844.98	3279
845.117	3211
845.253	3051
845.389	3009
845.525	3142
845.661	3081
845.798	3066
845.934	3119
846.07	3081
846.206	3241
846.342	3344
846.478	3245
846.614	3150
846.75	3085
846.886	3066
847.022	3260
847.158	3127
847.294	3241
847.429	3279
847.565	3249
847.701	3530
847.837	3062
847.972	2994
848.108	3192
848.244	3150
848.379	3017
848.515	2979
848.65	2971
848.786	2971
848.921	3055
849.057	3150
849.192	3184
849.328	3070
849.463	3123
849.598	3097
849.734	3074
849.869	2956
850.004	2967
850.14	2998
850.275	2933
850.41	2853
850.545	2922
850.68	2952
850.815	3039
850.95	3017
851.085	3218
851.22	3131
851.355	3062
851.49	3020
851.625	3036
851.76	3055
851.895	2979
852.03	2925
852.165	3077
852.299	3161
852.434	3203
852.569	3176
852.703	3188
852.838	3264
852.973	3359
853.107	3367
853.242	3199
853.376	3070
853.511	2990
853.645	3093
853.78	3283
853.914	3154
854.048	3127
854.183	3100
854.317	3176
854.451	3298
854.585	3165
854.72	3112
854.854	3256
854.988	3093
855.122	3112
855.256	2994
855.39	3184
855.524	3264
855.658	3192
855.792	3207
855.926	3184
856.06	3226
856.194	3302
856.327	3207
856.461	3100
856.595	3077
856.729	3150
856.862	3230
856.996	3146
857.13	3218
857.263	3249
857.397	3279
857.53	3108
857.664	3199
857.797	3268
857.931	3287
858.064	3180
858.197	3233
858.331	3195
858.464	3104
858.597	3043
858.731	3108
858.864	3135
858.997	3127
859.13	3161
859.263	3180
859.396	3222
859.529	3108
859.662	3085
859.795	3097
859.928	3188
860.061	3283
860.194	3313
860.327	3119
860.46	3150
860.592	3241
860.725	3291
860.858	3283
860.99	3150
861.123	3119
861.256	3074
861.388	3154
861.521	3740
861.653	3058
861.786	3028
861.918	3005
862.05	3077
862.183	3116
862.315	3135
862.447	3195
862.58	3154
862.712	2967
862.844	2902
862.976	3036
863.108	3039
863.24	3317
863.372	2906
863.504	3024
863.636	2960
863.768	3055
863.9	2994
864.032	2937
864.164	2979
864.296	3066
864.428	3085
864.559	3146
864.691	3081
864.823	3123
864.954	3028
865.086	3047
865.217	2986
865.349	2937
865.48	3017
865.612	3036
865.743	3131
865.875	2998
866.006	2975
866.137	2994
866.269	2982
866.4	2971
866.531	2994
866.662	2925
866.793	2914
866.924	2948
867.055	2967
867.186	2956
867.317	2899
867.448	2845
867.579	2895
867.71	2868
867.841	2872
867.972	2933
868.103	2853
868.233	2910
868.364	2880
868.495	2944
868.625	3085
868.756	3165
868.886	2986
869.017	3066
869.147	3207
869.278	3230
869.408	3051
869.539	3036
869.669	3104
869.799	3074
869.929	3184
870.06	3157
870.19	3344
870.32	3275
870.45	3355
870.58	3393
870.71	3458
870.84	3431
870.97	3313
871.1	3287
871.23	3492
871.36	3477
871.489	3397
871.619	3382
871.749	3447
871.879	3488
872.008	3519
872.138	3405
872.267	3279
872.397	3188
872.526	3112
872.656	3005
872.785	3077
872.915	3256
873.044	3359
873.173	3207
873.303	3253
873.432	3283
873.561	3211
873.69	3176
873.819	3135
873.948	3237
874.077	3131
874.206	3062
874.335	3123
874.464	3237
874.593	3348
874.722	3264
874.851	3435
874.979	3378
875.108	3351
875.237	3180
875.365	3184
875.494	3138
875.623	3291
875.751	3100
875.88	3108
876.008	3226
876.136	3233
876.265	3363
876.393	3477
876.521	3382
876.65	3428
876.778	3351
876.906	3264
877.034	3188
877.162	3256
877.29	3180
877.418	3317
877.546	3264
877.674	3253
877.802	3272
877.93	3233
878.058	3138
878.185	3112
878.313	3192
878.441	3218
878.568	3070
878.696	3150
878.824	3287
878.951	3336
879.079	3481
879.206	3637
879.333	3439
879.461	3325
879.588	3412
879.715	3492
879.842	3610
879.97	3389
880.097	3207
880.224	3165
880.351	3241
880.478	3203
880.605	3211
880.732	3184
880.859	3545
880.986	3325
881.112	3329
881.239	3195
881.366	3112
881.493	3051
881.619	3055
881.746	3089
881.872	3119
881.999	3116
882.125	3127
882.252	3283
882.378	3302
882.505	3405
882.631	3313
882.757	3173
882.883	3233
883.01	3241
883.136	3184
883.262	3127
883.388	3112
883.514	3302
883.64	3351
883.766	3321
883.892	3214
884.018	3260
884.143	3420
884.269	3564
884.395	3233
884.52	3192
884.646	3173
884.772	3112
884.897	3131
885.023	3253
885.148	3302
885.274	3401
885.399	3393
885.524	3291
885.65	3245
885.775	3313
885.9	3283
886.025	3466
886.15	3393
886.275	3272
886.4	3222
886.525	3344
886.65	3260
886.775	3283
886.9	3504
887.025	3629
887.149	3424
887.274	3249
887.399	3214
887.523	3207
887.648	3192
887.773	3226
887.897	3412
888.021	3393
888.146	3306
888.27	3393
888.395	3504
888.519	3466
888.643	3439
888.767	3431
888.891	3344
889.015	3241
889.139	3348
889.263	3264
889.387	3420
889.511	3542
889.635	3458
889.759	3294
889.883	3264
890.006	3389
890.13	3538
890.254	3272
890.377	3401
890.501	3195
890.624	3173
890.748	3329
890.871	3218
890.995	3104
891.118	3085
891.241	3199
891.364	3272
891.488	3340
891.611	3176
891.734	3237
891.857	3287
891.98	3253
892.103	3348
892.226	3279
892.349	3230
892.471	3119
892.594	3245
892.717	3272
892.839	3351
892.962	3313
893.085	3412
893.207	3306
893.33	3161
893.452	3207
893.575	3374
893.697	3241
893.819	3466
893.941	3526
894.064	3450
894.186	3253
894.308	3310
894.43	3447
894.552	3545
894.674	3435
894.796	3294
894.918	3329
895.04	3321
895.161	3439
895.283	3389
895.405	3321
895.526	3344
895.648	3462
895.769	3428
895.891	3462
896.012	3469
896.134	3473
896.255	3435
896.376	3397
896.498	3382
896.619	3450
896.74	3389
896.861	3428
896.982	3660
897.103	3880
897.224	3629
897.345	3530
897.466	3458
897.587	3485
897.708	3625
897.828	3587
897.949	3424
898.07	3382
898.19	3458
898.311	3625
898.431	3431
898.552	3523
898.672	3629
898.792	3614
898.913	3515
899.033	3477
899.153	3310
899.273	3230
899.393	3268
899.513	3336
899.633	3325
899.753	3351
899.873	3310
899.993	3409
900.113	3348
900.232	3386
900.352	3382
900.472	3332
900.591	3218
900.711	3294
900.83	3256
900.95	3416
901.069	3496
901.189	3386
901.308	3188
901.427	3169
901.546	3176
901.665	3321
901.784	3344
901.904	3222
902.023	3165
902.141	3032
902.26	3039
902.379	3131
902.498	3119
902.617	3039
902.735	3230
902.854	3237
902.973	3222
903.091	3070
903.21	3081
903.328	3176
903.446	3127
903.565	3089
903.683	3237
903.801	3184
903.919	3272
904.038	3313
904.156	3180
904.274	3264
904.392	3275
904.51	3279
904.627	3386
904.745	3447
904.863	3511
904.981	3260
905.098	3195
905.216	3233
905.334	3287
905.451	3348
905.569	3317
905.686	3431
905.803	3428
905.921	3329
906.038	3439
906.155	3363
906.272	3302
906.389	3367
906.506	3218
906.623	3275
906.74	3291
906.857	3157
906.974	3233
907.091	3473
907.208	3549
907.324	3488
907.441	3393
907.557	3253
907.674	3245
907.79	3192
907.907	3302
908.023	3409
908.139	3359
908.256	3329
908.372	3355
908.488	3393
908.604	3233
908.72	3237
908.836	3264
908.952	3317
909.068	3310
909.184	3473
909.3	3386
909.415	3511
909.531	3504
909.647	3253
909.762	3302
909.878	3268
909.993	3367
910.108	3317
910.224	3332
910.339	3412
910.454	3340
910.57	3241
910.685	3268
910.8	3633
910.915	3511
911.03	3458
911.145	3249
911.259	3291
911.374	3294
911.489	3287
911.604	3214
911.718	3165
911.833	3222
911.947	3062
912.062	2979
912.176	3192
912.291	3218
912.405	3199
912.519	3382
912.633	3481
912.748	3348
912.862	3291
912.976	3157
913.09	3024
913.204	3097
913.318	3241
913.431	3313
913.545	3329
913.659	3382
913.772	3348
913.886	3222
914	3207
914.113	3336
914.226	3450
914.34	3382
914.453	3211
914.566	3409
914.68	3249
914.793	3291
914.906	3165
915.019	3169
915.132	3047
915.245	3195
915.358	3230
915.47	3230
915.583	3245
915.696	3355
915.809	3412
915.921	3397
916.034	3249
916.146	3253
916.259	3249
916.371	3393
916.483	3382
916.595	3245
916.708	3340
916.82	3332
916.932	3355
917.044	3344
917.156	3344
917.268	3294
917.38	3310
917.491	3287
917.603	3363
917.715	3481
917.826	3447
917.938	3386
918.049	3306
918.161	3450
918.272	3564
918.384	3549
918.495	3504
918.606	3340
918.717	3275
918.828	3393
918.939	3401
919.05	3348
919.161	3382
919.272	3150
919.383	3264
919.494	3496
919.604	3667
919.715	3492
919.826	3420
919.936	3450
920.047	3561
920.157	3553
920.267	3766
920.378	3660
920.488	3564
920.598	3789
920.708	3991
920.818	3846
920.928	3823
921.038	4040
921.148	4036
921.258	3686
921.368	3625
921.477	3584
921.587	3553
921.697	3462
921.806	3629
921.916	3549
922.025	3355
922.134	3321
922.244	3298
922.353	3424
922.462	3298
922.571	3203
922.68	3119
922.789	3097
922.898	3146
923.007	3108
923.116	3211
923.224	3195
923.333	3176
923.442	3123
923.55	3097
923.659	3131
923.767	3222
923.876	3142
923.984	3264
924.092	3138
924.201	3237
924.309	3218
924.417	3233
924.525	3192
924.633	3226
924.741	4029
924.849	3055
924.956	3233
925.064	3119
925.172	3047
925.279	3108
925.387	3226
925.494	3203
925.602	3363
925.709	3332
925.816	3195
925.924	3275
926.031	3336
926.138	3351
926.245	3329
926.352	3264
926.459	3393
926.566	3466
926.673	3329
926.779	3260
926.886	3249
926.993	3154
927.099	3097
927.206	3104
927.312	3108
927.419	3237
927.525	3192
927.631	3302
927.737	3131
927.843	3093
927.95	3020
928.056	3108
928.162	3184
928.267	3272
928.373	3888
928.479	3294
928.585	3066
928.69	3222
928.796	3287
928.901	3157
929.007	3058
929.112	3237
929.218	3169
929.323	3157
929.428	3157
929.533	3310
929.638	3097
929.743	3218
929.848	3253
929.953	3203
930.058	3161
930.163	3001
930.267	3009
930.372	3184
930.477	3028
930.581	3260
930.685	3188
930.79	3039
930.894	3150
930.998	3127
931.103	3283
931.207	2937
931.311	2922
931.415	2933
931.519	2746
931.623	2788
