Data from test_V78500241_1440.txt Node
Date: Fri Mar 25 16:25:10 CST 2022
User: usil
Spectrometer: V785-0024
Trigger mode: 0
Integration Time (sec): 4.000000E-1
Scans to average: 1
Nonlinearity correction enabled: false
Boxcar width: 0
Storing dark spectrum: false
XAxis mode: Wavelengths
Number of Pixels in Spectrum: 1024
>>>>>Begin Spectral Data<<<<<
801.071	2872
801.214	2956
801.356	2895
801.499	2922
801.641	2853
801.783	2895
801.926	3047
802.068	2967
802.211	2994
802.353	3058
802.496	2971
802.638	2990
802.78	3024
802.923	3077
803.065	2982
803.208	2906
803.35	2899
803.492	2918
803.635	2929
803.777	2727
803.919	2876
804.061	3154
804.204	2967
804.346	2899
804.488	2857
804.63	3001
804.773	2845
804.915	2922
805.057	3058
805.199	2922
805.341	2960
805.483	3024
805.626	2982
805.768	2994
805.91	3051
806.052	3112
806.194	3066
806.336	3245
806.478	3039
806.62	2979
806.762	2998
806.904	3028
807.046	3188
807.188	2975
807.33	2906
807.472	2918
807.614	2899
807.756	2948
807.898	2929
808.04	2868
808.182	2956
808.324	2967
808.465	2861
808.607	2849
808.749	2792
808.891	2830
809.033	2937
809.174	2963
809.316	2914
809.458	2887
809.6	2754
809.741	2785
809.883	2758
810.025	2845
810.166	2834
810.308	2864
810.45	2811
810.591	2800
810.733	2777
810.875	2804
811.016	2773
811.158	2735
811.299	2826
811.441	2933
811.582	2937
811.724	2796
811.865	2842
812.007	2887
812.148	2861
812.29	2864
812.431	2883
812.573	2925
812.714	2990
812.855	3036
812.997	3032
813.138	3100
813.279	2971
813.421	2941
813.562	2944
813.703	2876
813.845	2880
813.986	2788
814.127	2705
814.268	2819
814.41	2823
814.551	2815
814.692	2853
814.833	2815
814.974	2853
815.115	2933
815.256	2853
815.397	2823
815.539	2895
815.68	2777
815.821	2777
815.962	2941
816.103	2902
816.244	2883
816.385	2857
816.526	2944
816.666	2929
816.807	2720
816.948	2880
817.089	2899
817.23	2853
817.371	2769
817.512	2826
817.653	2815
817.793	2826
817.934	2876
818.075	2990
818.216	2963
818.356	3013
818.497	2899
818.638	2769
818.778	2815
818.919	2792
819.06	2769
819.2	2876
819.341	2792
819.481	2807
819.622	2933
819.762	3100
819.903	3047
820.043	2902
820.184	2830
820.324	2887
820.465	2990
820.605	3005
820.746	2998
820.886	2876
821.026	3104
821.167	3123
821.307	3256
821.447	3256
821.588	3245
821.728	3188
821.868	3218
822.008	3051
822.149	3180
822.289	3245
822.429	3055
822.569	3081
822.709	3169
822.849	2994
822.99	3036
823.13	3169
823.27	3192
823.41	3043
823.55	3165
823.69	3157
823.83	3150
823.97	3062
824.11	2994
824.25	2986
824.389	3051
824.529	3127
824.669	3047
824.809	3127
824.949	3222
825.089	3211
825.228	3154
825.368	3024
825.508	2937
825.648	2963
825.787	2998
825.927	2990
826.067	2960
826.206	2922
826.346	3039
826.485	3039
826.625	3055
826.765	3237
826.904	3203
827.044	2967
827.183	2929
827.323	2876
827.462	2990
827.601	2914
827.741	2910
827.88	2933
828.02	2834
828.159	2971
828.298	3009
828.437	3131
828.577	3047
828.716	3249
828.855	3028
828.994	2902
829.134	2857
829.273	2902
829.412	2876
829.551	2899
829.69	2853
829.829	2960
829.968	3154
830.107	3024
830.246	3001
830.385	2895
830.524	2876
830.663	2785
830.802	2727
830.941	2640
831.08	2632
831.219	2807
831.357	2766
831.496	2956
831.635	2705
831.774	2617
831.913	2629
832.051	2526
832.19	2564
832.329	2663
832.467	2545
832.606	2495
832.744	2579
832.883	2545
833.022	2552
833.16	2636
833.299	2682
833.437	2682
833.576	2678
833.714	2735
833.852	2697
833.991	2796
834.129	2834
834.267	2845
834.406	2796
834.544	2868
834.682	2857
834.821	2845
834.959	3017
835.097	2872
835.235	3043
835.373	2990
835.511	3009
835.65	2929
835.788	2960
835.926	2876
836.064	2819
836.202	2861
836.34	3093
836.478	3146
836.615	3032
836.753	3150
836.891	3211
837.029	3165
837.167	3116
837.305	3062
837.443	3024
837.58	2944
837.718	3150
837.856	3051
837.993	3028
838.131	3093
838.269	3108
838.406	3070
838.544	3047
838.681	2948
838.819	2906
838.956	2823
839.094	2849
839.231	2918
839.369	3020
839.506	3355
839.643	3222
839.781	3013
839.918	2963
840.055	3039
840.193	3055
840.33	3066
840.467	3108
840.604	3150
840.742	3401
840.879	3066
841.016	3058
841.153	3154
841.29	3363
841.427	3287
841.564	3279
841.701	3310
841.838	3184
841.975	3203
842.112	3199
842.249	3070
842.385	3009
842.522	3253
842.659	3074
842.796	3051
842.933	3062
843.069	3043
843.206	3089
843.343	3207
843.479	3108
843.616	3138
843.752	2872
843.889	2864
844.025	3089
844.162	2895
844.298	3081
844.435	2971
844.571	2883
844.708	3066
844.844	3165
844.98	3226
845.117	3173
845.253	3036
845.389	3020
845.525	3085
845.661	3089
845.798	3047
845.934	3066
846.07	3058
846.206	3199
846.342	3283
846.478	3218
846.614	3077
846.75	3070
846.886	3009
847.022	3241
847.158	3116
847.294	3203
847.429	3245
847.565	3188
847.701	3435
847.837	2982
847.972	3013
848.108	3154
848.244	3135
848.379	2986
848.515	2944
848.65	2872
848.786	2982
848.921	3036
849.057	3142
849.192	3150
849.328	3108
849.463	3108
849.598	3081
849.734	3009
849.869	2994
850.004	2895
850.14	2944
850.275	2918
850.41	2819
850.545	2864
850.68	2944
850.815	2979
850.95	2971
851.085	3180
851.22	3104
851.355	3020
851.49	2918
851.625	2982
851.76	3024
851.895	2937
852.03	2925
852.165	3028
852.299	3093
852.434	3176
852.569	3154
852.703	3180
852.838	3253
852.973	3310
853.107	3329
853.242	3161
853.376	3081
853.511	3005
853.645	3028
853.78	3218
853.914	3089
854.048	3093
854.183	3074
854.317	3135
854.451	3264
854.585	3112
854.72	3093
854.854	3230
854.988	3055
855.122	3055
855.256	2990
855.39	3119
855.524	3233
855.658	3176
855.792	3131
855.926	3184
856.06	3218
856.194	3279
856.327	3104
856.461	3074
856.595	3081
856.729	3108
856.862	3135
856.996	3127
857.13	3195
857.263	3226
857.397	3287
857.53	3112
857.664	3222
857.797	3260
857.931	3230
858.064	3173
858.197	3207
858.331	3104
858.464	3119
858.597	3013
858.731	3142
858.864	3146
858.997	3085
859.13	3180
859.263	3173
859.396	3199
859.529	3138
859.662	3093
859.795	3093
859.928	3138
860.061	3268
860.194	3264
860.327	3089
860.46	3085
860.592	3264
860.725	3233
860.858	3260
860.99	3070
861.123	3077
861.256	3020
861.388	3116
861.521	3888
861.653	2956
861.786	2956
861.918	3028
862.05	3070
862.183	3135
862.315	3127
862.447	3195
862.58	3097
862.712	3001
862.844	2906
862.976	3001
863.108	2986
863.24	3332
863.372	2883
863.504	2963
863.636	2960
863.768	3032
863.9	2956
864.032	2933
864.164	2990
864.296	3036
864.428	3108
864.559	3058
864.691	3066
864.823	3058
864.954	3036
865.086	3058
865.217	2960
865.349	2937
865.48	2994
865.612	3028
865.743	3154
865.875	2952
866.006	2925
866.137	2979
866.269	2922
866.4	2925
866.531	2910
866.662	2872
866.793	2861
866.924	2929
867.055	2994
867.186	2929
867.317	2872
867.448	2826
867.579	2861
867.71	2857
867.841	2819
867.972	2914
868.103	2899
868.233	2861
868.364	2861
868.495	2872
868.625	3074
868.756	3123
868.886	2963
869.017	3017
869.147	3146
869.278	3169
869.408	3001
869.539	3024
869.669	3074
869.799	3043
869.929	3116
870.06	3142
870.19	3363
870.32	3298
870.45	3260
870.58	3386
870.71	3454
870.84	3428
870.97	3302
871.1	3222
871.23	3462
871.36	3416
871.489	3344
871.619	3378
871.749	3435
871.879	3447
872.008	3447
872.138	3367
872.267	3287
872.397	3154
872.526	3074
872.656	3032
872.785	3085
872.915	3207
873.044	3317
873.173	3195
873.303	3279
873.432	3260
873.561	3268
873.69	3127
873.819	3112
873.948	3180
874.077	3081
874.206	3036
874.335	3089
874.464	3230
874.593	3370
874.722	3226
874.851	3370
874.979	3340
875.108	3302
875.237	3188
875.365	3161
875.494	3169
875.623	3214
875.751	3070
875.88	3108
876.008	3180
876.136	3214
876.265	3386
876.393	3534
876.521	3416
876.65	3412
876.778	3336
876.906	3233
877.034	3207
877.162	3203
877.29	3146
877.418	3218
877.546	3222
877.674	3241
877.802	3226
877.93	3241
878.058	3112
878.185	3077
878.313	3192
878.441	3211
878.568	3047
878.696	3135
878.824	3264
878.951	3317
879.079	3412
879.206	3660
879.333	3431
879.461	3313
879.588	3351
879.715	3488
879.842	3557
879.97	3370
880.097	3176
880.224	3135
880.351	3207
880.478	3199
880.605	3211
880.732	3192
880.859	3504
880.986	3294
881.112	3313
881.239	3195
881.366	3089
881.493	2998
881.619	2990
881.746	3066
881.872	3070
881.999	3104
882.125	3169
882.252	3245
882.378	3294
882.505	3409
882.631	3268
882.757	3142
882.883	3218
883.01	3214
883.136	3131
883.262	3108
883.388	3108
883.514	3336
883.64	3378
883.766	3340
883.892	3176
884.018	3264
884.143	3424
884.269	3504
884.395	3214
884.52	3211
884.646	3184
884.772	3131
884.897	3119
885.023	3169
885.148	3336
885.274	3409
885.399	3363
885.524	3283
885.65	3237
885.775	3348
885.9	3245
886.025	3409
886.15	3355
886.275	3275
886.4	3233
886.525	3268
886.65	3294
886.775	3294
886.9	3485
887.025	3618
887.149	3420
887.274	3287
887.399	3214
887.523	3237
887.648	3154
887.773	3169
887.897	3329
888.021	3416
888.146	3310
888.27	3443
888.395	3542
888.519	3424
888.643	3462
888.767	3462
888.891	3283
889.015	3256
889.139	3291
889.263	3253
889.387	3454
889.511	3549
889.635	3428
889.759	3306
889.883	3310
890.006	3355
890.13	3492
890.254	3279
890.377	3355
890.501	3192
890.624	3188
890.748	3340
890.871	3176
890.995	3047
891.118	3066
891.241	3176
891.364	3214
891.488	3306
891.611	3188
891.734	3195
891.857	3256
891.98	3230
892.103	3306
892.226	3253
892.349	3188
892.471	3150
892.594	3272
892.717	3287
892.839	3287
892.962	3249
893.085	3344
893.207	3329
893.33	3150
893.452	3180
893.575	3351
893.697	3241
893.819	3439
893.941	3492
894.064	3466
894.186	3279
894.308	3283
894.43	3428
894.552	3511
894.674	3485
894.796	3287
894.918	3310
895.04	3230
895.161	3412
895.283	3370
895.405	3306
895.526	3397
895.648	3447
895.769	3382
895.891	3477
896.012	3450
896.134	3450
896.255	3386
896.376	3382
896.498	3336
896.619	3431
896.74	3367
896.861	3443
896.982	3690
897.103	3789
897.224	3610
897.345	3481
897.466	3420
897.587	3458
897.708	3652
897.828	3572
897.949	3439
898.07	3340
898.19	3367
898.311	3568
898.431	3439
898.552	3564
898.672	3584
898.792	3584
898.913	3542
899.033	3420
899.153	3283
899.273	3207
899.393	3279
899.513	3302
899.633	3332
899.753	3325
899.873	3302
899.993	3416
900.113	3317
900.232	3389
900.352	3386
900.472	3298
900.591	3218
900.711	3294
900.83	3241
900.95	3424
901.069	3507
901.189	3359
901.308	3173
901.427	3100
901.546	3203
901.665	3279
901.784	3329
901.904	3230
902.023	3131
902.141	3024
902.26	2994
902.379	3119
902.498	3062
902.617	3077
902.735	3211
902.854	3283
902.973	3233
903.091	3066
903.21	3081
903.328	3150
903.446	3119
903.565	3097
903.683	3253
903.801	3127
903.919	3245
904.038	3275
904.156	3180
904.274	3298
904.392	3260
904.51	3260
904.627	3344
904.745	3412
904.863	3469
904.981	3245
905.098	3165
905.216	3226
905.334	3310
905.451	3283
905.569	3253
905.686	3424
905.803	3424
905.921	3321
906.038	3469
906.155	3351
906.272	3302
906.389	3332
906.506	3226
906.623	3230
906.74	3275
906.857	3230
906.974	3283
907.091	3420
907.208	3568
907.324	3481
907.441	3374
907.557	3218
907.674	3222
907.79	3214
907.907	3291
908.023	3389
908.139	3412
908.256	3325
908.372	3348
908.488	3351
908.604	3291
908.72	3253
908.836	3283
908.952	3279
909.068	3374
909.184	3477
909.3	3416
909.415	3523
909.531	3466
909.647	3272
909.762	3272
909.878	3287
909.993	3382
910.108	3298
910.224	3344
910.339	3386
910.454	3336
910.57	3249
910.685	3260
910.8	3557
910.915	3530
911.03	3412
911.145	3298
911.259	3291
911.374	3310
911.489	3283
911.604	3222
911.718	3127
911.833	3188
911.947	3032
912.062	2967
912.176	3154
912.291	3195
912.405	3211
912.519	3420
912.633	3439
912.748	3336
912.862	3294
912.976	3173
913.09	3062
913.204	3150
913.318	3203
913.431	3332
913.545	3310
913.659	3431
913.772	3310
913.886	3195
914	3188
914.113	3397
914.226	3401
914.34	3367
914.453	3218
914.566	3424
914.68	3283
914.793	3302
914.906	3142
915.019	3085
915.132	3058
915.245	3173
915.358	3184
915.47	3268
915.583	3272
915.696	3275
915.809	3409
915.921	3416
916.034	3268
916.146	3283
916.259	3207
916.371	3386
916.483	3382
916.595	3287
916.708	3389
916.82	3321
916.932	3363
917.044	3336
917.156	3344
917.268	3256
917.38	3294
917.491	3291
917.603	3336
917.715	3458
917.826	3519
917.938	3405
918.049	3256
918.161	3431
918.272	3587
918.384	3530
918.495	3431
918.606	3313
918.717	3260
918.828	3409
918.939	3416
919.05	3302
919.161	3405
919.272	3203
919.383	3294
919.494	3519
919.604	3637
919.715	3462
919.826	3435
919.936	3473
920.047	3580
920.157	3568
920.267	3759
920.378	3591
920.488	3591
920.598	3770
920.708	3972
920.818	3804
920.928	3850
921.038	4067
921.148	3987
921.258	3713
921.368	3625
921.477	3580
921.587	3530
921.697	3477
921.806	3652
921.916	3542
922.025	3382
922.134	3359
922.244	3279
922.353	3401
922.462	3264
922.571	3226
922.68	3104
922.789	3100
922.898	3157
923.007	3100
923.116	3207
923.224	3173
923.333	3184
923.442	3104
923.55	3077
923.659	3173
923.767	3256
923.876	3150
923.984	3222
924.092	3108
924.201	3192
924.309	3233
924.417	3214
924.525	3180
924.633	3249
924.741	4169
924.849	3043
924.956	3275
925.064	3127
925.172	3058
925.279	3093
925.387	3184
925.494	3245
925.602	3378
925.709	3332
925.816	3180
925.924	3317
926.031	3389
926.138	3351
926.245	3355
926.352	3245
926.459	3443
926.566	3454
926.673	3321
926.779	3245
926.886	3260
926.993	3142
927.099	3161
927.206	3119
927.312	3112
927.419	3226
927.525	3249
927.631	3283
927.737	3123
927.843	3127
927.95	3005
928.056	3131
928.162	3207
928.267	3260
928.373	3869
928.479	3325
928.585	3097
928.69	3241
928.796	3283
928.901	3199
929.007	3058
929.112	3199
929.218	3199
929.323	3180
929.428	3199
929.533	3321
929.638	3165
929.743	3199
929.848	3287
929.953	3203
930.058	3173
930.163	2982
930.267	3085
930.372	3199
930.477	3017
930.581	3279
930.685	3199
930.79	3093
930.894	3119
930.998	3074
931.103	3283
931.207	2982
931.311	2914
931.415	2906
931.519	2781
931.623	2815
