Data from test_V78500241_1565.txt Node
Date: Fri Mar 25 16:26:02 CST 2022
User: usil
Spectrometer: V785-0024
Trigger mode: 0
Integration Time (sec): 4.000000E-1
Scans to average: 1
Nonlinearity correction enabled: false
Boxcar width: 0
Storing dark spectrum: false
XAxis mode: Wavelengths
Number of Pixels in Spectrum: 1024
>>>>>Begin Spectral Data<<<<<
801.071	2902
801.214	2944
801.356	2845
801.499	2883
801.641	2853
801.783	2883
801.926	3039
802.068	2982
802.211	2986
802.353	3005
802.496	2967
802.638	2994
802.78	3066
802.923	3081
803.065	2998
803.208	2925
803.35	2880
803.492	2922
803.635	2948
803.777	2731
803.919	2849
804.061	3214
804.204	2922
804.346	2853
804.488	2830
804.63	2960
804.773	2868
804.915	2899
805.057	3104
805.199	2887
805.341	2986
805.483	3039
805.626	2990
805.768	2956
805.91	3062
806.052	3104
806.194	3036
806.336	3218
806.478	3039
806.62	2963
806.762	2994
806.904	3036
807.046	3157
807.188	2986
807.33	2864
807.472	2944
807.614	2914
807.756	2948
807.898	2929
808.04	2876
808.182	2960
808.324	2944
808.465	2857
808.607	2891
808.749	2819
808.891	2834
809.033	2914
809.174	2960
809.316	2853
809.458	2895
809.6	2769
809.741	2800
809.883	2766
810.025	2800
810.166	2823
810.308	2853
810.45	2830
810.591	2785
810.733	2739
810.875	2849
811.016	2758
811.158	2754
811.299	2811
811.441	2914
811.582	2891
811.724	2819
811.865	2815
812.007	2914
812.148	2861
812.29	2857
812.431	2906
812.573	2929
812.714	3001
812.855	3051
812.997	3062
813.138	3089
813.279	3009
813.421	2998
813.562	2971
813.703	2880
813.845	2899
813.986	2777
814.127	2716
814.268	2811
814.41	2823
814.551	2849
814.692	2887
814.833	2815
814.974	2895
815.115	2933
815.256	2834
815.397	2811
815.539	2857
815.68	2773
815.821	2766
815.962	2944
816.103	2910
816.244	2887
816.385	2845
816.526	2941
816.666	2914
816.807	2727
816.948	2845
817.089	2887
817.23	2853
817.371	2769
817.512	2815
817.653	2838
817.793	2819
817.934	2868
818.075	2971
818.216	2994
818.356	3001
818.497	2849
818.638	2796
818.778	2819
818.919	2777
819.06	2750
819.2	2914
819.341	2800
819.481	2815
819.622	2891
819.762	3081
819.903	3055
820.043	2883
820.184	2902
820.324	2880
820.465	3017
820.605	2960
820.746	3028
820.886	2941
821.026	3077
821.167	3116
821.307	3249
821.447	3287
821.588	3230
821.728	3192
821.868	3157
822.008	3062
822.149	3154
822.289	3237
822.429	3055
822.569	3081
822.709	3173
822.849	3009
822.99	3009
823.13	3146
823.27	3192
823.41	3085
823.55	3131
823.69	3157
823.83	3154
823.97	3085
824.11	2967
824.25	2998
824.389	3028
824.529	3066
824.669	3036
824.809	3176
824.949	3249
825.089	3226
825.228	3180
825.368	3009
825.508	2944
825.648	2937
825.787	2982
825.927	2994
826.067	2967
826.206	2990
826.346	3017
826.485	3089
826.625	3100
826.765	3245
826.904	3199
827.044	2963
827.183	2948
827.323	2864
827.462	2979
827.601	2918
827.741	2925
827.88	2941
828.02	2876
828.159	2956
828.298	3043
828.437	3081
828.577	3036
828.716	3253
828.855	3089
828.994	2902
829.134	2861
829.273	2944
829.412	2876
829.551	2842
829.69	2887
829.829	2975
829.968	3108
830.107	3017
830.246	2990
830.385	2952
830.524	2857
830.663	2788
830.802	2731
830.941	2670
831.08	2610
831.219	2731
831.357	2735
831.496	2986
831.635	2720
831.774	2610
831.913	2632
832.051	2530
832.19	2587
832.329	2663
832.467	2514
832.606	2473
832.744	2568
832.883	2560
833.022	2594
833.16	2670
833.299	2648
833.437	2705
833.576	2701
833.714	2705
833.852	2701
833.991	2766
834.129	2861
834.267	2830
834.406	2739
834.544	2845
834.682	2880
834.821	2842
834.959	3039
835.097	2902
835.235	3062
835.373	2998
835.511	3005
835.65	2952
835.788	2971
835.926	2811
836.064	2811
836.202	2834
836.34	3047
836.478	3135
836.615	3039
836.753	3108
836.891	3169
837.029	3138
837.167	3093
837.305	3013
837.443	3028
837.58	2944
837.718	3157
837.856	3058
837.993	3020
838.131	3116
838.269	3081
838.406	3062
838.544	3108
838.681	2941
838.819	2906
838.956	2819
839.094	2845
839.231	2891
839.369	2986
839.506	3367
839.643	3199
839.781	2982
839.918	2944
840.055	3085
840.193	3005
840.33	3055
840.467	3085
840.604	3157
840.742	3435
840.879	3047
841.016	3058
841.153	3093
841.29	3332
841.427	3283
841.564	3245
841.701	3291
841.838	3226
841.975	3138
842.112	3180
842.249	3077
842.385	3028
842.522	3249
842.659	3085
842.796	3058
842.933	3116
843.069	3051
843.206	3047
843.343	3176
843.479	3081
843.616	3192
843.752	2849
843.889	2883
844.025	3077
844.162	2868
844.298	3070
844.435	2967
844.571	2941
844.708	3089
844.844	3173
844.98	3214
845.117	3165
845.253	3039
845.389	3009
845.525	3100
845.661	3058
845.798	3009
845.934	3135
846.07	3028
846.206	3207
846.342	3310
846.478	3222
846.614	3081
846.75	3009
846.886	3017
847.022	3241
847.158	3123
847.294	3161
847.429	3233
847.565	3199
847.701	3515
847.837	3039
847.972	2956
848.108	3161
848.244	3119
848.379	2948
848.515	2925
848.65	2914
848.786	2944
848.921	3036
849.057	3127
849.192	3116
849.328	3062
849.463	3119
849.598	3089
849.734	3032
849.869	3001
850.004	2891
850.14	2944
850.275	2887
850.41	2830
850.545	2880
850.68	2937
850.815	2937
850.95	2967
851.085	3195
851.22	3089
851.355	3051
851.49	2986
851.625	3028
851.76	3009
851.895	2918
852.03	2937
852.165	3024
852.299	3089
852.434	3188
852.569	3131
852.703	3176
852.838	3222
852.973	3348
853.107	3302
853.242	3154
853.376	3051
853.511	2982
853.645	3081
853.78	3207
853.914	3119
854.048	3108
854.183	3074
854.317	3100
854.451	3306
854.585	3119
854.72	3066
854.854	3211
854.988	3032
855.122	3047
855.256	2990
855.39	3119
855.524	3207
855.658	3180
855.792	3138
855.926	3165
856.06	3222
856.194	3260
856.327	3135
856.461	3077
856.595	3047
856.729	3070
856.862	3157
856.996	3131
857.13	3192
857.263	3195
857.397	3268
857.53	3131
857.664	3184
857.797	3192
857.931	3256
858.064	3154
858.197	3192
858.331	3142
858.464	3074
858.597	2998
858.731	3119
858.864	3150
858.997	3074
859.13	3165
859.263	3135
859.396	3192
859.529	3081
859.662	3039
859.795	3051
859.928	3154
860.061	3272
860.194	3287
860.327	3112
860.46	3104
860.592	3214
860.725	3222
860.858	3256
860.99	3058
861.123	3028
861.256	3028
861.388	3116
861.521	3884
861.653	2986
861.786	2963
861.918	3001
862.05	3058
862.183	3089
862.315	3131
862.447	3192
862.58	3108
862.712	2952
862.844	2899
862.976	3017
863.108	3001
863.24	3306
863.372	2895
863.504	2982
863.636	2960
863.768	3009
863.9	2963
864.032	2883
864.164	2952
864.296	3013
864.428	3077
864.559	3085
864.691	3077
864.823	3028
864.954	3013
865.086	3039
865.217	2967
865.349	2952
865.48	2956
865.612	2994
865.743	3154
865.875	3005
866.006	2929
866.137	2944
866.269	2922
866.4	2937
866.531	2883
866.662	2902
866.793	2849
866.924	2914
867.055	2948
867.186	2895
867.317	2906
867.448	2868
867.579	2823
867.71	2880
867.841	2834
867.972	2891
868.103	2899
868.233	2872
868.364	2880
868.495	2914
868.625	3070
868.756	3150
868.886	2998
869.017	3017
869.147	3135
869.278	3157
869.408	3036
869.539	3017
869.669	3100
869.799	3051
869.929	3100
870.06	3093
870.19	3351
870.32	3268
870.45	3313
870.58	3367
870.71	3504
870.84	3450
870.97	3279
871.1	3218
871.23	3485
871.36	3443
871.489	3344
871.619	3382
871.749	3393
871.879	3454
872.008	3450
872.138	3329
872.267	3275
872.397	3074
872.526	3074
872.656	3001
872.785	3100
872.915	3207
873.044	3283
873.173	3256
873.303	3256
873.432	3218
873.561	3218
873.69	3157
873.819	3142
873.948	3165
874.077	3093
874.206	3013
874.335	3055
874.464	3176
874.593	3355
874.722	3245
874.851	3374
874.979	3336
875.108	3287
875.237	3203
875.365	3138
875.494	3165
875.623	3268
875.751	3066
875.88	3085
876.008	3192
876.136	3199
876.265	3351
876.393	3477
876.521	3424
876.65	3428
876.778	3344
876.906	3211
877.034	3203
877.162	3241
877.29	3123
877.418	3237
877.546	3237
877.674	3241
877.802	3218
877.93	3203
878.058	3173
878.185	3077
878.313	3199
878.441	3184
878.568	3077
878.696	3157
878.824	3253
878.951	3287
879.079	3447
879.206	3606
879.333	3412
879.461	3302
879.588	3363
879.715	3462
879.842	3580
879.97	3363
880.097	3138
880.224	3131
880.351	3184
880.478	3230
880.605	3195
880.732	3184
880.859	3477
880.986	3245
881.112	3325
881.239	3169
881.366	3077
881.493	3047
881.619	3013
881.746	3066
881.872	3047
881.999	3081
882.125	3146
882.252	3272
882.378	3294
882.505	3420
882.631	3264
882.757	3150
882.883	3180
883.01	3230
883.136	3135
883.262	3081
883.388	3097
883.514	3321
883.64	3405
883.766	3306
883.892	3165
884.018	3218
884.143	3439
884.269	3534
884.395	3188
884.52	3169
884.646	3195
884.772	3104
884.897	3119
885.023	3188
885.148	3332
885.274	3416
885.399	3355
885.524	3313
885.65	3256
885.775	3325
885.9	3283
886.025	3416
886.15	3367
886.275	3260
886.4	3253
886.525	3279
886.65	3302
886.775	3241
886.9	3500
887.025	3641
887.149	3382
887.274	3241
887.399	3161
887.523	3173
887.648	3169
887.773	3184
887.897	3359
888.021	3363
888.146	3325
888.27	3428
888.395	3538
888.519	3389
888.643	3435
888.767	3428
888.891	3302
889.015	3230
889.139	3279
889.263	3249
889.387	3416
889.511	3515
889.635	3458
889.759	3268
889.883	3253
890.006	3344
890.13	3492
890.254	3268
890.377	3344
890.501	3218
890.624	3195
890.748	3275
890.871	3150
890.995	3097
891.118	3119
891.241	3192
891.364	3192
891.488	3313
891.611	3138
891.734	3192
891.857	3272
891.98	3226
892.103	3294
892.226	3233
892.349	3218
892.471	3074
892.594	3207
892.717	3283
892.839	3325
892.962	3344
893.085	3321
893.207	3287
893.33	3138
893.452	3207
893.575	3348
893.697	3211
893.819	3473
893.941	3504
894.064	3424
894.186	3256
894.308	3272
894.43	3401
894.552	3515
894.674	3420
894.796	3279
894.918	3310
895.04	3272
895.161	3424
895.283	3386
895.405	3302
895.526	3359
895.648	3424
895.769	3447
895.891	3439
896.012	3485
896.134	3454
896.255	3389
896.376	3412
896.498	3374
896.619	3416
896.74	3336
896.861	3431
896.982	3690
897.103	3857
897.224	3572
897.345	3553
897.466	3424
897.587	3473
897.708	3576
897.828	3568
897.949	3454
898.07	3302
898.19	3370
898.311	3599
898.431	3466
898.552	3511
898.672	3568
898.792	3580
898.913	3481
899.033	3386
899.153	3279
899.273	3214
899.393	3279
899.513	3294
899.633	3321
899.753	3302
899.873	3283
899.993	3367
900.113	3321
900.232	3359
900.352	3317
900.472	3279
900.591	3184
900.711	3283
900.83	3226
900.95	3405
901.069	3500
901.189	3332
901.308	3180
901.427	3112
901.546	3161
901.665	3291
901.784	3321
901.904	3241
902.023	3180
902.141	3020
902.26	2990
902.379	3093
902.498	3017
902.617	3047
902.735	3176
902.854	3199
902.973	3195
903.091	3074
903.21	3024
903.328	3127
903.446	3097
903.565	3104
903.683	3180
903.801	3085
903.919	3237
904.038	3287
904.156	3157
904.274	3287
904.392	3264
904.51	3264
904.627	3340
904.745	3435
904.863	3447
904.981	3260
905.098	3184
905.216	3230
905.334	3298
905.451	3344
905.569	3291
905.686	3386
905.803	3424
905.921	3245
906.038	3435
906.155	3348
906.272	3237
906.389	3325
906.506	3218
906.623	3245
906.74	3203
906.857	3173
906.974	3260
907.091	3443
907.208	3580
907.324	3450
907.441	3401
907.557	3233
907.674	3230
907.79	3192
907.907	3245
908.023	3397
908.139	3332
908.256	3313
908.372	3401
908.488	3355
908.604	3279
908.72	3241
908.836	3291
908.952	3287
909.068	3351
909.184	3481
909.3	3389
909.415	3431
909.531	3507
909.647	3306
909.762	3264
909.878	3245
909.993	3329
910.108	3325
910.224	3344
910.339	3412
910.454	3306
910.57	3272
910.685	3233
910.8	3564
910.915	3496
911.03	3439
911.145	3253
911.259	3283
911.374	3291
911.489	3207
911.604	3230
911.718	3138
911.833	3108
911.947	2979
912.062	3005
912.176	3119
912.291	3192
912.405	3211
912.519	3405
912.633	3458
912.748	3344
912.862	3268
912.976	3112
913.09	3100
913.204	3161
913.318	3165
913.431	3325
913.545	3348
913.659	3401
913.772	3332
913.886	3214
914	3173
914.113	3348
914.226	3401
914.34	3351
914.453	3184
914.566	3393
914.68	3268
914.793	3287
914.906	3188
915.019	3093
915.132	3058
915.245	3131
915.358	3203
915.47	3195
915.583	3294
915.696	3268
915.809	3397
915.921	3389
916.034	3253
916.146	3218
916.259	3192
916.371	3374
916.483	3359
916.595	3291
916.708	3310
916.82	3283
916.932	3329
917.044	3332
917.156	3348
917.268	3253
917.38	3306
917.491	3275
917.603	3359
917.715	3473
917.826	3439
917.938	3359
918.049	3313
918.161	3416
918.272	3557
918.384	3599
918.495	3477
918.606	3298
918.717	3249
918.828	3367
918.939	3397
919.05	3340
919.161	3378
919.272	3184
919.383	3294
919.494	3504
919.604	3705
919.715	3496
919.826	3447
919.936	3477
920.047	3599
920.157	3576
920.267	3804
920.378	3584
920.488	3576
920.598	3785
920.708	3991
920.818	3873
920.928	3880
921.038	4032
921.148	4048
921.258	3747
921.368	3656
921.477	3580
921.587	3580
921.697	3511
921.806	3652
921.916	3545
922.025	3401
922.134	3370
922.244	3348
922.353	3492
922.462	3287
922.571	3249
922.68	3131
922.789	3116
922.898	3188
923.007	3131
923.116	3226
923.224	3237
923.333	3188
923.442	3104
923.55	3165
923.659	3176
923.767	3256
923.876	3180
923.984	3298
924.092	3154
924.201	3199
924.309	3253
924.417	3351
924.525	3192
924.633	3283
924.741	4272
924.849	3085
924.956	3310
925.064	3142
925.172	3119
925.279	3150
925.387	3211
925.494	3241
925.602	3424
925.709	3386
925.816	3245
925.924	3310
926.031	3420
926.138	3374
926.245	3378
926.352	3298
926.459	3473
926.566	3477
926.673	3386
926.779	3291
926.886	3310
926.993	3211
927.099	3176
927.206	3142
927.312	3169
927.419	3264
927.525	3260
927.631	3336
927.737	3211
927.843	3146
927.95	3074
928.056	3180
928.162	3218
928.267	3294
928.373	3918
928.479	3351
928.585	3100
928.69	3230
928.796	3287
928.901	3222
929.007	3119
929.112	3230
929.218	3199
929.323	3138
929.428	3184
929.533	3351
929.638	3180
929.743	3188
929.848	3294
929.953	3298
930.058	3176
930.163	3020
930.267	3097
930.372	3230
930.477	3097
930.581	3332
930.685	3211
930.79	3062
930.894	3165
930.998	3116
931.103	3332
931.207	2986
931.311	2975
931.415	2948
931.519	2815
931.623	2868
