Data from test_V78500241_1968.txt Node
Date: Fri Mar 25 16:28:50 CST 2022
User: usil
Spectrometer: V785-0024
Trigger mode: 0
Integration Time (sec): 4.000000E-1
Scans to average: 1
Nonlinearity correction enabled: false
Boxcar width: 0
Storing dark spectrum: false
XAxis mode: Wavelengths
Number of Pixels in Spectrum: 1024
>>>>>Begin Spectral Data<<<<<
801.071	2933
801.214	2941
801.356	2868
801.499	2857
801.641	2853
801.783	2883
801.926	3017
802.068	2975
802.211	2982
802.353	3009
802.496	2929
802.638	2982
802.78	3039
802.923	3077
803.065	2971
803.208	2899
803.35	2891
803.492	2906
803.635	2914
803.777	2731
803.919	2804
804.061	3218
804.204	2929
804.346	2887
804.488	2849
804.63	2956
804.773	2880
804.915	2895
805.057	3097
805.199	2925
805.341	2986
805.483	3047
805.626	3001
805.768	2982
805.91	3104
806.052	3108
806.194	3047
806.336	3226
806.478	3017
806.62	2975
806.762	2967
806.904	3058
807.046	3138
807.188	2944
807.33	2906
807.472	2994
807.614	2937
807.756	2967
807.898	2933
808.04	2891
808.182	2925
808.324	2963
808.465	2895
808.607	2868
808.749	2781
808.891	2815
809.033	2990
809.174	2963
809.316	2902
809.458	2872
809.6	2754
809.741	2750
809.883	2792
810.025	2823
810.166	2876
810.308	2857
810.45	2845
810.591	2792
810.733	2769
810.875	2842
811.016	2758
811.158	2750
811.299	2815
811.441	2883
811.582	2883
811.724	2815
811.865	2857
812.007	2910
812.148	2876
812.29	2895
812.431	2842
812.573	2937
812.714	2956
812.855	3089
812.997	3062
813.138	3108
813.279	3005
813.421	2990
813.562	2960
813.703	2849
813.845	2872
813.986	2773
814.127	2724
814.268	2811
814.41	2819
814.551	2804
814.692	2872
814.833	2769
814.974	2880
815.115	2971
815.256	2819
815.397	2792
815.539	2826
815.68	2792
815.821	2804
815.962	2910
816.103	2902
816.244	2853
816.385	2838
816.526	2937
816.666	2948
816.807	2785
816.948	2883
817.089	2880
817.23	2849
817.371	2788
817.512	2804
817.653	2868
817.793	2792
817.934	2891
818.075	2925
818.216	2948
818.356	3036
818.497	2918
818.638	2781
818.778	2777
818.919	2807
819.06	2777
819.2	2868
819.341	2792
819.481	2785
819.622	2944
819.762	3085
819.903	3047
820.043	2937
820.184	2876
820.324	2922
820.465	3055
820.605	3009
820.746	3036
820.886	2922
821.026	3112
821.167	3165
821.307	3192
821.447	3279
821.588	3256
821.728	3165
821.868	3218
822.008	3085
822.149	3211
822.289	3230
822.429	3062
822.569	3074
822.709	3184
822.849	3028
822.99	3066
823.13	3146
823.27	3218
823.41	3108
823.55	3180
823.69	3150
823.83	3169
823.97	3097
824.11	2998
824.25	3005
824.389	3055
824.529	3127
824.669	3062
824.809	3142
824.949	3169
825.089	3169
825.228	3138
825.368	3005
825.508	2952
825.648	2982
825.787	3051
825.927	2967
826.067	3005
826.206	2952
826.346	3070
826.485	3043
826.625	3138
826.765	3245
826.904	3199
827.044	2979
827.183	2952
827.323	2872
827.462	3001
827.601	2937
827.741	2933
827.88	2956
828.02	2864
828.159	2982
828.298	3036
828.437	3100
828.577	3097
828.716	3233
828.855	3062
828.994	2864
829.134	2868
829.273	2899
829.412	2853
829.551	2849
829.69	2853
829.829	2990
829.968	3112
830.107	3017
830.246	3032
830.385	2883
830.524	2918
830.663	2830
830.802	2720
830.941	2606
831.08	2648
831.219	2769
831.357	2773
831.496	2933
831.635	2682
831.774	2659
831.913	2663
832.051	2541
832.19	2583
832.329	2670
832.467	2541
832.606	2488
832.744	2610
832.883	2571
833.022	2590
833.16	2610
833.299	2689
833.437	2655
833.576	2659
833.714	2708
833.852	2708
833.991	2727
834.129	2853
834.267	2796
834.406	2785
834.544	2853
834.682	2849
834.821	2861
834.959	3047
835.097	2887
835.235	3112
835.373	3005
835.511	3062
835.65	2941
835.788	2956
835.926	2830
836.064	2834
836.202	2838
836.34	3097
836.478	3127
836.615	3024
836.753	3146
836.891	3203
837.029	3135
837.167	3085
837.305	3005
837.443	3005
837.58	2948
837.718	3116
837.856	3085
837.993	2998
838.131	3108
838.269	3112
838.406	3070
838.544	3051
838.681	2933
838.819	2902
838.956	2804
839.094	2807
839.231	2868
839.369	3024
839.506	3344
839.643	3207
839.781	3017
839.918	2963
840.055	3017
840.193	3043
840.33	3051
840.467	3074
840.604	3097
840.742	3450
840.879	3039
841.016	3051
841.153	3116
841.29	3306
841.427	3275
841.564	3222
841.701	3256
841.838	3207
841.975	3188
842.112	3199
842.249	3097
842.385	3047
842.522	3233
842.659	3066
842.796	3039
842.933	3116
843.069	3020
843.206	3013
843.343	3169
843.479	3127
843.616	3097
843.752	2902
843.889	2880
844.025	3055
844.162	2857
844.298	3055
844.435	2952
844.571	2925
844.708	3089
844.844	3173
844.98	3230
845.117	3203
845.253	3036
845.389	3013
845.525	3062
845.661	3100
845.798	3020
845.934	3089
846.07	3043
846.206	3184
846.342	3298
846.478	3245
846.614	3043
846.75	3066
846.886	3028
847.022	3226
847.158	3146
847.294	3207
847.429	3237
847.565	3188
847.701	3458
847.837	3032
847.972	2975
848.108	3154
848.244	3127
848.379	2986
848.515	2937
848.65	2937
848.786	2963
848.921	2982
849.057	3116
849.192	3161
849.328	3077
849.463	3123
849.598	3066
849.734	3043
849.869	2979
850.004	2914
850.14	2925
850.275	2883
850.41	2800
850.545	2876
850.68	2895
850.815	2960
850.95	2956
851.085	3169
851.22	3089
851.355	3028
851.49	2941
851.625	3028
851.76	3024
851.895	2948
852.03	2929
852.165	3001
852.299	3089
852.434	3180
852.569	3127
852.703	3161
852.838	3222
852.973	3348
853.107	3275
853.242	3173
853.376	3116
853.511	2979
853.645	3047
853.78	3230
853.914	3077
854.048	3062
854.183	3077
854.317	3157
854.451	3329
854.585	3135
854.72	3081
854.854	3188
854.988	3020
855.122	3020
855.256	2967
855.39	3116
855.524	3214
855.658	3173
855.792	3150
855.926	3184
856.06	3211
856.194	3245
856.327	3127
856.461	3066
856.595	3024
856.729	3100
856.862	3226
856.996	3161
857.13	3199
857.263	3203
857.397	3264
857.53	3085
857.664	3150
857.797	3233
857.931	3241
858.064	3138
858.197	3222
858.331	3108
858.464	3081
858.597	3001
858.731	3100
858.864	3104
858.997	3077
859.13	3173
859.263	3207
859.396	3211
859.529	3100
859.662	3066
859.795	3043
859.928	3119
860.061	3253
860.194	3313
860.327	3127
860.46	3093
860.592	3195
860.725	3218
860.858	3241
860.99	3062
861.123	3036
861.256	3074
861.388	3131
861.521	3800
861.653	3024
861.786	2990
861.918	3005
862.05	3047
862.183	3058
862.315	3100
862.447	3188
862.58	3085
862.712	2922
862.844	2864
862.976	2998
863.108	2990
863.24	3397
863.372	2902
863.504	2963
863.636	2979
863.768	3051
863.9	3009
864.032	2887
864.164	2948
864.296	3005
864.428	3089
864.559	3108
864.691	3066
864.823	3032
864.954	3017
865.086	2986
865.217	2982
865.349	2918
865.48	3005
865.612	2986
865.743	3123
865.875	3013
866.006	2975
866.137	2967
866.269	2922
866.4	2922
866.531	2944
866.662	2861
866.793	2895
866.924	2876
867.055	2990
867.186	2944
867.317	2880
867.448	2857
867.579	2880
867.71	2853
867.841	2785
867.972	2891
868.103	2883
868.233	2922
868.364	2857
868.495	2895
868.625	3058
868.756	3180
868.886	2948
869.017	2979
869.147	3150
869.278	3146
869.408	3043
869.539	3001
869.669	3093
869.799	2986
869.929	3097
870.06	3085
870.19	3336
870.32	3283
870.45	3310
870.58	3313
870.71	3454
870.84	3488
870.97	3283
871.1	3241
871.23	3492
871.36	3447
871.489	3344
871.619	3401
871.749	3420
871.879	3454
872.008	3485
872.138	3332
872.267	3272
872.397	3142
872.526	3077
872.656	3020
872.785	3074
872.915	3214
873.044	3310
873.173	3207
873.303	3211
873.432	3233
873.561	3211
873.69	3146
873.819	3131
873.948	3165
874.077	3093
874.206	3009
874.335	3081
874.464	3218
874.593	3329
874.722	3218
874.851	3401
874.979	3367
875.108	3302
875.237	3161
875.365	3173
875.494	3176
875.623	3237
875.751	3119
875.88	3146
876.008	3131
876.136	3214
876.265	3374
876.393	3519
876.521	3378
876.65	3382
876.778	3317
876.906	3222
877.034	3173
877.162	3256
877.29	3192
877.418	3272
877.546	3207
877.674	3230
877.802	3207
877.93	3203
878.058	3146
878.185	3074
878.313	3184
878.441	3218
878.568	3089
878.696	3093
878.824	3211
878.951	3298
879.079	3428
879.206	3625
879.333	3431
879.461	3306
879.588	3386
879.715	3458
879.842	3557
879.97	3420
880.097	3180
880.224	3108
880.351	3165
880.478	3199
880.605	3176
880.732	3176
880.859	3545
880.986	3317
881.112	3363
881.239	3161
881.366	3077
881.493	3005
881.619	3024
881.746	3100
881.872	3100
881.999	3119
882.125	3135
882.252	3241
882.378	3298
882.505	3420
882.631	3279
882.757	3146
882.883	3218
883.01	3214
883.136	3157
883.262	3100
883.388	3127
883.514	3306
883.64	3340
883.766	3279
883.892	3150
884.018	3222
884.143	3431
884.269	3549
884.395	3207
884.52	3100
884.646	3142
884.772	3123
884.897	3089
885.023	3195
885.148	3340
885.274	3412
885.399	3359
885.524	3275
885.65	3272
885.775	3291
885.9	3279
886.025	3405
886.15	3332
886.275	3291
886.4	3233
886.525	3313
886.65	3253
886.775	3275
886.9	3488
887.025	3622
887.149	3367
887.274	3253
887.399	3180
887.523	3157
887.648	3214
887.773	3199
887.897	3378
888.021	3378
888.146	3294
888.27	3397
888.395	3507
888.519	3469
888.643	3462
888.767	3401
888.891	3306
889.015	3249
889.139	3317
889.263	3233
889.387	3439
889.511	3507
889.635	3431
889.759	3237
889.883	3302
890.006	3397
890.13	3500
890.254	3279
890.377	3313
890.501	3256
890.624	3180
890.748	3329
890.871	3142
890.995	3108
891.118	3081
891.241	3184
891.364	3245
891.488	3306
891.611	3173
891.734	3184
891.857	3291
891.98	3283
892.103	3332
892.226	3268
892.349	3245
892.471	3119
892.594	3226
892.717	3294
892.839	3291
892.962	3249
893.085	3374
893.207	3256
893.33	3195
893.452	3218
893.575	3325
893.697	3230
893.819	3500
893.941	3492
894.064	3454
894.186	3249
894.308	3283
894.43	3447
894.552	3538
894.674	3492
894.796	3283
894.918	3313
895.04	3264
895.161	3454
895.283	3378
895.405	3291
895.526	3351
895.648	3374
895.769	3428
895.891	3420
896.012	3424
896.134	3477
896.255	3420
896.376	3378
896.498	3382
896.619	3443
896.74	3370
896.861	3382
896.982	3667
897.103	3838
897.224	3584
897.345	3450
897.466	3401
897.587	3519
897.708	3584
897.828	3553
897.949	3435
898.07	3332
898.19	3378
898.311	3584
898.431	3428
898.552	3500
898.672	3595
898.792	3549
898.913	3492
899.033	3389
899.153	3272
899.273	3230
899.393	3249
899.513	3294
899.633	3321
899.753	3329
899.873	3279
899.993	3359
900.113	3359
900.232	3363
900.352	3367
900.472	3302
900.591	3157
900.711	3260
900.83	3230
900.95	3428
901.069	3488
901.189	3363
901.308	3173
901.427	3161
901.546	3184
901.665	3291
901.784	3332
901.904	3184
902.023	3116
902.141	3043
902.26	3009
902.379	3173
902.498	3047
902.617	3043
902.735	3207
902.854	3169
902.973	3203
903.091	3013
903.21	3070
903.328	3119
903.446	3097
903.565	3104
903.683	3245
903.801	3150
903.919	3241
904.038	3264
904.156	3176
904.274	3237
904.392	3275
904.51	3268
904.627	3313
904.745	3401
904.863	3485
904.981	3226
905.098	3169
905.216	3275
905.334	3264
905.451	3302
905.569	3298
905.686	3428
905.803	3428
905.921	3291
906.038	3416
906.155	3340
906.272	3287
906.389	3344
906.506	3222
906.623	3241
906.74	3287
906.857	3157
906.974	3245
907.091	3439
907.208	3523
907.324	3450
907.441	3397
907.557	3226
907.674	3230
907.79	3173
907.907	3260
908.023	3374
908.139	3386
908.256	3321
908.372	3378
908.488	3355
908.604	3203
908.72	3188
908.836	3283
908.952	3253
909.068	3291
909.184	3492
909.3	3389
909.415	3492
909.531	3462
909.647	3268
909.762	3275
909.878	3260
909.993	3359
910.108	3332
910.224	3359
910.339	3382
910.454	3321
910.57	3317
910.685	3230
910.8	3553
910.915	3553
911.03	3458
911.145	3264
911.259	3268
911.374	3294
911.489	3313
911.604	3237
911.718	3123
911.833	3150
911.947	3039
912.062	2979
912.176	3135
912.291	3199
912.405	3199
912.519	3431
912.633	3443
912.748	3344
912.862	3283
912.976	3146
913.09	3024
913.204	3116
913.318	3222
913.431	3344
913.545	3275
913.659	3401
913.772	3313
913.886	3222
914	3195
914.113	3332
914.226	3416
914.34	3389
914.453	3203
914.566	3370
914.68	3275
914.793	3344
914.906	3150
915.019	3066
915.132	3051
915.245	3142
915.358	3154
915.47	3253
915.583	3283
915.696	3302
915.809	3401
915.921	3393
916.034	3283
916.146	3245
916.259	3233
916.371	3412
916.483	3310
916.595	3275
916.708	3317
916.82	3283
916.932	3363
917.044	3336
917.156	3317
917.268	3264
917.38	3317
917.491	3272
917.603	3382
917.715	3462
917.826	3431
917.938	3386
918.049	3249
918.161	3454
918.272	3519
918.384	3595
918.495	3492
918.606	3294
918.717	3306
918.828	3386
918.939	3397
919.05	3294
919.161	3370
919.272	3165
919.383	3260
919.494	3485
919.604	3690
919.715	3485
919.826	3405
919.936	3443
920.047	3587
920.157	3511
920.267	3732
920.378	3580
920.488	3549
920.598	3785
920.708	3975
920.818	3789
920.928	3793
921.038	4051
921.148	3972
921.258	3686
921.368	3610
921.477	3538
921.587	3530
921.697	3477
921.806	3641
921.916	3538
922.025	3348
922.134	3344
922.244	3287
922.353	3420
922.462	3241
922.571	3195
922.68	3119
922.789	3074
922.898	3112
923.007	3108
923.116	3192
923.224	3169
923.333	3157
923.442	3051
923.55	3104
923.659	3119
923.767	3146
923.876	3119
923.984	3195
924.092	3066
924.201	3188
924.309	3214
924.417	3275
924.525	3214
924.633	3214
924.741	4169
924.849	3051
924.956	3268
925.064	3039
925.172	3039
925.279	3081
925.387	3173
925.494	3161
925.602	3351
925.709	3313
925.816	3176
925.924	3268
926.031	3348
926.138	3298
926.245	3336
926.352	3245
926.459	3393
926.566	3469
926.673	3287
926.779	3264
926.886	3214
926.993	3108
927.099	3066
927.206	3100
927.312	3051
927.419	3218
927.525	3214
927.631	3249
927.737	3100
927.843	3112
927.95	3039
928.056	3131
928.162	3146
928.267	3249
928.373	3819
928.479	3279
928.585	3028
928.69	3199
928.796	3241
928.901	3142
929.007	3032
929.112	3184
929.218	3176
929.323	3135
929.428	3138
929.533	3272
929.638	3074
929.743	3123
929.848	3291
929.953	3226
930.058	3108
930.163	2986
930.267	3074
930.372	3226
930.477	3005
930.581	3298
930.685	3176
930.79	3055
930.894	3108
930.998	3100
931.103	3283
931.207	2990
931.311	2960
931.415	2925
931.519	2754
931.623	2781
