Data from test_V78500241_601.txt Node
Date: Fri Mar 25 16:19:22 CST 2022
User: usil
Spectrometer: V785-0024
Trigger mode: 0
Integration Time (sec): 4.000000E-1
Scans to average: 1
Nonlinearity correction enabled: false
Boxcar width: 0
Storing dark spectrum: false
XAxis mode: Wavelengths
Number of Pixels in Spectrum: 1024
>>>>>Begin Spectral Data<<<<<
801.071	2883
801.214	2952
801.356	2853
801.499	2891
801.641	2864
801.783	2963
801.926	3009
802.068	2982
802.211	2971
802.353	3047
802.496	2975
802.638	2998
802.78	3058
802.923	3062
803.065	3005
803.208	2880
803.35	2891
803.492	2910
803.635	2922
803.777	2750
803.919	2868
804.061	3157
804.204	2967
804.346	2925
804.488	2826
804.63	3009
804.773	2876
804.915	2914
805.057	3081
805.199	2910
805.341	2914
805.483	3074
805.626	2998
805.768	2941
805.91	3077
806.052	3089
806.194	3032
806.336	3214
806.478	3024
806.62	2941
806.762	2944
806.904	3017
807.046	3142
807.188	2994
807.33	2941
807.472	2990
807.614	2922
807.756	2986
807.898	2937
808.04	2902
808.182	2960
808.324	2952
808.465	2891
808.607	2899
808.749	2830
808.891	2845
809.033	2979
809.174	2967
809.316	2910
809.458	2838
809.6	2785
809.741	2762
809.883	2773
810.025	2826
810.166	2842
810.308	2830
810.45	2823
810.591	2796
810.733	2777
810.875	2796
811.016	2773
811.158	2762
811.299	2811
811.441	2933
811.582	2910
811.724	2849
811.865	2830
812.007	2910
812.148	2864
812.29	2838
812.431	2872
812.573	2925
812.714	2956
812.855	3077
812.997	3066
813.138	3093
813.279	3020
813.421	2963
813.562	2941
813.703	2876
813.845	2872
813.986	2762
814.127	2746
814.268	2823
814.41	2868
814.551	2849
814.692	2876
814.833	2826
814.974	2872
815.115	2933
815.256	2807
815.397	2773
815.539	2826
815.68	2773
815.821	2777
815.962	2910
816.103	2902
816.244	2876
816.385	2868
816.526	2960
816.666	2868
816.807	2781
816.948	2880
817.089	2922
817.23	2861
817.371	2807
817.512	2777
817.653	2868
817.793	2796
817.934	2891
818.075	2937
818.216	2948
818.356	3005
818.497	2899
818.638	2785
818.778	2788
818.919	2769
819.06	2758
819.2	2876
819.341	2792
819.481	2811
819.622	2929
819.762	3085
819.903	3009
820.043	2929
820.184	2876
820.324	2861
820.465	3039
820.605	3039
820.746	3047
820.886	2922
821.026	3104
821.167	3150
821.307	3260
821.447	3256
821.588	3226
821.728	3230
821.868	3188
822.008	3066
822.149	3173
822.289	3241
822.429	3089
822.569	3112
822.709	3176
822.849	3020
822.99	3043
823.13	3146
823.27	3184
823.41	3112
823.55	3108
823.69	3112
823.83	3173
823.97	3097
824.11	2982
824.25	3005
824.389	3058
824.529	3108
824.669	3112
824.809	3176
824.949	3230
825.089	3275
825.228	3173
825.368	3013
825.508	2948
825.648	2960
825.787	3005
825.927	3051
826.067	2929
826.206	2960
826.346	3051
826.485	3070
826.625	3127
826.765	3249
826.904	3230
827.044	2971
827.183	2933
827.323	2887
827.462	3001
827.601	2937
827.741	2933
827.88	2994
828.02	2849
828.159	2963
828.298	3028
828.437	3108
828.577	3070
828.716	3260
828.855	3089
828.994	2902
829.134	2891
829.273	2887
829.412	2910
829.551	2838
829.69	2895
829.829	2975
829.968	3116
830.107	3024
830.246	3005
830.385	2883
830.524	2880
830.663	2826
830.802	2727
830.941	2629
831.08	2640
831.219	2781
831.357	2735
831.496	2899
831.635	2735
831.774	2640
831.913	2640
832.051	2518
832.19	2552
832.329	2682
832.467	2522
832.606	2469
832.744	2583
832.883	2556
833.022	2568
833.16	2629
833.299	2670
833.437	2689
833.576	2689
833.714	2720
833.852	2682
833.991	2739
834.129	2796
834.267	2792
834.406	2800
834.544	2842
834.682	2876
834.821	2868
834.959	3024
835.097	2918
835.235	3077
835.373	2960
835.511	2979
835.65	2986
835.788	2956
835.926	2845
836.064	2826
836.202	2819
836.34	3108
836.478	3104
836.615	3058
836.753	3116
836.891	3203
837.029	3150
837.167	3097
837.305	3039
837.443	3058
837.58	2960
837.718	3119
837.856	3070
837.993	3013
838.131	3043
838.269	3100
838.406	3043
838.544	3108
838.681	2948
838.819	2933
838.956	2804
839.094	2807
839.231	2883
839.369	3009
839.506	3367
839.643	3211
839.781	3024
839.918	2948
840.055	3009
840.193	3058
840.33	3066
840.467	3093
840.604	3150
840.742	3405
840.879	3036
841.016	3058
841.153	3093
841.29	3317
841.427	3291
841.564	3256
841.701	3310
841.838	3173
841.975	3138
842.112	3173
842.249	3119
842.385	3074
842.522	3249
842.659	3066
842.796	3062
842.933	3062
843.069	3055
843.206	3017
843.343	3199
843.479	3146
843.616	3123
843.752	2887
843.889	2838
844.025	3039
844.162	2849
844.298	3047
844.435	2963
844.571	2906
844.708	3085
844.844	3169
844.98	3226
845.117	3184
845.253	3036
845.389	2986
845.525	3097
845.661	3131
845.798	3017
845.934	3138
846.07	3055
846.206	3218
846.342	3332
846.478	3237
846.614	3104
846.75	3036
846.886	3036
847.022	3199
847.158	3138
847.294	3176
847.429	3218
847.565	3203
847.701	3485
847.837	3043
847.972	3001
848.108	3184
848.244	3127
848.379	2960
848.515	2922
848.65	2925
848.786	2952
848.921	3017
849.057	3081
849.192	3169
849.328	3074
849.463	3058
849.598	3093
849.734	3017
849.869	2963
850.004	2883
850.14	2960
850.275	2925
850.41	2826
850.545	2876
850.68	2933
850.815	2982
850.95	2975
851.085	3180
851.22	3100
851.355	3032
851.49	2998
851.625	2971
851.76	3055
851.895	2933
852.03	2906
852.165	3028
852.299	3112
852.434	3173
852.569	3116
852.703	3192
852.838	3226
852.973	3321
853.107	3370
853.242	3161
853.376	3100
853.511	2952
853.645	3009
853.78	3211
853.914	3108
854.048	3070
854.183	3070
854.317	3173
854.451	3313
854.585	3131
854.72	3058
854.854	3214
854.988	3066
855.122	3112
855.256	2998
855.39	3131
855.524	3230
855.658	3161
855.792	3112
855.926	3184
856.06	3207
856.194	3264
856.327	3119
856.461	3058
856.595	3055
856.729	3093
856.862	3180
856.996	3146
857.13	3192
857.263	3241
857.397	3283
857.53	3108
857.664	3176
857.797	3272
857.931	3253
858.064	3176
858.197	3207
858.331	3138
858.464	3123
858.597	3013
858.731	3081
858.864	3112
858.997	3093
859.13	3157
859.263	3165
859.396	3192
859.529	3081
859.662	3077
859.795	3051
859.928	3123
860.061	3291
860.194	3321
860.327	3154
860.46	3085
860.592	3268
860.725	3188
860.858	3241
860.99	3131
861.123	3028
861.256	3036
861.388	3138
861.521	3709
861.653	3001
861.786	2979
861.918	3001
862.05	3017
862.183	3112
862.315	3131
862.447	3199
862.58	3058
862.712	2956
862.844	2868
862.976	3047
863.108	2975
863.24	3435
863.372	2853
863.504	2937
863.636	2967
863.768	3043
863.9	2952
864.032	2937
864.164	2963
864.296	2986
864.428	3077
864.559	3093
864.691	3077
864.823	3032
864.954	3039
865.086	3074
865.217	3005
865.349	2910
865.48	2967
865.612	3009
865.743	3119
865.875	2971
866.006	2937
866.137	2986
866.269	2937
866.4	2910
866.531	2933
866.662	2906
866.793	2887
866.924	2902
867.055	2986
867.186	2910
867.317	2887
867.448	2853
867.579	2830
867.71	2849
867.841	2819
867.972	2883
868.103	2880
868.233	2876
868.364	2868
868.495	2929
868.625	3077
868.756	3169
868.886	2971
869.017	3032
869.147	3154
869.278	3150
869.408	3055
869.539	3036
869.669	3100
869.799	3043
869.929	3157
870.06	3089
870.19	3325
870.32	3260
870.45	3317
870.58	3367
870.71	3473
870.84	3447
870.97	3294
871.1	3256
871.23	3488
871.36	3420
871.489	3317
871.619	3386
871.749	3412
871.879	3443
872.008	3431
872.138	3359
872.267	3245
872.397	3123
872.526	3047
872.656	3039
872.785	3062
872.915	3230
873.044	3340
873.173	3203
873.303	3230
873.432	3211
873.561	3218
873.69	3176
873.819	3154
873.948	3173
874.077	3104
874.206	3062
874.335	3051
874.464	3184
874.593	3332
874.722	3207
874.851	3382
874.979	3294
875.108	3291
875.237	3195
875.365	3127
875.494	3157
875.623	3222
875.751	3085
875.88	3100
876.008	3165
876.136	3222
876.265	3370
876.393	3477
876.521	3401
876.65	3363
876.778	3332
876.906	3268
877.034	3138
877.162	3226
877.29	3188
877.418	3275
877.546	3203
877.674	3199
877.802	3249
877.93	3203
878.058	3138
878.185	3089
878.313	3180
878.441	3237
878.568	3074
878.696	3154
878.824	3272
878.951	3253
879.079	3477
879.206	3580
879.333	3420
879.461	3283
879.588	3359
879.715	3477
879.842	3584
879.97	3359
880.097	3195
880.224	3104
880.351	3199
880.478	3256
880.605	3165
880.732	3176
880.859	3488
880.986	3313
881.112	3306
881.239	3230
881.366	3100
881.493	3009
881.619	3017
881.746	3058
881.872	3089
881.999	3142
882.125	3138
882.252	3272
882.378	3294
882.505	3431
882.631	3283
882.757	3154
882.883	3195
883.01	3173
883.136	3127
883.262	3100
883.388	3116
883.514	3306
883.64	3420
883.766	3325
883.892	3165
884.018	3245
884.143	3435
884.269	3534
884.395	3203
884.52	3188
884.646	3173
884.772	3100
884.897	3066
885.023	3211
885.148	3317
885.274	3420
885.399	3378
885.524	3313
885.65	3241
885.775	3317
885.9	3287
886.025	3431
886.15	3332
886.275	3310
886.4	3230
886.525	3317
886.65	3272
886.775	3291
886.9	3488
887.025	3652
887.149	3393
887.274	3253
887.399	3157
887.523	3192
887.648	3131
887.773	3230
887.897	3363
888.021	3401
888.146	3268
888.27	3447
888.395	3523
888.519	3431
888.643	3424
888.767	3469
888.891	3291
889.015	3233
889.139	3249
889.263	3279
889.387	3405
889.511	3530
889.635	3454
889.759	3291
889.883	3272
890.006	3374
890.13	3496
890.254	3321
890.377	3329
890.501	3192
890.624	3180
890.748	3298
890.871	3188
890.995	3127
891.118	3043
891.241	3161
891.364	3222
891.488	3291
891.611	3192
891.734	3207
891.857	3275
891.98	3218
892.103	3329
892.226	3313
892.349	3233
892.471	3100
892.594	3226
892.717	3268
892.839	3264
892.962	3256
893.085	3344
893.207	3241
893.33	3154
893.452	3199
893.575	3272
893.697	3199
893.819	3424
893.941	3504
894.064	3420
894.186	3283
894.308	3241
894.43	3412
894.552	3523
894.674	3447
894.796	3241
894.918	3344
895.04	3264
895.161	3397
895.283	3370
895.405	3294
895.526	3310
895.648	3409
895.769	3401
895.891	3447
896.012	3473
896.134	3485
896.255	3405
896.376	3389
896.498	3351
896.619	3416
896.74	3382
896.861	3367
896.982	3656
897.103	3819
897.224	3568
897.345	3515
897.466	3450
897.587	3538
897.708	3599
897.828	3553
897.949	3428
898.07	3329
898.19	3386
898.311	3545
898.431	3386
898.552	3519
898.672	3580
898.792	3553
898.913	3496
899.033	3435
899.153	3256
899.273	3214
899.393	3291
899.513	3302
899.633	3302
899.753	3332
899.873	3325
899.993	3363
900.113	3329
900.232	3332
900.352	3332
900.472	3287
900.591	3199
900.711	3298
900.83	3230
900.95	3397
901.069	3473
901.189	3340
901.308	3207
901.427	3123
901.546	3157
901.665	3287
901.784	3310
901.904	3180
902.023	3131
902.141	3001
902.26	2975
902.379	3146
902.498	3070
902.617	3013
902.735	3203
902.854	3264
902.973	3203
903.091	3036
903.21	3032
903.328	3142
903.446	3100
903.565	3100
903.683	3195
903.801	3112
903.919	3253
904.038	3310
904.156	3146
904.274	3279
904.392	3241
904.51	3298
904.627	3355
904.745	3386
904.863	3428
904.981	3272
905.098	3180
905.216	3253
905.334	3313
905.451	3294
905.569	3291
905.686	3401
905.803	3443
905.921	3272
906.038	3389
906.155	3329
906.272	3222
906.389	3329
906.506	3188
906.623	3249
906.74	3272
906.857	3184
906.974	3211
907.091	3443
907.208	3553
907.324	3469
907.441	3359
907.557	3207
907.674	3245
907.79	3218
907.907	3237
908.023	3397
908.139	3389
908.256	3306
908.372	3378
908.488	3336
908.604	3253
908.72	3230
908.836	3272
908.952	3294
909.068	3359
909.184	3450
909.3	3378
909.415	3500
909.531	3450
909.647	3294
909.762	3253
909.878	3249
909.993	3370
910.108	3332
910.224	3359
910.339	3431
910.454	3306
910.57	3279
910.685	3222
910.8	3553
910.915	3500
911.03	3428
911.145	3199
911.259	3241
911.374	3310
911.489	3226
911.604	3233
911.718	3119
911.833	3138
911.947	3051
912.062	2937
912.176	3146
912.291	3173
912.405	3188
912.519	3412
912.633	3481
912.748	3329
912.862	3241
912.976	3127
913.09	3032
913.204	3138
913.318	3199
913.431	3310
913.545	3336
913.659	3389
913.772	3344
913.886	3203
914	3199
914.113	3325
914.226	3397
914.34	3374
914.453	3207
914.566	3428
914.68	3291
914.793	3336
914.906	3108
915.019	3108
915.132	3039
915.245	3173
915.358	3173
915.47	3214
915.583	3237
915.696	3313
915.809	3412
915.921	3370
916.034	3245
916.146	3230
916.259	3207
916.371	3401
916.483	3363
916.595	3272
916.708	3279
916.82	3329
916.932	3348
917.044	3332
917.156	3329
917.268	3256
917.38	3287
917.491	3332
917.603	3336
917.715	3458
917.826	3420
917.938	3393
918.049	3260
918.161	3405
918.272	3580
918.384	3549
918.495	3462
918.606	3332
918.717	3253
918.828	3370
918.939	3416
919.05	3287
919.161	3367
919.272	3150
919.383	3272
919.494	3534
919.604	3675
919.715	3488
919.826	3405
919.936	3401
920.047	3599
920.157	3561
920.267	3717
920.378	3622
920.488	3568
920.598	3732
920.708	3922
920.818	3789
920.928	3793
921.038	4044
921.148	4006
921.258	3728
921.368	3614
921.477	3599
921.587	3587
921.697	3477
921.806	3648
921.916	3515
922.025	3409
922.134	3363
922.244	3340
922.353	3431
922.462	3302
922.571	3275
922.68	3138
922.789	3127
922.898	3157
923.007	3119
923.116	3195
923.224	3192
923.333	3249
923.442	3150
923.55	3127
923.659	3192
923.767	3275
923.876	3154
923.984	3253
924.092	3127
924.201	3218
924.309	3298
924.417	3253
924.525	3207
924.633	3310
924.741	4044
924.849	3051
924.956	3275
925.064	3154
925.172	3108
925.279	3123
925.387	3260
925.494	3272
925.602	3393
925.709	3386
925.816	3256
925.924	3306
926.031	3412
926.138	3340
926.245	3370
926.352	3272
926.459	3435
926.566	3523
926.673	3370
926.779	3306
926.886	3317
926.993	3173
927.099	3146
927.206	3097
927.312	3154
927.419	3275
927.525	3256
927.631	3340
927.737	3154
927.843	3192
927.95	3058
928.056	3169
928.162	3222
928.267	3298
928.373	3766
928.479	3321
928.585	3131
928.69	3268
928.796	3306
928.901	3230
929.007	3062
929.112	3233
929.218	3226
929.323	3188
929.428	3176
929.533	3389
929.638	3165
929.743	3207
929.848	3272
929.953	3279
930.058	3150
930.163	3058
930.267	3081
930.372	3211
930.477	3081
930.581	3374
930.685	3233
930.79	3131
930.894	3135
930.998	3108
931.103	3317
931.207	3013
931.311	2986
931.415	2948
931.519	2819
931.623	2838
