Data from test_V78500241_1542.txt Node
Date: Fri Mar 25 16:25:53 CST 2022
User: usil
Spectrometer: V785-0024
Trigger mode: 0
Integration Time (sec): 4.000000E-1
Scans to average: 1
Nonlinearity correction enabled: false
Boxcar width: 0
Storing dark spectrum: false
XAxis mode: Wavelengths
Number of Pixels in Spectrum: 1024
>>>>>Begin Spectral Data<<<<<
801.071	2918
801.214	2952
801.356	2876
801.499	2853
801.641	2861
801.783	2986
801.926	3085
802.068	3001
802.211	3009
802.353	3066
802.496	2982
802.638	3020
802.78	3032
802.923	3077
803.065	3032
803.208	2918
803.35	2925
803.492	2967
803.635	2948
803.777	2777
803.919	2872
804.061	3214
804.204	2956
804.346	2906
804.488	2872
804.63	3001
804.773	2872
804.915	2941
805.057	3104
805.199	2952
805.341	2982
805.483	3036
805.626	3028
805.768	2982
805.91	3123
806.052	3085
806.194	3077
806.336	3237
806.478	3036
806.62	2944
806.762	2998
806.904	3062
807.046	3176
807.188	3020
807.33	2906
807.472	2990
807.614	2929
807.756	2967
807.898	2937
808.04	2925
808.182	3009
808.324	2986
808.465	2876
808.607	2887
808.749	2788
808.891	2826
809.033	2975
809.174	2967
809.316	2944
809.458	2906
809.6	2788
809.741	2792
809.883	2788
810.025	2861
810.166	2830
810.308	2853
810.45	2861
810.591	2788
810.733	2785
810.875	2842
811.016	2766
811.158	2766
811.299	2807
811.441	2922
811.582	2914
811.724	2800
811.865	2849
812.007	2914
812.148	2933
812.29	2842
812.431	2929
812.573	2979
812.714	2956
812.855	3013
812.997	3020
813.138	3135
813.279	3013
813.421	2971
813.562	2971
813.703	2868
813.845	2941
813.986	2769
814.127	2735
814.268	2807
814.41	2845
814.551	2788
814.692	2857
814.833	2815
814.974	2929
815.115	2963
815.256	2823
815.397	2815
815.539	2849
815.68	2804
815.821	2815
815.962	2933
816.103	2906
816.244	2872
816.385	2868
816.526	2952
816.666	2895
816.807	2769
816.948	2922
817.089	2891
817.23	2861
817.371	2750
817.512	2830
817.653	2826
817.793	2857
817.934	2872
818.075	3001
818.216	2979
818.356	3024
818.497	2861
818.638	2807
818.778	2815
818.919	2796
819.06	2777
819.2	2925
819.341	2796
819.481	2815
819.622	2929
819.762	3100
819.903	3043
820.043	2986
820.184	2925
820.324	2941
820.465	3020
820.605	3032
820.746	3001
820.886	2925
821.026	3119
821.167	3157
821.307	3298
821.447	3233
821.588	3230
821.728	3256
821.868	3169
822.008	3077
822.149	3203
822.289	3233
822.429	3062
822.569	3127
822.709	3176
822.849	3036
822.99	3028
823.13	3180
823.27	3207
823.41	3077
823.55	3169
823.69	3146
823.83	3184
823.97	3123
824.11	3024
824.25	2982
824.389	3055
824.529	3123
824.669	3043
824.809	3203
824.949	3237
825.089	3222
825.228	3169
825.368	2982
825.508	2952
825.648	2998
825.787	2990
825.927	3024
826.067	2982
826.206	2979
826.346	3017
826.485	3062
826.625	3119
826.765	3264
826.904	3203
827.044	2979
827.183	2948
827.323	2857
827.462	2963
827.601	2922
827.741	2929
827.88	2979
828.02	2857
828.159	2982
828.298	3036
828.437	3112
828.577	3062
828.716	3222
828.855	3093
828.994	2929
829.134	2910
829.273	2948
829.412	2849
829.551	2887
829.69	2891
829.829	2979
829.968	3116
830.107	3001
830.246	3005
830.385	2960
830.524	2922
830.663	2800
830.802	2708
830.941	2663
831.08	2663
831.219	2750
831.357	2762
831.496	2960
831.635	2697
831.774	2648
831.913	2678
832.051	2533
832.19	2590
832.329	2659
832.467	2518
832.606	2480
832.744	2575
832.883	2606
833.022	2583
833.16	2629
833.299	2705
833.437	2670
833.576	2682
833.714	2705
833.852	2731
833.991	2735
834.129	2864
834.267	2811
834.406	2769
834.544	2883
834.682	2902
834.821	2853
834.959	3070
835.097	2899
835.235	3070
835.373	2960
835.511	3074
835.65	2925
835.788	2994
835.926	2838
836.064	2807
836.202	2815
836.34	3085
836.478	3135
836.615	3043
836.753	3131
836.891	3218
837.029	3131
837.167	3081
837.305	3058
837.443	3043
837.58	2994
837.718	3085
837.856	3051
837.993	3032
838.131	3123
838.269	3131
838.406	3127
838.544	3070
838.681	2925
838.819	2910
838.956	2807
839.094	2830
839.231	2922
839.369	2982
839.506	3359
839.643	3222
839.781	3055
839.918	2971
840.055	3009
840.193	3066
840.33	3055
840.467	3085
840.604	3116
840.742	3454
840.879	3081
841.016	3047
841.153	3116
841.29	3325
841.427	3306
841.564	3291
841.701	3317
841.838	3199
841.975	3195
842.112	3188
842.249	3074
842.385	3039
842.522	3272
842.659	3074
842.796	3051
842.933	3104
843.069	3062
843.206	3005
843.343	3161
843.479	3112
843.616	3112
843.752	2880
843.889	2876
844.025	3066
844.162	2872
844.298	3093
844.435	2944
844.571	2902
844.708	3032
844.844	3161
844.98	3249
845.117	3150
845.253	3066
845.389	3039
845.525	3131
845.661	3142
845.798	2986
845.934	3135
846.07	3055
846.206	3203
846.342	3272
846.478	3241
846.614	3085
846.75	3043
846.886	2982
847.022	3203
847.158	3131
847.294	3188
847.429	3222
847.565	3192
847.701	3488
847.837	3017
847.972	3028
848.108	3165
848.244	3138
848.379	2971
848.515	2918
848.65	2933
848.786	2963
848.921	2982
849.057	3093
849.192	3146
849.328	3070
849.463	3077
849.598	3051
849.734	3039
849.869	2994
850.004	2914
850.14	2941
850.275	2906
850.41	2876
850.545	2853
850.68	2910
850.815	2925
850.95	2933
851.085	3173
851.22	3074
851.355	3036
851.49	2994
851.625	2971
851.76	2982
851.895	2906
852.03	2906
852.165	2998
852.299	3081
852.434	3192
852.569	3108
852.703	3127
852.838	3245
852.973	3310
853.107	3283
853.242	3127
853.376	3108
853.511	2956
853.645	3039
853.78	3207
853.914	3100
854.048	3100
854.183	3051
854.317	3146
854.451	3264
854.585	3138
854.72	3062
854.854	3207
854.988	2998
855.122	3104
855.256	2998
855.39	3093
855.524	3222
855.658	3173
855.792	3146
855.926	3195
856.06	3245
856.194	3283
856.327	3176
856.461	3108
856.595	3070
856.729	3066
856.862	3192
856.996	3138
857.13	3180
857.263	3199
857.397	3241
857.53	3127
857.664	3157
857.797	3245
857.931	3214
858.064	3135
858.197	3207
858.331	3150
858.464	3070
858.597	3017
858.731	3085
858.864	3104
858.997	3070
859.13	3165
859.263	3161
859.396	3173
859.529	3089
859.662	3062
859.795	3070
859.928	3161
860.061	3291
860.194	3256
860.327	3123
860.46	3070
860.592	3218
860.725	3211
860.858	3279
860.99	3100
861.123	3036
861.256	3028
861.388	3161
861.521	3960
861.653	2990
861.786	3001
861.918	3009
862.05	3070
862.183	3089
862.315	3142
862.447	3211
862.58	3119
862.712	2944
862.844	2838
862.976	3047
863.108	2994
863.24	3291
863.372	2906
863.504	2967
863.636	2960
863.768	3043
863.9	2975
864.032	2902
864.164	2956
864.296	3032
864.428	3070
864.559	3108
864.691	3058
864.823	3062
864.954	3055
865.086	3020
865.217	3024
865.349	2937
865.48	2990
865.612	3005
865.743	3146
865.875	2967
866.006	2937
866.137	3009
866.269	2944
866.4	2914
866.531	2937
866.662	2876
866.793	2887
866.924	2876
867.055	2933
867.186	2918
867.317	2864
867.448	2845
867.579	2823
867.71	2830
867.841	2826
867.972	2925
868.103	2922
868.233	2887
868.364	2853
868.495	2887
868.625	3089
868.756	3119
868.886	2944
869.017	3047
869.147	3165
869.278	3173
869.408	3024
869.539	3028
869.669	3097
869.799	2998
869.929	3127
870.06	3123
870.19	3348
870.32	3245
870.45	3332
870.58	3359
870.71	3428
870.84	3469
870.97	3291
871.1	3233
871.23	3511
871.36	3443
871.489	3340
871.619	3412
871.749	3420
871.879	3431
872.008	3477
872.138	3363
872.267	3260
872.397	3138
872.526	3077
872.656	3020
872.785	3119
872.915	3218
873.044	3317
873.173	3222
873.303	3245
873.432	3203
873.561	3226
873.69	3123
873.819	3116
873.948	3176
874.077	3116
874.206	3028
874.335	3077
874.464	3222
874.593	3340
874.722	3218
874.851	3367
874.979	3359
875.108	3294
875.237	3184
875.365	3173
875.494	3161
875.623	3253
875.751	3062
875.88	3150
876.008	3188
876.136	3211
876.265	3367
876.393	3492
876.521	3397
876.65	3431
876.778	3306
876.906	3233
877.034	3176
877.162	3237
877.29	3192
877.418	3256
877.546	3237
877.674	3226
877.802	3245
877.93	3222
878.058	3142
878.185	3108
878.313	3211
878.441	3180
878.568	3051
878.696	3119
878.824	3211
878.951	3279
879.079	3443
879.206	3652
879.333	3405
879.461	3325
879.588	3336
879.715	3469
879.842	3561
879.97	3412
880.097	3157
880.224	3116
880.351	3207
880.478	3195
880.605	3211
880.732	3173
880.859	3488
880.986	3317
881.112	3313
881.239	3161
881.366	3093
881.493	3028
881.619	3032
881.746	3077
881.872	3085
881.999	3104
882.125	3154
882.252	3260
882.378	3272
882.505	3424
882.631	3275
882.757	3119
882.883	3237
883.01	3233
883.136	3157
883.262	3119
883.388	3085
883.514	3325
883.64	3363
883.766	3291
883.892	3169
884.018	3241
884.143	3416
884.269	3549
884.395	3180
884.52	3154
884.646	3176
884.772	3123
884.897	3089
885.023	3195
885.148	3306
885.274	3378
885.399	3351
885.524	3272
885.65	3260
885.775	3332
885.9	3260
886.025	3405
886.15	3393
886.275	3260
886.4	3237
886.525	3325
886.65	3245
886.775	3298
886.9	3515
887.025	3648
887.149	3428
887.274	3237
887.399	3165
887.523	3203
887.648	3188
887.773	3199
887.897	3378
888.021	3469
888.146	3283
888.27	3420
888.395	3538
888.519	3439
888.643	3424
888.767	3416
888.891	3287
889.015	3226
889.139	3283
889.263	3260
889.387	3405
889.511	3530
889.635	3409
889.759	3291
889.883	3294
890.006	3374
890.13	3477
890.254	3230
890.377	3313
890.501	3233
890.624	3184
890.748	3287
890.871	3146
890.995	3093
891.118	3062
891.241	3211
891.364	3218
891.488	3302
891.611	3184
891.734	3249
891.857	3272
891.98	3214
892.103	3321
892.226	3241
892.349	3157
892.471	3085
892.594	3233
892.717	3264
892.839	3275
892.962	3298
893.085	3332
893.207	3249
893.33	3157
893.452	3222
893.575	3325
893.697	3245
893.819	3496
893.941	3519
894.064	3443
894.186	3264
894.308	3260
894.43	3447
894.552	3473
894.674	3420
894.796	3298
894.918	3344
895.04	3306
895.161	3447
895.283	3367
895.405	3291
895.526	3359
895.648	3412
895.769	3424
895.891	3443
896.012	3466
896.134	3447
896.255	3386
896.376	3363
896.498	3336
896.619	3431
896.74	3389
896.861	3405
896.982	3663
897.103	3789
897.224	3587
897.345	3481
897.466	3428
897.587	3496
897.708	3622
897.828	3549
897.949	3416
898.07	3344
898.19	3409
898.311	3587
898.431	3428
898.552	3523
898.672	3603
898.792	3564
898.913	3515
899.033	3401
899.153	3298
899.273	3184
899.393	3268
899.513	3287
899.633	3283
899.753	3332
899.873	3302
899.993	3382
900.113	3310
900.232	3367
900.352	3256
900.472	3264
900.591	3226
900.711	3275
900.83	3230
900.95	3397
901.069	3488
901.189	3317
901.308	3195
901.427	3142
901.546	3184
901.665	3302
901.784	3310
901.904	3195
902.023	3150
902.141	2998
902.26	3020
902.379	3135
902.498	3070
902.617	3024
902.735	3226
902.854	3195
902.973	3199
903.091	3020
903.21	3062
903.328	3085
903.446	3089
903.565	3104
903.683	3192
903.801	3119
903.919	3256
904.038	3340
904.156	3150
904.274	3294
904.392	3253
904.51	3302
904.627	3294
904.745	3447
904.863	3485
904.981	3268
905.098	3176
905.216	3253
905.334	3253
905.451	3287
905.569	3291
905.686	3389
905.803	3424
905.921	3302
906.038	3393
906.155	3359
906.272	3264
906.389	3313
906.506	3256
906.623	3226
906.74	3256
906.857	3180
906.974	3226
907.091	3435
907.208	3584
907.324	3473
907.441	3405
907.557	3214
907.674	3245
907.79	3192
907.907	3268
908.023	3363
908.139	3367
908.256	3287
908.372	3378
908.488	3291
908.604	3249
908.72	3192
908.836	3253
908.952	3294
909.068	3321
909.184	3477
909.3	3382
909.415	3458
909.531	3500
909.647	3233
909.762	3272
909.878	3253
909.993	3344
910.108	3348
910.224	3325
910.339	3370
910.454	3321
910.57	3272
910.685	3218
910.8	3549
910.915	3504
911.03	3393
911.145	3283
911.259	3268
911.374	3291
911.489	3249
911.604	3211
911.718	3108
911.833	3150
911.947	3039
912.062	2982
912.176	3203
912.291	3165
912.405	3233
912.519	3447
912.633	3443
912.748	3336
912.862	3268
912.976	3180
913.09	3074
913.204	3142
913.318	3203
913.431	3283
913.545	3325
913.659	3416
913.772	3340
913.886	3222
914	3180
914.113	3294
914.226	3401
914.34	3386
914.453	3218
914.566	3386
914.68	3294
914.793	3268
914.906	3146
915.019	3077
915.132	3043
915.245	3169
915.358	3161
915.47	3207
915.583	3230
915.696	3325
915.809	3393
915.921	3393
916.034	3268
916.146	3226
916.259	3230
916.371	3370
916.483	3374
916.595	3287
916.708	3298
916.82	3313
916.932	3321
917.044	3386
917.156	3329
917.268	3241
917.38	3306
917.491	3306
917.603	3321
917.715	3443
917.826	3431
917.938	3382
918.049	3237
918.161	3386
918.272	3633
918.384	3576
918.495	3500
918.606	3291
918.717	3272
918.828	3382
918.939	3428
919.05	3310
919.161	3409
919.272	3188
919.383	3291
919.494	3496
919.604	3663
919.715	3500
919.826	3424
919.936	3443
920.047	3587
920.157	3584
920.267	3812
920.378	3660
920.488	3561
920.598	3770
920.708	4010
920.818	3850
920.928	3861
921.038	4029
921.148	4063
921.258	3740
921.368	3648
921.477	3599
921.587	3557
921.697	3549
921.806	3690
921.916	3534
922.025	3348
922.134	3393
922.244	3393
922.353	3462
922.462	3321
922.571	3237
922.68	3161
922.789	3123
922.898	3154
923.007	3127
923.116	3218
923.224	3230
923.333	3211
923.442	3138
923.55	3150
923.659	3176
923.767	3264
923.876	3165
923.984	3283
924.092	3176
924.201	3241
924.309	3260
924.417	3294
924.525	3245
924.633	3325
924.741	4185
924.849	3093
924.956	3325
925.064	3157
925.172	3039
925.279	3142
925.387	3245
925.494	3222
925.602	3386
925.709	3420
925.816	3233
925.924	3325
926.031	3412
926.138	3363
926.245	3393
926.352	3279
926.459	3412
926.566	3564
926.673	3363
926.779	3294
926.886	3260
926.993	3184
927.099	3195
927.206	3119
927.312	3169
927.419	3272
927.525	3249
927.631	3298
927.737	3188
927.843	3176
927.95	3036
928.056	3161
928.162	3222
928.267	3275
928.373	3766
928.479	3340
928.585	3055
928.69	3253
928.796	3275
928.901	3180
929.007	3097
929.112	3214
929.218	3237
929.323	3173
929.428	3188
929.533	3332
929.638	3131
929.743	3195
929.848	3272
929.953	3249
930.058	3184
930.163	3024
930.267	3077
930.372	3241
930.477	3062
930.581	3329
930.685	3241
930.79	3112
930.894	3142
930.998	3104
931.103	3291
931.207	2948
931.311	2956
931.415	2944
931.519	2807
931.623	2804
