Data from test_V78500241_1716.txt Node
Date: Fri Mar 25 16:27:05 CST 2022
User: usil
Spectrometer: V785-0024
Trigger mode: 0
Integration Time (sec): 4.000000E-1
Scans to average: 1
Nonlinearity correction enabled: false
Boxcar width: 0
Storing dark spectrum: false
XAxis mode: Wavelengths
Number of Pixels in Spectrum: 1024
>>>>>Begin Spectral Data<<<<<
801.071	2895
801.214	2971
801.356	2883
801.499	2906
801.641	2838
801.783	2887
801.926	3009
802.068	2979
802.211	3024
802.353	3051
802.496	2952
802.638	3013
802.78	2994
802.923	3093
803.065	2990
803.208	2914
803.35	2899
803.492	2933
803.635	2902
803.777	2735
803.919	2880
804.061	3161
804.204	2956
804.346	2895
804.488	2834
804.63	2979
804.773	2872
804.915	2899
805.057	3051
805.199	2899
805.341	2971
805.483	3051
805.626	2979
805.768	2963
805.91	3112
806.052	3093
806.194	3058
806.336	3188
806.478	3001
806.62	2952
806.762	2941
806.904	3070
807.046	3127
807.188	2982
807.33	2941
807.472	2956
807.614	2914
807.756	2982
807.898	2914
808.04	2895
808.182	3001
808.324	2922
808.465	2883
808.607	2895
808.749	2811
808.891	2815
809.033	2963
809.174	2971
809.316	2880
809.458	2883
809.6	2807
809.741	2743
809.883	2815
810.025	2834
810.166	2864
810.308	2857
810.45	2830
810.591	2746
810.733	2777
810.875	2826
811.016	2746
811.158	2804
811.299	2811
811.441	2906
811.582	2861
811.724	2796
811.865	2830
812.007	2891
812.148	2910
812.29	2857
812.431	2880
812.573	2941
812.714	2956
812.855	3070
812.997	3055
813.138	3112
813.279	2956
813.421	2975
813.562	2948
813.703	2853
813.845	2864
813.986	2785
814.127	2724
814.268	2807
814.41	2830
814.551	2792
814.692	2853
814.833	2815
814.974	2883
815.115	2925
815.256	2792
815.397	2823
815.539	2891
815.68	2773
815.821	2796
815.962	2944
816.103	2910
816.244	2876
816.385	2849
816.526	2895
816.666	2937
816.807	2731
816.948	2914
817.089	2929
817.23	2853
817.371	2804
817.512	2762
817.653	2819
817.793	2811
817.934	2845
818.075	3013
818.216	2986
818.356	3001
818.497	2872
818.638	2804
818.778	2845
818.919	2781
819.06	2727
819.2	2864
819.341	2785
819.481	2823
819.622	2887
819.762	3123
819.903	3036
820.043	2918
820.184	2902
820.324	2880
820.465	2986
820.605	3055
820.746	2960
820.886	2941
821.026	3081
821.167	3157
821.307	3264
821.447	3306
821.588	3249
821.728	3195
821.868	3146
822.008	3142
822.149	3131
822.289	3233
822.429	3058
822.569	3039
822.709	3157
822.849	3009
822.99	3081
823.13	3131
823.27	3207
823.41	3085
823.55	3138
823.69	3131
823.83	3207
823.97	3100
824.11	3013
824.25	3017
824.389	3077
824.529	3093
824.669	3062
824.809	3192
824.949	3222
825.089	3199
825.228	3150
825.368	3039
825.508	2956
825.648	2944
825.787	2998
825.927	2998
826.067	2941
826.206	2948
826.346	3047
826.485	3112
826.625	3039
826.765	3306
826.904	3233
827.044	3005
827.183	2937
827.323	2861
827.462	3013
827.601	2895
827.741	2922
827.88	2967
828.02	2819
828.159	2956
828.298	3024
828.437	3093
828.577	3062
828.716	3249
828.855	3039
828.994	2899
829.134	2914
829.273	2929
829.412	2864
829.551	2880
829.69	2902
829.829	2967
829.968	3100
830.107	2990
830.246	3024
830.385	2910
830.524	2902
830.663	2807
830.802	2705
830.941	2651
831.08	2648
831.219	2750
831.357	2762
831.496	2922
831.635	2754
831.774	2648
831.913	2625
832.051	2549
832.19	2533
832.329	2674
832.467	2518
832.606	2499
832.744	2587
832.883	2583
833.022	2568
833.16	2659
833.299	2686
833.437	2716
833.576	2674
833.714	2746
833.852	2739
833.991	2727
834.129	2857
834.267	2830
834.406	2766
834.544	2857
834.682	2864
834.821	2853
834.959	3055
835.097	2887
835.235	3093
835.373	2990
835.511	3017
835.65	2941
835.788	2922
835.926	2826
836.064	2819
836.202	2853
836.34	3077
836.478	3116
836.615	3017
836.753	3127
836.891	3154
837.029	3169
837.167	3085
837.305	3058
837.443	3074
837.58	2967
837.718	3116
837.856	3070
837.993	3017
838.131	3131
838.269	3097
838.406	3123
838.544	3039
838.681	2929
838.819	2929
838.956	2785
839.094	2857
839.231	2914
839.369	3009
839.506	3336
839.643	3203
839.781	3020
839.918	2944
840.055	3024
840.193	3024
840.33	3047
840.467	3085
840.604	3100
840.742	3424
840.879	3058
841.016	3028
841.153	3104
841.29	3302
841.427	3321
841.564	3222
841.701	3283
841.838	3199
841.975	3176
842.112	3237
842.249	3081
842.385	3039
842.522	3245
842.659	3081
842.796	3051
842.933	3066
843.069	3009
843.206	3043
843.343	3203
843.479	3104
843.616	3119
843.752	2887
843.889	2853
844.025	3039
844.162	2906
844.298	3093
844.435	2941
844.571	2925
844.708	3089
844.844	3180
844.98	3230
845.117	3169
845.253	3058
845.389	2994
845.525	3100
845.661	3093
845.798	2998
845.934	3093
846.07	3024
846.206	3195
846.342	3317
846.478	3218
846.614	3104
846.75	3009
846.886	3020
847.022	3218
847.158	3142
847.294	3207
847.429	3226
847.565	3157
847.701	3435
847.837	3017
847.972	2994
848.108	3173
848.244	3108
848.379	2979
848.515	2929
848.65	2941
848.786	2986
848.921	3039
849.057	3131
849.192	3138
849.328	3043
849.463	3097
849.598	3051
849.734	3020
849.869	2952
850.004	2929
850.14	2963
850.275	2891
850.41	2845
850.545	2853
850.68	2868
850.815	2906
850.95	2944
851.085	3165
851.22	3135
851.355	3013
851.49	2975
851.625	3013
851.76	3013
851.895	2929
852.03	2922
852.165	2994
852.299	3108
852.434	3207
852.569	3131
852.703	3180
852.838	3214
852.973	3336
853.107	3310
853.242	3119
853.376	3093
853.511	2994
853.645	2982
853.78	3222
853.914	3119
854.048	3089
854.183	3055
854.317	3108
854.451	3359
854.585	3089
854.72	3093
854.854	3188
854.988	3036
855.122	3062
855.256	2971
855.39	3127
855.524	3253
855.658	3131
855.792	3081
855.926	3165
856.06	3165
856.194	3272
856.327	3165
856.461	3051
856.595	3089
856.729	3085
856.862	3180
856.996	3112
857.13	3211
857.263	3180
857.397	3268
857.53	3093
857.664	3169
857.797	3211
857.931	3249
858.064	3157
858.197	3245
858.331	3131
858.464	3070
858.597	3009
858.731	3119
858.864	3119
858.997	3104
859.13	3157
859.263	3192
859.396	3157
859.529	3070
859.662	3058
859.795	3028
859.928	3108
860.061	3253
860.194	3264
860.327	3104
860.46	3142
860.592	3211
860.725	3199
860.858	3218
860.99	3097
861.123	3070
861.256	3074
861.388	3116
861.521	3941
861.653	3005
861.786	2994
861.918	3036
862.05	3070
862.183	3085
862.315	3184
862.447	3180
862.58	3097
862.712	2941
862.844	2902
862.976	3032
863.108	3009
863.24	3409
863.372	2849
863.504	2956
863.636	2963
863.768	2990
863.9	2956
864.032	2933
864.164	2929
864.296	3047
864.428	3112
864.559	3085
864.691	3058
864.823	3077
864.954	3047
865.086	3055
865.217	2994
865.349	2948
865.48	3013
865.612	2990
865.743	3112
865.875	2975
866.006	2944
866.137	2963
866.269	2937
866.4	2944
866.531	2895
866.662	2887
866.793	2845
866.924	2864
867.055	2998
867.186	2918
867.317	2883
867.448	2845
867.579	2864
867.71	2849
867.841	2785
867.972	2887
868.103	2880
868.233	2872
868.364	2906
868.495	2857
868.625	3066
868.756	3161
868.886	2963
869.017	3032
869.147	3157
869.278	3169
869.408	3070
869.539	3020
869.669	3066
869.799	3032
869.929	3093
870.06	3097
870.19	3317
870.32	3260
870.45	3306
870.58	3393
870.71	3454
870.84	3405
870.97	3294
871.1	3237
871.23	3500
871.36	3469
871.489	3344
871.619	3344
871.749	3443
871.879	3454
872.008	3488
872.138	3351
872.267	3241
872.397	3146
872.526	3055
872.656	3005
872.785	3108
872.915	3230
873.044	3272
873.173	3211
873.303	3214
873.432	3192
873.561	3245
873.69	3123
873.819	3104
873.948	3154
874.077	3097
874.206	3024
874.335	3047
874.464	3211
874.593	3340
874.722	3222
874.851	3397
874.979	3329
875.108	3291
875.237	3249
875.365	3154
875.494	3142
875.623	3268
875.751	3123
875.88	3108
876.008	3211
876.136	3249
876.265	3367
876.393	3523
876.521	3389
876.65	3374
876.778	3332
876.906	3256
877.034	3230
877.162	3184
877.29	3184
877.418	3218
877.546	3207
877.674	3203
877.802	3222
877.93	3218
878.058	3138
878.185	3108
878.313	3203
878.441	3199
878.568	3085
878.696	3135
878.824	3230
878.951	3260
879.079	3428
879.206	3625
879.333	3424
879.461	3317
879.588	3351
879.715	3466
879.842	3603
879.97	3409
880.097	3157
880.224	3135
880.351	3176
880.478	3226
880.605	3199
880.732	3169
880.859	3462
880.986	3313
881.112	3336
881.239	3211
881.366	3055
881.493	3028
881.619	3005
881.746	3070
881.872	3093
881.999	3112
882.125	3131
882.252	3245
882.378	3279
882.505	3450
882.631	3237
882.757	3188
882.883	3211
883.01	3211
883.136	3173
883.262	3074
883.388	3055
883.514	3340
883.64	3370
883.766	3317
883.892	3154
884.018	3249
884.143	3393
884.269	3523
884.395	3184
884.52	3142
884.646	3180
884.772	3116
884.897	3093
885.023	3218
885.148	3298
885.274	3397
885.399	3363
885.524	3283
885.65	3283
885.775	3302
885.9	3272
886.025	3431
886.15	3359
886.275	3329
886.4	3249
886.525	3291
886.65	3317
886.775	3253
886.9	3447
887.025	3633
887.149	3412
887.274	3260
887.399	3161
887.523	3154
887.648	3135
887.773	3199
887.897	3336
888.021	3382
888.146	3317
888.27	3409
888.395	3542
888.519	3382
888.643	3435
888.767	3466
888.891	3302
889.015	3260
889.139	3279
889.263	3226
889.387	3401
889.511	3523
889.635	3428
889.759	3268
889.883	3291
890.006	3386
890.13	3492
890.254	3306
890.377	3348
890.501	3192
890.624	3195
890.748	3329
890.871	3184
890.995	3104
891.118	3043
891.241	3157
891.364	3207
891.488	3340
891.611	3230
891.734	3260
891.857	3268
891.98	3256
892.103	3325
892.226	3241
892.349	3218
892.471	3100
892.594	3268
892.717	3321
892.839	3264
892.962	3249
893.085	3359
893.207	3310
893.33	3157
893.452	3188
893.575	3302
893.697	3275
893.819	3462
893.941	3504
894.064	3428
894.186	3237
894.308	3275
894.43	3439
894.552	3519
894.674	3477
894.796	3249
894.918	3325
895.04	3283
895.161	3462
895.283	3344
895.405	3279
895.526	3378
895.648	3397
895.769	3378
895.891	3447
896.012	3450
896.134	3469
896.255	3386
896.376	3340
896.498	3389
896.619	3416
896.74	3340
896.861	3378
896.982	3622
897.103	3846
897.224	3538
897.345	3511
897.466	3450
897.587	3481
897.708	3610
897.828	3511
897.949	3435
898.07	3317
898.19	3382
898.311	3603
898.431	3428
898.552	3538
898.672	3595
898.792	3564
898.913	3534
899.033	3431
899.153	3302
899.273	3211
899.393	3279
899.513	3310
899.633	3306
899.753	3321
899.873	3317
899.993	3397
900.113	3355
900.232	3363
900.352	3329
900.472	3302
900.591	3188
900.711	3321
900.83	3253
900.95	3389
901.069	3477
901.189	3325
901.308	3176
901.427	3135
901.546	3154
901.665	3302
901.784	3340
901.904	3199
902.023	3161
902.141	2971
902.26	2990
902.379	3119
902.498	3085
902.617	3020
902.735	3233
902.854	3222
902.973	3203
903.091	3013
903.21	3036
903.328	3108
903.446	3093
903.565	3081
903.683	3169
903.801	3104
903.919	3249
904.038	3302
904.156	3135
904.274	3306
904.392	3237
904.51	3283
904.627	3321
904.745	3450
904.863	3488
904.981	3249
905.098	3169
905.216	3207
905.334	3268
905.451	3287
905.569	3306
905.686	3412
905.803	3412
905.921	3275
906.038	3401
906.155	3344
906.272	3260
906.389	3321
906.506	3192
906.623	3226
906.74	3260
906.857	3192
906.974	3241
907.091	3447
907.208	3542
907.324	3458
907.441	3405
907.557	3203
907.674	3222
907.79	3203
907.907	3241
908.023	3348
908.139	3344
908.256	3329
908.372	3401
908.488	3340
908.604	3249
908.72	3203
908.836	3256
908.952	3268
909.068	3370
909.184	3450
909.3	3405
909.415	3500
909.531	3443
909.647	3245
909.762	3321
909.878	3237
909.993	3348
910.108	3302
910.224	3340
910.339	3389
910.454	3317
910.57	3264
910.685	3245
910.8	3580
910.915	3511
911.03	3439
911.145	3268
911.259	3298
911.374	3298
911.489	3249
911.604	3222
911.718	3104
911.833	3173
911.947	3001
912.062	2975
912.176	3184
912.291	3180
912.405	3214
912.519	3416
912.633	3420
912.748	3310
912.862	3253
912.976	3142
913.09	3017
913.204	3081
913.318	3230
913.431	3329
913.545	3317
913.659	3367
913.772	3317
913.886	3211
914	3176
914.113	3363
914.226	3382
914.34	3348
914.453	3195
914.566	3428
914.68	3249
914.793	3294
914.906	3150
915.019	3123
915.132	3020
915.245	3150
915.358	3150
915.47	3180
915.583	3279
915.696	3321
915.809	3435
915.921	3424
916.034	3268
916.146	3245
916.259	3195
916.371	3363
916.483	3374
916.595	3287
916.708	3374
916.82	3351
916.932	3317
917.044	3370
917.156	3374
917.268	3287
917.38	3348
917.491	3291
917.603	3378
917.715	3439
917.826	3504
917.938	3393
918.049	3302
918.161	3428
918.272	3587
918.384	3587
918.495	3526
918.606	3336
918.717	3325
918.828	3412
918.939	3462
919.05	3332
919.161	3412
919.272	3218
919.383	3291
919.494	3568
919.604	3675
919.715	3511
919.826	3428
919.936	3526
920.047	3625
920.157	3561
920.267	3793
920.378	3641
920.488	3633
920.598	3846
920.708	3975
920.818	3850
920.928	3888
921.038	4086
921.148	4071
921.258	3770
921.368	3648
921.477	3599
921.587	3580
921.697	3485
921.806	3682
921.916	3584
922.025	3431
922.134	3412
922.244	3386
922.353	3469
922.462	3321
922.571	3233
922.68	3138
922.789	3108
922.898	3169
923.007	3142
923.116	3222
923.224	3203
923.333	3203
923.442	3154
923.55	3173
923.659	3203
923.767	3237
923.876	3127
923.984	3291
924.092	3161
924.201	3260
924.309	3260
924.417	3291
924.525	3253
924.633	3264
924.741	4063
924.849	3062
924.956	3298
925.064	3131
925.172	3077
925.279	3146
925.387	3237
925.494	3207
925.602	3405
925.709	3378
925.816	3222
925.924	3294
926.031	3405
926.138	3370
926.245	3386
926.352	3291
926.459	3431
926.566	3504
926.673	3351
926.779	3283
926.886	3306
926.993	3176
927.099	3184
927.206	3135
927.312	3169
927.419	3283
927.525	3237
927.631	3329
927.737	3173
927.843	3157
927.95	3085
928.056	3180
928.162	3207
928.267	3302
928.373	3865
928.479	3291
928.585	3100
928.69	3218
928.796	3325
928.901	3211
929.007	3077
929.112	3226
929.218	3214
929.323	3165
929.428	3173
929.533	3325
929.638	3184
929.743	3233
929.848	3253
929.953	3230
930.058	3192
930.163	3028
930.267	3058
930.372	3226
930.477	3062
930.581	3340
930.685	3211
930.79	3077
930.894	3199
930.998	3150
931.103	3294
931.207	2982
931.311	2952
931.415	2948
931.519	2811
931.623	2853
