Data from test_V78500241_1320.txt Node
Date: Fri Mar 25 16:24:20 CST 2022
User: usil
Spectrometer: V785-0024
Trigger mode: 0
Integration Time (sec): 4.000000E-1
Scans to average: 1
Nonlinearity correction enabled: false
Boxcar width: 0
Storing dark spectrum: false
XAxis mode: Wavelengths
Number of Pixels in Spectrum: 1024
>>>>>Begin Spectral Data<<<<<
801.071	2941
801.214	2948
801.356	2868
801.499	2922
801.641	2914
801.783	2918
801.926	3005
802.068	2979
802.211	3017
802.353	3020
802.496	2952
802.638	3051
802.78	3047
802.923	3077
803.065	3009
803.208	2883
803.35	2914
803.492	2922
803.635	2933
803.777	2758
803.919	2845
804.061	3173
804.204	2925
804.346	2933
804.488	2815
804.63	3001
804.773	2880
804.915	2864
805.057	3085
805.199	2906
805.341	2967
805.483	3055
805.626	2975
805.768	2948
805.91	3100
806.052	3112
806.194	3009
806.336	3218
806.478	3009
806.62	2975
806.762	2982
806.904	3039
807.046	3123
807.188	2944
807.33	2918
807.472	2979
807.614	2899
807.756	2937
807.898	2941
808.04	2929
808.182	2971
808.324	2933
808.465	2876
808.607	2876
808.749	2811
808.891	2849
809.033	2975
809.174	2952
809.316	2845
809.458	2887
809.6	2781
809.741	2769
809.883	2796
810.025	2826
810.166	2872
810.308	2834
810.45	2826
810.591	2777
810.733	2777
810.875	2819
811.016	2788
811.158	2743
811.299	2830
811.441	2967
811.582	2834
811.724	2807
811.865	2823
812.007	2918
812.148	2880
812.29	2868
812.431	2883
812.573	2929
812.714	2925
812.855	3024
812.997	3024
813.138	3081
813.279	3005
813.421	2982
813.562	2956
813.703	2853
813.845	2918
813.986	2769
814.127	2731
814.268	2807
814.41	2834
814.551	2823
814.692	2883
814.833	2819
814.974	2872
815.115	2967
815.256	2819
815.397	2811
815.539	2826
815.68	2792
815.821	2792
815.962	2944
816.103	2925
816.244	2830
816.385	2872
816.526	2929
816.666	2899
816.807	2773
816.948	2834
817.089	2922
817.23	2880
817.371	2766
817.512	2823
817.653	2819
817.793	2804
817.934	2853
818.075	2925
818.216	2956
818.356	2960
818.497	2864
818.638	2800
818.778	2796
818.919	2796
819.06	2777
819.2	2883
819.341	2800
819.481	2777
819.622	2910
819.762	3085
819.903	3009
820.043	2929
820.184	2857
820.324	2857
820.465	3001
820.605	3036
820.746	3020
820.886	2929
821.026	3070
821.167	3146
821.307	3230
821.447	3291
821.588	3184
821.728	3199
821.868	3211
822.008	3036
822.149	3157
822.289	3218
822.429	3112
822.569	3116
822.709	3184
822.849	3001
822.99	3047
823.13	3138
823.27	3169
823.41	3089
823.55	3165
823.69	3123
823.83	3161
823.97	3108
824.11	2986
824.25	2994
824.389	3051
824.529	3100
824.669	3020
824.809	3176
824.949	3253
825.089	3199
825.228	3161
825.368	2975
825.508	2975
825.648	2956
825.787	3017
825.927	2994
826.067	2971
826.206	2990
826.346	3055
826.485	3032
826.625	3104
826.765	3256
826.904	3188
827.044	2982
827.183	2944
827.323	2838
827.462	2986
827.601	2918
827.741	2895
827.88	2952
828.02	2826
828.159	2994
828.298	3020
828.437	3085
828.577	3077
828.716	3237
828.855	3058
828.994	2918
829.134	2868
829.273	2922
829.412	2834
829.551	2853
829.69	2918
829.829	2967
829.968	3100
830.107	3051
830.246	3020
830.385	2925
830.524	2857
830.663	2796
830.802	2766
830.941	2617
831.08	2655
831.219	2739
831.357	2750
831.496	2902
831.635	2724
831.774	2644
831.913	2659
832.051	2552
832.19	2587
832.329	2674
832.467	2511
832.606	2476
832.744	2598
832.883	2590
833.022	2587
833.16	2632
833.299	2674
833.437	2697
833.576	2678
833.714	2701
833.852	2716
833.991	2746
834.129	2864
834.267	2804
834.406	2792
834.544	2857
834.682	2887
834.821	2872
834.959	3051
835.097	2880
835.235	3039
835.373	2982
835.511	3058
835.65	2944
835.788	2952
835.926	2815
836.064	2830
836.202	2845
836.34	3131
836.478	3165
836.615	3020
836.753	3131
836.891	3233
837.029	3123
837.167	3077
837.305	3047
837.443	3032
837.58	2971
837.718	3146
837.856	3093
837.993	3043
838.131	3123
838.269	3089
838.406	3089
838.544	3047
838.681	2952
838.819	2895
838.956	2842
839.094	2785
839.231	2891
839.369	3005
839.506	3363
839.643	3253
839.781	2982
839.918	3001
840.055	3062
840.193	3013
840.33	3074
840.467	3100
840.604	3135
840.742	3401
840.879	3074
841.016	3077
841.153	3055
841.29	3291
841.427	3310
841.564	3264
841.701	3313
841.838	3218
841.975	3161
842.112	3207
842.249	3024
842.385	3077
842.522	3249
842.659	3097
842.796	3066
842.933	3081
843.069	3039
843.206	3017
843.343	3199
843.479	3119
843.616	3093
843.752	2857
843.889	2864
844.025	3077
844.162	2826
844.298	3047
844.435	2944
844.571	2887
844.708	3039
844.844	3169
844.98	3256
845.117	3157
845.253	3032
845.389	2975
845.525	3108
845.661	3097
845.798	2998
845.934	3119
846.07	3051
846.206	3173
846.342	3298
846.478	3207
846.614	3085
846.75	3036
846.886	2986
847.022	3184
847.158	3097
847.294	3173
847.429	3245
847.565	3211
847.701	3458
847.837	3055
847.972	3024
848.108	3192
848.244	3154
848.379	2986
848.515	2937
848.65	2918
848.786	2933
848.921	2979
849.057	3066
849.192	3138
849.328	3043
849.463	3112
849.598	3077
849.734	3013
849.869	2960
850.004	2933
850.14	2971
850.275	2914
850.41	2823
850.545	2864
850.68	2933
850.815	2944
850.95	2986
851.085	3203
851.22	3089
851.355	3009
851.49	3020
851.625	3009
851.76	3017
851.895	2918
852.03	2883
852.165	2979
852.299	3074
852.434	3176
852.569	3127
852.703	3157
852.838	3218
852.973	3325
853.107	3359
853.242	3119
853.376	3116
853.511	2967
853.645	3017
853.78	3218
853.914	3108
854.048	3097
854.183	3085
854.317	3146
854.451	3275
854.585	3127
854.72	3127
854.854	3233
854.988	3032
855.122	3100
855.256	2967
855.39	3119
855.524	3249
855.658	3150
855.792	3119
855.926	3195
856.06	3169
856.194	3287
856.327	3100
856.461	3058
856.595	3020
856.729	3089
856.862	3218
856.996	3138
857.13	3218
857.263	3230
857.397	3275
857.53	3150
857.664	3192
857.797	3195
857.931	3233
858.064	3138
858.197	3211
858.331	3135
858.464	3051
858.597	2990
858.731	3116
858.864	3127
858.997	3085
859.13	3123
859.263	3192
859.396	3176
859.529	3047
859.662	3093
859.795	3032
859.928	3146
860.061	3256
860.194	3230
860.327	3100
860.46	3097
860.592	3237
860.725	3218
860.858	3260
860.99	3077
861.123	3047
861.256	3043
861.388	3165
861.521	3656
861.653	3047
861.786	2967
861.918	3024
862.05	3074
862.183	3112
862.315	3123
862.447	3207
862.58	3097
862.712	2929
862.844	2868
862.976	3017
863.108	3005
863.24	3264
863.372	2861
863.504	2952
863.636	2948
863.768	3005
863.9	2975
864.032	2876
864.164	2883
864.296	3032
864.428	3093
864.559	3116
864.691	3058
864.823	3074
864.954	3024
865.086	3062
865.217	2971
865.349	2941
865.48	2929
865.612	2994
865.743	3123
865.875	2994
866.006	2948
866.137	2971
866.269	2941
866.4	2906
866.531	2902
866.662	2887
866.793	2906
866.924	2880
867.055	2975
867.186	2902
867.317	2880
867.448	2807
867.579	2834
867.71	2857
867.841	2830
867.972	2918
868.103	2849
868.233	2868
868.364	2876
868.495	2902
868.625	3089
868.756	3138
868.886	2967
869.017	3013
869.147	3169
869.278	3131
869.408	3032
869.539	3001
869.669	3077
869.799	3055
869.929	3135
870.06	3081
870.19	3321
870.32	3268
870.45	3283
870.58	3374
870.71	3435
870.84	3416
870.97	3272
871.1	3226
871.23	3481
871.36	3450
871.489	3351
871.619	3409
871.749	3389
871.879	3428
872.008	3485
872.138	3332
872.267	3264
872.397	3157
872.526	3093
872.656	3009
872.785	3077
872.915	3192
873.044	3283
873.173	3218
873.303	3245
873.432	3279
873.561	3222
873.69	3169
873.819	3116
873.948	3222
874.077	3112
874.206	3032
874.335	3047
874.464	3203
874.593	3329
874.722	3245
874.851	3370
874.979	3363
875.108	3340
875.237	3195
875.365	3150
875.494	3135
875.623	3260
875.751	3062
875.88	3116
876.008	3165
876.136	3203
876.265	3393
876.393	3504
876.521	3359
876.65	3336
876.778	3287
876.906	3222
877.034	3211
877.162	3173
877.29	3169
877.418	3268
877.546	3260
877.674	3268
877.802	3211
877.93	3173
878.058	3131
878.185	3100
878.313	3199
878.441	3192
878.568	3081
878.696	3127
878.824	3218
878.951	3287
879.079	3435
879.206	3633
879.333	3439
879.461	3321
879.588	3336
879.715	3481
879.842	3587
879.97	3367
880.097	3176
880.224	3100
880.351	3180
880.478	3218
880.605	3199
880.732	3157
880.859	3443
880.986	3302
881.112	3340
881.239	3230
881.366	3055
881.493	3085
881.619	2998
881.746	3097
881.872	3093
881.999	3051
882.125	3157
882.252	3233
882.378	3291
882.505	3420
882.631	3260
882.757	3169
882.883	3230
883.01	3230
883.136	3176
883.262	3058
883.388	3081
883.514	3325
883.64	3355
883.766	3344
883.892	3214
884.018	3214
884.143	3386
884.269	3534
884.395	3237
884.52	3138
884.646	3154
884.772	3119
884.897	3100
885.023	3195
885.148	3325
885.274	3416
885.399	3363
885.524	3268
885.65	3256
885.775	3321
885.9	3291
886.025	3409
886.15	3370
886.275	3272
886.4	3222
886.525	3325
886.65	3241
886.775	3260
886.9	3492
887.025	3599
887.149	3374
887.274	3230
887.399	3169
887.523	3195
887.648	3218
887.773	3176
887.897	3355
888.021	3389
888.146	3249
888.27	3416
888.395	3553
888.519	3420
888.643	3469
888.767	3424
888.891	3340
889.015	3241
889.139	3249
889.263	3233
889.387	3428
889.511	3492
889.635	3416
889.759	3279
889.883	3302
890.006	3370
890.13	3481
890.254	3279
890.377	3294
890.501	3207
890.624	3180
890.748	3287
890.871	3154
890.995	3138
891.118	3085
891.241	3199
891.364	3211
891.488	3294
891.611	3173
891.734	3188
891.857	3313
891.98	3214
892.103	3325
892.226	3298
892.349	3218
892.471	3123
892.594	3211
892.717	3306
892.839	3268
892.962	3298
893.085	3355
893.207	3260
893.33	3123
893.452	3176
893.575	3332
893.697	3233
893.819	3462
893.941	3507
894.064	3424
894.186	3291
894.308	3260
894.43	3424
894.552	3496
894.674	3469
894.796	3275
894.918	3283
895.04	3268
895.161	3382
895.283	3389
895.405	3317
895.526	3351
895.648	3420
895.769	3393
895.891	3458
896.012	3435
896.134	3428
896.255	3420
896.376	3340
896.498	3382
896.619	3431
896.74	3332
896.861	3439
896.982	3671
897.103	3812
897.224	3545
897.345	3519
897.466	3416
897.587	3488
897.708	3633
897.828	3561
897.949	3382
898.07	3310
898.19	3409
898.311	3584
898.431	3431
898.552	3545
898.672	3572
898.792	3606
898.913	3504
899.033	3428
899.153	3272
899.273	3218
899.393	3272
899.513	3268
899.633	3363
899.753	3306
899.873	3321
899.993	3386
900.113	3336
900.232	3363
900.352	3367
900.472	3283
900.591	3192
900.711	3272
900.83	3230
900.95	3412
901.069	3458
901.189	3313
901.308	3157
901.427	3104
901.546	3192
901.665	3287
901.784	3317
901.904	3214
902.023	3146
902.141	3005
902.26	2979
902.379	3135
902.498	3039
902.617	3066
902.735	3253
902.854	3214
902.973	3161
903.091	3028
903.21	2998
903.328	3135
903.446	3119
903.565	3104
903.683	3176
903.801	3070
903.919	3237
904.038	3230
904.156	3127
904.274	3268
904.392	3256
904.51	3272
904.627	3291
904.745	3447
904.863	3458
904.981	3237
905.098	3161
905.216	3268
905.334	3294
905.451	3283
905.569	3279
905.686	3416
905.803	3409
905.921	3241
906.038	3389
906.155	3302
906.272	3256
906.389	3268
906.506	3195
906.623	3222
906.74	3283
906.857	3173
906.974	3207
907.091	3416
907.208	3534
907.324	3473
907.441	3374
907.557	3233
907.674	3214
907.79	3218
907.907	3275
908.023	3386
908.139	3332
908.256	3310
908.372	3367
908.488	3298
908.604	3237
908.72	3230
908.836	3298
908.952	3283
909.068	3348
909.184	3511
909.3	3401
909.415	3481
909.531	3450
909.647	3253
909.762	3260
909.878	3245
909.993	3340
910.108	3332
910.224	3298
910.339	3401
910.454	3351
910.57	3283
910.685	3241
910.8	3572
910.915	3515
911.03	3393
911.145	3253
911.259	3245
911.374	3336
911.489	3275
911.604	3230
911.718	3062
911.833	3154
911.947	3047
912.062	2982
912.176	3146
912.291	3218
912.405	3203
912.519	3431
912.633	3431
912.748	3348
912.862	3348
912.976	3180
913.09	3047
913.204	3154
913.318	3268
913.431	3378
913.545	3348
913.659	3393
913.772	3374
913.886	3260
914	3184
914.113	3378
914.226	3473
914.34	3409
914.453	3226
914.566	3393
914.68	3287
914.793	3310
914.906	3195
915.019	3161
915.132	3093
915.245	3214
915.358	3237
915.47	3264
915.583	3268
915.696	3321
915.809	3378
915.921	3450
916.034	3287
916.146	3264
916.259	3253
916.371	3401
916.483	3424
916.595	3287
916.708	3351
916.82	3355
916.932	3370
917.044	3420
917.156	3416
917.268	3317
917.38	3310
917.491	3332
917.603	3409
917.715	3515
917.826	3500
917.938	3401
918.049	3344
918.161	3458
918.272	3622
918.384	3576
918.495	3557
918.606	3393
918.717	3302
918.828	3439
918.939	3469
919.05	3340
919.161	3393
919.272	3214
919.383	3317
919.494	3504
919.604	3694
919.715	3538
919.826	3439
919.936	3485
920.047	3641
920.157	3591
920.267	3846
920.378	3614
920.488	3580
920.598	3846
920.708	3987
920.818	3861
920.928	3854
921.038	4048
921.148	4017
921.258	3698
921.368	3633
921.477	3603
921.587	3549
921.697	3473
921.806	3656
921.916	3572
922.025	3386
922.134	3363
922.244	3355
922.353	3462
922.462	3287
922.571	3272
922.68	3161
922.789	3104
922.898	3184
923.007	3097
923.116	3249
923.224	3214
923.333	3233
923.442	3116
923.55	3100
923.659	3127
923.767	3264
923.876	3108
923.984	3294
924.092	3116
924.201	3180
924.309	3249
924.417	3310
924.525	3184
924.633	3249
924.741	4048
924.849	3108
924.956	3264
925.064	3150
925.172	3043
925.279	3142
925.387	3260
925.494	3211
925.602	3382
925.709	3351
925.816	3211
925.924	3321
926.031	3439
926.138	3321
926.245	3374
926.352	3275
926.459	3412
926.566	3488
926.673	3382
926.779	3279
926.886	3249
926.993	3165
927.099	3154
927.206	3127
927.312	3123
927.419	3253
927.525	3237
927.631	3313
927.737	3203
927.843	3195
927.95	3066
928.056	3154
928.162	3192
928.267	3306
928.373	3911
928.479	3332
928.585	3127
928.69	3222
928.796	3302
928.901	3188
929.007	3062
929.112	3272
929.218	3214
929.323	3195
929.428	3176
929.533	3329
929.638	3104
929.743	3199
929.848	3298
929.953	3199
930.058	3165
930.163	3039
930.267	3070
930.372	3249
930.477	3066
930.581	3306
930.685	3184
930.79	3093
930.894	3135
930.998	3127
931.103	3317
931.207	2990
931.311	3001
931.415	2956
931.519	2849
931.623	2857
