Data from test_V78500241_1128.txt Node
Date: Fri Mar 25 16:23:01 CST 2022
User: usil
Spectrometer: V785-0024
Trigger mode: 0
Integration Time (sec): 4.000000E-1
Scans to average: 1
Nonlinearity correction enabled: false
Boxcar width: 0
Storing dark spectrum: false
XAxis mode: Wavelengths
Number of Pixels in Spectrum: 1024
>>>>>Begin Spectral Data<<<<<
801.071	2971
801.214	2948
801.356	2883
801.499	2895
801.641	2872
801.783	2960
801.926	3100
802.068	3001
802.211	3020
802.353	3051
802.496	2982
802.638	3005
802.78	3036
802.923	3119
803.065	3017
803.208	2906
803.35	2963
803.492	2948
803.635	2944
803.777	2769
803.919	2880
804.061	3222
804.204	2960
804.346	2925
804.488	2864
804.63	2998
804.773	2895
804.915	2925
805.057	3066
805.199	2944
805.341	2975
805.483	3024
805.626	3032
805.768	2963
805.91	3066
806.052	3135
806.194	3032
806.336	3279
806.478	3001
806.62	2948
806.762	2967
806.904	3047
807.046	3150
807.188	3001
807.33	2933
807.472	2967
807.614	2895
807.756	2982
807.898	2933
808.04	2906
808.182	2998
808.324	2956
808.465	2872
808.607	2906
808.749	2811
808.891	2842
809.033	3009
809.174	2960
809.316	2872
809.458	2895
809.6	2800
809.741	2800
809.883	2758
810.025	2845
810.166	2849
810.308	2861
810.45	2864
810.591	2815
810.733	2773
810.875	2845
811.016	2785
811.158	2750
811.299	2823
811.441	2963
811.582	2872
811.724	2811
811.865	2826
812.007	2925
812.148	2902
812.29	2857
812.431	2899
812.573	2975
812.714	2937
812.855	3051
812.997	3097
813.138	3104
813.279	3013
813.421	2971
813.562	2971
813.703	2857
813.845	2880
813.986	2796
814.127	2739
814.268	2823
814.41	2849
814.551	2838
814.692	2891
814.833	2823
814.974	2925
815.115	2979
815.256	2830
815.397	2826
815.539	2853
815.68	2781
815.821	2807
815.962	2941
816.103	2925
816.244	2891
816.385	2868
816.526	2952
816.666	2887
816.807	2735
816.948	2880
817.089	2941
817.23	2872
817.371	2781
817.512	2796
817.653	2861
817.793	2819
817.934	2891
818.075	2994
818.216	3001
818.356	3036
818.497	2872
818.638	2766
818.778	2838
818.919	2781
819.06	2762
819.2	2906
819.341	2800
819.481	2807
819.622	2944
819.762	3119
819.903	3036
820.043	2982
820.184	2929
820.324	2933
820.465	3051
820.605	3009
820.746	2998
820.886	2944
821.026	3097
821.167	3169
821.307	3249
821.447	3279
821.588	3218
821.728	3207
821.868	3203
822.008	3123
822.149	3192
822.289	3253
822.429	3097
822.569	3093
822.709	3157
822.849	3017
822.99	3074
823.13	3154
823.27	3165
823.41	3123
823.55	3138
823.69	3138
823.83	3214
823.97	3127
824.11	2986
824.25	3009
824.389	3077
824.529	3093
824.669	3066
824.809	3169
824.949	3272
825.089	3195
825.228	3135
825.368	2998
825.508	2967
825.648	2960
825.787	3013
825.927	3028
826.067	2952
826.206	2944
826.346	3047
826.485	3032
826.625	3146
826.765	3272
826.904	3218
827.044	2941
827.183	2925
827.323	2823
827.462	2967
827.601	2929
827.741	2906
827.88	2960
828.02	2876
828.159	2967
828.298	3043
828.437	3116
828.577	3020
828.716	3237
828.855	3070
828.994	2914
829.134	2868
829.273	2922
829.412	2872
829.551	2868
829.69	2868
829.829	3001
829.968	3119
830.107	2998
830.246	3039
830.385	2918
830.524	2872
830.663	2838
830.802	2724
830.941	2648
831.08	2670
831.219	2758
831.357	2758
831.496	2925
831.635	2735
831.774	2648
831.913	2625
832.051	2549
832.19	2575
832.329	2701
832.467	2526
832.606	2469
832.744	2606
832.883	2556
833.022	2590
833.16	2651
833.299	2689
833.437	2705
833.576	2670
833.714	2720
833.852	2750
833.991	2754
834.129	2845
834.267	2842
834.406	2781
834.544	2838
834.682	2883
834.821	2857
834.959	3036
835.097	2895
835.235	3043
835.373	2994
835.511	2998
835.65	2933
835.788	3001
835.926	2807
836.064	2800
836.202	2849
836.34	3093
836.478	3142
836.615	3043
836.753	3119
836.891	3211
837.029	3116
837.167	3097
837.305	3074
837.443	3051
837.58	2960
837.718	3131
837.856	3074
837.993	3047
838.131	3157
838.269	3116
838.406	3104
838.544	3097
838.681	2952
838.819	2914
838.956	2842
839.094	2849
839.231	2914
839.369	2971
839.506	3374
839.643	3169
839.781	3028
839.918	2986
840.055	2994
840.193	3039
840.33	3089
840.467	3081
840.604	3135
840.742	3393
840.879	3085
841.016	3051
841.153	3131
841.29	3317
841.427	3329
841.564	3214
841.701	3287
841.838	3260
841.975	3131
842.112	3214
842.249	3081
842.385	3089
842.522	3268
842.659	3077
842.796	3020
842.933	3104
843.069	3047
843.206	2998
843.343	3161
843.479	3093
843.616	3100
843.752	2876
843.889	2853
844.025	3089
844.162	2861
844.298	3119
844.435	2948
844.571	2914
844.708	3055
844.844	3157
844.98	3218
845.117	3192
845.253	3043
845.389	2994
845.525	3097
845.661	3104
845.798	2994
845.934	3104
846.07	3062
846.206	3150
846.342	3294
846.478	3253
846.614	3127
846.75	3036
846.886	3020
847.022	3245
847.158	3150
847.294	3192
847.429	3211
847.565	3218
847.701	3450
847.837	3024
847.972	2956
848.108	3150
848.244	3142
848.379	2948
848.515	2944
848.65	2906
848.786	2960
848.921	3013
849.057	3112
849.192	3154
849.328	3066
849.463	3112
849.598	3097
849.734	3005
849.869	2986
850.004	2922
850.14	2994
850.275	2902
850.41	2815
850.545	2880
850.68	2887
850.815	2944
850.95	2956
851.085	3218
851.22	3119
851.355	3039
851.49	2975
851.625	2990
851.76	2998
851.895	2956
852.03	2883
852.165	3032
852.299	3123
852.434	3169
852.569	3157
852.703	3188
852.838	3260
852.973	3329
853.107	3279
853.242	3112
853.376	3100
853.511	2998
853.645	2994
853.78	3211
853.914	3127
854.048	3089
854.183	3077
854.317	3157
854.451	3291
854.585	3119
854.72	3093
854.854	3192
854.988	3032
855.122	3074
855.256	2982
855.39	3116
855.524	3214
855.658	3180
855.792	3150
855.926	3173
856.06	3203
856.194	3222
856.327	3119
856.461	3089
856.595	3058
856.729	3100
856.862	3211
856.996	3146
857.13	3176
857.263	3222
857.397	3279
857.53	3157
857.664	3184
857.797	3256
857.931	3195
858.064	3157
858.197	3214
858.331	3119
858.464	3112
858.597	3032
858.731	3131
858.864	3127
858.997	3066
859.13	3142
859.263	3161
859.396	3222
859.529	3074
859.662	3123
859.795	3074
859.928	3131
860.061	3237
860.194	3256
860.327	3142
860.46	3108
860.592	3222
860.725	3268
860.858	3226
860.99	3104
861.123	2994
861.256	3047
861.388	3157
861.521	3762
861.653	3001
861.786	2952
861.918	2994
862.05	3062
862.183	3077
862.315	3123
862.447	3169
862.58	3081
862.712	2960
862.844	2872
862.976	2994
863.108	3013
863.24	3313
863.372	2883
863.504	2948
863.636	2937
863.768	3005
863.9	3005
864.032	2906
864.164	2933
864.296	3032
864.428	3085
864.559	3093
864.691	3062
864.823	3043
864.954	3017
865.086	3058
865.217	2967
865.349	2975
865.48	2982
865.612	2990
865.743	3142
865.875	2986
866.006	2929
866.137	2956
866.269	2948
866.4	2918
866.531	2906
866.662	2880
866.793	2891
866.924	2868
867.055	2971
867.186	2906
867.317	2887
867.448	2861
867.579	2823
867.71	2826
867.841	2838
867.972	2918
868.103	2891
868.233	2891
868.364	2868
868.495	2872
868.625	3070
868.756	3142
868.886	2952
869.017	3020
869.147	3150
869.278	3135
869.408	3043
869.539	3020
869.669	3123
869.799	3062
869.929	3116
870.06	3119
870.19	3317
870.32	3306
870.45	3272
870.58	3397
870.71	3416
870.84	3401
870.97	3298
871.1	3226
871.23	3473
871.36	3454
871.489	3340
871.619	3378
871.749	3397
871.879	3420
872.008	3473
872.138	3329
872.267	3260
872.397	3138
872.526	3112
872.656	3028
872.785	3077
872.915	3241
873.044	3298
873.173	3195
873.303	3230
873.432	3218
873.561	3226
873.69	3146
873.819	3135
873.948	3176
874.077	3077
874.206	3017
874.335	3097
874.464	3226
874.593	3367
874.722	3233
874.851	3370
874.979	3340
875.108	3310
875.237	3188
875.365	3169
875.494	3154
875.623	3226
875.751	3058
875.88	3146
876.008	3161
876.136	3226
876.265	3351
876.393	3496
876.521	3439
876.65	3351
876.778	3332
876.906	3233
877.034	3180
877.162	3237
877.29	3169
877.418	3241
877.546	3233
877.674	3233
877.802	3245
877.93	3195
878.058	3150
878.185	3100
878.313	3165
878.441	3207
878.568	3085
878.696	3161
878.824	3256
878.951	3321
879.079	3435
879.206	3542
879.333	3412
879.461	3348
879.588	3310
879.715	3458
879.842	3599
879.97	3363
880.097	3180
880.224	3127
880.351	3180
880.478	3203
880.605	3233
880.732	3161
880.859	3515
880.986	3272
881.112	3329
881.239	3203
881.366	3093
881.493	3070
881.619	3036
881.746	3070
881.872	3066
881.999	3123
882.125	3157
882.252	3233
882.378	3256
882.505	3420
882.631	3260
882.757	3169
882.883	3188
883.01	3211
883.136	3131
883.262	3108
883.388	3116
883.514	3298
883.64	3393
883.766	3325
883.892	3173
884.018	3211
884.143	3462
884.269	3492
884.395	3188
884.52	3165
884.646	3146
884.772	3089
884.897	3089
885.023	3165
885.148	3313
885.274	3401
885.399	3382
885.524	3302
885.65	3260
885.775	3317
885.9	3283
886.025	3370
886.15	3332
886.275	3279
886.4	3207
886.525	3226
886.65	3237
886.775	3245
886.9	3488
887.025	3587
887.149	3409
887.274	3211
887.399	3195
887.523	3203
887.648	3203
887.773	3207
887.897	3325
888.021	3401
888.146	3283
888.27	3401
888.395	3561
888.519	3393
888.643	3431
888.767	3412
888.891	3321
889.015	3222
889.139	3283
889.263	3230
889.387	3370
889.511	3507
889.635	3466
889.759	3306
889.883	3306
890.006	3363
890.13	3481
890.254	3264
890.377	3302
890.501	3203
890.624	3192
890.748	3237
890.871	3180
890.995	3074
891.118	3070
891.241	3146
891.364	3218
891.488	3298
891.611	3180
891.734	3211
891.857	3241
891.98	3241
892.103	3313
892.226	3268
892.349	3214
892.471	3123
892.594	3199
892.717	3294
892.839	3245
892.962	3245
893.085	3344
893.207	3332
893.33	3142
893.452	3199
893.575	3340
893.697	3249
893.819	3424
893.941	3504
894.064	3454
894.186	3306
894.308	3233
894.43	3367
894.552	3542
894.674	3462
894.796	3249
894.918	3256
895.04	3287
895.161	3443
895.283	3405
895.405	3332
895.526	3332
895.648	3435
895.769	3412
895.891	3450
896.012	3477
896.134	3458
896.255	3405
896.376	3367
896.498	3344
896.619	3397
896.74	3382
896.861	3416
896.982	3663
897.103	3838
897.224	3572
897.345	3515
897.466	3439
897.587	3507
897.708	3610
897.828	3542
897.949	3450
898.07	3317
898.19	3401
898.311	3641
898.431	3454
898.552	3519
898.672	3576
898.792	3561
898.913	3515
899.033	3382
899.153	3313
899.273	3207
899.393	3268
899.513	3306
899.633	3321
899.753	3355
899.873	3340
899.993	3424
900.113	3325
900.232	3401
900.352	3317
900.472	3272
900.591	3188
900.711	3294
900.83	3226
900.95	3386
901.069	3523
901.189	3359
901.308	3180
901.427	3135
901.546	3199
901.665	3294
901.784	3340
901.904	3211
902.023	3089
902.141	3036
902.26	2982
902.379	3108
902.498	3047
902.617	3039
902.735	3195
902.854	3211
902.973	3207
903.091	3058
903.21	3051
903.328	3108
903.446	3108
903.565	3085
903.683	3192
903.801	3116
903.919	3230
904.038	3268
904.156	3157
904.274	3264
904.392	3253
904.51	3294
904.627	3291
904.745	3481
904.863	3500
904.981	3237
905.098	3154
905.216	3203
905.334	3249
905.451	3287
905.569	3302
905.686	3424
905.803	3443
905.921	3260
906.038	3420
906.155	3336
906.272	3245
906.389	3310
906.506	3230
906.623	3256
906.74	3245
906.857	3184
906.974	3241
907.091	3477
907.208	3549
907.324	3473
907.441	3389
907.557	3207
907.674	3268
907.79	3230
907.907	3287
908.023	3348
908.139	3378
908.256	3332
908.372	3329
908.488	3367
908.604	3226
908.72	3199
908.836	3237
908.952	3268
909.068	3336
909.184	3454
909.3	3378
909.415	3538
909.531	3481
909.647	3260
909.762	3321
909.878	3253
909.993	3329
910.108	3294
910.224	3302
910.339	3386
910.454	3313
910.57	3279
910.685	3249
910.8	3595
910.915	3523
911.03	3424
911.145	3291
911.259	3245
911.374	3298
911.489	3222
911.604	3233
911.718	3138
911.833	3097
911.947	3036
912.062	2960
912.176	3135
912.291	3138
912.405	3184
912.519	3420
912.633	3431
912.748	3325
912.862	3230
912.976	3119
913.09	3032
913.204	3142
913.318	3184
913.431	3332
913.545	3294
913.659	3355
913.772	3306
913.886	3188
914	3173
914.113	3344
914.226	3382
914.34	3340
914.453	3188
914.566	3393
914.68	3287
914.793	3332
914.906	3127
915.019	3123
915.132	3066
915.245	3199
915.358	3241
915.47	3279
915.583	3245
915.696	3279
915.809	3420
915.921	3409
916.034	3260
916.146	3291
916.259	3203
916.371	3405
916.483	3355
916.595	3279
916.708	3348
916.82	3336
916.932	3306
917.044	3332
917.156	3386
917.268	3256
917.38	3329
917.491	3325
917.603	3393
917.715	3504
917.826	3481
917.938	3428
918.049	3268
918.161	3481
918.272	3610
918.384	3656
918.495	3492
918.606	3378
918.717	3298
918.828	3435
918.939	3469
919.05	3355
919.161	3389
919.272	3233
919.383	3348
919.494	3557
919.604	3709
919.715	3511
919.826	3450
919.936	3492
920.047	3614
920.157	3618
920.267	3797
920.378	3667
920.488	3610
920.598	3835
920.708	3968
920.818	3838
920.928	3865
921.038	4078
921.148	4040
921.258	3682
921.368	3679
921.477	3595
921.587	3572
921.697	3500
921.806	3656
921.916	3557
922.025	3374
922.134	3359
922.244	3386
922.353	3450
922.462	3340
922.571	3264
922.68	3123
922.789	3112
922.898	3123
923.007	3097
923.116	3199
923.224	3211
923.333	3199
923.442	3142
923.55	3112
923.659	3176
923.767	3226
923.876	3135
923.984	3313
924.092	3169
924.201	3245
924.309	3268
924.417	3291
924.525	3233
924.633	3317
924.741	4074
924.849	3100
924.956	3279
925.064	3127
925.172	3074
925.279	3131
925.387	3245
925.494	3218
925.602	3374
925.709	3367
925.816	3211
925.924	3329
926.031	3424
926.138	3374
926.245	3401
926.352	3298
926.459	3485
926.566	3526
926.673	3344
926.779	3298
926.886	3287
926.993	3142
927.099	3138
927.206	3135
927.312	3116
927.419	3233
927.525	3218
927.631	3313
927.737	3161
927.843	3157
927.95	3039
928.056	3165
928.162	3222
928.267	3294
928.373	3850
928.479	3348
928.585	3081
928.69	3253
928.796	3317
928.901	3199
929.007	3081
929.112	3260
929.218	3256
929.323	3157
929.428	3188
929.533	3370
929.638	3188
929.743	3222
929.848	3294
929.953	3233
930.058	3180
930.163	3032
930.267	3089
930.372	3233
930.477	3100
930.581	3329
930.685	3218
930.79	3085
930.894	3131
930.998	3085
931.103	3291
931.207	2963
931.311	2975
931.415	2967
931.519	2826
931.623	2804
