Data from test_V78500241_582.txt Node
Date: Fri Mar 25 16:19:14 CST 2022
User: usil
Spectrometer: V785-0024
Trigger mode: 0
Integration Time (sec): 4.000000E-1
Scans to average: 1
Nonlinearity correction enabled: false
Boxcar width: 0
Storing dark spectrum: false
XAxis mode: Wavelengths
Number of Pixels in Spectrum: 1024
>>>>>Begin Spectral Data<<<<<
801.071	2891
801.214	2941
801.356	2887
801.499	2861
801.641	2899
801.783	2910
801.926	3032
802.068	3005
802.211	3009
802.353	3043
802.496	2986
802.638	3032
802.78	3089
802.923	3062
803.065	3009
803.208	2895
803.35	2929
803.492	2906
803.635	2948
803.777	2739
803.919	2838
804.061	3199
804.204	2914
804.346	2895
804.488	2842
804.63	2960
804.773	2872
804.915	2929
805.057	3093
805.199	2910
805.341	2986
805.483	3055
805.626	2990
805.768	2944
805.91	3085
806.052	3108
806.194	3043
806.336	3226
806.478	3066
806.62	2960
806.762	2948
806.904	3039
807.046	3142
807.188	2975
807.33	2918
807.472	2975
807.614	2887
807.756	3009
807.898	2887
808.04	2899
808.182	2963
808.324	2933
808.465	2918
808.607	2880
808.749	2792
808.891	2838
809.033	2975
809.174	2956
809.316	2853
809.458	2918
809.6	2777
809.741	2788
809.883	2796
810.025	2853
810.166	2842
810.308	2815
810.45	2876
810.591	2777
810.733	2758
810.875	2819
811.016	2754
811.158	2769
811.299	2815
811.441	2941
811.582	2872
811.724	2830
811.865	2842
812.007	2880
812.148	2849
812.29	2845
812.431	2895
812.573	2952
812.714	2929
812.855	3058
812.997	3020
813.138	3116
813.279	2979
813.421	2975
813.562	2967
813.703	2883
813.845	2906
813.986	2739
814.127	2720
814.268	2807
814.41	2842
814.551	2785
814.692	2861
814.833	2800
814.974	2891
815.115	2960
815.256	2811
815.397	2830
815.539	2872
815.68	2762
815.821	2769
815.962	2956
816.103	2925
816.244	2868
816.385	2880
816.526	2918
816.666	2899
816.807	2731
816.948	2899
817.089	2914
817.23	2811
817.371	2777
817.512	2785
817.653	2811
817.793	2849
817.934	2845
818.075	2982
818.216	2979
818.356	3043
818.497	2868
818.638	2766
818.778	2830
818.919	2800
819.06	2731
819.2	2845
819.341	2781
819.481	2792
819.622	2922
819.762	3108
819.903	3032
820.043	2937
820.184	2861
820.324	2868
820.465	2998
820.605	2990
820.746	3032
820.886	2914
821.026	3081
821.167	3165
821.307	3253
821.447	3245
821.588	3195
821.728	3207
821.868	3188
822.008	3070
822.149	3180
822.289	3211
822.429	3051
822.569	3108
822.709	3173
822.849	3024
822.99	3058
823.13	3142
823.27	3214
823.41	3081
823.55	3112
823.69	3146
823.83	3241
823.97	3112
824.11	2998
824.25	2990
824.389	3051
824.529	3135
824.669	3062
824.809	3214
824.949	3237
825.089	3199
825.228	3161
825.368	3039
825.508	2948
825.648	2933
825.787	3001
825.927	2956
826.067	2979
826.206	2952
826.346	3036
826.485	3074
826.625	3104
826.765	3237
826.904	3180
827.044	2971
827.183	2902
827.323	2845
827.462	2944
827.601	2883
827.741	2902
827.88	2929
828.02	2883
828.159	2998
828.298	3043
828.437	3123
828.577	3043
828.716	3253
828.855	3036
828.994	2891
829.134	2876
829.273	2933
829.412	2838
829.551	2845
829.69	2895
829.829	3013
829.968	3119
830.107	2975
830.246	2998
830.385	2937
830.524	2868
830.663	2823
830.802	2716
830.941	2655
831.08	2644
831.219	2777
831.357	2766
831.496	2967
831.635	2716
831.774	2640
831.913	2659
832.051	2495
832.19	2598
832.329	2667
832.467	2564
832.606	2499
832.744	2575
832.883	2571
833.022	2594
833.16	2674
833.299	2667
833.437	2674
833.576	2716
833.714	2705
833.852	2746
833.991	2773
834.129	2792
834.267	2815
834.406	2792
834.544	2868
834.682	2872
834.821	2868
834.959	3089
835.097	2906
835.235	3036
835.373	2994
835.511	2998
835.65	2971
835.788	2918
835.926	2811
836.064	2804
836.202	2830
836.34	3093
836.478	3154
836.615	3051
836.753	3135
836.891	3222
837.029	3097
837.167	3093
837.305	3089
837.443	3032
837.58	2982
837.718	3135
837.856	3055
837.993	3017
838.131	3108
838.269	3108
838.406	3104
838.544	3074
838.681	2975
838.819	2895
838.956	2815
839.094	2826
839.231	2887
839.369	3024
839.506	3367
839.643	3180
839.781	2994
839.918	2933
840.055	3043
840.193	3058
840.33	3062
840.467	3100
840.604	3138
840.742	3348
840.879	3085
841.016	3028
841.153	3127
841.29	3332
841.427	3294
841.564	3256
841.701	3287
841.838	3233
841.975	3161
842.112	3214
842.249	3070
842.385	3013
842.522	3272
842.659	3062
842.796	3062
842.933	3089
843.069	3013
843.206	3013
843.343	3184
843.479	3127
843.616	3123
843.752	2880
843.889	2857
844.025	3093
844.162	2872
844.298	3058
844.435	2937
844.571	2929
844.708	3062
844.844	3184
844.98	3218
845.117	3176
845.253	3058
845.389	3062
845.525	3100
845.661	3062
845.798	3013
845.934	3119
846.07	3047
846.206	3218
846.342	3233
846.478	3211
846.614	3119
846.75	3062
846.886	3028
847.022	3237
847.158	3093
847.294	3184
847.429	3184
847.565	3226
847.701	3477
847.837	3005
847.972	2998
848.108	3169
848.244	3157
848.379	3055
848.515	2944
848.65	2895
848.786	2979
848.921	3001
849.057	3108
849.192	3119
849.328	3062
849.463	3116
849.598	3085
849.734	3005
849.869	2975
850.004	2933
850.14	2982
850.275	2880
850.41	2842
850.545	2887
850.68	2948
850.815	2910
850.95	2986
851.085	3165
851.22	3131
851.355	3024
851.49	2937
851.625	3013
851.76	3013
851.895	2925
852.03	2887
852.165	3032
852.299	3066
852.434	3154
852.569	3116
852.703	3169
852.838	3237
852.973	3336
853.107	3340
853.242	3123
853.376	3077
853.511	2975
853.645	3009
853.78	3245
853.914	3093
854.048	3104
854.183	3081
854.317	3146
854.451	3279
854.585	3131
854.72	3108
854.854	3233
854.988	3036
855.122	3085
855.256	2975
855.39	3112
855.524	3230
855.658	3146
855.792	3119
855.926	3176
856.06	3237
856.194	3249
856.327	3188
856.461	3112
856.595	3074
856.729	3074
856.862	3180
856.996	3161
857.13	3214
857.263	3211
857.397	3253
857.53	3097
857.664	3169
857.797	3245
857.931	3249
858.064	3154
858.197	3195
858.331	3135
858.464	3077
858.597	2986
858.731	3089
858.864	3097
858.997	3058
859.13	3116
859.263	3165
859.396	3188
859.529	3085
859.662	3058
859.795	3058
859.928	3112
860.061	3275
860.194	3279
860.327	3100
860.46	3077
860.592	3245
860.725	3207
860.858	3233
860.99	3077
861.123	3043
861.256	3058
861.388	3157
861.521	3720
861.653	3013
861.786	2979
861.918	2986
862.05	3070
862.183	3089
862.315	3108
862.447	3230
862.58	3070
862.712	2944
862.844	2849
862.976	2998
863.108	3013
863.24	3412
863.372	2838
863.504	2937
863.636	2914
863.768	2971
863.9	2944
864.032	2902
864.164	2922
864.296	3001
864.428	3093
864.559	3074
864.691	3070
864.823	3077
864.954	3043
865.086	3043
865.217	2994
865.349	2960
865.48	2963
865.612	3017
865.743	3131
865.875	3009
866.006	2906
866.137	2975
866.269	2925
866.4	2933
866.531	2944
866.662	2868
866.793	2872
866.924	2880
867.055	2956
867.186	2956
867.317	2880
867.448	2830
867.579	2849
867.71	2857
867.841	2811
867.972	2941
868.103	2883
868.233	2880
868.364	2880
868.495	2891
868.625	3055
868.756	3142
868.886	2982
869.017	3024
869.147	3157
869.278	3165
869.408	3024
869.539	3013
869.669	3116
869.799	3055
869.929	3138
870.06	3116
870.19	3306
870.32	3287
870.45	3287
870.58	3344
870.71	3473
870.84	3431
870.97	3275
871.1	3230
871.23	3492
871.36	3477
871.489	3355
871.619	3412
871.749	3374
871.879	3431
872.008	3504
872.138	3359
872.267	3283
872.397	3165
872.526	3146
872.656	2990
872.785	3062
872.915	3230
873.044	3298
873.173	3249
873.303	3222
873.432	3230
873.561	3211
873.69	3142
873.819	3123
873.948	3211
874.077	3119
874.206	3043
874.335	3081
874.464	3226
874.593	3374
874.722	3230
874.851	3435
874.979	3374
875.108	3313
875.237	3180
875.365	3173
875.494	3138
875.623	3214
875.751	3051
875.88	3062
876.008	3169
876.136	3207
876.265	3374
876.393	3500
876.521	3409
876.65	3412
876.778	3283
876.906	3192
877.034	3222
877.162	3207
877.29	3146
877.418	3245
877.546	3203
877.674	3264
877.802	3214
877.93	3218
878.058	3142
878.185	3066
878.313	3195
878.441	3203
878.568	3039
878.696	3138
878.824	3264
878.951	3313
879.079	3481
879.206	3610
879.333	3447
879.461	3325
879.588	3310
879.715	3485
879.842	3553
879.97	3412
880.097	3169
880.224	3104
880.351	3188
880.478	3188
880.605	3249
880.732	3157
880.859	3500
880.986	3291
881.112	3291
881.239	3207
881.366	3074
881.493	3051
881.619	3020
881.746	3047
881.872	3100
881.999	3104
882.125	3157
882.252	3214
882.378	3237
882.505	3412
882.631	3291
882.757	3180
882.883	3192
883.01	3253
883.136	3131
883.262	3100
883.388	3127
883.514	3310
883.64	3355
883.766	3291
883.892	3173
884.018	3275
884.143	3409
884.269	3534
884.395	3192
884.52	3154
884.646	3169
884.772	3123
884.897	3097
885.023	3184
885.148	3332
885.274	3409
885.399	3359
885.524	3321
885.65	3237
885.775	3325
885.9	3253
886.025	3428
886.15	3329
886.275	3306
886.4	3199
886.525	3298
886.65	3279
886.775	3279
886.9	3500
887.025	3667
887.149	3382
887.274	3253
887.399	3173
887.523	3226
887.648	3188
887.773	3169
887.897	3393
888.021	3382
888.146	3275
888.27	3420
888.395	3519
888.519	3420
888.643	3462
888.767	3439
888.891	3325
889.015	3211
889.139	3283
889.263	3253
889.387	3405
889.511	3504
889.635	3428
889.759	3245
889.883	3268
890.006	3416
890.13	3447
890.254	3264
890.377	3313
890.501	3165
890.624	3142
890.748	3313
890.871	3173
890.995	3108
891.118	3085
891.241	3195
891.364	3264
891.488	3336
891.611	3180
891.734	3256
891.857	3298
891.98	3214
892.103	3294
892.226	3275
892.349	3199
892.471	3135
892.594	3218
892.717	3291
892.839	3275
892.962	3310
893.085	3348
893.207	3268
893.33	3116
893.452	3222
893.575	3306
893.697	3241
893.819	3473
893.941	3488
894.064	3466
894.186	3264
894.308	3268
894.43	3450
894.552	3530
894.674	3481
894.796	3291
894.918	3317
895.04	3283
895.161	3443
895.283	3374
895.405	3306
895.526	3409
895.648	3424
895.769	3447
895.891	3431
896.012	3447
896.134	3443
896.255	3374
896.376	3374
896.498	3355
896.619	3462
896.74	3393
896.861	3374
896.982	3679
897.103	3812
897.224	3603
897.345	3507
897.466	3428
897.587	3481
897.708	3622
897.828	3576
897.949	3454
898.07	3336
898.19	3435
898.311	3576
898.431	3435
898.552	3496
898.672	3591
898.792	3584
898.913	3526
899.033	3420
899.153	3332
899.273	3211
899.393	3283
899.513	3298
899.633	3291
899.753	3325
899.873	3298
899.993	3386
900.113	3321
900.232	3401
900.352	3325
900.472	3272
900.591	3222
900.711	3302
900.83	3230
900.95	3386
901.069	3496
901.189	3374
901.308	3188
901.427	3131
901.546	3195
901.665	3298
901.784	3291
901.904	3169
902.023	3180
902.141	2986
902.26	2971
902.379	3108
902.498	3077
902.617	3055
902.735	3184
902.854	3253
902.973	3180
903.091	3055
903.21	3039
903.328	3123
903.446	3150
903.565	3135
903.683	3203
903.801	3119
903.919	3260
904.038	3306
904.156	3173
904.274	3264
904.392	3230
904.51	3291
904.627	3344
904.745	3428
904.863	3507
904.981	3260
905.098	3165
905.216	3249
905.334	3298
905.451	3291
905.569	3275
905.686	3412
905.803	3443
905.921	3264
906.038	3428
906.155	3336
906.272	3272
906.389	3336
906.506	3256
906.623	3256
906.74	3272
906.857	3161
906.974	3214
907.091	3466
907.208	3553
907.324	3469
907.441	3374
907.557	3226
907.674	3211
907.79	3241
907.907	3298
908.023	3355
908.139	3378
908.256	3332
908.372	3386
908.488	3363
908.604	3245
908.72	3230
908.836	3253
908.952	3241
909.068	3332
909.184	3504
909.3	3393
909.415	3504
909.531	3450
909.647	3294
909.762	3279
909.878	3214
909.993	3370
910.108	3348
910.224	3336
910.339	3405
910.454	3378
910.57	3306
910.685	3241
910.8	3580
910.915	3519
911.03	3431
911.145	3298
911.259	3256
911.374	3329
911.489	3272
911.604	3256
911.718	3116
911.833	3180
911.947	3039
912.062	2994
912.176	3180
912.291	3230
912.405	3169
912.519	3397
912.633	3450
912.748	3348
912.862	3245
912.976	3165
913.09	3043
913.204	3093
913.318	3184
913.431	3321
913.545	3321
913.659	3435
913.772	3325
913.886	3245
914	3199
914.113	3412
914.226	3405
914.34	3336
914.453	3211
914.566	3393
914.68	3287
914.793	3344
914.906	3116
915.019	3119
915.132	3077
915.245	3211
915.358	3218
915.47	3207
915.583	3272
915.696	3313
915.809	3405
915.921	3447
916.034	3249
916.146	3245
916.259	3287
916.371	3355
916.483	3370
916.595	3218
916.708	3344
916.82	3367
916.932	3344
917.044	3298
917.156	3367
917.268	3256
917.38	3298
917.491	3294
917.603	3393
917.715	3389
917.826	3439
917.938	3393
918.049	3279
918.161	3431
918.272	3576
918.384	3580
918.495	3458
918.606	3332
918.717	3306
918.828	3393
918.939	3439
919.05	3325
919.161	3340
919.272	3165
919.383	3310
919.494	3507
919.604	3694
919.715	3515
919.826	3378
919.936	3473
920.047	3587
920.157	3515
920.267	3755
920.378	3587
920.488	3542
920.598	3740
920.708	3964
920.818	3819
920.928	3793
921.038	4021
921.148	3979
921.258	3713
921.368	3644
921.477	3534
921.587	3530
921.697	3450
921.806	3625
921.916	3504
922.025	3367
922.134	3336
922.244	3294
922.353	3439
922.462	3260
922.571	3222
922.68	3074
922.789	3043
922.898	3142
923.007	3100
923.116	3176
923.224	3184
923.333	3176
923.442	3093
923.55	3077
923.659	3154
923.767	3188
923.876	3142
923.984	3241
924.092	3123
924.201	3188
924.309	3188
924.417	3256
924.525	3180
924.633	3218
924.741	4036
924.849	3051
924.956	3268
925.064	3108
925.172	3058
925.279	3116
925.387	3188
925.494	3207
925.602	3389
925.709	3351
925.816	3154
925.924	3313
926.031	3336
926.138	3313
926.245	3325
926.352	3283
926.459	3378
926.566	3488
926.673	3325
926.779	3268
926.886	3241
926.993	3123
927.099	3157
927.206	3135
927.312	3135
927.419	3226
927.525	3173
927.631	3249
927.737	3169
927.843	3108
927.95	3017
928.056	3104
928.162	3150
928.267	3211
928.373	3770
928.479	3306
928.585	3047
928.69	3241
928.796	3253
928.901	3161
929.007	3043
929.112	3192
929.218	3195
929.323	3165
929.428	3173
929.533	3329
929.638	3127
929.743	3180
929.848	3249
929.953	3203
930.058	3142
930.163	2990
930.267	3039
930.372	3169
930.477	3036
930.581	3332
930.685	3180
930.79	3055
930.894	3097
930.998	3100
931.103	3291
931.207	2944
931.311	2952
931.415	2956
931.519	2777
931.623	2823
