Data from test_V78500241_103.txt Node
Date: Fri Mar 25 16:15:55 CST 2022
User: usil
Spectrometer: V785-0024
Trigger mode: 0
Integration Time (sec): 4.000000E-1
Scans to average: 1
Nonlinearity correction enabled: false
Boxcar width: 0
Storing dark spectrum: false
XAxis mode: Wavelengths
Number of Pixels in Spectrum: 1024
>>>>>Begin Spectral Data<<<<<
801.071	2948
801.214	3013
801.356	2910
801.499	2929
801.641	2925
801.783	2914
801.926	3074
802.068	3017
802.211	3051
802.353	3097
802.496	3020
802.638	3062
802.78	3093
802.923	3104
803.065	3043
803.208	2914
803.35	2975
803.492	2982
803.635	2967
803.777	2792
803.919	2891
804.061	3260
804.204	2982
804.346	2941
804.488	2853
804.63	2990
804.773	2906
804.915	2948
805.057	3104
805.199	2967
805.341	3001
805.483	3093
805.626	3055
805.768	2986
805.91	3157
806.052	3180
806.194	3074
806.336	3283
806.478	3077
806.62	2979
806.762	2994
806.904	3066
807.046	3222
807.188	2982
807.33	2956
807.472	3024
807.614	2922
807.756	3028
807.898	2948
808.04	2971
808.182	3005
808.324	2963
808.465	2861
808.607	2918
808.749	2823
808.891	2830
809.033	3017
809.174	3013
809.316	2910
809.458	2880
809.6	2811
809.741	2800
809.883	2796
810.025	2872
810.166	2880
810.308	2883
810.45	2861
810.591	2823
810.733	2788
810.875	2887
811.016	2811
811.158	2777
811.299	2815
811.441	2941
811.582	2918
811.724	2834
811.865	2876
812.007	2933
812.148	2883
812.29	2857
812.431	2922
812.573	2944
812.714	2948
812.855	3100
812.997	3089
813.138	3199
813.279	3028
813.421	2990
813.562	2967
813.703	2880
813.845	2918
813.986	2815
814.127	2754
814.268	2845
814.41	2872
814.551	2872
814.692	2876
814.833	2834
814.974	2902
815.115	2971
815.256	2883
815.397	2826
815.539	2849
815.68	2807
815.821	2819
815.962	2975
816.103	2948
816.244	2929
816.385	2876
816.526	3013
816.666	2975
816.807	2804
816.948	2948
817.089	2982
817.23	2845
817.371	2838
817.512	2845
817.653	2842
817.793	2861
817.934	2918
818.075	3005
818.216	2971
818.356	3028
818.497	2914
818.638	2800
818.778	2864
818.919	2842
819.06	2769
819.2	2902
819.341	2823
819.481	2823
819.622	2933
819.762	3104
819.903	3066
820.043	2960
820.184	2906
820.324	2922
820.465	2971
820.605	3020
820.746	3081
820.886	2933
821.026	3131
821.167	3169
821.307	3279
821.447	3317
821.588	3272
821.728	3207
821.868	3207
822.008	3116
822.149	3192
822.289	3226
822.429	3104
822.569	3108
822.709	3214
822.849	3039
822.99	3062
823.13	3207
823.27	3260
823.41	3157
823.55	3176
823.69	3112
823.83	3264
823.97	3131
824.11	3020
824.25	3032
824.389	3112
824.529	3154
824.669	3081
824.809	3199
824.949	3302
825.089	3256
825.228	3176
825.368	3017
825.508	3017
825.648	2994
825.787	3005
825.927	3058
826.067	3009
826.206	3058
826.346	3127
826.485	3138
826.625	3161
826.765	3340
826.904	3302
827.044	3028
827.183	3005
827.323	2910
827.462	3009
827.601	2975
827.741	3005
827.88	3024
828.02	2899
828.159	3017
828.298	3089
828.437	3169
828.577	3116
828.716	3294
828.855	3135
828.994	2994
829.134	2975
829.273	2982
829.412	2960
829.551	2971
829.69	2944
829.829	3043
829.968	3211
830.107	3043
830.246	3100
830.385	3001
830.524	2944
830.663	2845
830.802	2807
830.941	2735
831.08	2716
831.219	2811
831.357	2838
831.496	2998
831.635	2800
831.774	2716
831.913	2735
832.051	2571
832.19	2655
832.329	2743
832.467	2617
832.606	2560
832.744	2674
832.883	2670
833.022	2648
833.16	2731
833.299	2777
833.437	2746
833.576	2785
833.714	2773
833.852	2804
833.991	2838
834.129	2922
834.267	2910
834.406	2853
834.544	2891
834.682	2925
834.821	2944
834.959	3157
835.097	2982
835.235	3146
835.373	3074
835.511	3043
835.65	3024
835.788	2971
835.926	2910
836.064	2868
836.202	2906
836.34	3138
836.478	3176
836.615	3081
836.753	3214
836.891	3272
837.029	3218
837.167	3169
837.305	3119
837.443	3097
837.58	3032
837.718	3203
837.856	3142
837.993	3104
838.131	3203
838.269	3150
838.406	3188
838.544	3127
838.681	2990
838.819	2960
838.956	2864
839.094	2895
839.231	2963
839.369	3077
839.506	3412
839.643	3264
839.781	3089
839.918	3013
840.055	3089
840.193	3116
840.33	3089
840.467	3123
840.604	3211
840.742	3462
840.879	3100
841.016	3123
841.153	3157
841.29	3378
841.427	3355
841.564	3287
841.701	3355
841.838	3298
841.975	3241
842.112	3283
842.249	3146
842.385	3085
842.522	3302
842.659	3138
842.796	3097
842.933	3138
843.069	3100
843.206	3100
843.343	3222
843.479	3188
843.616	3161
843.752	2925
843.889	2922
844.025	3146
844.162	2956
844.298	3161
844.435	3005
844.571	2990
844.708	3138
844.844	3275
844.98	3332
845.117	3256
845.253	3127
845.389	3093
845.525	3157
845.661	3104
845.798	3043
845.934	3154
846.07	3116
846.206	3260
846.342	3359
846.478	3310
846.614	3161
846.75	3112
846.886	3077
847.022	3310
847.158	3184
847.294	3237
847.429	3317
847.565	3291
847.701	3515
847.837	3024
847.972	3043
848.108	3207
848.244	3184
848.379	3051
848.515	2979
848.65	2986
848.786	2994
848.921	3081
849.057	3173
849.192	3188
849.328	3165
849.463	3161
849.598	3104
849.734	3058
849.869	3036
850.004	2986
850.14	3013
850.275	2941
850.41	2922
850.545	2960
850.68	2986
850.815	3020
850.95	3077
851.085	3230
851.22	3157
851.355	3062
851.49	3032
851.625	3097
851.76	3077
851.895	2986
852.03	2960
852.165	3085
852.299	3180
852.434	3233
852.569	3192
852.703	3218
852.838	3275
852.973	3424
853.107	3378
853.242	3218
853.376	3165
853.511	3062
853.645	3104
853.78	3283
853.914	3207
854.048	3154
854.183	3138
854.317	3199
854.451	3340
854.585	3142
854.72	3135
854.854	3253
854.988	3138
855.122	3104
855.256	3017
855.39	3188
855.524	3264
855.658	3222
855.792	3203
855.926	3233
856.06	3287
856.194	3325
856.327	3188
856.461	3142
856.595	3135
856.729	3157
856.862	3283
856.996	3207
857.13	3241
857.263	3268
857.397	3359
857.53	3188
857.664	3268
857.797	3268
857.931	3287
858.064	3192
858.197	3275
858.331	3203
858.464	3138
858.597	3066
858.731	3138
858.864	3195
858.997	3123
859.13	3203
859.263	3188
859.396	3237
859.529	3142
859.662	3116
859.795	3097
859.928	3180
860.061	3329
860.194	3355
860.327	3237
860.46	3150
860.592	3283
860.725	3287
860.858	3317
860.99	3188
861.123	3097
861.256	3077
861.388	3184
861.521	3797
861.653	3077
861.786	3051
861.918	3085
862.05	3142
862.183	3176
862.315	3192
862.447	3226
862.58	3150
862.712	2956
862.844	2933
862.976	3074
863.108	3062
863.24	3428
863.372	2944
863.504	2998
863.636	2979
863.768	3116
863.9	3009
864.032	2937
864.164	3028
864.296	3089
864.428	3100
864.559	3123
864.691	3123
864.823	3097
864.954	3043
865.086	3066
865.217	3066
865.349	3001
865.48	3039
865.612	3055
865.743	3195
865.875	3017
866.006	3009
866.137	2994
866.269	3009
866.4	2998
866.531	2971
866.662	2967
866.793	2960
866.924	2986
867.055	3024
867.186	2979
867.317	2937
867.448	2922
867.579	2887
867.71	2887
867.841	2906
867.972	2944
868.103	2971
868.233	2937
868.364	2975
868.495	2956
868.625	3135
868.756	3199
868.886	3005
869.017	3093
869.147	3268
869.278	3233
869.408	3070
869.539	3093
869.669	3112
869.799	3047
869.929	3241
870.06	3161
870.19	3359
870.32	3359
870.45	3374
870.58	3405
870.71	3504
870.84	3458
870.97	3313
871.1	3306
871.23	3587
871.36	3507
871.489	3412
871.619	3431
871.749	3462
871.879	3469
872.008	3507
872.138	3466
872.267	3325
872.397	3188
872.526	3116
872.656	3062
872.785	3131
872.915	3306
873.044	3348
873.173	3283
873.303	3268
873.432	3291
873.561	3294
873.69	3214
873.819	3188
873.948	3253
874.077	3108
874.206	3097
874.335	3146
874.464	3245
874.593	3416
874.722	3313
874.851	3462
874.979	3401
875.108	3386
875.237	3253
875.365	3222
875.494	3195
875.623	3336
875.751	3123
875.88	3176
876.008	3253
876.136	3272
876.265	3416
876.393	3542
876.521	3458
876.65	3466
876.778	3378
876.906	3313
877.034	3214
877.162	3230
877.29	3268
877.418	3287
877.546	3306
877.674	3272
877.802	3275
877.93	3245
878.058	3211
878.185	3154
878.313	3245
878.441	3287
878.568	3119
878.696	3184
878.824	3302
878.951	3348
879.079	3488
879.206	3652
879.333	3485
879.461	3386
879.588	3420
879.715	3526
879.842	3652
879.97	3443
880.097	3165
880.224	3116
880.351	3256
880.478	3283
880.605	3241
880.732	3226
880.859	3534
880.986	3355
881.112	3382
881.239	3226
881.366	3142
881.493	3097
881.619	3070
881.746	3131
881.872	3161
881.999	3154
882.125	3199
882.252	3317
882.378	3317
882.505	3488
882.631	3287
882.757	3211
882.883	3310
883.01	3283
883.136	3214
883.262	3142
883.388	3169
883.514	3397
883.64	3412
883.766	3336
883.892	3195
884.018	3264
884.143	3469
884.269	3587
884.395	3256
884.52	3195
884.646	3249
884.772	3154
884.897	3127
885.023	3230
885.148	3389
885.274	3450
885.399	3393
885.524	3302
885.65	3340
885.775	3329
885.9	3313
886.025	3431
886.15	3416
886.275	3332
886.4	3260
886.525	3344
886.65	3351
886.775	3291
886.9	3576
887.025	3663
887.149	3469
887.274	3329
887.399	3245
887.523	3184
887.648	3230
887.773	3199
887.897	3462
888.021	3462
888.146	3344
888.27	3492
888.395	3587
888.519	3542
888.643	3469
888.767	3507
888.891	3336
889.015	3279
889.139	3298
889.263	3313
889.387	3481
889.511	3576
889.635	3492
889.759	3363
889.883	3359
890.006	3416
890.13	3507
890.254	3294
890.377	3340
890.501	3253
890.624	3249
890.748	3302
890.871	3199
890.995	3188
891.118	3142
891.241	3256
891.364	3268
891.488	3412
891.611	3230
891.734	3214
891.857	3313
891.98	3313
892.103	3382
892.226	3351
892.349	3249
892.471	3135
892.594	3264
892.717	3351
892.839	3294
892.962	3325
893.085	3428
893.207	3317
893.33	3192
893.452	3233
893.575	3412
893.697	3268
893.819	3488
893.941	3557
894.064	3462
894.186	3321
894.308	3310
894.43	3473
894.552	3622
894.674	3481
894.796	3283
894.918	3393
895.04	3344
895.161	3443
895.283	3431
895.405	3355
895.526	3401
895.648	3481
895.769	3462
895.891	3473
896.012	3545
896.134	3568
896.255	3443
896.376	3412
896.498	3428
896.619	3488
896.74	3401
896.861	3416
896.982	3740
897.103	3888
897.224	3682
897.345	3549
897.466	3481
897.587	3511
897.708	3675
897.828	3545
897.949	3477
898.07	3393
898.19	3439
898.311	3682
898.431	3477
898.552	3557
898.672	3644
898.792	3614
898.913	3584
899.033	3447
899.153	3340
899.273	3256
899.393	3287
899.513	3393
899.633	3367
899.753	3363
899.873	3355
899.993	3428
900.113	3389
900.232	3454
900.352	3393
900.472	3313
900.591	3253
900.711	3325
900.83	3287
900.95	3435
901.069	3561
901.189	3424
901.308	3195
901.427	3176
901.546	3203
901.665	3317
901.784	3420
901.904	3260
902.023	3173
902.141	3047
902.26	3017
902.379	3192
902.498	3081
902.617	3116
902.735	3256
902.854	3291
902.973	3226
903.091	3112
903.21	3119
903.328	3180
903.446	3161
903.565	3165
903.683	3222
903.801	3176
903.919	3283
904.038	3321
904.156	3214
904.274	3321
904.392	3306
904.51	3302
904.627	3348
904.745	3534
904.863	3542
904.981	3275
905.098	3165
905.216	3230
905.334	3348
905.451	3351
905.569	3363
905.686	3443
905.803	3519
905.921	3298
906.038	3492
906.155	3405
906.272	3325
906.389	3397
906.506	3275
906.623	3272
906.74	3302
906.857	3245
906.974	3264
907.091	3477
907.208	3568
907.324	3507
907.441	3431
907.557	3260
907.674	3245
907.79	3260
907.907	3306
908.023	3420
908.139	3401
908.256	3359
908.372	3412
908.488	3378
908.604	3298
908.72	3272
908.836	3306
908.952	3325
909.068	3378
909.184	3534
909.3	3405
909.415	3572
909.531	3507
909.647	3317
909.762	3344
909.878	3298
909.993	3386
910.108	3355
910.224	3359
910.339	3466
910.454	3378
910.57	3306
910.685	3287
910.8	3625
910.915	3557
911.03	3507
911.145	3302
911.259	3306
911.374	3389
911.489	3272
911.604	3245
911.718	3138
911.833	3192
911.947	3077
912.062	3032
912.176	3203
912.291	3233
912.405	3222
912.519	3443
912.633	3492
912.748	3344
912.862	3344
912.976	3214
913.09	3093
913.204	3161
913.318	3241
913.431	3348
913.545	3359
913.659	3420
913.772	3378
913.886	3256
914	3222
914.113	3397
914.226	3458
914.34	3431
914.453	3264
914.566	3431
914.68	3359
914.793	3359
914.906	3146
915.019	3142
915.132	3097
915.245	3226
915.358	3275
915.47	3245
915.583	3329
915.696	3332
915.809	3431
915.921	3439
916.034	3275
916.146	3279
916.259	3241
916.371	3409
916.483	3401
916.595	3279
916.708	3351
916.82	3397
916.932	3439
917.044	3405
917.156	3355
917.268	3275
917.38	3344
917.491	3332
917.603	3420
917.715	3443
917.826	3473
917.938	3439
918.049	3325
918.161	3481
918.272	3610
918.384	3584
918.495	3530
918.606	3363
918.717	3340
918.828	3405
918.939	3443
919.05	3344
919.161	3393
919.272	3211
919.383	3325
919.494	3526
919.604	3728
919.715	3576
919.826	3443
919.936	3526
920.047	3618
920.157	3557
920.267	3827
920.378	3580
920.488	3606
920.598	3812
920.708	3953
920.818	3842
920.928	3873
921.038	4032
921.148	4067
921.258	3755
921.368	3618
921.477	3629
921.587	3584
921.697	3519
921.806	3675
921.916	3515
922.025	3389
922.134	3359
922.244	3351
922.353	3454
922.462	3283
922.571	3272
922.68	3131
922.789	3119
922.898	3195
923.007	3104
923.116	3253
923.224	3188
923.333	3230
923.442	3146
923.55	3093
923.659	3135
923.767	3226
923.876	3180
923.984	3268
924.092	3142
924.201	3233
924.309	3268
924.417	3313
924.525	3245
924.633	3279
924.741	4227
924.849	3070
924.956	3310
925.064	3146
925.172	3077
925.279	3089
925.387	3241
925.494	3230
925.602	3393
925.709	3370
925.816	3195
925.924	3332
926.031	3420
926.138	3397
926.245	3367
926.352	3287
926.459	3462
926.566	3538
926.673	3329
926.779	3249
926.886	3313
926.993	3173
927.099	3138
927.206	3157
927.312	3112
927.419	3272
927.525	3233
927.631	3302
927.737	3169
927.843	3161
927.95	3104
928.056	3176
928.162	3214
928.267	3268
928.373	3789
928.479	3329
928.585	3051
928.69	3214
928.796	3268
928.901	3199
929.007	3058
929.112	3241
929.218	3214
929.323	3192
929.428	3161
929.533	3344
929.638	3138
929.743	3260
929.848	3279
929.953	3264
930.058	3184
930.163	3013
930.267	3116
930.372	3222
930.477	3039
930.581	3340
930.685	3226
930.79	3081
930.894	3142
930.998	3108
931.103	3313
931.207	2948
931.311	2895
931.415	2944
931.519	2785
931.623	2811
