Data from test_V78500241_1550.txt Node
Date: Fri Mar 25 16:25:56 CST 2022
User: usil
Spectrometer: V785-0024
Trigger mode: 0
Integration Time (sec): 4.000000E-1
Scans to average: 1
Nonlinearity correction enabled: false
Boxcar width: 0
Storing dark spectrum: false
XAxis mode: Wavelengths
Number of Pixels in Spectrum: 1024
>>>>>Begin Spectral Data<<<<<
801.071	2880
801.214	2933
801.356	2880
801.499	2899
801.641	2861
801.783	2925
801.926	3062
802.068	2975
802.211	3009
802.353	3036
802.496	2956
802.638	3036
802.78	3036
802.923	3116
803.065	3024
803.208	2883
803.35	2918
803.492	2933
803.635	2914
803.777	2746
803.919	2861
804.061	3192
804.204	2941
804.346	2895
804.488	2826
804.63	3013
804.773	2895
804.915	2899
805.057	3108
805.199	2944
805.341	2990
805.483	3062
805.626	2990
805.768	3017
805.91	3100
806.052	3135
806.194	3039
806.336	3222
806.478	3020
806.62	2944
806.762	2975
806.904	3020
807.046	3184
807.188	2982
807.33	2941
807.472	2994
807.614	2925
807.756	2982
807.898	2937
808.04	2906
808.182	2990
808.324	2922
808.465	2857
808.607	2883
808.749	2800
808.891	2849
809.033	2929
809.174	2986
809.316	2918
809.458	2899
809.6	2754
809.741	2754
809.883	2796
810.025	2785
810.166	2834
810.308	2853
810.45	2849
810.591	2762
810.733	2769
810.875	2857
811.016	2792
811.158	2769
811.299	2815
811.441	2967
811.582	2925
811.724	2834
811.865	2823
812.007	2883
812.148	2902
812.29	2830
812.431	2887
812.573	2910
812.714	2982
812.855	3062
812.997	3028
813.138	3085
813.279	2994
813.421	2994
813.562	2956
813.703	2880
813.845	2872
813.986	2777
814.127	2743
814.268	2800
814.41	2838
814.551	2849
814.692	2880
814.833	2842
814.974	2868
815.115	2971
815.256	2845
815.397	2849
815.539	2838
815.68	2773
815.821	2815
815.962	2944
816.103	2902
816.244	2845
816.385	2868
816.526	2963
816.666	2925
816.807	2766
816.948	2868
817.089	2887
817.23	2857
817.371	2766
817.512	2781
817.653	2838
817.793	2823
817.934	2899
818.075	2975
818.216	3013
818.356	3062
818.497	2838
818.638	2804
818.778	2815
818.919	2769
819.06	2773
819.2	2880
819.341	2823
819.481	2785
819.622	2937
819.762	3097
819.903	3032
820.043	2902
820.184	2922
820.324	2918
820.465	3032
820.605	3005
820.746	3062
820.886	2937
821.026	3116
821.167	3138
821.307	3256
821.447	3294
821.588	3192
821.728	3192
821.868	3207
822.008	3104
822.149	3173
822.289	3211
822.429	3036
822.569	3085
822.709	3192
822.849	3028
822.99	3043
823.13	3142
823.27	3192
823.41	3112
823.55	3119
823.69	3150
823.83	3192
823.97	3104
824.11	3013
824.25	2967
824.389	3032
824.529	3127
824.669	3062
824.809	3192
824.949	3264
825.089	3233
825.228	3154
825.368	2960
825.508	2971
825.648	2963
825.787	3039
825.927	3005
826.067	2990
826.206	2941
826.346	3020
826.485	3093
826.625	3081
826.765	3237
826.904	3161
827.044	2979
827.183	2948
827.323	2880
827.462	2986
827.601	2899
827.741	2906
827.88	2899
828.02	2857
828.159	2979
828.298	3028
828.437	3112
828.577	3009
828.716	3245
828.855	3100
828.994	2887
829.134	2864
829.273	2918
829.412	2845
829.551	2861
829.69	2861
829.829	2967
829.968	3093
830.107	3009
830.246	2990
830.385	2925
830.524	2902
830.663	2804
830.802	2712
830.941	2655
831.08	2636
831.219	2758
831.357	2739
831.496	2956
831.635	2735
831.774	2625
831.913	2644
832.051	2537
832.19	2587
832.329	2693
832.467	2541
832.606	2495
832.744	2560
832.883	2556
833.022	2594
833.16	2693
833.299	2682
833.437	2705
833.576	2735
833.714	2697
833.852	2727
833.991	2758
834.129	2800
834.267	2845
834.406	2800
834.544	2868
834.682	2902
834.821	2880
834.959	3024
835.097	2902
835.235	3085
835.373	3017
835.511	2971
835.65	2944
835.788	2963
835.926	2804
836.064	2834
836.202	2842
836.34	3089
836.478	3131
836.615	3047
836.753	3123
836.891	3233
837.029	3165
837.167	3112
837.305	3074
837.443	3051
837.58	2952
837.718	3108
837.856	3058
837.993	3047
838.131	3089
838.269	3123
838.406	3093
838.544	3062
838.681	2994
838.819	2918
838.956	2762
839.094	2834
839.231	2914
839.369	3005
839.506	3378
839.643	3214
839.781	3001
839.918	2971
840.055	3055
840.193	3036
840.33	3062
840.467	3066
840.604	3142
840.742	3435
840.879	3074
841.016	3089
841.153	3161
841.29	3355
841.427	3313
841.564	3287
841.701	3256
841.838	3226
841.975	3195
842.112	3211
842.249	3093
842.385	3032
842.522	3249
842.659	3070
842.796	3055
842.933	3081
843.069	3032
843.206	3047
843.343	3222
843.479	3077
843.616	3097
843.752	2887
843.889	2861
844.025	3089
844.162	2899
844.298	3112
844.435	2956
844.571	2914
844.708	3108
844.844	3207
844.98	3207
845.117	3188
845.253	3036
845.389	3013
845.525	3131
845.661	3051
845.798	2990
845.934	3077
846.07	3058
846.206	3211
846.342	3317
846.478	3214
846.614	3093
846.75	3043
846.886	3039
847.022	3199
847.158	3150
847.294	3222
847.429	3249
847.565	3230
847.701	3473
847.837	3028
847.972	3020
848.108	3146
848.244	3135
848.379	2998
848.515	2956
848.65	2952
848.786	2975
848.921	2994
849.057	3112
849.192	3119
849.328	3081
849.463	3150
849.598	3039
849.734	3039
849.869	3009
850.004	2914
850.14	2990
850.275	2914
850.41	2830
850.545	2857
850.68	2944
850.815	2975
850.95	2994
851.085	3188
851.22	3104
851.355	3043
851.49	2937
851.625	2979
851.76	3009
851.895	2956
852.03	2933
852.165	3020
852.299	3104
852.434	3207
852.569	3150
852.703	3176
852.838	3253
852.973	3332
853.107	3344
853.242	3146
853.376	3074
853.511	2941
853.645	3043
853.78	3211
853.914	3093
854.048	3119
854.183	3097
854.317	3123
854.451	3260
854.585	3097
854.72	3089
854.854	3218
854.988	3066
855.122	3032
855.256	2956
855.39	3123
855.524	3207
855.658	3195
855.792	3131
855.926	3241
856.06	3192
856.194	3272
856.327	3142
856.461	3089
856.595	3081
856.729	3062
856.862	3199
856.996	3161
857.13	3184
857.263	3226
857.397	3272
857.53	3100
857.664	3157
857.797	3237
857.931	3253
858.064	3138
858.197	3214
858.331	3112
858.464	3104
858.597	3001
858.731	3100
858.864	3100
858.997	3077
859.13	3161
859.263	3169
859.396	3195
859.529	3077
859.662	3093
859.795	3055
859.928	3131
860.061	3245
860.194	3256
860.327	3127
860.46	3123
860.592	3226
860.725	3241
860.858	3245
860.99	3093
861.123	3066
861.256	3039
861.388	3127
861.521	3918
861.653	2971
861.786	2982
861.918	2986
862.05	3032
862.183	3085
862.315	3173
862.447	3192
862.58	3062
862.712	2941
862.844	2899
862.976	3020
863.108	2986
863.24	3260
863.372	2891
863.504	2967
863.636	2944
863.768	3028
863.9	2971
864.032	2880
864.164	2944
864.296	3017
864.428	3062
864.559	3055
864.691	3055
864.823	3051
864.954	3013
865.086	3062
865.217	3001
865.349	2948
865.48	2982
865.612	3047
865.743	3100
865.875	3001
866.006	2918
866.137	3009
866.269	2941
866.4	2910
866.531	2929
866.662	2929
866.793	2891
866.924	2895
867.055	2979
867.186	2933
867.317	2906
867.448	2845
867.579	2804
867.71	2849
867.841	2796
867.972	2864
868.103	2918
868.233	2899
868.364	2883
868.495	2918
868.625	3066
868.756	3154
868.886	2960
869.017	3032
869.147	3154
869.278	3123
869.408	3036
869.539	3020
869.669	3097
869.799	3066
869.929	3108
870.06	3085
870.19	3329
870.32	3275
870.45	3332
870.58	3351
870.71	3431
870.84	3435
870.97	3287
871.1	3241
871.23	3488
871.36	3462
871.489	3340
871.619	3409
871.749	3412
871.879	3435
872.008	3481
872.138	3344
872.267	3283
872.397	3180
872.526	3066
872.656	2994
872.785	3055
872.915	3253
873.044	3291
873.173	3211
873.303	3268
873.432	3230
873.561	3241
873.69	3173
873.819	3165
873.948	3173
874.077	3108
874.206	3047
874.335	3074
874.464	3211
874.593	3351
874.722	3253
874.851	3370
874.979	3321
875.108	3306
875.237	3184
875.365	3176
875.494	3173
875.623	3253
875.751	3077
875.88	3131
876.008	3176
876.136	3241
876.265	3340
876.393	3473
876.521	3443
876.65	3393
876.778	3264
876.906	3241
877.034	3195
877.162	3218
877.29	3157
877.418	3260
877.546	3218
877.674	3192
877.802	3237
877.93	3218
878.058	3146
878.185	3074
878.313	3226
878.441	3203
878.568	3089
878.696	3123
878.824	3222
878.951	3275
879.079	3389
879.206	3595
879.333	3454
879.461	3336
879.588	3325
879.715	3450
879.842	3549
879.97	3351
880.097	3180
880.224	3100
880.351	3199
880.478	3260
880.605	3176
880.732	3188
880.859	3466
880.986	3287
881.112	3332
881.239	3176
881.366	3116
881.493	3013
881.619	3013
881.746	3116
881.872	3119
881.999	3108
882.125	3173
882.252	3192
882.378	3302
882.505	3428
882.631	3268
882.757	3157
882.883	3241
883.01	3275
883.136	3154
883.262	3085
883.388	3104
883.514	3310
883.64	3344
883.766	3317
883.892	3195
884.018	3260
884.143	3431
884.269	3526
884.395	3218
884.52	3161
884.646	3169
884.772	3085
884.897	3089
885.023	3226
885.148	3344
885.274	3416
885.399	3370
885.524	3275
885.65	3275
885.775	3302
885.9	3241
886.025	3424
886.15	3355
886.275	3275
886.4	3218
886.525	3291
886.65	3272
886.775	3264
886.9	3485
887.025	3652
887.149	3382
887.274	3253
887.399	3169
887.523	3211
887.648	3173
887.773	3165
887.897	3348
888.021	3355
888.146	3298
888.27	3431
888.395	3530
888.519	3447
888.643	3450
888.767	3511
888.891	3336
889.015	3211
889.139	3283
889.263	3226
889.387	3393
889.511	3526
889.635	3428
889.759	3332
889.883	3275
890.006	3355
890.13	3488
890.254	3241
890.377	3313
890.501	3211
890.624	3195
890.748	3302
890.871	3176
890.995	3108
891.118	3032
891.241	3184
891.364	3195
891.488	3272
891.611	3184
891.734	3237
891.857	3256
891.98	3245
892.103	3302
892.226	3287
892.349	3207
892.471	3104
892.594	3237
892.717	3291
892.839	3256
892.962	3291
893.085	3344
893.207	3287
893.33	3146
893.452	3169
893.575	3279
893.697	3245
893.819	3454
893.941	3538
894.064	3447
894.186	3249
894.308	3260
894.43	3428
894.552	3595
894.674	3462
894.796	3283
894.918	3294
895.04	3294
895.161	3386
895.283	3378
895.405	3325
895.526	3351
895.648	3389
895.769	3355
895.891	3428
896.012	3450
896.134	3435
896.255	3382
896.376	3348
896.498	3351
896.619	3435
896.74	3420
896.861	3405
896.982	3694
897.103	3835
897.224	3599
897.345	3488
897.466	3409
897.587	3496
897.708	3629
897.828	3504
897.949	3439
898.07	3313
898.19	3439
898.311	3644
898.431	3420
898.552	3519
898.672	3637
898.792	3538
898.913	3526
899.033	3412
899.153	3302
899.273	3222
899.393	3283
899.513	3325
899.633	3310
899.753	3329
899.873	3264
899.993	3393
900.113	3355
900.232	3378
900.352	3378
900.472	3298
900.591	3192
900.711	3298
900.83	3260
900.95	3409
901.069	3473
901.189	3355
901.308	3203
901.427	3150
901.546	3169
901.665	3283
901.784	3329
901.904	3214
902.023	3138
902.141	3024
902.26	3005
902.379	3150
902.498	3081
902.617	3062
902.735	3195
902.854	3291
902.973	3180
903.091	3017
903.21	2994
903.328	3146
903.446	3108
903.565	3100
903.683	3195
903.801	3131
903.919	3249
904.038	3260
904.156	3169
904.274	3287
904.392	3245
904.51	3268
904.627	3306
904.745	3447
904.863	3511
904.981	3279
905.098	3176
905.216	3211
905.334	3306
905.451	3249
905.569	3313
905.686	3389
905.803	3439
905.921	3294
906.038	3428
906.155	3344
906.272	3268
906.389	3325
906.506	3226
906.623	3272
906.74	3291
906.857	3188
906.974	3260
907.091	3405
907.208	3534
907.324	3458
907.441	3397
907.557	3207
907.674	3245
907.79	3195
907.907	3264
908.023	3325
908.139	3363
908.256	3306
908.372	3389
908.488	3355
908.604	3226
908.72	3237
908.836	3287
908.952	3321
909.068	3325
909.184	3420
909.3	3378
909.415	3454
909.531	3523
909.647	3264
909.762	3279
909.878	3237
909.993	3374
910.108	3370
910.224	3302
910.339	3382
910.454	3317
910.57	3310
910.685	3237
910.8	3606
910.915	3564
911.03	3435
911.145	3245
911.259	3272
911.374	3272
911.489	3214
911.604	3233
911.718	3112
911.833	3180
911.947	3017
912.062	3005
912.176	3157
912.291	3165
912.405	3192
912.519	3401
912.633	3511
912.748	3348
912.862	3283
912.976	3192
913.09	3081
913.204	3150
913.318	3211
913.431	3317
913.545	3374
913.659	3397
913.772	3310
913.886	3237
914	3176
914.113	3348
914.226	3397
914.34	3348
914.453	3211
914.566	3428
914.68	3283
914.793	3336
914.906	3165
915.019	3150
915.132	3093
915.245	3192
915.358	3230
915.47	3256
915.583	3256
915.696	3310
915.809	3435
915.921	3454
916.034	3237
916.146	3256
916.259	3237
916.371	3397
916.483	3370
916.595	3291
916.708	3344
916.82	3344
916.932	3367
917.044	3370
917.156	3351
917.268	3230
917.38	3279
917.491	3272
917.603	3382
917.715	3443
917.826	3496
917.938	3355
918.049	3256
918.161	3416
918.272	3553
918.384	3614
918.495	3492
918.606	3298
918.717	3283
918.828	3370
918.939	3405
919.05	3291
919.161	3382
919.272	3127
919.383	3279
919.494	3496
919.604	3656
919.715	3515
919.826	3363
919.936	3481
920.047	3595
920.157	3504
920.267	3747
920.378	3603
920.488	3568
920.598	3755
920.708	3956
920.818	3819
920.928	3816
921.038	4017
921.148	3945
921.258	3705
921.368	3614
921.477	3595
921.587	3504
921.697	3481
921.806	3606
921.916	3526
922.025	3363
922.134	3329
922.244	3340
922.353	3401
922.462	3279
922.571	3226
922.68	3089
922.789	3051
922.898	3127
923.007	3074
923.116	3188
923.224	3131
923.333	3203
923.442	3112
923.55	3097
923.659	3135
923.767	3203
923.876	3116
923.984	3199
924.092	3112
924.201	3176
924.309	3207
924.417	3245
924.525	3173
924.633	3218
924.741	4177
924.849	3066
924.956	3272
925.064	3085
925.172	3058
925.279	3100
925.387	3211
925.494	3241
925.602	3344
925.709	3340
925.816	3180
925.924	3245
926.031	3378
926.138	3306
926.245	3386
926.352	3233
926.459	3389
926.566	3447
926.673	3325
926.779	3253
926.886	3199
926.993	3131
927.099	3146
927.206	3108
927.312	3077
927.419	3195
927.525	3226
927.631	3268
927.737	3138
927.843	3154
927.95	3028
928.056	3127
928.162	3138
928.267	3203
928.373	3800
928.479	3275
928.585	3077
928.69	3195
928.796	3275
928.901	3192
929.007	3043
929.112	3203
929.218	3173
929.323	3169
929.428	3127
929.533	3306
929.638	3142
929.743	3146
929.848	3211
929.953	3211
930.058	3127
930.163	2982
930.267	3066
930.372	3161
930.477	3043
930.581	3310
930.685	3142
930.79	3051
930.894	3138
930.998	3127
931.103	3310
931.207	2941
931.311	2967
931.415	2941
931.519	2777
931.623	2811
