Data from test_V78500241_1834.txt Node
Date: Fri Mar 25 16:27:54 CST 2022
User: usil
Spectrometer: V785-0024
Trigger mode: 0
Integration Time (sec): 4.000000E-1
Scans to average: 1
Nonlinearity correction enabled: false
Boxcar width: 0
Storing dark spectrum: false
XAxis mode: Wavelengths
Number of Pixels in Spectrum: 1024
>>>>>Begin Spectral Data<<<<<
801.071	2906
801.214	2918
801.356	2895
801.499	2899
801.641	2887
801.783	2941
801.926	3043
802.068	2971
802.211	2990
802.353	3024
802.496	2960
802.638	2986
802.78	3024
802.923	3077
803.065	3001
803.208	2883
803.35	2941
803.492	2948
803.635	2918
803.777	2781
803.919	2838
804.061	3173
804.204	2956
804.346	2887
804.488	2899
804.63	2986
804.773	2845
804.915	2948
805.057	3097
805.199	2922
805.341	2971
805.483	3055
805.626	2998
805.768	2933
805.91	3089
806.052	3104
806.194	3028
806.336	3241
806.478	3005
806.62	2975
806.762	2982
806.904	3032
807.046	3131
807.188	2956
807.33	2906
807.472	3001
807.614	2937
807.756	2994
807.898	2937
808.04	2868
808.182	2960
808.324	2975
808.465	2887
808.607	2864
808.749	2807
808.891	2800
809.033	2948
809.174	2960
809.316	2933
809.458	2933
809.6	2754
809.741	2754
809.883	2739
810.025	2849
810.166	2880
810.308	2830
810.45	2792
810.591	2777
810.733	2785
810.875	2853
811.016	2796
811.158	2743
811.299	2807
811.441	2929
811.582	2895
811.724	2800
811.865	2845
812.007	2861
812.148	2857
812.29	2819
812.431	2872
812.573	2933
812.714	2937
812.855	3020
812.997	3005
813.138	3093
813.279	2982
813.421	2975
813.562	2960
813.703	2830
813.845	2887
813.986	2735
814.127	2701
814.268	2811
814.41	2830
814.551	2769
814.692	2830
814.833	2807
814.974	2845
815.115	2925
815.256	2785
815.397	2811
815.539	2826
815.68	2731
815.821	2788
815.962	2944
816.103	2902
816.244	2868
816.385	2864
816.526	2952
816.666	2876
816.807	2716
816.948	2891
817.089	2902
817.23	2819
817.371	2781
817.512	2788
817.653	2834
817.793	2849
817.934	2849
818.075	2914
818.216	2990
818.356	3028
818.497	2857
818.638	2724
818.778	2811
818.919	2781
819.06	2766
819.2	2845
819.341	2804
819.481	2796
819.622	2891
819.762	3112
819.903	3055
820.043	2918
820.184	2891
820.324	2883
820.465	3009
820.605	2979
820.746	3001
820.886	2944
821.026	3097
821.167	3131
821.307	3237
821.447	3294
821.588	3241
821.728	3199
821.868	3184
822.008	3070
822.149	3157
822.289	3188
822.429	3077
822.569	3077
822.709	3150
822.849	3005
822.99	3051
823.13	3150
823.27	3241
823.41	3123
823.55	3157
823.69	3184
823.83	3188
823.97	3104
824.11	3005
824.25	2963
824.389	3013
824.529	3108
824.669	3077
824.809	3176
824.949	3214
825.089	3199
825.228	3150
825.368	3020
825.508	2937
825.648	2975
825.787	2975
825.927	2998
826.067	2956
826.206	2956
826.346	3036
826.485	3055
826.625	3039
826.765	3245
826.904	3226
827.044	2990
827.183	2941
827.323	2864
827.462	2960
827.601	2910
827.741	2918
827.88	2925
828.02	2861
828.159	2960
828.298	2994
828.437	3116
828.577	3066
828.716	3230
828.855	3062
828.994	2918
829.134	2861
829.273	2906
829.412	2838
829.551	2857
829.69	2864
829.829	3001
829.968	3123
830.107	2990
830.246	2979
830.385	2925
830.524	2868
830.663	2826
830.802	2674
830.941	2667
831.08	2644
831.219	2758
831.357	2743
831.496	2933
831.635	2689
831.774	2644
831.913	2651
832.051	2518
832.19	2549
832.329	2678
832.467	2522
832.606	2499
832.744	2583
832.883	2579
833.022	2568
833.16	2640
833.299	2686
833.437	2697
833.576	2689
833.714	2686
833.852	2724
833.991	2750
834.129	2826
834.267	2800
834.406	2746
834.544	2899
834.682	2872
834.821	2895
834.959	3043
835.097	2895
835.235	3085
835.373	2952
835.511	3017
835.65	2914
835.788	2948
835.926	2819
836.064	2838
836.202	2842
836.34	3108
836.478	3127
836.615	3055
836.753	3112
836.891	3207
837.029	3169
837.167	3123
837.305	3062
837.443	3020
837.58	2960
837.718	3119
837.856	3070
837.993	3066
838.131	3119
838.269	3097
838.406	3112
838.544	3085
838.681	2944
838.819	2914
838.956	2815
839.094	2830
839.231	2925
839.369	2994
839.506	3355
839.643	3230
839.781	2979
839.918	2994
840.055	3062
840.193	3051
840.33	3077
840.467	3089
840.604	3123
840.742	3386
840.879	3058
841.016	3032
841.153	3119
841.29	3332
841.427	3275
841.564	3249
841.701	3310
841.838	3199
841.975	3154
842.112	3195
842.249	3089
842.385	3032
842.522	3287
842.659	3058
842.796	3051
842.933	3081
843.069	3028
843.206	3051
843.343	3176
843.479	3108
843.616	3097
843.752	2902
843.889	2883
844.025	3070
844.162	2899
844.298	3077
844.435	2925
844.571	2918
844.708	3066
844.844	3150
844.98	3214
845.117	3157
845.253	3051
845.389	2982
845.525	3093
845.661	3081
845.798	2982
845.934	3058
846.07	3039
846.206	3218
846.342	3298
846.478	3218
846.614	3077
846.75	3036
846.886	3020
847.022	3256
847.158	3169
847.294	3218
847.429	3233
847.565	3184
847.701	3477
847.837	3036
847.972	2982
848.108	3173
848.244	3097
848.379	2963
848.515	2925
848.65	2929
848.786	3001
848.921	2963
849.057	3081
849.192	3123
849.328	3051
849.463	3097
849.598	3058
849.734	3001
849.869	3017
850.004	2910
850.14	2979
850.275	2933
850.41	2887
850.545	2891
850.68	2891
850.815	2975
850.95	2941
851.085	3192
851.22	3070
851.355	3058
851.49	2990
851.625	3009
851.76	3001
851.895	2933
852.03	2872
852.165	2994
852.299	3104
852.434	3150
852.569	3161
852.703	3188
852.838	3192
852.973	3275
853.107	3291
853.242	3142
853.376	3058
853.511	2994
853.645	3009
853.78	3207
853.914	3089
854.048	3119
854.183	3070
854.317	3150
854.451	3298
854.585	3150
854.72	3077
854.854	3157
854.988	2986
855.122	3100
855.256	2971
855.39	3146
855.524	3245
855.658	3169
855.792	3180
855.926	3188
856.06	3230
856.194	3249
856.327	3154
856.461	3077
856.595	3119
856.729	3081
856.862	3180
856.996	3146
857.13	3203
857.263	3226
857.397	3237
857.53	3093
857.664	3207
857.797	3184
857.931	3233
858.064	3165
858.197	3233
858.331	3154
858.464	3108
858.597	3005
858.731	3074
858.864	3161
858.997	3097
859.13	3138
859.263	3169
859.396	3192
859.529	3081
859.662	3089
859.795	3047
859.928	3127
860.061	3253
860.194	3260
860.327	3127
860.46	3104
860.592	3226
860.725	3226
860.858	3256
860.99	3097
861.123	3039
861.256	3066
861.388	3146
861.521	3797
861.653	2998
861.786	2971
861.918	3013
862.05	3017
862.183	3066
862.315	3150
862.447	3214
862.58	3112
862.712	2925
862.844	2868
862.976	3013
863.108	3036
863.24	3401
863.372	2857
863.504	2982
863.636	2937
863.768	2998
863.9	2990
864.032	2883
864.164	2922
864.296	3005
864.428	3097
864.559	3104
864.691	3020
864.823	3051
864.954	3032
865.086	3051
865.217	2994
865.349	2929
865.48	2971
865.612	2979
865.743	3131
865.875	2967
866.006	2963
866.137	2982
866.269	2933
866.4	2918
866.531	2929
866.662	2845
866.793	2880
866.924	2902
867.055	2933
867.186	2914
867.317	2899
867.448	2872
867.579	2838
867.71	2826
867.841	2842
867.972	2872
868.103	2876
868.233	2883
868.364	2880
868.495	2895
868.625	3077
868.756	3127
868.886	2990
869.017	3017
869.147	3123
869.278	3157
869.408	3055
869.539	3013
869.669	3097
869.799	3039
869.929	3146
870.06	3077
870.19	3310
870.32	3260
870.45	3260
870.58	3355
870.71	3435
870.84	3454
870.97	3313
871.1	3207
871.23	3443
871.36	3416
871.489	3302
871.619	3382
871.749	3435
871.879	3439
872.008	3473
872.138	3340
872.267	3207
872.397	3108
872.526	3100
872.656	3009
872.785	3127
872.915	3176
873.044	3310
873.173	3211
873.303	3218
873.432	3237
873.561	3233
873.69	3142
873.819	3108
873.948	3180
874.077	3112
874.206	3020
874.335	3116
874.464	3211
874.593	3336
874.722	3226
874.851	3336
874.979	3386
875.108	3294
875.237	3188
875.365	3131
875.494	3188
875.623	3264
875.751	3058
875.88	3089
876.008	3173
876.136	3272
876.265	3348
876.393	3504
876.521	3389
876.65	3412
876.778	3336
876.906	3256
877.034	3218
877.162	3195
877.29	3192
877.418	3207
877.546	3218
877.674	3245
877.802	3222
877.93	3207
878.058	3138
878.185	3100
878.313	3195
878.441	3199
878.568	3066
878.696	3127
878.824	3241
878.951	3310
879.079	3469
879.206	3603
879.333	3409
879.461	3348
879.588	3367
879.715	3469
879.842	3580
879.97	3378
880.097	3165
880.224	3146
880.351	3195
880.478	3226
880.605	3237
880.732	3211
880.859	3462
880.986	3313
881.112	3325
881.239	3192
881.366	3070
881.493	3036
881.619	3055
881.746	3074
881.872	3100
881.999	3077
882.125	3184
882.252	3211
882.378	3268
882.505	3443
882.631	3264
882.757	3180
882.883	3199
883.01	3222
883.136	3142
883.262	3108
883.388	3108
883.514	3344
883.64	3355
883.766	3287
883.892	3188
884.018	3211
884.143	3412
884.269	3542
884.395	3207
884.52	3142
884.646	3199
884.772	3131
884.897	3108
885.023	3218
885.148	3321
885.274	3409
885.399	3378
885.524	3302
885.65	3249
885.775	3329
885.9	3249
886.025	3401
886.15	3359
886.275	3283
886.4	3226
886.525	3298
886.65	3291
886.775	3302
886.9	3500
887.025	3656
887.149	3393
887.274	3264
887.399	3237
887.523	3211
887.648	3169
887.773	3233
887.897	3348
888.021	3370
888.146	3279
888.27	3420
888.395	3557
888.519	3439
888.643	3409
888.767	3416
888.891	3317
889.015	3233
889.139	3291
889.263	3222
889.387	3374
889.511	3492
889.635	3409
889.759	3302
889.883	3291
890.006	3363
890.13	3473
890.254	3253
890.377	3336
890.501	3211
890.624	3192
890.748	3313
890.871	3207
890.995	3108
891.118	3055
891.241	3176
891.364	3222
891.488	3298
891.611	3165
891.734	3256
891.857	3298
891.98	3218
892.103	3317
892.226	3260
892.349	3188
892.471	3085
892.594	3222
892.717	3279
892.839	3230
892.962	3283
893.085	3310
893.207	3313
893.33	3150
893.452	3157
893.575	3348
893.697	3264
893.819	3469
893.941	3504
894.064	3416
894.186	3256
894.308	3241
894.43	3458
894.552	3564
894.674	3416
894.796	3264
894.918	3310
895.04	3268
895.161	3462
895.283	3374
895.405	3313
895.526	3332
895.648	3405
895.769	3420
895.891	3469
896.012	3466
896.134	3447
896.255	3401
896.376	3344
896.498	3378
896.619	3420
896.74	3359
896.861	3393
896.982	3618
897.103	3797
897.224	3576
897.345	3534
897.466	3462
897.587	3473
897.708	3629
897.828	3534
897.949	3469
898.07	3306
898.19	3447
898.311	3610
898.431	3439
898.552	3504
898.672	3584
898.792	3557
898.913	3526
899.033	3416
899.153	3306
899.273	3195
899.393	3272
899.513	3336
899.633	3336
899.753	3325
899.873	3291
899.993	3355
900.113	3287
900.232	3409
900.352	3336
900.472	3264
900.591	3207
900.711	3306
900.83	3241
900.95	3416
901.069	3496
901.189	3344
901.308	3157
901.427	3116
901.546	3211
901.665	3272
901.784	3325
901.904	3195
902.023	3157
902.141	3020
902.26	2998
902.379	3138
902.498	3070
902.617	3024
902.735	3203
902.854	3230
902.973	3184
903.091	3017
903.21	3066
903.328	3112
903.446	3100
903.565	3089
903.683	3176
903.801	3123
903.919	3249
904.038	3279
904.156	3176
904.274	3275
904.392	3268
904.51	3302
904.627	3264
904.745	3447
904.863	3523
904.981	3237
905.098	3192
905.216	3230
905.334	3298
905.451	3287
905.569	3302
905.686	3386
905.803	3412
905.921	3317
906.038	3424
906.155	3348
906.272	3291
906.389	3340
906.506	3241
906.623	3237
906.74	3226
906.857	3150
906.974	3268
907.091	3447
907.208	3530
907.324	3538
907.441	3409
907.557	3249
907.674	3241
907.79	3226
907.907	3241
908.023	3367
908.139	3359
908.256	3306
908.372	3370
908.488	3363
908.604	3302
908.72	3226
908.836	3283
908.952	3253
909.068	3325
909.184	3492
909.3	3401
909.415	3477
909.531	3454
909.647	3245
909.762	3287
909.878	3245
909.993	3363
910.108	3367
910.224	3313
910.339	3450
910.454	3321
910.57	3279
910.685	3211
910.8	3568
910.915	3545
911.03	3443
911.145	3233
911.259	3256
911.374	3260
911.489	3222
911.604	3241
911.718	3108
911.833	3161
911.947	3020
912.062	2963
912.176	3142
912.291	3184
912.405	3188
912.519	3367
912.633	3488
912.748	3275
912.862	3275
912.976	3157
913.09	3077
913.204	3100
913.318	3245
913.431	3348
913.545	3344
913.659	3435
913.772	3355
913.886	3192
914	3222
914.113	3355
914.226	3386
914.34	3393
914.453	3211
914.566	3416
914.68	3325
914.793	3279
914.906	3100
915.019	3097
915.132	3036
915.245	3195
915.358	3226
915.47	3241
915.583	3245
915.696	3306
915.809	3424
915.921	3443
916.034	3233
916.146	3283
916.259	3222
916.371	3416
916.483	3370
916.595	3264
916.708	3310
916.82	3310
916.932	3317
917.044	3340
917.156	3363
917.268	3222
917.38	3336
917.491	3310
917.603	3378
917.715	3485
917.826	3466
917.938	3370
918.049	3287
918.161	3477
918.272	3614
918.384	3580
918.495	3473
918.606	3332
918.717	3272
918.828	3393
918.939	3420
919.05	3302
919.161	3378
919.272	3161
919.383	3226
919.494	3507
919.604	3614
919.715	3469
919.826	3416
919.936	3469
920.047	3538
920.157	3523
920.267	3762
920.378	3641
920.488	3526
920.598	3812
920.708	3949
920.818	3827
920.928	3800
921.038	4006
921.148	3979
921.258	3705
921.368	3610
921.477	3610
921.587	3526
921.697	3420
921.806	3622
921.916	3515
922.025	3325
922.134	3348
922.244	3348
922.353	3412
922.462	3298
922.571	3249
922.68	3112
922.789	3058
922.898	3127
923.007	3070
923.116	3268
923.224	3169
923.333	3184
923.442	3077
923.55	3093
923.659	3127
923.767	3241
923.876	3074
923.984	3226
924.092	3081
924.201	3207
924.309	3249
924.417	3230
924.525	3180
924.633	3218
924.741	4188
924.849	3066
924.956	3272
925.064	3119
925.172	3028
925.279	3100
925.387	3199
925.494	3222
925.602	3348
925.709	3329
925.816	3184
925.924	3279
926.031	3382
926.138	3317
926.245	3348
926.352	3230
926.459	3420
926.566	3458
926.673	3325
926.779	3249
926.886	3260
926.993	3127
927.099	3127
927.206	3131
927.312	3127
927.419	3230
927.525	3249
927.631	3237
927.737	3112
927.843	3100
927.95	3017
928.056	3154
928.162	3176
928.267	3226
928.373	3778
928.479	3317
928.585	3070
928.69	3218
928.796	3287
928.901	3195
929.007	3028
929.112	3192
929.218	3173
929.323	3150
929.428	3142
929.533	3310
929.638	3097
929.743	3165
929.848	3245
929.953	3207
930.058	3131
930.163	3001
930.267	3036
930.372	3195
930.477	3058
930.581	3272
930.685	3146
930.79	3009
930.894	3085
930.998	3127
931.103	3306
931.207	2975
931.311	2910
931.415	2899
931.519	2743
931.623	2834
