Data from test_V78500241_58.txt Node
Date: Fri Mar 25 16:15:36 CST 2022
User: usil
Spectrometer: V785-0024
Trigger mode: 0
Integration Time (sec): 4.000000E-1
Scans to average: 1
Nonlinearity correction enabled: false
Boxcar width: 0
Storing dark spectrum: false
XAxis mode: Wavelengths
Number of Pixels in Spectrum: 1024
>>>>>Begin Spectral Data<<<<<
801.071	2979
801.214	3039
801.356	2899
801.499	3005
801.641	2941
801.783	2956
801.926	3089
802.068	3017
802.211	3062
802.353	3119
802.496	3020
802.638	3085
802.78	3104
802.923	3154
803.065	3051
803.208	2941
803.35	2979
803.492	2975
803.635	2967
803.777	2838
803.919	2902
804.061	3195
804.204	2998
804.346	2944
804.488	2895
804.63	3047
804.773	2929
804.915	3005
805.057	3100
805.199	2963
805.341	3013
805.483	3112
805.626	3058
805.768	3032
805.91	3146
806.052	3199
806.194	3055
806.336	3256
806.478	3108
806.62	3028
806.762	3009
806.904	3100
807.046	3226
807.188	3043
807.33	2960
807.472	3089
807.614	2952
807.756	3062
807.898	2982
808.04	2944
808.182	3032
808.324	3005
808.465	2963
808.607	2895
808.749	2834
808.891	2887
809.033	2998
809.174	2998
809.316	2956
809.458	2948
809.6	2815
809.741	2830
809.883	2796
810.025	2948
810.166	2899
810.308	2880
810.45	2891
810.591	2807
810.733	2792
810.875	2861
811.016	2811
811.158	2830
811.299	2830
811.441	2975
811.582	2952
811.724	2883
811.865	2868
812.007	2975
812.148	2918
812.29	2914
812.431	2891
812.573	2971
812.714	3047
812.855	3100
812.997	3131
813.138	3142
813.279	3070
813.421	3017
813.562	3013
813.703	2895
813.845	2910
813.986	2815
814.127	2746
814.268	2899
814.41	2883
814.551	2815
814.692	2899
814.833	2868
814.974	2914
815.115	2937
815.256	2880
815.397	2876
815.539	2849
815.68	2811
815.821	2826
815.962	3013
816.103	2960
816.244	2967
816.385	2922
816.526	3039
816.666	2944
816.807	2826
816.948	2937
817.089	2948
817.23	2914
817.371	2796
817.512	2838
817.653	2895
817.793	2823
817.934	2914
818.075	2963
818.216	2998
818.356	3077
818.497	2948
818.638	2861
818.778	2861
818.919	2823
819.06	2819
819.2	2925
819.341	2857
819.481	2872
819.622	2960
819.762	3131
819.903	3085
820.043	2963
820.184	2914
820.324	2918
820.465	3085
820.605	3051
820.746	3077
820.886	2998
821.026	3131
821.167	3180
821.307	3272
821.447	3351
821.588	3287
821.728	3253
821.868	3237
822.008	3161
822.149	3249
822.289	3294
822.429	3150
822.569	3138
822.709	3237
822.849	3074
822.99	3108
823.13	3237
823.27	3279
823.41	3142
823.55	3188
823.69	3199
823.83	3237
823.97	3123
824.11	3032
824.25	3009
824.389	3131
824.529	3146
824.669	3108
824.809	3260
824.949	3310
825.089	3268
825.228	3188
825.368	3058
825.508	2990
825.648	3028
825.787	3093
825.927	3070
826.067	3028
826.206	3013
826.346	3119
826.485	3154
826.625	3184
826.765	3306
826.904	3268
827.044	3039
827.183	2986
827.323	2918
827.462	3047
827.601	3005
827.741	2975
827.88	3001
828.02	2891
828.159	2986
828.298	3058
828.437	3150
828.577	3070
828.716	3302
828.855	3127
828.994	2967
829.134	2952
829.273	2990
829.412	2887
829.551	2910
829.69	2948
829.829	3047
829.968	3142
830.107	3074
830.246	3104
830.385	2994
830.524	2880
830.663	2861
830.802	2769
830.941	2739
831.08	2667
831.219	2773
831.357	2807
831.496	2967
831.635	2743
831.774	2739
831.913	2667
832.051	2549
832.19	2625
832.329	2693
832.467	2568
832.606	2541
832.744	2610
832.883	2610
833.022	2617
833.16	2708
833.299	2731
833.437	2758
833.576	2735
833.714	2743
833.852	2788
833.991	2792
834.129	2861
834.267	2876
834.406	2823
834.544	2899
834.682	2914
834.821	2902
834.959	3112
835.097	2918
835.235	3127
835.373	3009
835.511	3055
835.65	2994
835.788	3020
835.926	2861
836.064	2834
836.202	2883
836.34	3146
836.478	3214
836.615	3100
836.753	3150
836.891	3214
837.029	3245
837.167	3161
837.305	3104
837.443	3100
837.58	2960
837.718	3135
837.856	3116
837.993	3074
838.131	3165
838.269	3131
838.406	3112
838.544	3127
838.681	2975
838.819	2975
838.956	2842
839.094	2849
839.231	2952
839.369	3074
839.506	3409
839.643	3264
839.781	3051
839.918	3005
840.055	3077
840.193	3104
840.33	3119
840.467	3123
840.604	3165
840.742	3428
840.879	3070
841.016	3081
841.153	3154
841.29	3409
841.427	3321
841.564	3332
841.701	3393
841.838	3233
841.975	3192
842.112	3287
842.249	3135
842.385	3112
842.522	3298
842.659	3123
842.796	3089
842.933	3108
843.069	3089
843.206	3112
843.343	3233
843.479	3123
843.616	3176
843.752	2960
843.889	2918
844.025	3154
844.162	2918
844.298	3093
844.435	2979
844.571	2933
844.708	3108
844.844	3214
844.98	3264
845.117	3226
845.253	3108
845.389	3055
845.525	3165
845.661	3165
845.798	3039
845.934	3146
846.07	3116
846.206	3249
846.342	3351
846.478	3241
846.614	3135
846.75	3074
846.886	3024
847.022	3291
847.158	3165
847.294	3233
847.429	3272
847.565	3222
847.701	3545
847.837	3093
847.972	3062
848.108	3226
848.244	3169
848.379	3043
848.515	2971
848.65	2948
848.786	2994
848.921	3020
849.057	3161
849.192	3188
849.328	3074
849.463	3138
849.598	3108
849.734	3093
849.869	3001
850.004	2967
850.14	2982
850.275	2941
850.41	2857
850.545	2918
850.68	2982
850.815	2975
850.95	2994
851.085	3230
851.22	3161
851.355	3062
851.49	3028
851.625	3062
851.76	3043
851.895	3005
852.03	2971
852.165	3085
852.299	3142
852.434	3226
852.569	3165
852.703	3199
852.838	3260
852.973	3401
853.107	3359
853.242	3195
853.376	3116
853.511	2975
853.645	3074
853.78	3268
853.914	3154
854.048	3180
854.183	3119
854.317	3157
854.451	3313
854.585	3150
854.72	3157
854.854	3249
854.988	3077
855.122	3146
855.256	2998
855.39	3157
855.524	3291
855.658	3199
855.792	3150
855.926	3233
856.06	3233
856.194	3310
856.327	3184
856.461	3138
856.595	3127
856.729	3108
856.862	3264
856.996	3207
857.13	3203
857.263	3237
857.397	3306
857.53	3135
857.664	3275
857.797	3253
857.931	3294
858.064	3211
858.197	3249
858.331	3188
858.464	3127
858.597	3043
858.731	3146
858.864	3154
858.997	3131
859.13	3218
859.263	3230
859.396	3214
859.529	3154
859.662	3127
859.795	3066
859.928	3157
860.061	3340
860.194	3325
860.327	3135
860.46	3104
860.592	3272
860.725	3287
860.858	3325
860.99	3127
861.123	3100
861.256	3116
861.388	3203
861.521	3918
861.653	3077
861.786	3001
861.918	3017
862.05	3074
862.183	3123
862.315	3173
862.447	3211
862.58	3119
862.712	2960
862.844	2948
862.976	3043
863.108	3032
863.24	3329
863.372	2937
863.504	3001
863.636	3009
863.768	3047
863.9	3017
864.032	2929
864.164	2979
864.296	3043
864.428	3123
864.559	3161
864.691	3116
864.823	3085
864.954	3055
865.086	3123
865.217	3024
865.349	2994
865.48	3024
865.612	3028
865.743	3199
865.875	3005
866.006	2967
866.137	3020
866.269	2979
866.4	2990
866.531	2956
866.662	2906
866.793	2948
866.924	2918
867.055	2998
867.186	2963
867.317	2922
867.448	2887
867.579	2887
867.71	2883
867.841	2891
867.972	2956
868.103	2979
868.233	2929
868.364	2861
868.495	2937
868.625	3108
868.756	3199
868.886	3013
869.017	3047
869.147	3188
869.278	3188
869.408	3104
869.539	3074
869.669	3119
869.799	3077
869.929	3161
870.06	3127
870.19	3355
870.32	3325
870.45	3348
870.58	3397
870.71	3481
870.84	3515
870.97	3332
871.1	3291
871.23	3519
871.36	3507
871.489	3405
871.619	3450
871.749	3443
871.879	3515
872.008	3507
872.138	3386
872.267	3310
872.397	3176
872.526	3138
872.656	3032
872.785	3176
872.915	3245
873.044	3382
873.173	3249
873.303	3294
873.432	3294
873.561	3287
873.69	3226
873.819	3180
873.948	3230
874.077	3150
874.206	3131
874.335	3089
874.464	3241
874.593	3424
874.722	3310
874.851	3447
874.979	3374
875.108	3348
875.237	3241
875.365	3226
875.494	3173
875.623	3321
875.751	3108
875.88	3112
876.008	3256
876.136	3275
876.265	3378
876.393	3561
876.521	3492
876.65	3466
876.778	3351
876.906	3302
877.034	3260
877.162	3287
877.29	3237
877.418	3325
877.546	3302
877.674	3294
877.802	3279
877.93	3245
878.058	3203
878.185	3150
878.313	3268
878.441	3207
878.568	3119
878.696	3180
878.824	3283
878.951	3321
879.079	3481
879.206	3648
879.333	3469
879.461	3363
879.588	3454
879.715	3488
879.842	3629
879.97	3447
880.097	3165
880.224	3173
880.351	3218
880.478	3298
880.605	3233
880.732	3222
880.859	3553
880.986	3294
881.112	3397
881.239	3233
881.366	3161
881.493	3070
881.619	3039
881.746	3100
881.872	3116
881.999	3157
882.125	3173
882.252	3253
882.378	3313
882.505	3447
882.631	3351
882.757	3165
882.883	3272
883.01	3249
883.136	3165
883.262	3131
883.388	3154
883.514	3355
883.64	3409
883.766	3336
883.892	3245
884.018	3268
884.143	3424
884.269	3572
884.395	3275
884.52	3188
884.646	3203
884.772	3192
884.897	3146
885.023	3287
885.148	3378
885.274	3431
885.399	3397
885.524	3302
885.65	3306
885.775	3332
885.9	3321
886.025	3458
886.15	3431
886.275	3298
886.4	3272
886.525	3336
886.65	3302
886.775	3355
886.9	3526
887.025	3690
887.149	3435
887.274	3340
887.399	3253
887.523	3253
887.648	3214
887.773	3275
887.897	3386
888.021	3443
888.146	3325
888.27	3477
888.395	3568
888.519	3481
888.643	3530
888.767	3542
888.891	3367
889.015	3253
889.139	3348
889.263	3279
889.387	3485
889.511	3530
889.635	3504
889.759	3306
889.883	3336
890.006	3412
890.13	3469
890.254	3275
890.377	3397
890.501	3233
890.624	3207
890.748	3329
890.871	3264
890.995	3176
891.118	3104
891.241	3233
891.364	3268
891.488	3363
891.611	3230
891.734	3245
891.857	3306
891.98	3283
892.103	3351
892.226	3317
892.349	3214
892.471	3131
892.594	3272
892.717	3363
892.839	3294
892.962	3306
893.085	3389
893.207	3332
893.33	3184
893.452	3253
893.575	3393
893.697	3245
893.819	3481
893.941	3549
894.064	3515
894.186	3253
894.308	3310
894.43	3530
894.552	3568
894.674	3523
894.796	3287
894.918	3355
895.04	3321
895.161	3469
895.283	3428
895.405	3336
895.526	3405
895.648	3447
895.769	3412
895.891	3545
896.012	3488
896.134	3500
896.255	3458
896.376	3412
896.498	3439
896.619	3454
896.74	3405
896.861	3458
896.982	3694
897.103	3922
897.224	3629
897.345	3572
897.466	3496
897.587	3561
897.708	3686
897.828	3591
897.949	3462
898.07	3367
898.19	3454
898.311	3656
898.431	3507
898.552	3526
898.672	3663
898.792	3641
898.913	3580
899.033	3488
899.153	3344
899.273	3249
899.393	3332
899.513	3351
899.633	3389
899.753	3393
899.873	3351
899.993	3420
900.113	3351
900.232	3397
900.352	3389
900.472	3336
900.591	3233
900.711	3382
900.83	3275
900.95	3469
901.069	3500
901.189	3336
901.308	3192
901.427	3173
901.546	3245
901.665	3340
901.784	3367
901.904	3241
902.023	3222
902.141	3047
902.26	3032
902.379	3173
902.498	3081
902.617	3112
902.735	3237
902.854	3241
902.973	3214
903.091	3097
903.21	3077
903.328	3222
903.446	3150
903.565	3146
903.683	3214
903.801	3165
903.919	3291
904.038	3336
904.156	3218
904.274	3321
904.392	3287
904.51	3348
904.627	3409
904.745	3504
904.863	3561
904.981	3268
905.098	3199
905.216	3272
905.334	3344
905.451	3367
905.569	3336
905.686	3500
905.803	3450
905.921	3287
906.038	3469
906.155	3412
906.272	3294
906.389	3386
906.506	3283
906.623	3291
906.74	3287
906.857	3241
906.974	3283
907.091	3462
907.208	3660
907.324	3526
907.441	3420
907.557	3260
907.674	3298
907.79	3226
907.907	3302
908.023	3409
908.139	3409
908.256	3363
908.372	3409
908.488	3389
908.604	3310
908.72	3306
908.836	3329
908.952	3306
909.068	3355
909.184	3473
909.3	3409
909.415	3538
909.531	3488
909.647	3325
909.762	3336
909.878	3306
909.993	3397
910.108	3378
910.224	3386
910.339	3409
910.454	3363
910.57	3325
910.685	3313
910.8	3618
910.915	3587
911.03	3469
911.145	3310
911.259	3287
911.374	3348
911.489	3245
911.604	3249
911.718	3154
911.833	3222
911.947	3070
912.062	3032
912.176	3207
912.291	3211
912.405	3203
912.519	3447
912.633	3477
912.748	3359
912.862	3283
912.976	3184
913.09	3097
913.204	3161
913.318	3249
913.431	3348
913.545	3401
913.659	3477
913.772	3370
913.886	3268
914	3207
914.113	3363
914.226	3500
914.34	3405
914.453	3268
914.566	3435
914.68	3351
914.793	3344
914.906	3199
915.019	3173
915.132	3093
915.245	3192
915.358	3283
915.47	3279
915.583	3287
915.696	3302
915.809	3420
915.921	3435
916.034	3272
916.146	3287
916.259	3275
916.371	3416
916.483	3378
916.595	3313
916.708	3359
916.82	3424
916.932	3393
917.044	3370
917.156	3374
917.268	3260
917.38	3336
917.491	3329
917.603	3382
917.715	3492
917.826	3523
917.938	3428
918.049	3306
918.161	3454
918.272	3656
918.384	3614
918.495	3568
918.606	3409
918.717	3317
918.828	3412
918.939	3473
919.05	3325
919.161	3424
919.272	3237
919.383	3325
919.494	3542
919.604	3774
919.715	3534
919.826	3431
919.936	3523
920.047	3591
920.157	3584
920.267	3793
920.378	3663
920.488	3595
920.598	3800
920.708	4006
920.818	3865
920.928	3880
921.038	4044
921.148	4029
921.258	3736
921.368	3675
921.477	3663
921.587	3625
921.697	3477
921.806	3675
921.916	3538
922.025	3374
922.134	3405
922.244	3351
922.353	3447
922.462	3302
922.571	3279
922.68	3157
922.789	3097
922.898	3199
923.007	3150
923.116	3233
923.224	3237
923.333	3226
923.442	3146
923.55	3138
923.659	3176
923.767	3283
923.876	3131
923.984	3275
924.092	3119
924.201	3283
924.309	3245
924.417	3294
924.525	3237
924.633	3279
924.741	4242
924.849	3100
924.956	3313
925.064	3108
925.172	3085
925.279	3169
925.387	3268
925.494	3249
925.602	3386
925.709	3374
925.816	3230
925.924	3336
926.031	3416
926.138	3378
926.245	3378
926.352	3294
926.459	3496
926.566	3496
926.673	3389
926.779	3298
926.886	3298
926.993	3165
927.099	3173
927.206	3154
927.312	3123
927.419	3241
927.525	3272
927.631	3294
927.737	3199
927.843	3123
927.95	3043
928.056	3131
928.162	3207
928.267	3279
928.373	3827
928.479	3336
928.585	3104
928.69	3264
928.796	3302
928.901	3226
929.007	3093
929.112	3249
929.218	3195
929.323	3184
929.428	3195
929.533	3325
929.638	3150
929.743	3207
929.848	3298
929.953	3279
930.058	3173
930.163	3051
930.267	3138
930.372	3241
930.477	3116
930.581	3370
930.685	3211
930.79	3070
930.894	3157
930.998	3135
931.103	3306
931.207	3005
931.311	2971
931.415	2948
931.519	2800
931.623	2826
