Data from test_V78500241_25.txt Node
Date: Fri Mar 25 16:15:22 CST 2022
User: usil
Spectrometer: V785-0024
Trigger mode: 0
Integration Time (sec): 4.000000E-1
Scans to average: 1
Nonlinearity correction enabled: false
Boxcar width: 0
Storing dark spectrum: false
XAxis mode: Wavelengths
Number of Pixels in Spectrum: 1024
>>>>>Begin Spectral Data<<<<<
801.071	3001
801.214	3009
801.356	2952
801.499	2960
801.641	2922
801.783	2960
801.926	3085
802.068	3089
802.211	3043
802.353	3097
802.496	3036
802.638	3051
802.78	3127
802.923	3146
803.065	3070
803.208	2933
803.35	2979
803.492	2979
803.635	3036
803.777	2815
803.919	2922
804.061	3237
804.204	2994
804.346	2967
804.488	2925
804.63	3047
804.773	2933
804.915	2948
805.057	3119
805.199	2982
805.341	3043
805.483	3093
805.626	3074
805.768	2971
805.91	3157
806.052	3150
806.194	3108
806.336	3272
806.478	3058
806.62	2994
806.762	2998
806.904	3119
807.046	3218
807.188	3039
807.33	2952
807.472	3024
807.614	2956
807.756	3039
807.898	2960
808.04	2956
808.182	3047
808.324	2990
808.465	2967
808.607	2941
808.749	2876
808.891	2933
809.033	3017
809.174	3032
809.316	2944
809.458	2979
809.6	2819
809.741	2834
809.883	2845
810.025	2883
810.166	2906
810.308	2880
810.45	2922
810.591	2815
810.733	2811
810.875	2868
811.016	2838
811.158	2807
811.299	2842
811.441	3009
811.582	2982
811.724	2868
811.865	2887
812.007	2944
812.148	2922
812.29	2925
812.431	2963
812.573	2994
812.714	3028
812.855	3108
812.997	3123
813.138	3138
813.279	3055
813.421	3013
813.562	2990
813.703	2895
813.845	2944
813.986	2796
814.127	2804
814.268	2864
814.41	2872
814.551	2864
814.692	2895
814.833	2861
814.974	2975
815.115	3024
815.256	2868
815.397	2845
815.539	2929
815.68	2788
815.821	2781
815.962	2986
816.103	2982
816.244	2922
816.385	2883
816.526	3039
816.666	2986
816.807	2773
816.948	2906
817.089	2975
817.23	2922
817.371	2864
817.512	2823
817.653	2861
817.793	2887
817.934	2937
818.075	3009
818.216	3039
818.356	3097
818.497	2910
818.638	2823
818.778	2887
818.919	2861
819.06	2826
819.2	2941
819.341	2853
819.481	2838
819.622	2971
819.762	3123
819.903	3104
820.043	3005
820.184	2937
820.324	2956
820.465	3055
820.605	3085
820.746	3070
820.886	2979
821.026	3116
821.167	3207
821.307	3317
821.447	3329
821.588	3279
821.728	3253
821.868	3272
822.008	3142
822.149	3203
822.289	3310
822.429	3180
822.569	3127
822.709	3230
822.849	3058
822.99	3093
823.13	3207
823.27	3256
823.41	3119
823.55	3226
823.69	3241
823.83	3260
823.97	3169
824.11	3047
824.25	3058
824.389	3123
824.529	3184
824.669	3108
824.809	3268
824.949	3313
825.089	3260
825.228	3203
825.368	3081
825.508	3024
825.648	2990
825.787	3074
825.927	3043
826.067	3020
826.206	3001
826.346	3070
826.485	3138
826.625	3176
826.765	3310
826.904	3264
827.044	3028
827.183	3009
827.323	2918
827.462	3020
827.601	2967
827.741	2944
827.88	3028
828.02	2902
828.159	3032
828.298	3077
828.437	3176
828.577	3097
828.716	3294
828.855	3138
828.994	2979
829.134	2899
829.273	2948
829.412	2944
829.551	2922
829.69	2952
829.829	3047
829.968	3188
830.107	3066
830.246	3077
830.385	2986
830.524	2887
830.663	2857
830.802	2785
830.941	2686
831.08	2689
831.219	2804
831.357	2819
831.496	2971
831.635	2769
831.774	2693
831.913	2705
832.051	2636
832.19	2613
832.329	2727
832.467	2568
832.606	2499
832.744	2613
832.883	2648
833.022	2621
833.16	2705
833.299	2712
833.437	2731
833.576	2758
833.714	2762
833.852	2781
833.991	2796
834.129	2857
834.267	2910
834.406	2823
834.544	2937
834.682	2895
834.821	2906
834.959	3062
835.097	2922
835.235	3112
835.373	3051
835.511	3047
835.65	2982
835.788	3013
835.926	2861
836.064	2838
836.202	2853
836.34	3150
836.478	3203
836.615	3135
836.753	3218
836.891	3283
837.029	3230
837.167	3146
837.305	3077
837.443	3104
837.58	2986
837.718	3157
837.856	3135
837.993	3131
838.131	3176
838.269	3127
838.406	3207
838.544	3116
838.681	2971
838.819	2967
838.956	2834
839.094	2902
839.231	2967
839.369	3058
839.506	3405
839.643	3222
839.781	3066
839.918	3020
840.055	3093
840.193	3070
840.33	3089
840.467	3119
840.604	3199
840.742	3473
840.879	3097
841.016	3036
841.153	3127
841.29	3351
841.427	3340
841.564	3287
841.701	3340
841.838	3332
841.975	3211
842.112	3272
842.249	3112
842.385	3085
842.522	3321
842.659	3146
842.796	3066
842.933	3146
843.069	3093
843.206	3055
843.343	3256
843.479	3150
843.616	3188
843.752	2952
843.889	2925
844.025	3104
844.162	2941
844.298	3157
844.435	3005
844.571	2929
844.708	3127
844.844	3249
844.98	3275
845.117	3241
845.253	3051
845.389	3070
845.525	3131
845.661	3146
845.798	3070
845.934	3154
846.07	3127
846.206	3260
846.342	3378
846.478	3268
846.614	3142
846.75	3097
846.886	3074
847.022	3279
847.158	3222
847.294	3233
847.429	3294
847.565	3268
847.701	3515
847.837	3089
847.972	3043
848.108	3249
848.244	3218
848.379	3032
848.515	2979
848.65	2982
848.786	2990
848.921	3070
849.057	3138
849.192	3203
849.328	3131
849.463	3146
849.598	3127
849.734	3112
849.869	3047
850.004	2937
850.14	3028
850.275	2986
850.41	2895
850.545	2914
850.68	2956
850.815	3009
850.95	3032
851.085	3264
851.22	3138
851.355	3081
851.49	3001
851.625	3009
851.76	3055
851.895	2994
852.03	2941
852.165	3081
852.299	3119
852.434	3207
852.569	3176
852.703	3249
852.838	3332
852.973	3378
853.107	3348
853.242	3211
853.376	3157
853.511	2979
853.645	3104
853.78	3275
853.914	3188
854.048	3119
854.183	3104
854.317	3192
854.451	3306
854.585	3150
854.72	3138
854.854	3249
854.988	3081
855.122	3135
855.256	3005
855.39	3188
855.524	3332
855.658	3214
855.792	3237
855.926	3230
856.06	3253
856.194	3344
856.327	3192
856.461	3112
856.595	3127
856.729	3157
856.862	3249
856.996	3233
857.13	3230
857.263	3272
857.397	3367
857.53	3214
857.664	3207
857.797	3249
857.931	3321
858.064	3207
858.197	3230
858.331	3203
858.464	3112
858.597	3062
858.731	3173
858.864	3157
858.997	3142
859.13	3222
859.263	3184
859.396	3256
859.529	3146
859.662	3093
859.795	3085
859.928	3211
860.061	3294
860.194	3374
860.327	3199
860.46	3157
860.592	3283
860.725	3306
860.858	3291
860.99	3180
861.123	3100
861.256	3135
861.388	3199
861.521	3732
861.653	3085
861.786	2990
861.918	3062
862.05	3108
862.183	3150
862.315	3203
862.447	3214
862.58	3150
862.712	3001
862.844	2925
862.976	3055
863.108	3032
863.24	3469
863.372	2918
863.504	3043
863.636	3024
863.768	3051
863.9	3005
864.032	2933
864.164	2979
864.296	3070
864.428	3135
864.559	3131
864.691	3100
864.823	3097
864.954	3123
865.086	3100
865.217	3020
865.349	2994
865.48	3005
865.612	3028
865.743	3211
865.875	3036
866.006	2967
866.137	3013
866.269	3020
866.4	2960
866.531	2929
866.662	2933
866.793	2933
866.924	2922
867.055	2967
867.186	2933
867.317	2895
867.448	2891
867.579	2887
867.71	2876
867.841	2880
867.972	2952
868.103	2929
868.233	2967
868.364	2887
868.495	2929
868.625	3138
868.756	3230
868.886	3001
869.017	3047
869.147	3222
869.278	3199
869.408	3104
869.539	3089
869.669	3142
869.799	3093
869.929	3207
870.06	3150
870.19	3329
870.32	3348
870.45	3389
870.58	3424
870.71	3534
870.84	3500
870.97	3317
871.1	3294
871.23	3511
871.36	3466
871.489	3409
871.619	3431
871.749	3485
871.879	3507
872.008	3564
872.138	3389
872.267	3329
872.397	3195
872.526	3138
872.656	3032
872.785	3150
872.915	3287
873.044	3336
873.173	3253
873.303	3313
873.432	3310
873.561	3294
873.69	3230
873.819	3218
873.948	3233
874.077	3135
874.206	3085
874.335	3138
874.464	3249
874.593	3401
874.722	3294
874.851	3450
874.979	3382
875.108	3386
875.237	3291
875.365	3195
875.494	3184
875.623	3241
875.751	3154
875.88	3192
876.008	3211
876.136	3260
876.265	3401
876.393	3507
876.521	3443
876.65	3431
876.778	3382
876.906	3336
877.034	3245
877.162	3268
877.29	3233
877.418	3302
877.546	3321
877.674	3325
877.802	3321
877.93	3237
878.058	3150
878.185	3157
878.313	3272
878.441	3241
878.568	3108
878.696	3180
878.824	3306
878.951	3298
879.079	3504
879.206	3675
879.333	3447
879.461	3370
879.588	3386
879.715	3545
879.842	3610
879.97	3428
880.097	3207
880.224	3199
880.351	3249
880.478	3298
880.605	3176
880.732	3256
880.859	3496
880.986	3344
881.112	3367
881.239	3298
881.366	3165
881.493	3070
881.619	3085
881.746	3150
881.872	3161
881.999	3154
882.125	3218
882.252	3291
882.378	3306
882.505	3466
882.631	3321
882.757	3192
882.883	3302
883.01	3249
883.136	3184
883.262	3123
883.388	3157
883.514	3370
883.64	3416
883.766	3336
883.892	3230
884.018	3279
884.143	3462
884.269	3587
884.395	3272
884.52	3199
884.646	3249
884.772	3173
884.897	3180
885.023	3230
885.148	3367
885.274	3458
885.399	3447
885.524	3317
885.65	3310
885.775	3382
885.9	3340
886.025	3507
886.15	3401
886.275	3332
886.4	3291
886.525	3298
886.65	3287
886.775	3279
886.9	3564
887.025	3717
887.149	3477
887.274	3287
887.399	3207
887.523	3245
887.648	3260
887.773	3253
887.897	3431
888.021	3439
888.146	3329
888.27	3496
888.395	3603
888.519	3511
888.643	3458
888.767	3519
888.891	3382
889.015	3302
889.139	3386
889.263	3294
889.387	3450
889.511	3561
889.635	3504
889.759	3321
889.883	3355
890.006	3409
890.13	3511
890.254	3351
890.377	3363
890.501	3291
890.624	3241
890.748	3336
890.871	3226
890.995	3161
891.118	3077
891.241	3256
891.364	3287
891.488	3401
891.611	3226
891.734	3287
891.857	3351
891.98	3279
892.103	3382
892.226	3317
892.349	3275
892.471	3157
892.594	3287
892.717	3359
892.839	3291
892.962	3294
893.085	3409
893.207	3355
893.33	3214
893.452	3272
893.575	3367
893.697	3321
893.819	3515
893.941	3526
894.064	3538
894.186	3302
894.308	3313
894.43	3526
894.552	3587
894.674	3481
894.796	3317
894.918	3359
895.04	3359
895.161	3447
895.283	3458
895.405	3344
895.526	3409
895.648	3477
895.769	3492
895.891	3515
896.012	3549
896.134	3564
896.255	3485
896.376	3416
896.498	3420
896.619	3488
896.74	3439
896.861	3447
896.982	3717
897.103	3880
897.224	3660
897.345	3534
897.466	3485
897.587	3561
897.708	3705
897.828	3568
897.949	3481
898.07	3389
898.19	3488
898.311	3652
898.431	3504
898.552	3545
898.672	3648
898.792	3603
898.913	3542
899.033	3466
899.153	3359
899.273	3230
899.393	3329
899.513	3344
899.633	3374
899.753	3401
899.873	3355
899.993	3412
900.113	3367
900.232	3439
900.352	3393
900.472	3336
900.591	3260
900.711	3332
900.83	3291
900.95	3481
901.069	3530
901.189	3389
901.308	3214
901.427	3237
901.546	3260
901.665	3325
901.784	3382
901.904	3211
902.023	3180
902.141	3036
902.26	3097
902.379	3173
902.498	3108
902.617	3097
902.735	3245
902.854	3298
902.973	3218
903.091	3070
903.21	3131
903.328	3165
903.446	3146
903.565	3157
903.683	3260
903.801	3161
903.919	3291
904.038	3329
904.156	3233
904.274	3363
904.392	3302
904.51	3313
904.627	3378
904.745	3469
904.863	3557
904.981	3321
905.098	3233
905.216	3279
905.334	3344
905.451	3355
905.569	3359
905.686	3500
905.803	3485
905.921	3355
906.038	3507
906.155	3412
906.272	3367
906.389	3409
906.506	3302
906.623	3302
906.74	3332
906.857	3245
906.974	3291
907.091	3542
907.208	3622
907.324	3538
907.441	3443
907.557	3260
907.674	3310
907.79	3264
907.907	3355
908.023	3409
908.139	3424
908.256	3374
908.372	3397
908.488	3409
908.604	3348
908.72	3272
908.836	3332
908.952	3340
909.068	3382
909.184	3542
909.3	3443
909.415	3557
909.531	3538
909.647	3325
909.762	3367
909.878	3348
909.993	3389
910.108	3382
910.224	3378
910.339	3481
910.454	3397
910.57	3321
910.685	3287
910.8	3614
910.915	3603
911.03	3504
911.145	3325
911.259	3332
911.374	3378
911.489	3321
911.604	3264
911.718	3195
911.833	3199
911.947	3070
912.062	3055
912.176	3180
912.291	3222
912.405	3260
912.519	3504
912.633	3534
912.748	3370
912.862	3306
912.976	3230
913.09	3142
913.204	3173
913.318	3279
913.431	3397
913.545	3386
913.659	3492
913.772	3412
913.886	3253
914	3203
914.113	3397
914.226	3515
914.34	3389
914.453	3249
914.566	3485
914.68	3348
914.793	3382
914.906	3173
915.019	3176
915.132	3112
915.245	3256
915.358	3268
915.47	3332
915.583	3317
915.696	3359
915.809	3439
915.921	3492
916.034	3313
916.146	3275
916.259	3260
916.371	3435
916.483	3435
916.595	3306
916.708	3386
916.82	3412
916.932	3405
917.044	3450
917.156	3378
917.268	3302
917.38	3340
917.491	3310
917.603	3466
917.715	3462
917.826	3496
917.938	3439
918.049	3298
918.161	3447
918.272	3667
918.384	3663
918.495	3561
918.606	3389
918.717	3393
918.828	3401
918.939	3439
919.05	3363
919.161	3389
919.272	3226
919.383	3275
919.494	3568
919.604	3751
919.715	3538
919.826	3439
919.936	3515
920.047	3614
920.157	3580
920.267	3800
920.378	3663
920.488	3633
920.598	3816
920.708	4048
920.818	3915
920.928	3892
921.038	4109
921.148	4025
921.258	3781
921.368	3690
921.477	3625
921.587	3580
921.697	3511
921.806	3694
921.916	3595
922.025	3367
922.134	3378
922.244	3359
922.353	3450
922.462	3302
922.571	3256
922.68	3176
922.789	3165
922.898	3169
923.007	3165
923.116	3237
923.224	3203
923.333	3249
923.442	3180
923.55	3108
923.659	3188
923.767	3279
923.876	3169
923.984	3287
924.092	3131
924.201	3241
924.309	3249
924.417	3283
924.525	3226
924.633	3264
924.741	4219
924.849	3135
924.956	3321
925.064	3154
925.172	3066
925.279	3142
925.387	3253
925.494	3256
925.602	3409
925.709	3367
925.816	3230
925.924	3332
926.031	3469
926.138	3370
926.245	3409
926.352	3298
926.459	3481
926.566	3511
926.673	3367
926.779	3275
926.886	3313
926.993	3176
927.099	3173
927.206	3154
927.312	3123
927.419	3294
927.525	3260
927.631	3310
927.737	3199
927.843	3135
927.95	3020
928.056	3165
928.162	3218
928.267	3272
928.373	3789
928.479	3370
928.585	3157
928.69	3264
928.796	3321
928.901	3218
929.007	3058
929.112	3245
929.218	3207
929.323	3157
929.428	3230
929.533	3340
929.638	3161
929.743	3211
929.848	3294
929.953	3253
930.058	3173
930.163	3024
930.267	3077
930.372	3222
930.477	3051
930.581	3378
930.685	3226
930.79	3104
930.894	3169
930.998	3142
931.103	3348
931.207	2994
931.311	2986
931.415	2944
931.519	2815
931.623	2845
