Data from test_V78500241_240.txt Node
Date: Fri Mar 25 16:16:52 CST 2022
User: usil
Spectrometer: V785-0024
Trigger mode: 0
Integration Time (sec): 4.000000E-1
Scans to average: 1
Nonlinearity correction enabled: false
Boxcar width: 0
Storing dark spectrum: false
XAxis mode: Wavelengths
Number of Pixels in Spectrum: 1024
>>>>>Begin Spectral Data<<<<<
801.071	2948
801.214	2986
801.356	2895
801.499	2941
801.641	2891
801.783	2948
801.926	3066
802.068	2990
802.211	3028
802.353	3066
802.496	2994
802.638	3028
802.78	3043
802.923	3089
803.065	3043
803.208	2906
803.35	2914
803.492	2994
803.635	2960
803.777	2788
803.919	2868
804.061	3237
804.204	2956
804.346	2948
804.488	2872
804.63	3001
804.773	2914
804.915	2925
805.057	3097
805.199	2979
805.341	2982
805.483	3077
805.626	2998
805.768	2982
805.91	3093
806.052	3108
806.194	3036
806.336	3264
806.478	3043
806.62	2982
806.762	2975
806.904	3058
807.046	3169
807.188	3047
807.33	2922
807.472	2990
807.614	2914
807.756	3036
807.898	2967
808.04	2941
808.182	2975
808.324	2994
808.465	2933
808.607	2902
808.749	2819
808.891	2876
809.033	3017
809.174	3001
809.316	2918
809.458	2899
809.6	2758
809.741	2819
809.883	2823
810.025	2880
810.166	2887
810.308	2830
810.45	2868
810.591	2815
810.733	2788
810.875	2861
811.016	2823
811.158	2777
811.299	2815
811.441	2933
811.582	2929
811.724	2853
811.865	2834
812.007	2922
812.148	2910
812.29	2849
812.431	2902
812.573	2960
812.714	2963
812.855	3062
812.997	3047
813.138	3173
813.279	3009
813.421	2990
813.562	2998
813.703	2861
813.845	2925
813.986	2796
814.127	2731
814.268	2876
814.41	2845
814.551	2834
814.692	2899
814.833	2819
814.974	2902
815.115	2960
815.256	2853
815.397	2853
815.539	2876
815.68	2811
815.821	2819
815.962	3005
816.103	2963
816.244	2944
816.385	2887
816.526	3017
816.666	2910
816.807	2758
816.948	2910
817.089	2944
817.23	2891
817.371	2838
817.512	2804
817.653	2838
817.793	2838
817.934	2891
818.075	3013
818.216	3017
818.356	3066
818.497	2895
818.638	2823
818.778	2853
818.919	2819
819.06	2754
819.2	2868
819.341	2815
819.481	2842
819.622	2956
819.762	3112
819.903	3093
820.043	2918
820.184	2941
820.324	2914
820.465	3039
820.605	3062
820.746	3077
820.886	2960
821.026	3100
821.167	3195
821.307	3249
821.447	3317
821.588	3272
821.728	3222
821.868	3195
822.008	3104
822.149	3214
822.289	3272
822.429	3138
822.569	3093
822.709	3203
822.849	3047
822.99	3097
823.13	3173
823.27	3245
823.41	3127
823.55	3150
823.69	3169
823.83	3184
823.97	3119
824.11	3020
824.25	3001
824.389	3077
824.529	3135
824.669	3051
824.809	3199
824.949	3253
825.089	3218
825.228	3184
825.368	2998
825.508	2971
825.648	3017
825.787	3017
825.927	3028
826.067	2956
826.206	2929
826.346	3081
826.485	3119
826.625	3142
826.765	3306
826.904	3233
827.044	3032
827.183	2982
827.323	2868
827.462	3005
827.601	2906
827.741	2925
827.88	3005
828.02	2845
828.159	2967
828.298	3058
828.437	3161
828.577	3051
828.716	3222
828.855	3085
828.994	2948
829.134	2910
829.273	2899
829.412	2872
829.551	2883
829.69	2925
829.829	3005
829.968	3112
830.107	3009
830.246	3074
830.385	2914
830.524	2876
830.663	2842
830.802	2716
830.941	2670
831.08	2648
831.219	2773
831.357	2754
831.496	2963
831.635	2750
831.774	2674
831.913	2655
832.051	2541
832.19	2587
832.329	2697
832.467	2568
832.606	2484
832.744	2621
832.883	2590
833.022	2587
833.16	2655
833.299	2705
833.437	2701
833.576	2735
833.714	2785
833.852	2750
833.991	2781
834.129	2826
834.267	2845
834.406	2769
834.544	2861
834.682	2849
834.821	2872
834.959	3066
835.097	2906
835.235	3077
835.373	3009
835.511	3036
835.65	2967
835.788	2994
835.926	2861
836.064	2819
836.202	2883
836.34	3097
836.478	3135
836.615	3070
836.753	3116
836.891	3214
837.029	3142
837.167	3127
837.305	3085
837.443	3047
837.58	2986
837.718	3165
837.856	3062
837.993	3081
838.131	3127
838.269	3146
838.406	3085
838.544	3127
838.681	2994
838.819	2922
838.956	2823
839.094	2834
839.231	2929
839.369	3032
839.506	3412
839.643	3173
839.781	3036
839.918	2948
840.055	3055
840.193	3089
840.33	3074
840.467	3112
840.604	3176
840.742	3431
840.879	3066
841.016	3047
841.153	3135
841.29	3363
841.427	3329
841.564	3294
841.701	3317
841.838	3230
841.975	3157
842.112	3233
842.249	3077
842.385	3062
842.522	3310
842.659	3127
842.796	3055
842.933	3104
843.069	3009
843.206	3036
843.343	3195
843.479	3093
843.616	3173
843.752	2872
843.889	2902
844.025	3085
844.162	2857
844.298	3089
844.435	2944
844.571	2975
844.708	3055
844.844	3203
844.98	3245
845.117	3218
845.253	3032
845.389	3024
845.525	3104
845.661	3127
845.798	3024
845.934	3112
846.07	3081
846.206	3222
846.342	3306
846.478	3241
846.614	3089
846.75	3066
846.886	3020
847.022	3268
847.158	3165
847.294	3161
847.429	3245
847.565	3233
847.701	3488
847.837	3043
847.972	3005
848.108	3195
848.244	3165
848.379	2998
848.515	2994
848.65	2937
848.786	2963
848.921	3001
849.057	3081
849.192	3142
849.328	3062
849.463	3142
849.598	3085
849.734	3062
849.869	3005
850.004	2944
850.14	2975
850.275	2922
850.41	2830
850.545	2883
850.68	2963
850.815	2918
850.95	2960
851.085	3188
851.22	3093
851.355	3043
851.49	2979
851.625	3028
851.76	3036
851.895	2922
852.03	2937
852.165	3058
852.299	3100
852.434	3165
852.569	3116
852.703	3203
852.838	3256
852.973	3374
853.107	3306
853.242	3154
853.376	3116
853.511	3001
853.645	3058
853.78	3237
853.914	3097
854.048	3104
854.183	3066
854.317	3142
854.451	3302
854.585	3146
854.72	3077
854.854	3203
854.988	3062
855.122	3104
855.256	2975
855.39	3154
855.524	3233
855.658	3165
855.792	3131
855.926	3199
856.06	3237
856.194	3275
856.327	3173
856.461	3062
856.595	3108
856.729	3104
856.862	3226
856.996	3180
857.13	3211
857.263	3241
857.397	3321
857.53	3093
857.664	3233
857.797	3264
857.931	3222
858.064	3150
858.197	3211
858.331	3146
858.464	3116
858.597	2998
858.731	3119
858.864	3127
858.997	3108
859.13	3184
859.263	3188
859.396	3199
859.529	3085
859.662	3051
859.795	3058
859.928	3119
860.061	3279
860.194	3283
860.327	3154
860.46	3089
860.592	3275
860.725	3272
860.858	3241
860.99	3146
861.123	3070
861.256	3070
861.388	3154
861.521	3888
861.653	3032
861.786	3009
861.918	3001
862.05	3089
862.183	3097
862.315	3154
862.447	3214
862.58	3081
862.712	2960
862.844	2876
862.976	3055
863.108	2998
863.24	3306
863.372	2857
863.504	3005
863.636	2922
863.768	3036
863.9	2979
864.032	2948
864.164	2933
864.296	3005
864.428	3108
864.559	3146
864.691	3032
864.823	3085
864.954	3032
865.086	3066
865.217	3032
865.349	2990
865.48	2982
865.612	3051
865.743	3173
865.875	2979
866.006	2937
866.137	2982
866.269	2952
866.4	2982
866.531	2906
866.662	2899
866.793	2906
866.924	2883
867.055	2963
867.186	2975
867.317	2899
867.448	2842
867.579	2830
867.71	2876
867.841	2807
867.972	2922
868.103	2880
868.233	2899
868.364	2864
868.495	2910
868.625	3097
868.756	3161
868.886	2952
869.017	2998
869.147	3138
869.278	3195
869.408	3051
869.539	3001
869.669	3074
869.799	3036
869.929	3150
870.06	3100
870.19	3355
870.32	3317
870.45	3317
870.58	3382
870.71	3462
870.84	3492
870.97	3298
871.1	3256
871.23	3492
871.36	3488
871.489	3363
871.619	3412
871.749	3401
871.879	3405
872.008	3458
872.138	3351
872.267	3291
872.397	3146
872.526	3108
872.656	2990
872.785	3116
872.915	3207
873.044	3329
873.173	3253
873.303	3260
873.432	3211
873.561	3256
873.69	3146
873.819	3116
873.948	3226
874.077	3081
874.206	3047
874.335	3085
874.464	3218
874.593	3359
874.722	3241
874.851	3359
874.979	3359
875.108	3298
875.237	3199
875.365	3188
875.494	3180
875.623	3256
875.751	3097
875.88	3112
876.008	3199
876.136	3222
876.265	3336
876.393	3507
876.521	3424
876.65	3389
876.778	3336
876.906	3260
877.034	3211
877.162	3253
877.29	3176
877.418	3272
877.546	3214
877.674	3253
877.802	3211
877.93	3241
878.058	3146
878.185	3123
878.313	3154
878.441	3207
878.568	3097
878.696	3127
878.824	3272
878.951	3298
879.079	3458
879.206	3648
879.333	3428
879.461	3321
879.588	3340
879.715	3481
879.842	3603
879.97	3378
880.097	3146
880.224	3146
880.351	3169
880.478	3268
880.605	3214
880.732	3176
880.859	3488
880.986	3313
881.112	3351
881.239	3207
881.366	3066
881.493	3017
881.619	3024
881.746	3108
881.872	3108
881.999	3127
882.125	3157
882.252	3291
882.378	3325
882.505	3447
882.631	3298
882.757	3150
882.883	3211
883.01	3184
883.136	3203
883.262	3085
883.388	3119
883.514	3283
883.64	3420
883.766	3291
883.892	3230
884.018	3249
884.143	3454
884.269	3530
884.395	3256
884.52	3142
884.646	3192
884.772	3161
884.897	3104
885.023	3211
885.148	3351
885.274	3397
885.399	3367
885.524	3241
885.65	3256
885.775	3325
885.9	3260
886.025	3397
886.15	3363
886.275	3283
886.4	3226
886.525	3302
886.65	3298
886.775	3298
886.9	3553
887.025	3633
887.149	3409
887.274	3291
887.399	3207
887.523	3222
887.648	3180
887.773	3214
887.897	3389
888.021	3409
888.146	3291
888.27	3454
888.395	3530
888.519	3458
888.643	3477
888.767	3481
888.891	3329
889.015	3294
889.139	3310
889.263	3275
889.387	3420
889.511	3542
889.635	3443
889.759	3325
889.883	3272
890.006	3363
890.13	3485
890.254	3306
890.377	3332
890.501	3180
890.624	3169
890.748	3275
890.871	3195
890.995	3123
891.118	3108
891.241	3233
891.364	3249
891.488	3348
891.611	3176
891.734	3230
891.857	3313
891.98	3264
892.103	3355
892.226	3291
892.349	3207
892.471	3127
892.594	3253
892.717	3279
892.839	3256
892.962	3298
893.085	3378
893.207	3340
893.33	3188
893.452	3199
893.575	3397
893.697	3272
893.819	3492
893.941	3523
894.064	3443
894.186	3268
894.308	3253
894.43	3507
894.552	3549
894.674	3485
894.796	3298
894.918	3317
895.04	3298
895.161	3382
895.283	3401
895.405	3298
895.526	3351
895.648	3424
895.769	3405
895.891	3447
896.012	3473
896.134	3443
896.255	3382
896.376	3409
896.498	3389
896.619	3405
896.74	3389
896.861	3416
896.982	3686
897.103	3861
897.224	3591
897.345	3538
897.466	3469
897.587	3526
897.708	3618
897.828	3515
897.949	3435
898.07	3321
898.19	3424
898.311	3603
898.431	3473
898.552	3469
898.672	3637
898.792	3580
898.913	3534
899.033	3412
899.153	3325
899.273	3222
899.393	3279
899.513	3317
899.633	3332
899.753	3313
899.873	3283
899.993	3351
900.113	3283
900.232	3420
900.352	3344
900.472	3279
900.591	3176
900.711	3298
900.83	3256
900.95	3397
901.069	3519
901.189	3389
901.308	3165
901.427	3127
901.546	3203
901.665	3294
901.784	3340
901.904	3199
902.023	3127
902.141	3020
902.26	3001
902.379	3169
902.498	3070
902.617	3047
902.735	3237
902.854	3237
902.973	3207
903.091	3039
903.21	3051
903.328	3157
903.446	3093
903.565	3108
903.683	3230
903.801	3104
903.919	3233
904.038	3268
904.156	3154
904.274	3321
904.392	3302
904.51	3256
904.627	3329
904.745	3462
904.863	3492
904.981	3264
905.098	3176
905.216	3241
905.334	3302
905.451	3329
905.569	3344
905.686	3424
905.803	3420
905.921	3287
906.038	3420
906.155	3348
906.272	3237
906.389	3321
906.506	3226
906.623	3233
906.74	3268
906.857	3184
906.974	3275
907.091	3492
907.208	3576
907.324	3496
907.441	3378
907.557	3222
907.674	3237
907.79	3188
907.907	3264
908.023	3393
908.139	3382
908.256	3332
908.372	3393
908.488	3355
908.604	3268
908.72	3237
908.836	3287
908.952	3302
909.068	3344
909.184	3511
909.3	3412
909.415	3492
909.531	3488
909.647	3268
909.762	3260
909.878	3260
909.993	3363
910.108	3344
910.224	3355
910.339	3443
910.454	3344
910.57	3294
910.685	3241
910.8	3587
910.915	3515
911.03	3428
911.145	3310
911.259	3287
911.374	3344
911.489	3256
911.604	3272
911.718	3104
911.833	3169
911.947	3051
912.062	2982
912.176	3180
912.291	3214
912.405	3184
912.519	3439
912.633	3462
912.748	3329
912.862	3313
912.976	3169
913.09	3058
913.204	3123
913.318	3211
913.431	3302
913.545	3329
913.659	3447
913.772	3321
913.886	3237
914	3211
914.113	3340
914.226	3454
914.34	3401
914.453	3249
914.566	3363
914.68	3272
914.793	3291
914.906	3169
915.019	3116
915.132	3066
915.245	3154
915.358	3199
915.47	3226
915.583	3283
915.696	3283
915.809	3435
915.921	3428
916.034	3233
916.146	3294
916.259	3237
916.371	3393
916.483	3370
916.595	3317
916.708	3332
916.82	3306
916.932	3363
917.044	3397
917.156	3336
917.268	3211
917.38	3310
917.491	3321
917.603	3363
917.715	3424
917.826	3488
917.938	3397
918.049	3310
918.161	3435
918.272	3576
918.384	3584
918.495	3473
918.606	3344
918.717	3279
918.828	3370
918.939	3424
919.05	3332
919.161	3340
919.272	3184
919.383	3310
919.494	3511
919.604	3717
919.715	3500
919.826	3431
919.936	3454
920.047	3584
920.157	3549
920.267	3789
920.378	3603
920.488	3580
920.598	3747
920.708	3949
920.818	3812
920.928	3892
921.038	4032
921.148	3983
921.258	3766
921.368	3641
921.477	3580
921.587	3549
921.697	3447
921.806	3641
921.916	3542
922.025	3374
922.134	3325
922.244	3329
922.353	3435
922.462	3287
922.571	3222
922.68	3104
922.789	3097
922.898	3165
923.007	3112
923.116	3218
923.224	3176
923.333	3176
923.442	3055
923.55	3135
923.659	3142
923.767	3184
923.876	3127
923.984	3230
924.092	3100
924.201	3195
924.309	3256
924.417	3268
924.525	3207
924.633	3222
924.741	4211
924.849	3055
924.956	3317
925.064	3119
925.172	3017
925.279	3104
925.387	3226
925.494	3226
925.602	3374
925.709	3329
925.816	3207
925.924	3291
926.031	3409
926.138	3359
926.245	3340
926.352	3264
926.459	3469
926.566	3466
926.673	3317
926.779	3241
926.886	3226
926.993	3157
927.099	3138
927.206	3127
927.312	3138
927.419	3237
927.525	3230
927.631	3264
927.737	3131
927.843	3135
927.95	3020
928.056	3142
928.162	3161
928.267	3256
928.373	3873
928.479	3298
928.585	3085
928.69	3230
928.796	3256
928.901	3184
929.007	3039
929.112	3195
929.218	3165
929.323	3154
929.428	3150
929.533	3340
929.638	3119
929.743	3173
929.848	3233
929.953	3218
930.058	3169
930.163	3017
930.267	3097
930.372	3192
930.477	3039
930.581	3302
930.685	3184
930.79	3093
930.894	3142
930.998	3108
931.103	3268
931.207	2975
931.311	2963
931.415	2910
931.519	2796
931.623	2857
