Data from test_V78500241_1849.txt Node
Date: Fri Mar 25 16:28:00 CST 2022
User: usil
Spectrometer: V785-0024
Trigger mode: 0
Integration Time (sec): 4.000000E-1
Scans to average: 1
Nonlinearity correction enabled: false
Boxcar width: 0
Storing dark spectrum: false
XAxis mode: Wavelengths
Number of Pixels in Spectrum: 1024
>>>>>Begin Spectral Data<<<<<
801.071	2952
801.214	2937
801.356	2902
801.499	2910
801.641	2868
801.783	2952
801.926	3047
802.068	3005
802.211	3017
802.353	3055
802.496	2986
802.638	3013
802.78	3047
802.923	3116
803.065	3032
803.208	2941
803.35	2914
803.492	2918
803.635	2948
803.777	2754
803.919	2864
804.061	3199
804.204	2948
804.346	2941
804.488	2830
804.63	2990
804.773	2861
804.915	2906
805.057	3097
805.199	2914
805.341	2994
805.483	3032
805.626	3001
805.768	2941
805.91	3138
806.052	3100
806.194	3036
806.336	3268
806.478	3013
806.62	2937
806.762	2979
806.904	3051
807.046	3135
807.188	2982
807.33	2902
807.472	2967
807.614	2891
807.756	2963
807.898	2952
808.04	2933
808.182	2975
808.324	2948
808.465	2906
808.607	2883
808.749	2868
808.891	2880
809.033	2967
809.174	2986
809.316	2902
809.458	2895
809.6	2792
809.741	2746
809.883	2727
810.025	2842
810.166	2872
810.308	2861
810.45	2880
810.591	2769
810.733	2792
810.875	2853
811.016	2739
811.158	2731
811.299	2788
811.441	2929
811.582	2880
811.724	2819
811.865	2834
812.007	2933
812.148	2864
812.29	2830
812.431	2845
812.573	2979
812.714	2963
812.855	3055
812.997	3051
813.138	3123
813.279	2986
813.421	3001
813.562	2975
813.703	2861
813.845	2906
813.986	2769
814.127	2716
814.268	2819
814.41	2853
814.551	2842
814.692	2895
814.833	2826
814.974	2899
815.115	2967
815.256	2861
815.397	2830
815.539	2872
815.68	2766
815.821	2777
815.962	2933
816.103	2937
816.244	2880
816.385	2842
816.526	2982
816.666	2883
816.807	2750
816.948	2891
817.089	2918
817.23	2811
817.371	2762
817.512	2811
817.653	2815
817.793	2792
817.934	2842
818.075	2963
818.216	2994
818.356	3024
818.497	2876
818.638	2777
818.778	2811
818.919	2861
819.06	2743
819.2	2880
819.341	2796
819.481	2826
819.622	2941
819.762	3051
819.903	3058
820.043	2925
820.184	2918
820.324	2876
820.465	3032
820.605	3043
820.746	3009
820.886	2937
821.026	3089
821.167	3192
821.307	3298
821.447	3294
821.588	3245
821.728	3226
821.868	3211
822.008	3081
822.149	3211
822.289	3218
822.429	3089
822.569	3116
822.709	3195
822.849	3043
822.99	3089
823.13	3131
823.27	3237
823.41	3123
823.55	3169
823.69	3176
823.83	3230
823.97	3123
824.11	3005
824.25	3055
824.389	3100
824.529	3142
824.669	3131
824.809	3287
824.949	3291
825.089	3260
825.228	3211
825.368	3024
825.508	3005
825.648	2963
825.787	3039
825.927	3055
826.067	2982
826.206	3013
826.346	3081
826.485	3127
826.625	3127
826.765	3325
826.904	3241
827.044	3017
827.183	3005
827.323	2914
827.462	3055
827.601	2956
827.741	3001
827.88	2967
828.02	2895
828.159	3009
828.298	3066
828.437	3150
828.577	3093
828.716	3268
828.855	3127
828.994	3001
829.134	2933
829.273	2941
829.412	2902
829.551	2895
829.69	2975
829.829	2998
829.968	3119
830.107	3097
830.246	3062
830.385	2929
830.524	2914
830.663	2902
830.802	2773
830.941	2689
831.08	2659
831.219	2788
831.357	2815
831.496	3005
831.635	2762
831.774	2724
831.913	2720
832.051	2598
832.19	2629
832.329	2701
832.467	2579
832.606	2560
832.744	2617
832.883	2636
833.022	2598
833.16	2693
833.299	2689
833.437	2750
833.576	2727
833.714	2762
833.852	2769
833.991	2819
834.129	2887
834.267	2864
834.406	2823
834.544	2887
834.682	2914
834.821	2895
834.959	3093
835.097	2895
835.235	3093
835.373	3062
835.511	3047
835.65	2982
835.788	2975
835.926	2887
836.064	2819
836.202	2906
836.34	3123
836.478	3192
836.615	3043
836.753	3165
836.891	3188
837.029	3188
837.167	3176
837.305	3116
837.443	3081
837.58	2975
837.718	3154
837.856	3081
837.993	3100
838.131	3165
838.269	3165
838.406	3138
838.544	3123
838.681	2975
838.819	2986
838.956	2834
839.094	2868
839.231	2971
839.369	3024
839.506	3401
839.643	3275
839.781	3032
839.918	3005
840.055	3077
840.193	3066
840.33	3108
840.467	3169
840.604	3188
840.742	3424
840.879	3077
841.016	3070
841.153	3150
841.29	3344
841.427	3321
841.564	3279
841.701	3348
841.838	3256
841.975	3233
842.112	3249
842.249	3123
842.385	3066
842.522	3275
842.659	3108
842.796	3074
842.933	3146
843.069	3077
843.206	3066
843.343	3218
843.479	3127
843.616	3192
843.752	2929
843.889	2948
844.025	3108
844.162	2887
844.298	3104
844.435	2979
844.571	2918
844.708	3089
844.844	3211
844.98	3256
845.117	3207
845.253	3104
845.389	3062
845.525	3123
845.661	3116
845.798	3032
845.934	3169
846.07	3055
846.206	3256
846.342	3336
846.478	3253
846.614	3100
846.75	3089
846.886	3036
847.022	3256
847.158	3161
847.294	3230
847.429	3256
847.565	3237
847.701	3519
847.837	3077
847.972	3005
848.108	3222
848.244	3165
848.379	3032
848.515	2982
848.65	2971
848.786	3005
848.921	3074
849.057	3138
849.192	3146
849.328	3093
849.463	3142
849.598	3104
849.734	3077
849.869	3013
850.004	2956
850.14	3024
850.275	2925
850.41	2868
850.545	2868
850.68	2922
850.815	3017
850.95	3001
851.085	3245
851.22	3127
851.355	3074
851.49	3013
851.625	2986
851.76	3024
851.895	2956
852.03	2941
852.165	3058
852.299	3116
852.434	3165
852.569	3180
852.703	3230
852.838	3291
852.973	3355
853.107	3302
853.242	3188
853.376	3108
853.511	3017
853.645	3013
853.78	3226
853.914	3123
854.048	3135
854.183	3108
854.317	3173
854.451	3279
854.585	3127
854.72	3089
854.854	3222
854.988	3077
855.122	3116
855.256	3020
855.39	3165
855.524	3245
855.658	3230
855.792	3146
855.926	3241
856.06	3199
856.194	3287
856.327	3154
856.461	3116
856.595	3093
856.729	3138
856.862	3207
856.996	3195
857.13	3199
857.263	3237
857.397	3283
857.53	3165
857.664	3203
857.797	3233
857.931	3302
858.064	3199
858.197	3264
858.331	3192
858.464	3138
858.597	2994
858.731	3135
858.864	3157
858.997	3089
859.13	3173
859.263	3165
859.396	3230
859.529	3146
859.662	3097
859.795	3062
859.928	3150
860.061	3294
860.194	3291
860.327	3142
860.46	3108
860.592	3237
860.725	3249
860.858	3249
860.99	3119
861.123	3070
861.256	3062
861.388	3173
861.521	3842
861.653	3047
861.786	2990
861.918	3028
862.05	3100
862.183	3097
862.315	3176
862.447	3207
862.58	3127
862.712	2937
862.844	2895
862.976	3028
863.108	3036
863.24	3450
863.372	2891
863.504	2994
863.636	2975
863.768	3058
863.9	2994
864.032	2937
864.164	2963
864.296	3051
864.428	3066
864.559	3131
864.691	3074
864.823	3085
864.954	3020
865.086	3077
865.217	2979
865.349	2960
865.48	2998
865.612	3047
865.743	3161
865.875	2994
866.006	2967
866.137	2986
866.269	2956
866.4	2944
866.531	2971
866.662	2910
866.793	2929
866.924	2956
867.055	3009
867.186	2956
867.317	2902
867.448	2857
867.579	2845
867.71	2887
867.841	2872
867.972	2910
868.103	2918
868.233	2902
868.364	2902
868.495	2925
868.625	3100
868.756	3142
868.886	2986
869.017	3036
869.147	3161
869.278	3146
869.408	3066
869.539	3036
869.669	3131
869.799	3051
869.929	3157
870.06	3142
870.19	3336
870.32	3306
870.45	3306
870.58	3431
870.71	3477
870.84	3439
870.97	3310
871.1	3268
871.23	3443
871.36	3511
871.489	3382
871.619	3367
871.749	3420
871.879	3466
872.008	3515
872.138	3424
872.267	3306
872.397	3146
872.526	3131
872.656	3013
872.785	3123
872.915	3283
873.044	3294
873.173	3226
873.303	3279
873.432	3233
873.561	3237
873.69	3150
873.819	3135
873.948	3203
874.077	3100
874.206	3085
874.335	3077
874.464	3237
874.593	3329
874.722	3241
874.851	3386
874.979	3389
875.108	3294
875.237	3211
875.365	3176
875.494	3176
875.623	3241
875.751	3058
875.88	3131
876.008	3195
876.136	3230
876.265	3382
876.393	3488
876.521	3454
876.65	3443
876.778	3367
876.906	3275
877.034	3207
877.162	3241
877.29	3184
877.418	3268
877.546	3207
877.674	3264
877.802	3230
877.93	3230
878.058	3127
878.185	3108
878.313	3226
878.441	3249
878.568	3081
878.696	3184
878.824	3268
878.951	3382
879.079	3458
879.206	3637
879.333	3439
879.461	3348
879.588	3363
879.715	3504
879.842	3606
879.97	3378
880.097	3188
880.224	3123
880.351	3173
880.478	3218
880.605	3226
880.732	3249
880.859	3488
880.986	3344
881.112	3325
881.239	3203
881.366	3108
881.493	3066
881.619	3036
881.746	3077
881.872	3097
881.999	3089
882.125	3203
882.252	3253
882.378	3321
882.505	3443
882.631	3302
882.757	3173
882.883	3256
883.01	3268
883.136	3192
883.262	3138
883.388	3097
883.514	3298
883.64	3401
883.766	3313
883.892	3203
884.018	3268
884.143	3439
884.269	3523
884.395	3211
884.52	3195
884.646	3211
884.772	3112
884.897	3119
885.023	3249
885.148	3348
885.274	3435
885.399	3386
885.524	3302
885.65	3264
885.775	3298
885.9	3287
886.025	3454
886.15	3367
886.275	3317
886.4	3264
886.525	3291
886.65	3287
886.775	3306
886.9	3458
887.025	3652
887.149	3462
887.274	3253
887.399	3218
887.523	3214
887.648	3184
887.773	3218
887.897	3359
888.021	3412
888.146	3294
888.27	3431
888.395	3534
888.519	3466
888.643	3424
888.767	3496
888.891	3367
889.015	3237
889.139	3283
889.263	3214
889.387	3416
889.511	3530
889.635	3469
889.759	3310
889.883	3279
890.006	3378
890.13	3481
890.254	3253
890.377	3359
890.501	3214
890.624	3211
890.748	3291
890.871	3184
890.995	3138
891.118	3093
891.241	3195
891.364	3226
891.488	3340
891.611	3184
891.734	3230
891.857	3298
891.98	3260
892.103	3336
892.226	3325
892.349	3218
892.471	3093
892.594	3245
892.717	3279
892.839	3241
892.962	3287
893.085	3397
893.207	3302
893.33	3157
893.452	3199
893.575	3340
893.697	3272
893.819	3485
893.941	3481
894.064	3435
894.186	3302
894.308	3294
894.43	3450
894.552	3568
894.674	3488
894.796	3260
894.918	3302
895.04	3275
895.161	3431
895.283	3412
895.405	3317
895.526	3351
895.648	3462
895.769	3450
895.891	3488
896.012	3519
896.134	3500
896.255	3412
896.376	3405
896.498	3378
896.619	3458
896.74	3367
896.861	3416
896.982	3713
897.103	3835
897.224	3587
897.345	3519
897.466	3469
897.587	3515
897.708	3610
897.828	3591
897.949	3428
898.07	3317
898.19	3420
898.311	3618
898.431	3412
898.552	3538
898.672	3576
898.792	3584
898.913	3572
899.033	3443
899.153	3287
899.273	3222
899.393	3283
899.513	3306
899.633	3367
899.753	3374
899.873	3294
899.993	3363
900.113	3374
900.232	3389
900.352	3344
900.472	3310
900.591	3249
900.711	3294
900.83	3222
900.95	3439
901.069	3504
901.189	3336
901.308	3218
901.427	3161
901.546	3226
901.665	3264
901.784	3382
901.904	3230
902.023	3173
902.141	3058
902.26	2982
902.379	3176
902.498	3066
902.617	3066
902.735	3203
902.854	3279
902.973	3211
903.091	3093
903.21	3097
903.328	3146
903.446	3116
903.565	3135
903.683	3203
903.801	3142
903.919	3233
904.038	3245
904.156	3165
904.274	3283
904.392	3283
904.51	3294
904.627	3348
904.745	3439
904.863	3496
904.981	3279
905.098	3188
905.216	3241
905.334	3306
905.451	3336
905.569	3275
905.686	3450
905.803	3481
905.921	3283
906.038	3401
906.155	3374
906.272	3313
906.389	3336
906.506	3207
906.623	3287
906.74	3268
906.857	3211
906.974	3237
907.091	3454
907.208	3545
907.324	3473
907.441	3355
907.557	3241
907.674	3188
907.79	3180
907.907	3253
908.023	3397
908.139	3405
908.256	3359
908.372	3393
908.488	3389
908.604	3245
908.72	3222
908.836	3256
908.952	3260
909.068	3355
909.184	3477
909.3	3424
909.415	3557
909.531	3481
909.647	3268
909.762	3306
909.878	3279
909.993	3355
910.108	3363
910.224	3310
910.339	3405
910.454	3340
910.57	3310
910.685	3272
910.8	3568
910.915	3511
911.03	3469
911.145	3249
911.259	3287
911.374	3317
911.489	3245
911.604	3195
911.718	3097
911.833	3157
911.947	3032
912.062	3001
912.176	3203
912.291	3245
912.405	3211
912.519	3412
912.633	3488
912.748	3329
912.862	3268
912.976	3195
913.09	3089
913.204	3112
913.318	3211
913.431	3344
913.545	3359
913.659	3409
913.772	3336
913.886	3211
914	3218
914.113	3355
914.226	3393
914.34	3378
914.453	3226
914.566	3450
914.68	3302
914.793	3321
914.906	3138
915.019	3097
915.132	3062
915.245	3169
915.358	3203
915.47	3264
915.583	3272
915.696	3310
915.809	3389
915.921	3397
916.034	3264
916.146	3241
916.259	3256
916.371	3378
916.483	3367
916.595	3317
916.708	3283
916.82	3313
916.932	3351
917.044	3348
917.156	3363
917.268	3268
917.38	3336
917.491	3294
917.603	3393
917.715	3443
917.826	3397
917.938	3386
918.049	3279
918.161	3386
918.272	3564
918.384	3603
918.495	3488
918.606	3370
918.717	3272
918.828	3359
918.939	3416
919.05	3283
919.161	3370
919.272	3195
919.383	3306
919.494	3492
919.604	3663
919.715	3481
919.826	3401
919.936	3458
920.047	3595
920.157	3580
920.267	3751
920.378	3599
920.488	3549
920.598	3778
920.708	3968
920.818	3827
920.928	3823
921.038	3991
921.148	3987
921.258	3717
921.368	3595
921.477	3580
921.587	3523
921.697	3454
921.806	3614
921.916	3504
922.025	3370
922.134	3386
922.244	3298
922.353	3412
922.462	3283
922.571	3211
922.68	3108
922.789	3085
922.898	3146
923.007	3119
923.116	3207
923.224	3142
923.333	3214
923.442	3108
923.55	3085
923.659	3131
923.767	3199
923.876	3085
923.984	3214
924.092	3116
924.201	3211
924.309	3211
924.417	3249
924.525	3211
924.633	3233
924.741	4196
924.849	3039
924.956	3310
925.064	3100
925.172	2994
925.279	3138
925.387	3199
925.494	3184
925.602	3355
925.709	3359
925.816	3176
925.924	3294
926.031	3359
926.138	3332
926.245	3336
926.352	3256
926.459	3412
926.566	3450
926.673	3310
926.779	3272
926.886	3260
926.993	3157
927.099	3077
927.206	3093
927.312	3093
927.419	3237
927.525	3199
927.631	3272
927.737	3138
927.843	3119
927.95	3020
928.056	3116
928.162	3188
928.267	3230
928.373	3797
928.479	3310
928.585	3077
928.69	3222
928.796	3306
928.901	3173
929.007	3070
929.112	3222
929.218	3169
929.323	3142
929.428	3176
929.533	3268
929.638	3138
929.743	3165
929.848	3245
929.953	3222
930.058	3142
930.163	2990
930.267	3039
930.372	3169
930.477	3066
930.581	3329
930.685	3192
930.79	3070
930.894	3146
930.998	3135
931.103	3291
931.207	2971
931.311	2918
931.415	2925
931.519	2777
931.623	2807
