Data from test_V78500241_1377.txt Node
Date: Fri Mar 25 16:24:44 CST 2022
User: usil
Spectrometer: V785-0024
Trigger mode: 0
Integration Time (sec): 4.000000E-1
Scans to average: 1
Nonlinearity correction enabled: false
Boxcar width: 0
Storing dark spectrum: false
XAxis mode: Wavelengths
Number of Pixels in Spectrum: 1024
>>>>>Begin Spectral Data<<<<<
801.071	2918
801.214	2952
801.356	2902
801.499	2883
801.641	2876
801.783	2914
801.926	3051
802.068	2960
802.211	3017
802.353	3066
802.496	2975
802.638	3020
802.78	3074
802.923	3127
803.065	3032
803.208	2902
803.35	2944
803.492	2986
803.635	2941
803.777	2777
803.919	2872
804.061	3218
804.204	2960
804.346	2929
804.488	2887
804.63	3024
804.773	2910
804.915	2902
805.057	3104
805.199	2910
805.341	2986
805.483	3070
805.626	3005
805.768	3017
805.91	3127
806.052	3131
806.194	3089
806.336	3230
806.478	3055
806.62	3005
806.762	3009
806.904	3093
807.046	3192
807.188	3032
807.33	2933
807.472	3009
807.614	2971
807.756	3047
807.898	2963
808.04	2925
808.182	3001
808.324	2979
808.465	2902
808.607	2918
808.749	2838
808.891	2906
809.033	3032
809.174	3013
809.316	2914
809.458	2906
809.6	2807
809.741	2819
809.883	2815
810.025	2883
810.166	2899
810.308	2891
810.45	2887
810.591	2769
810.733	2811
810.875	2891
811.016	2804
811.158	2811
811.299	2826
811.441	2963
811.582	2922
811.724	2880
811.865	2838
812.007	2971
812.148	2922
812.29	2876
812.431	2941
812.573	2952
812.714	2963
812.855	3081
812.997	3070
813.138	3154
813.279	3066
813.421	2986
813.562	2982
813.703	2914
813.845	2895
813.986	2845
814.127	2769
814.268	2861
814.41	2857
814.551	2891
814.692	2891
814.833	2845
814.974	2899
815.115	2982
815.256	2861
815.397	2826
815.539	2899
815.68	2804
815.821	2815
815.962	3005
816.103	2963
816.244	2929
816.385	2880
816.526	2998
816.666	2956
816.807	2785
816.948	2883
817.089	2914
817.23	2899
817.371	2792
817.512	2834
817.653	2880
817.793	2868
817.934	2899
818.075	2998
818.216	3039
818.356	3024
818.497	2910
818.638	2807
818.778	2834
818.919	2834
819.06	2800
819.2	2906
819.341	2845
819.481	2823
819.622	2929
819.762	3135
819.903	3074
820.043	2960
820.184	2952
820.324	2937
820.465	3039
820.605	3077
820.746	3077
820.886	2967
821.026	3123
821.167	3199
821.307	3310
821.447	3287
821.588	3241
821.728	3249
821.868	3241
822.008	3142
822.149	3195
822.289	3264
822.429	3104
822.569	3131
822.709	3192
822.849	3047
822.99	3097
823.13	3230
823.27	3207
823.41	3150
823.55	3165
823.69	3214
823.83	3226
823.97	3135
824.11	3074
824.25	2998
824.389	3062
824.529	3150
824.669	3043
824.809	3214
824.949	3279
825.089	3192
825.228	3180
825.368	3028
825.508	2982
825.648	2960
825.787	3058
825.927	3039
826.067	2979
826.206	2971
826.346	3097
826.485	3097
826.625	3142
826.765	3275
826.904	3256
827.044	2998
827.183	2967
827.323	2902
827.462	2975
827.601	2918
827.741	2948
827.88	2956
828.02	2887
828.159	2986
828.298	3093
828.437	3127
828.577	3047
828.716	3268
828.855	3116
828.994	2933
829.134	2887
829.273	2918
829.412	2899
829.551	2906
829.69	2937
829.829	3032
829.968	3131
830.107	3009
830.246	3036
830.385	2914
830.524	2876
830.663	2826
830.802	2762
830.941	2686
831.08	2640
831.219	2758
831.357	2792
831.496	2990
831.635	2746
831.774	2689
831.913	2651
832.051	2549
832.19	2598
832.329	2727
832.467	2560
832.606	2530
832.744	2632
832.883	2629
833.022	2606
833.16	2697
833.299	2689
833.437	2697
833.576	2743
833.714	2754
833.852	2754
833.991	2811
834.129	2887
834.267	2857
834.406	2807
834.544	2895
834.682	2902
834.821	2876
834.959	3062
835.097	2891
835.235	3104
835.373	3055
835.511	3047
835.65	2986
835.788	2963
835.926	2864
836.064	2804
836.202	2880
836.34	3104
836.478	3195
836.615	3055
836.753	3142
836.891	3211
837.029	3138
837.167	3116
837.305	3089
837.443	3058
837.58	2994
837.718	3116
837.856	3097
837.993	3070
838.131	3123
838.269	3131
838.406	3123
838.544	3070
838.681	2975
838.819	2929
838.956	2807
839.094	2857
839.231	2914
839.369	3058
839.506	3378
839.643	3253
839.781	3024
839.918	2979
840.055	3077
840.193	3062
840.33	3097
840.467	3108
840.604	3165
840.742	3431
840.879	3112
841.016	3055
841.153	3108
841.29	3325
841.427	3310
841.564	3287
841.701	3294
841.838	3214
841.975	3176
842.112	3203
842.249	3112
842.385	3081
842.522	3291
842.659	3104
842.796	3062
842.933	3116
843.069	3062
843.206	3036
843.343	3188
843.479	3157
843.616	3169
843.752	2887
843.889	2895
844.025	3108
844.162	2861
844.298	3062
844.435	2990
844.571	2925
844.708	3097
844.844	3199
844.98	3256
845.117	3218
845.253	3070
845.389	3013
845.525	3081
845.661	3108
845.798	3020
845.934	3146
846.07	3062
846.206	3222
846.342	3344
846.478	3287
846.614	3097
846.75	3104
846.886	3043
847.022	3268
847.158	3150
847.294	3214
847.429	3253
847.565	3218
847.701	3485
847.837	3017
847.972	3005
848.108	3176
848.244	3173
848.379	3001
848.515	2929
848.65	2960
848.786	3013
848.921	2994
849.057	3142
849.192	3161
849.328	3093
849.463	3138
849.598	3112
849.734	3036
849.869	2998
850.004	2910
850.14	2975
850.275	2937
850.41	2826
850.545	2868
850.68	2986
850.815	2956
850.95	2979
851.085	3207
851.22	3123
851.355	3009
851.49	2994
851.625	3024
851.76	3020
851.895	2944
852.03	2918
852.165	3043
852.299	3142
852.434	3180
852.569	3173
852.703	3146
852.838	3272
852.973	3355
853.107	3321
853.242	3195
853.376	3127
853.511	2979
853.645	3058
853.78	3249
853.914	3146
854.048	3184
854.183	3112
854.317	3146
854.451	3336
854.585	3127
854.72	3108
854.854	3230
854.988	3058
855.122	3070
855.256	2971
855.39	3093
855.524	3253
855.658	3176
855.792	3161
855.926	3226
856.06	3203
856.194	3287
856.327	3161
856.461	3131
856.595	3066
856.729	3116
856.862	3249
856.996	3169
857.13	3176
857.263	3245
857.397	3283
857.53	3138
857.664	3203
857.797	3230
857.931	3287
858.064	3150
858.197	3233
858.331	3146
858.464	3062
858.597	3020
858.731	3108
858.864	3150
858.997	3100
859.13	3176
859.263	3188
859.396	3218
859.529	3074
859.662	3028
859.795	3066
859.928	3165
860.061	3298
860.194	3321
860.327	3142
860.46	3093
860.592	3241
860.725	3260
860.858	3241
860.99	3123
861.123	3070
861.256	3032
861.388	3146
861.521	3789
861.653	3051
861.786	3024
861.918	2998
862.05	3047
862.183	3070
862.315	3165
862.447	3218
862.58	3108
862.712	2941
862.844	2864
862.976	3036
863.108	2975
863.24	3359
863.372	2887
863.504	2975
863.636	2918
863.768	3070
863.9	2960
864.032	2967
864.164	2952
864.296	2967
864.428	3074
864.559	3119
864.691	3085
864.823	3047
864.954	3055
865.086	3051
865.217	3013
865.349	2941
865.48	3013
865.612	3047
865.743	3154
865.875	2990
866.006	2922
866.137	2998
866.269	2986
866.4	2941
866.531	2925
866.662	2895
866.793	2895
866.924	2902
867.055	2979
867.186	2925
867.317	2872
867.448	2830
867.579	2842
867.71	2842
867.841	2830
867.972	2933
868.103	2895
868.233	2918
868.364	2857
868.495	2948
868.625	3081
868.756	3180
868.886	2967
869.017	3036
869.147	3173
869.278	3135
869.408	3055
869.539	3028
869.669	3093
869.799	3024
869.929	3154
870.06	3123
870.19	3325
870.32	3310
870.45	3302
870.58	3409
870.71	3401
870.84	3462
870.97	3317
871.1	3279
871.23	3469
871.36	3481
871.489	3344
871.619	3416
871.749	3443
871.879	3443
872.008	3473
872.138	3351
872.267	3313
872.397	3157
872.526	3116
872.656	3017
872.785	3104
872.915	3260
873.044	3351
873.173	3230
873.303	3260
873.432	3233
873.561	3249
873.69	3192
873.819	3169
873.948	3249
874.077	3074
874.206	3070
874.335	3104
874.464	3218
874.593	3340
874.722	3222
874.851	3378
874.979	3310
875.108	3332
875.237	3222
875.365	3176
875.494	3207
875.623	3249
875.751	3093
875.88	3127
876.008	3203
876.136	3203
876.265	3340
876.393	3523
876.521	3424
876.65	3447
876.778	3313
876.906	3249
877.034	3211
877.162	3211
877.29	3161
877.418	3264
877.546	3249
877.674	3253
877.802	3256
877.93	3241
878.058	3142
878.185	3108
878.313	3199
878.441	3199
878.568	3074
878.696	3131
878.824	3283
878.951	3313
879.079	3454
879.206	3644
879.333	3454
879.461	3348
879.588	3382
879.715	3466
879.842	3572
879.97	3363
880.097	3233
880.224	3150
880.351	3169
880.478	3207
880.605	3245
880.732	3211
880.859	3473
880.986	3321
881.112	3325
881.239	3180
881.366	3093
881.493	3062
881.619	3020
881.746	3070
881.872	3089
881.999	3089
882.125	3154
882.252	3294
882.378	3272
882.505	3439
882.631	3279
882.757	3169
882.883	3195
883.01	3214
883.136	3165
883.262	3081
883.388	3077
883.514	3298
883.64	3405
883.766	3283
883.892	3157
884.018	3260
884.143	3450
884.269	3538
884.395	3199
884.52	3154
884.646	3222
884.772	3119
884.897	3077
885.023	3272
885.148	3332
885.274	3382
885.399	3370
885.524	3253
885.65	3264
885.775	3283
885.9	3249
886.025	3473
886.15	3340
886.275	3268
886.4	3253
886.525	3329
886.65	3275
886.775	3283
886.9	3504
887.025	3625
887.149	3393
887.274	3264
887.399	3180
887.523	3207
887.648	3207
887.773	3214
887.897	3397
888.021	3405
888.146	3302
888.27	3447
888.395	3568
888.519	3443
888.643	3454
888.767	3439
888.891	3298
889.015	3237
889.139	3264
889.263	3272
889.387	3439
889.511	3519
889.635	3466
889.759	3275
889.883	3306
890.006	3351
890.13	3454
890.254	3272
890.377	3310
890.501	3226
890.624	3199
890.748	3310
890.871	3199
890.995	3100
891.118	3062
891.241	3188
891.364	3237
891.488	3332
891.611	3161
891.734	3222
891.857	3287
891.98	3279
892.103	3340
892.226	3279
892.349	3199
892.471	3104
892.594	3245
892.717	3313
892.839	3268
892.962	3306
893.085	3367
893.207	3275
893.33	3146
893.452	3180
893.575	3332
893.697	3268
893.819	3477
893.941	3519
894.064	3435
894.186	3298
894.308	3253
894.43	3454
894.552	3553
894.674	3466
894.796	3298
894.918	3298
895.04	3313
895.161	3450
895.283	3401
895.405	3321
895.526	3386
895.648	3435
895.769	3412
895.891	3469
896.012	3458
896.134	3439
896.255	3397
896.376	3401
896.498	3329
896.619	3420
896.74	3367
896.861	3374
896.982	3641
897.103	3835
897.224	3610
897.345	3473
897.466	3393
897.587	3500
897.708	3564
897.828	3591
897.949	3435
898.07	3367
898.19	3405
898.311	3584
898.431	3466
898.552	3530
898.672	3576
898.792	3549
898.913	3500
899.033	3382
899.153	3291
899.273	3222
899.393	3264
899.513	3275
899.633	3332
899.753	3306
899.873	3260
899.993	3344
900.113	3367
900.232	3409
900.352	3355
900.472	3291
900.591	3203
900.711	3294
900.83	3241
900.95	3409
901.069	3466
901.189	3313
901.308	3184
901.427	3135
901.546	3176
901.665	3325
901.784	3302
901.904	3203
902.023	3123
902.141	2986
902.26	3013
902.379	3127
902.498	3081
902.617	3058
902.735	3199
902.854	3233
902.973	3184
903.091	3070
903.21	3085
903.328	3112
903.446	3074
903.565	3100
903.683	3199
903.801	3142
903.919	3226
904.038	3268
904.156	3176
904.274	3283
904.392	3222
904.51	3302
904.627	3321
904.745	3450
904.863	3466
904.981	3287
905.098	3150
905.216	3218
905.334	3306
905.451	3272
905.569	3306
905.686	3409
905.803	3428
905.921	3264
906.038	3420
906.155	3370
906.272	3306
906.389	3302
906.506	3241
906.623	3272
906.74	3298
906.857	3142
906.974	3256
907.091	3420
907.208	3557
907.324	3481
907.441	3374
907.557	3249
907.674	3222
907.79	3188
907.907	3249
908.023	3405
908.139	3393
908.256	3348
908.372	3359
908.488	3370
908.604	3256
908.72	3226
908.836	3260
908.952	3264
909.068	3355
909.184	3485
909.3	3378
909.415	3477
909.531	3458
909.647	3256
909.762	3256
909.878	3256
909.993	3332
910.108	3332
910.224	3306
910.339	3412
910.454	3340
910.57	3279
910.685	3275
910.8	3576
910.915	3564
911.03	3454
911.145	3268
911.259	3272
911.374	3321
911.489	3192
911.604	3218
911.718	3119
911.833	3116
911.947	3001
912.062	3001
912.176	3165
912.291	3203
912.405	3230
912.519	3447
912.633	3469
912.748	3329
912.862	3298
912.976	3157
913.09	3081
913.204	3131
913.318	3226
913.431	3306
913.545	3355
913.659	3401
913.772	3325
913.886	3214
914	3192
914.113	3340
914.226	3401
914.34	3393
914.453	3233
914.566	3416
914.68	3260
914.793	3260
914.906	3104
915.019	3081
915.132	3032
915.245	3176
915.358	3173
915.47	3245
915.583	3249
915.696	3294
915.809	3401
915.921	3450
916.034	3233
916.146	3275
916.259	3199
916.371	3386
916.483	3409
916.595	3291
916.708	3344
916.82	3325
916.932	3306
917.044	3389
917.156	3344
917.268	3237
917.38	3272
917.491	3321
917.603	3378
917.715	3447
917.826	3447
917.938	3401
918.049	3222
918.161	3443
918.272	3595
918.384	3618
918.495	3458
918.606	3336
918.717	3260
918.828	3370
918.939	3409
919.05	3336
919.161	3363
919.272	3184
919.383	3260
919.494	3492
919.604	3671
919.715	3507
919.826	3416
919.936	3477
920.047	3584
920.157	3576
920.267	3755
920.378	3591
920.488	3526
920.598	3778
920.708	3899
920.818	3865
920.928	3819
921.038	3987
921.148	3953
921.258	3732
921.368	3629
921.477	3568
921.587	3526
921.697	3500
921.806	3614
921.916	3492
922.025	3344
922.134	3359
922.244	3321
922.353	3424
922.462	3268
922.571	3230
922.68	3058
922.789	3097
922.898	3123
923.007	3074
923.116	3203
923.224	3192
923.333	3169
923.442	3127
923.55	3043
923.659	3138
923.767	3233
923.876	3127
923.984	3245
924.092	3081
924.201	3211
924.309	3184
924.417	3260
924.525	3199
924.633	3222
924.741	4036
924.849	3081
924.956	3249
925.064	3089
925.172	3043
925.279	3081
925.387	3199
925.494	3203
925.602	3332
925.709	3359
925.816	3195
925.924	3291
926.031	3317
926.138	3313
926.245	3359
926.352	3207
926.459	3428
926.566	3469
926.673	3310
926.779	3226
926.886	3279
926.993	3135
927.099	3119
927.206	3123
927.312	3119
927.419	3199
927.525	3226
927.631	3310
927.737	3108
927.843	3123
927.95	3024
928.056	3135
928.162	3146
928.267	3222
928.373	3880
928.479	3283
928.585	3058
928.69	3203
928.796	3272
928.901	3161
929.007	3028
929.112	3211
929.218	3241
929.323	3123
929.428	3142
929.533	3313
929.638	3123
929.743	3142
929.848	3264
929.953	3249
930.058	3138
930.163	3013
930.267	3039
930.372	3176
930.477	3036
930.581	3306
930.685	3154
930.79	3081
930.894	3142
930.998	3104
931.103	3272
931.207	2971
931.311	2891
931.415	2922
931.519	2762
931.623	2796
