Data from test_V78500241_1894.txt Node
Date: Fri Mar 25 16:28:19 CST 2022
User: usil
Spectrometer: V785-0024
Trigger mode: 0
Integration Time (sec): 4.000000E-1
Scans to average: 1
Nonlinearity correction enabled: false
Boxcar width: 0
Storing dark spectrum: false
XAxis mode: Wavelengths
Number of Pixels in Spectrum: 1024
>>>>>Begin Spectral Data<<<<<
801.071	2918
801.214	2956
801.356	2883
801.499	2922
801.641	2868
801.783	2948
801.926	3055
802.068	3013
802.211	2990
802.353	3032
802.496	2975
802.638	3032
802.78	3070
802.923	3058
803.065	3001
803.208	2922
803.35	2918
803.492	2933
803.635	2922
803.777	2762
803.919	2861
804.061	3180
804.204	2967
804.346	2922
804.488	2872
804.63	2990
804.773	2864
804.915	2902
805.057	3097
805.199	2902
805.341	2971
805.483	3001
805.626	3001
805.768	2963
805.91	3051
806.052	3127
806.194	3066
806.336	3226
806.478	2994
806.62	2952
806.762	2956
806.904	3024
807.046	3184
807.188	3028
807.33	2895
807.472	2960
807.614	2899
807.756	2990
807.898	2944
808.04	2929
808.182	2986
808.324	2937
808.465	2891
808.607	2902
808.749	2792
808.891	2845
809.033	2971
809.174	2963
809.316	2834
809.458	2925
809.6	2773
809.741	2762
809.883	2781
810.025	2823
810.166	2880
810.308	2842
810.45	2811
810.591	2777
810.733	2781
810.875	2868
811.016	2758
811.158	2724
811.299	2811
811.441	2925
811.582	2861
811.724	2807
811.865	2838
812.007	2948
812.148	2864
812.29	2838
812.431	2887
812.573	2948
812.714	2990
812.855	3024
812.997	3032
813.138	3127
813.279	3001
813.421	2971
813.562	2933
813.703	2842
813.845	2861
813.986	2766
814.127	2720
814.268	2845
814.41	2834
814.551	2788
814.692	2849
814.833	2762
814.974	2872
815.115	2975
815.256	2788
815.397	2807
815.539	2819
815.68	2758
815.821	2796
815.962	2925
816.103	2922
816.244	2891
816.385	2887
816.526	2925
816.666	2925
816.807	2758
816.948	2853
817.089	2922
817.23	2872
817.371	2788
817.512	2800
817.653	2845
817.793	2819
817.934	2899
818.075	2902
818.216	2994
818.356	2986
818.497	2861
818.638	2781
818.778	2785
818.919	2743
819.06	2754
819.2	2861
819.341	2838
819.481	2830
819.622	2929
819.762	3104
819.903	3009
820.043	2918
820.184	2906
820.324	2899
820.465	2998
820.605	3051
820.746	3020
820.886	2948
821.026	3127
821.167	3195
821.307	3264
821.447	3313
821.588	3268
821.728	3226
821.868	3184
822.008	3100
822.149	3203
822.289	3226
822.429	3104
822.569	3112
822.709	3195
822.849	3085
822.99	3066
823.13	3173
823.27	3222
823.41	3108
823.55	3154
823.69	3173
823.83	3199
823.97	3123
824.11	3032
824.25	3047
824.389	3081
824.529	3161
824.669	3142
824.809	3256
824.949	3306
825.089	3249
825.228	3203
825.368	3058
825.508	2998
825.648	2982
825.787	3024
825.927	3047
826.067	3001
826.206	3039
826.346	3062
826.485	3085
826.625	3173
826.765	3321
826.904	3241
827.044	3055
827.183	2990
827.323	2906
827.462	3024
827.601	2982
827.741	2941
827.88	2967
828.02	2914
828.159	3013
828.298	3085
828.437	3138
828.577	3077
828.716	3279
828.855	3097
828.994	2956
829.134	2918
829.273	2937
829.412	2887
829.551	2891
829.69	2941
829.829	3020
829.968	3169
830.107	3039
830.246	3062
830.385	2952
830.524	2899
830.663	2857
830.802	2750
830.941	2697
831.08	2712
831.219	2781
831.357	2766
831.496	2982
831.635	2796
831.774	2644
831.913	2705
832.051	2610
832.19	2594
832.329	2743
832.467	2590
832.606	2511
832.744	2579
832.883	2617
833.022	2648
833.16	2701
833.299	2716
833.437	2746
833.576	2689
833.714	2754
833.852	2785
833.991	2750
834.129	2883
834.267	2864
834.406	2819
834.544	2906
834.682	2902
834.821	2895
834.959	3089
835.097	2933
835.235	3093
835.373	3017
835.511	3070
835.65	2982
835.788	2960
835.926	2861
836.064	2883
836.202	2906
836.34	3161
836.478	3184
836.615	3081
836.753	3161
836.891	3218
837.029	3180
837.167	3165
837.305	3131
837.443	3062
837.58	2975
837.718	3169
837.856	3097
837.993	3055
838.131	3157
838.269	3108
838.406	3127
838.544	3089
838.681	2910
838.819	2952
838.956	2864
839.094	2864
839.231	2963
839.369	3017
839.506	3397
839.643	3233
839.781	3032
839.918	2998
840.055	3116
840.193	3081
840.33	3097
840.467	3138
840.604	3218
840.742	3450
840.879	3093
841.016	3051
841.153	3146
841.29	3344
841.427	3325
841.564	3298
841.701	3363
841.838	3241
841.975	3222
842.112	3275
842.249	3112
842.385	3070
842.522	3279
842.659	3112
842.796	3104
842.933	3146
843.069	3043
843.206	3074
843.343	3211
843.479	3127
843.616	3184
843.752	2956
843.889	2887
844.025	3123
844.162	2899
844.298	3093
844.435	3013
844.571	2883
844.708	3119
844.844	3207
844.98	3249
845.117	3203
845.253	3077
845.389	3028
845.525	3119
845.661	3119
845.798	3036
845.934	3165
846.07	3032
846.206	3230
846.342	3321
846.478	3268
846.614	3104
846.75	3100
846.886	3055
847.022	3279
847.158	3154
847.294	3237
847.429	3287
847.565	3245
847.701	3515
847.837	3058
847.972	3017
848.108	3176
848.244	3146
848.379	2982
848.515	2998
848.65	2967
848.786	2998
848.921	3017
849.057	3127
849.192	3127
849.328	3100
849.463	3108
849.598	3104
849.734	3070
849.869	2998
850.004	2944
850.14	3024
850.275	2922
850.41	2849
850.545	2925
850.68	2990
850.815	2971
850.95	2998
851.085	3199
851.22	3119
851.355	3024
851.49	3020
851.625	3043
851.76	3024
851.895	2963
852.03	2906
852.165	3058
852.299	3123
852.434	3218
852.569	3154
852.703	3161
852.838	3294
852.973	3393
853.107	3332
853.242	3184
853.376	3112
853.511	2994
853.645	3081
853.78	3249
853.914	3116
854.048	3169
854.183	3100
854.317	3169
854.451	3310
854.585	3131
854.72	3070
854.854	3230
854.988	3077
855.122	3100
855.256	2994
855.39	3131
855.524	3249
855.658	3233
855.792	3188
855.926	3207
856.06	3226
856.194	3279
856.327	3195
856.461	3093
856.595	3093
856.729	3108
856.862	3249
856.996	3169
857.13	3207
857.263	3253
857.397	3283
857.53	3135
857.664	3253
857.797	3249
857.931	3283
858.064	3199
858.197	3233
858.331	3188
858.464	3154
858.597	3036
858.731	3138
858.864	3154
858.997	3123
859.13	3184
859.263	3180
859.396	3207
859.529	3077
859.662	3093
859.795	3062
859.928	3173
860.061	3329
860.194	3294
860.327	3146
860.46	3154
860.592	3268
860.725	3279
860.858	3275
860.99	3142
861.123	3104
861.256	3104
861.388	3154
861.521	3865
861.653	3032
861.786	3017
861.918	3036
862.05	3055
862.183	3112
862.315	3161
862.447	3233
862.58	3112
862.712	2933
862.844	2899
862.976	3043
863.108	3036
863.24	3298
863.372	2902
863.504	3001
863.636	2975
863.768	3070
863.9	3024
864.032	2922
864.164	2986
864.296	3005
864.428	3112
864.559	3104
864.691	3062
864.823	3051
864.954	2990
865.086	3032
865.217	2975
865.349	2994
865.48	3017
865.612	3047
865.743	3142
865.875	3001
866.006	2979
866.137	3005
866.269	2979
866.4	2956
866.531	2933
866.662	2952
866.793	2910
866.924	2891
867.055	2986
867.186	2937
867.317	2876
867.448	2887
867.579	2864
867.71	2902
867.841	2845
867.972	2922
868.103	2944
868.233	2872
868.364	2922
868.495	2948
868.625	3081
868.756	3161
868.886	2960
869.017	3020
869.147	3195
869.278	3180
869.408	3085
869.539	3024
869.669	3131
869.799	3062
869.929	3154
870.06	3097
870.19	3351
870.32	3291
870.45	3298
870.58	3378
870.71	3488
870.84	3507
870.97	3306
871.1	3253
871.23	3466
871.36	3473
871.489	3359
871.619	3428
871.749	3393
871.879	3435
872.008	3492
872.138	3382
872.267	3294
872.397	3161
872.526	3119
872.656	3001
872.785	3100
872.915	3211
873.044	3332
873.173	3233
873.303	3253
873.432	3253
873.561	3253
873.69	3165
873.819	3169
873.948	3203
874.077	3108
874.206	3074
874.335	3119
874.464	3233
874.593	3378
874.722	3260
874.851	3412
874.979	3351
875.108	3275
875.237	3176
875.365	3165
875.494	3192
875.623	3249
875.751	3066
875.88	3123
876.008	3207
876.136	3218
876.265	3374
876.393	3511
876.521	3416
876.65	3393
876.778	3344
876.906	3260
877.034	3218
877.162	3226
877.29	3218
877.418	3275
877.546	3256
877.674	3256
877.802	3222
877.93	3275
878.058	3157
878.185	3081
878.313	3211
878.441	3249
878.568	3066
878.696	3131
878.824	3256
878.951	3340
879.079	3447
879.206	3564
879.333	3450
879.461	3344
879.588	3412
879.715	3469
879.842	3622
879.97	3409
880.097	3161
880.224	3173
880.351	3176
880.478	3195
880.605	3192
880.732	3188
880.859	3519
880.986	3298
881.112	3332
881.239	3226
881.366	3100
881.493	3032
881.619	3017
881.746	3100
881.872	3093
881.999	3085
882.125	3150
882.252	3211
882.378	3272
882.505	3435
882.631	3302
882.757	3157
882.883	3237
883.01	3222
883.136	3192
883.262	3097
883.388	3176
883.514	3313
883.64	3359
883.766	3325
883.892	3176
884.018	3275
884.143	3439
884.269	3530
884.395	3226
884.52	3161
884.646	3195
884.772	3173
884.897	3112
885.023	3249
885.148	3363
885.274	3462
885.399	3393
885.524	3275
885.65	3310
885.775	3302
885.9	3298
886.025	3412
886.15	3405
886.275	3313
886.4	3230
886.525	3332
886.65	3249
886.775	3287
886.9	3473
887.025	3599
887.149	3424
887.274	3253
887.399	3184
887.523	3173
887.648	3199
887.773	3199
887.897	3374
888.021	3424
888.146	3329
888.27	3443
888.395	3534
888.519	3447
888.643	3409
888.767	3462
888.891	3302
889.015	3253
889.139	3291
889.263	3218
889.387	3416
889.511	3515
889.635	3439
889.759	3256
889.883	3294
890.006	3393
890.13	3473
890.254	3283
890.377	3321
890.501	3192
890.624	3161
890.748	3291
890.871	3180
890.995	3104
891.118	3085
891.241	3173
891.364	3233
891.488	3291
891.611	3180
891.734	3260
891.857	3313
891.98	3245
892.103	3332
892.226	3287
892.349	3214
892.471	3116
892.594	3253
892.717	3256
892.839	3302
892.962	3249
893.085	3325
893.207	3283
893.33	3119
893.452	3214
893.575	3370
893.697	3233
893.819	3443
893.941	3507
894.064	3485
894.186	3256
894.308	3249
894.43	3439
894.552	3549
894.674	3435
894.796	3294
894.918	3332
895.04	3279
895.161	3431
895.283	3393
895.405	3306
895.526	3351
895.648	3412
895.769	3409
895.891	3420
896.012	3477
896.134	3428
896.255	3405
896.376	3382
896.498	3378
896.619	3462
896.74	3370
896.861	3401
896.982	3656
897.103	3842
897.224	3644
897.345	3523
897.466	3428
897.587	3511
897.708	3633
897.828	3549
897.949	3435
898.07	3291
898.19	3428
898.311	3591
898.431	3454
898.552	3492
898.672	3614
898.792	3576
898.913	3557
899.033	3420
899.153	3275
899.273	3230
899.393	3253
899.513	3287
899.633	3340
899.753	3325
899.873	3302
899.993	3348
900.113	3351
900.232	3382
900.352	3367
900.472	3336
900.591	3173
900.711	3291
900.83	3241
900.95	3409
901.069	3496
901.189	3332
901.308	3184
901.427	3154
901.546	3195
901.665	3268
901.784	3325
901.904	3211
902.023	3176
902.141	2975
902.26	2975
902.379	3123
902.498	3085
902.617	3051
902.735	3195
902.854	3253
902.973	3199
903.091	3077
903.21	3058
903.328	3135
903.446	3116
903.565	3097
903.683	3199
903.801	3150
903.919	3245
904.038	3294
904.156	3195
904.274	3237
904.392	3241
904.51	3272
904.627	3332
904.745	3454
904.863	3519
904.981	3298
905.098	3173
905.216	3249
905.334	3306
905.451	3306
905.569	3325
905.686	3462
905.803	3431
905.921	3275
906.038	3450
906.155	3374
906.272	3264
906.389	3370
906.506	3253
906.623	3203
906.74	3272
906.857	3176
906.974	3230
907.091	3466
907.208	3564
907.324	3462
907.441	3393
907.557	3237
907.674	3230
907.79	3237
907.907	3317
908.023	3359
908.139	3367
908.256	3306
908.372	3409
908.488	3355
908.604	3233
908.72	3230
908.836	3291
908.952	3294
909.068	3344
909.184	3507
909.3	3367
909.415	3496
909.531	3447
909.647	3283
909.762	3298
909.878	3264
909.993	3374
910.108	3348
910.224	3310
910.339	3428
910.454	3325
910.57	3294
910.685	3249
910.8	3618
910.915	3511
911.03	3420
911.145	3230
911.259	3253
911.374	3340
911.489	3214
911.604	3233
911.718	3108
911.833	3138
911.947	3039
912.062	2982
912.176	3169
912.291	3199
912.405	3176
912.519	3401
912.633	3447
912.748	3382
912.862	3268
912.976	3176
913.09	3077
913.204	3131
913.318	3207
913.431	3367
913.545	3294
913.659	3393
913.772	3321
913.886	3218
914	3199
914.113	3348
914.226	3416
914.34	3393
914.453	3230
914.566	3386
914.68	3283
914.793	3287
914.906	3131
915.019	3116
915.132	3051
915.245	3161
915.358	3230
915.47	3230
915.583	3264
915.696	3298
915.809	3382
915.921	3447
916.034	3245
916.146	3268
916.259	3188
916.371	3382
916.483	3310
916.595	3222
916.708	3317
916.82	3279
916.932	3386
917.044	3405
917.156	3332
917.268	3272
917.38	3340
917.491	3264
917.603	3332
917.715	3462
917.826	3473
917.938	3355
918.049	3264
918.161	3428
918.272	3587
918.384	3553
918.495	3496
918.606	3336
918.717	3268
918.828	3348
918.939	3412
919.05	3306
919.161	3370
919.272	3161
919.383	3294
919.494	3496
919.604	3656
919.715	3496
919.826	3424
919.936	3431
920.047	3576
920.157	3534
920.267	3740
920.378	3576
920.488	3496
920.598	3797
920.708	3975
920.818	3808
920.928	3831
921.038	4036
921.148	3964
921.258	3682
921.368	3663
921.477	3603
921.587	3553
921.697	3458
921.806	3633
921.916	3534
922.025	3348
922.134	3370
922.244	3310
922.353	3435
922.462	3264
922.571	3287
922.68	3077
922.789	3077
922.898	3131
923.007	3081
923.116	3211
923.224	3184
923.333	3211
923.442	3085
923.55	3081
923.659	3104
923.767	3237
923.876	3123
923.984	3241
924.092	3097
924.201	3199
924.309	3211
924.417	3272
924.525	3180
924.633	3241
924.741	4002
924.849	3058
924.956	3256
925.064	3108
925.172	3055
925.279	3085
925.387	3195
925.494	3199
925.602	3351
925.709	3351
925.816	3161
925.924	3291
926.031	3355
926.138	3348
926.245	3348
926.352	3241
926.459	3424
926.566	3473
926.673	3325
926.779	3233
926.886	3253
926.993	3142
927.099	3104
927.206	3119
927.312	3150
927.419	3241
927.525	3214
927.631	3256
927.737	3154
927.843	3097
927.95	3020
928.056	3176
928.162	3157
928.267	3272
928.373	3876
928.479	3260
928.585	3074
928.69	3211
928.796	3298
928.901	3131
929.007	3047
929.112	3203
929.218	3142
929.323	3127
929.428	3161
929.533	3302
929.638	3123
929.743	3169
929.848	3264
929.953	3173
930.058	3123
930.163	2975
930.267	3051
930.372	3222
930.477	3009
930.581	3336
930.685	3142
930.79	3020
930.894	3135
930.998	3058
931.103	3291
931.207	2971
931.311	2941
931.415	2906
931.519	2766
931.623	2830
