Data from test_V78500241_1766.txt Node
Date: Fri Mar 25 16:27:26 CST 2022
User: usil
Spectrometer: V785-0024
Trigger mode: 0
Integration Time (sec): 4.000000E-1
Scans to average: 1
Nonlinearity correction enabled: false
Boxcar width: 0
Storing dark spectrum: false
XAxis mode: Wavelengths
Number of Pixels in Spectrum: 1024
>>>>>Begin Spectral Data<<<<<
801.071	2948
801.214	3009
801.356	2891
801.499	2914
801.641	2910
801.783	2994
801.926	3062
802.068	3032
802.211	3058
802.353	3089
802.496	2948
802.638	3020
802.78	3074
802.923	3081
803.065	3062
803.208	2960
803.35	2933
803.492	2990
803.635	2944
803.777	2800
803.919	2876
804.061	3256
804.204	2979
804.346	2944
804.488	2872
804.63	3013
804.773	2876
804.915	2918
805.057	3077
805.199	2941
805.341	2990
805.483	3055
805.626	3036
805.768	2998
805.91	3119
806.052	3157
806.194	3024
806.336	3233
806.478	3043
806.62	2975
806.762	2998
806.904	3043
807.046	3180
807.188	2963
807.33	2906
807.472	3009
807.614	2899
807.756	3001
807.898	2952
808.04	2941
808.182	2998
808.324	2952
808.465	2933
808.607	2891
808.749	2807
808.891	2853
809.033	2979
809.174	3005
809.316	2929
809.458	2933
809.6	2773
809.741	2777
809.883	2788
810.025	2857
810.166	2868
810.308	2864
810.45	2857
810.591	2804
810.733	2804
810.875	2834
811.016	2819
811.158	2800
811.299	2811
811.441	2952
811.582	2887
811.724	2842
811.865	2842
812.007	2937
812.148	2902
812.29	2838
812.431	2922
812.573	2948
812.714	2971
812.855	3039
812.997	3058
813.138	3138
813.279	3032
813.421	2998
813.562	2979
813.703	2872
813.845	2899
813.986	2819
814.127	2762
814.268	2807
814.41	2864
814.551	2815
814.692	2880
814.833	2834
814.974	2880
815.115	2956
815.256	2853
815.397	2823
815.539	2861
815.68	2781
815.821	2823
815.962	2990
816.103	2952
816.244	2902
816.385	2868
816.526	2963
816.666	2899
816.807	2804
816.948	2891
817.089	2910
817.23	2857
817.371	2830
817.512	2807
817.653	2861
817.793	2819
817.934	2902
818.075	2979
818.216	3005
818.356	3005
818.497	2906
818.638	2815
818.778	2861
818.919	2849
819.06	2777
819.2	2880
819.341	2819
819.481	2826
819.622	2952
819.762	3100
819.903	3039
820.043	2960
820.184	2906
820.324	2861
820.465	3028
820.605	3024
820.746	3039
820.886	2952
821.026	3119
821.167	3211
821.307	3264
821.447	3313
821.588	3272
821.728	3214
821.868	3176
822.008	3066
822.149	3199
822.289	3253
822.429	3127
822.569	3097
822.709	3184
822.849	3028
822.99	3097
823.13	3154
823.27	3199
823.41	3127
823.55	3131
823.69	3138
823.83	3192
823.97	3119
824.11	3017
824.25	3005
824.389	3074
824.529	3142
824.669	3074
824.809	3173
824.949	3256
825.089	3214
825.228	3142
825.368	3028
825.508	2982
825.648	3032
825.787	2990
825.927	2998
826.067	2998
826.206	2986
826.346	3055
826.485	3089
826.625	3112
826.765	3291
826.904	3203
827.044	2986
827.183	2922
827.323	2861
827.462	2990
827.601	2899
827.741	2979
827.88	2994
828.02	2876
828.159	2979
828.298	3032
828.437	3138
828.577	3058
828.716	3233
828.855	3131
828.994	2918
829.134	2868
829.273	2937
829.412	2868
829.551	2891
829.69	2876
829.829	3036
829.968	3131
830.107	3017
830.246	3032
830.385	2937
830.524	2876
830.663	2845
830.802	2746
830.941	2644
831.08	2667
831.219	2754
831.357	2773
831.496	2941
831.635	2735
831.774	2659
831.913	2651
832.051	2568
832.19	2610
832.329	2659
832.467	2541
832.606	2492
832.744	2579
832.883	2636
833.022	2579
833.16	2629
833.299	2686
833.437	2670
833.576	2724
833.714	2701
833.852	2720
833.991	2807
834.129	2815
834.267	2830
834.406	2777
834.544	2891
834.682	2891
834.821	2864
834.959	3070
835.097	2906
835.235	3043
835.373	3020
835.511	3055
835.65	2956
835.788	2998
835.926	2842
836.064	2796
836.202	2838
836.34	3089
836.478	3154
836.615	3058
836.753	3131
836.891	3214
837.029	3173
837.167	3135
837.305	3093
837.443	3062
837.58	2960
837.718	3157
837.856	3074
837.993	3009
838.131	3142
838.269	3097
838.406	3104
838.544	3077
838.681	2952
838.819	2899
838.956	2826
839.094	2842
839.231	2918
839.369	3058
839.506	3401
839.643	3222
839.781	3036
839.918	2944
840.055	3051
840.193	3062
840.33	3077
840.467	3085
840.604	3207
840.742	3409
840.879	3066
841.016	3085
841.153	3112
841.29	3374
841.427	3302
841.564	3241
841.701	3279
841.838	3199
841.975	3199
842.112	3203
842.249	3058
842.385	3032
842.522	3253
842.659	3104
842.796	3051
842.933	3085
843.069	3043
843.206	3024
843.343	3180
843.479	3100
843.616	3135
843.752	2910
843.889	2811
844.025	3024
844.162	2883
844.298	3085
844.435	2963
844.571	2864
844.708	3093
844.844	3173
844.98	3226
845.117	3211
845.253	3089
845.389	3017
845.525	3093
845.661	3131
845.798	3001
845.934	3131
846.07	3020
846.206	3226
846.342	3351
846.478	3207
846.614	3100
846.75	3058
846.886	3055
847.022	3249
847.158	3085
847.294	3188
847.429	3237
847.565	3214
847.701	3431
847.837	3020
847.972	3001
848.108	3176
848.244	3131
848.379	3009
848.515	2922
848.65	2963
848.786	2960
848.921	3005
849.057	3135
849.192	3154
849.328	3081
849.463	3116
849.598	3036
849.734	3028
849.869	2971
850.004	2914
850.14	2956
850.275	2899
850.41	2849
850.545	2899
850.68	2910
850.815	2956
850.95	2952
851.085	3161
851.22	3127
851.355	3036
851.49	2986
851.625	2998
851.76	3028
851.895	2918
852.03	2895
852.165	3017
852.299	3089
852.434	3207
852.569	3142
852.703	3192
852.838	3218
852.973	3336
853.107	3302
853.242	3157
853.376	3119
853.511	2986
853.645	3028
853.78	3226
853.914	3123
854.048	3093
854.183	3119
854.317	3100
854.451	3253
854.585	3119
854.72	3066
854.854	3203
854.988	3036
855.122	3089
855.256	3001
855.39	3127
855.524	3256
855.658	3176
855.792	3127
855.926	3173
856.06	3233
856.194	3253
856.327	3146
856.461	3070
856.595	3089
856.729	3081
856.862	3176
856.996	3165
857.13	3195
857.263	3218
857.397	3256
857.53	3077
857.664	3207
857.797	3264
857.931	3272
858.064	3157
858.197	3211
858.331	3119
858.464	3104
858.597	2986
858.731	3135
858.864	3108
858.997	3055
859.13	3116
859.263	3146
859.396	3176
859.529	3070
859.662	3074
859.795	3058
859.928	3154
860.061	3310
860.194	3272
860.327	3127
860.46	3058
860.592	3245
860.725	3264
860.858	3272
860.99	3131
861.123	3055
861.256	3043
861.388	3146
861.521	3857
861.653	3036
861.786	3001
861.918	2975
862.05	3074
862.183	3093
862.315	3146
862.447	3192
862.58	3055
862.712	2918
862.844	2872
862.976	3013
863.108	2982
863.24	3306
863.372	2864
863.504	2948
863.636	2906
863.768	3024
863.9	2960
864.032	2914
864.164	2922
864.296	3013
864.428	3089
864.559	3100
864.691	3062
864.823	3066
864.954	3032
865.086	3043
865.217	3009
865.349	2986
865.48	2967
865.612	2956
865.743	3157
865.875	2986
866.006	2990
866.137	3009
866.269	2998
866.4	2929
866.531	2906
866.662	2883
866.793	2902
866.924	2902
867.055	2982
867.186	2922
867.317	2876
867.448	2807
867.579	2815
867.71	2861
867.841	2830
867.972	2925
868.103	2876
868.233	2902
868.364	2864
868.495	2895
868.625	3062
868.756	3135
868.886	2986
869.017	3005
869.147	3188
869.278	3142
869.408	3051
869.539	3020
869.669	3089
869.799	3058
869.929	3150
870.06	3097
870.19	3332
870.32	3253
870.45	3279
870.58	3359
870.71	3450
870.84	3397
870.97	3313
871.1	3199
871.23	3477
871.36	3469
871.489	3359
871.619	3424
871.749	3416
871.879	3473
872.008	3500
872.138	3401
872.267	3264
872.397	3173
872.526	3085
872.656	2986
872.785	3100
872.915	3222
873.044	3306
873.173	3199
873.303	3253
873.432	3249
873.561	3253
873.69	3161
873.819	3165
873.948	3222
874.077	3100
874.206	3028
874.335	3104
874.464	3241
874.593	3351
874.722	3264
874.851	3386
874.979	3336
875.108	3329
875.237	3135
875.365	3154
875.494	3214
875.623	3245
875.751	3089
875.88	3097
876.008	3192
876.136	3222
876.265	3367
876.393	3504
876.521	3431
876.65	3397
876.778	3329
876.906	3249
877.034	3192
877.162	3207
877.29	3184
877.418	3298
877.546	3211
877.674	3233
877.802	3256
877.93	3233
878.058	3135
878.185	3131
878.313	3199
878.441	3214
878.568	3047
878.696	3097
878.824	3241
878.951	3291
879.079	3462
879.206	3622
879.333	3405
879.461	3294
879.588	3321
879.715	3500
879.842	3584
879.97	3412
880.097	3131
880.224	3138
880.351	3203
880.478	3199
880.605	3184
880.732	3195
880.859	3507
880.986	3329
881.112	3317
881.239	3169
881.366	3062
881.493	3028
881.619	3058
881.746	3089
881.872	3104
881.999	3093
882.125	3135
882.252	3264
882.378	3268
882.505	3428
882.631	3294
882.757	3131
882.883	3188
883.01	3256
883.136	3142
883.262	3108
883.388	3100
883.514	3321
883.64	3374
883.766	3287
883.892	3169
884.018	3211
884.143	3405
884.269	3530
884.395	3150
884.52	3192
884.646	3199
884.772	3077
884.897	3097
885.023	3184
885.148	3351
885.274	3428
885.399	3386
885.524	3268
885.65	3245
885.775	3329
885.9	3279
886.025	3405
886.15	3374
886.275	3256
886.4	3230
886.525	3317
886.65	3230
886.775	3306
886.9	3485
887.025	3625
887.149	3382
887.274	3298
887.399	3123
887.523	3207
887.648	3218
887.773	3180
887.897	3382
888.021	3428
888.146	3310
888.27	3401
888.395	3534
888.519	3428
888.643	3462
888.767	3450
888.891	3329
889.015	3260
889.139	3214
889.263	3272
889.387	3412
889.511	3507
889.635	3447
889.759	3275
889.883	3283
890.006	3332
890.13	3492
890.254	3275
890.377	3355
890.501	3184
890.624	3176
890.748	3283
890.871	3184
890.995	3081
891.118	3051
891.241	3192
891.364	3203
891.488	3344
891.611	3169
891.734	3272
891.857	3256
891.98	3253
892.103	3306
892.226	3294
892.349	3222
892.471	3123
892.594	3245
892.717	3253
892.839	3272
892.962	3310
893.085	3332
893.207	3325
893.33	3138
893.452	3199
893.575	3317
893.697	3230
893.819	3428
893.941	3504
894.064	3431
894.186	3279
894.308	3268
894.43	3431
894.552	3564
894.674	3496
894.796	3279
894.918	3291
895.04	3291
895.161	3424
895.283	3435
895.405	3329
895.526	3367
895.648	3424
895.769	3424
895.891	3454
896.012	3466
896.134	3488
896.255	3416
896.376	3374
896.498	3351
896.619	3397
896.74	3351
896.861	3439
896.982	3686
897.103	3865
897.224	3568
897.345	3485
897.466	3424
897.587	3469
897.708	3614
897.828	3507
897.949	3416
898.07	3325
898.19	3405
898.311	3587
898.431	3428
898.552	3519
898.672	3587
898.792	3587
898.913	3526
899.033	3363
899.153	3283
899.273	3211
899.393	3260
899.513	3272
899.633	3264
899.753	3386
899.873	3291
899.993	3382
900.113	3329
900.232	3367
900.352	3344
900.472	3283
900.591	3214
900.711	3321
900.83	3249
900.95	3401
901.069	3466
901.189	3336
901.308	3211
901.427	3123
901.546	3207
901.665	3283
901.784	3332
901.904	3203
902.023	3142
902.141	2986
902.26	3017
902.379	3146
902.498	3074
902.617	3070
902.735	3203
902.854	3233
902.973	3192
903.091	3020
903.21	3074
903.328	3123
903.446	3119
903.565	3112
903.683	3169
903.801	3097
903.919	3260
904.038	3287
904.156	3169
904.274	3321
904.392	3230
904.51	3256
904.627	3332
904.745	3447
904.863	3469
904.981	3268
905.098	3180
905.216	3253
905.334	3298
905.451	3249
905.569	3302
905.686	3435
905.803	3450
905.921	3325
906.038	3447
906.155	3351
906.272	3256
906.389	3351
906.506	3207
906.623	3264
906.74	3279
906.857	3192
906.974	3279
907.091	3420
907.208	3523
907.324	3477
907.441	3420
907.557	3260
907.674	3272
907.79	3188
907.907	3256
908.023	3382
908.139	3344
908.256	3329
908.372	3367
908.488	3363
908.604	3264
908.72	3226
908.836	3268
908.952	3264
909.068	3325
909.184	3477
909.3	3382
909.415	3458
909.531	3481
909.647	3268
909.762	3325
909.878	3272
909.993	3340
910.108	3306
910.224	3340
910.339	3367
910.454	3321
910.57	3294
910.685	3241
910.8	3580
910.915	3545
911.03	3462
911.145	3268
911.259	3253
911.374	3321
911.489	3253
911.604	3222
911.718	3135
911.833	3146
911.947	3047
912.062	2967
912.176	3127
912.291	3184
912.405	3203
912.519	3397
912.633	3428
912.748	3351
912.862	3279
912.976	3135
913.09	3024
913.204	3142
913.318	3207
913.431	3348
913.545	3306
913.659	3370
913.772	3321
913.886	3237
914	3211
914.113	3355
914.226	3412
914.34	3367
914.453	3226
914.566	3367
914.68	3317
914.793	3321
914.906	3161
915.019	3108
915.132	3085
915.245	3211
915.358	3222
915.47	3249
915.583	3245
915.696	3298
915.809	3405
915.921	3412
916.034	3268
916.146	3279
916.259	3214
916.371	3389
916.483	3363
916.595	3253
916.708	3332
916.82	3329
916.932	3355
917.044	3317
917.156	3329
917.268	3233
917.38	3287
917.491	3310
917.603	3325
917.715	3420
917.826	3420
917.938	3351
918.049	3279
918.161	3431
918.272	3553
918.384	3587
918.495	3473
918.606	3370
918.717	3321
918.828	3397
918.939	3412
919.05	3302
919.161	3386
919.272	3146
919.383	3275
919.494	3507
919.604	3698
919.715	3477
919.826	3374
919.936	3466
920.047	3553
920.157	3511
920.267	3781
920.378	3591
920.488	3572
920.598	3778
920.708	3930
920.818	3835
920.928	3789
921.038	4025
921.148	3953
921.258	3720
921.368	3641
921.477	3553
921.587	3545
921.697	3473
921.806	3644
921.916	3530
922.025	3336
922.134	3363
922.244	3313
922.353	3420
922.462	3268
922.571	3230
922.68	3104
922.789	3070
922.898	3081
923.007	3119
923.116	3173
923.224	3207
923.333	3157
923.442	3127
923.55	3097
923.659	3154
923.767	3203
923.876	3097
923.984	3226
924.092	3066
924.201	3218
924.309	3230
924.417	3249
924.525	3211
924.633	3245
924.741	3991
924.849	3036
924.956	3241
925.064	3097
925.172	3028
925.279	3104
925.387	3195
925.494	3203
925.602	3348
925.709	3321
925.816	3195
925.924	3260
926.031	3370
926.138	3329
926.245	3340
926.352	3237
926.459	3412
926.566	3428
926.673	3317
926.779	3233
926.886	3230
926.993	3135
927.099	3100
927.206	3108
927.312	3123
927.419	3218
927.525	3203
927.631	3241
927.737	3138
927.843	3135
927.95	3058
928.056	3112
928.162	3165
928.267	3249
928.373	3819
928.479	3302
928.585	3051
928.69	3157
928.796	3218
928.901	3173
929.007	3039
929.112	3214
929.218	3138
929.323	3146
929.428	3131
929.533	3348
929.638	3146
929.743	3161
929.848	3275
929.953	3199
930.058	3097
930.163	3005
930.267	3058
930.372	3218
930.477	3043
930.581	3340
930.685	3207
930.79	3055
930.894	3100
930.998	3112
931.103	3268
931.207	2937
931.311	2975
931.415	2899
931.519	2743
931.623	2807
