Data from test_V78500241_1044.txt Node
Date: Fri Mar 25 16:22:26 CST 2022
User: usil
Spectrometer: V785-0024
Trigger mode: 0
Integration Time (sec): 4.000000E-1
Scans to average: 1
Nonlinearity correction enabled: false
Boxcar width: 0
Storing dark spectrum: false
XAxis mode: Wavelengths
Number of Pixels in Spectrum: 1024
>>>>>Begin Spectral Data<<<<<
801.071	2895
801.214	2937
801.356	2880
801.499	2868
801.641	2864
801.783	2933
801.926	3036
802.068	2986
802.211	2986
802.353	3028
802.496	2944
802.638	3017
802.78	3017
802.923	3058
803.065	3017
803.208	2902
803.35	2925
803.492	2895
803.635	2922
803.777	2773
803.919	2861
804.061	3218
804.204	2952
804.346	2876
804.488	2842
804.63	2975
804.773	2883
804.915	2887
805.057	3081
805.199	2941
805.341	2975
805.483	3024
805.626	3013
805.768	2948
805.91	3058
806.052	3127
806.194	3055
806.336	3218
806.478	3028
806.62	2952
806.762	2967
806.904	3020
807.046	3176
807.188	2979
807.33	2941
807.472	2986
807.614	2918
807.756	2994
807.898	2906
808.04	2902
808.182	2952
808.324	2967
808.465	2845
808.607	2876
808.749	2792
808.891	2880
809.033	2982
809.174	2960
809.316	2883
809.458	2906
809.6	2796
809.741	2762
809.883	2773
810.025	2845
810.166	2883
810.308	2819
810.45	2876
810.591	2788
810.733	2754
810.875	2872
811.016	2750
811.158	2773
811.299	2785
811.441	2914
811.582	2868
811.724	2819
811.865	2834
812.007	2899
812.148	2902
812.29	2826
812.431	2891
812.573	2895
812.714	2963
812.855	3070
812.997	3085
813.138	3081
813.279	2990
813.421	3005
813.562	2971
813.703	2872
813.845	2887
813.986	2766
814.127	2735
814.268	2819
814.41	2842
814.551	2807
814.692	2883
814.833	2815
814.974	2937
815.115	2937
815.256	2845
815.397	2792
815.539	2830
815.68	2754
815.821	2804
815.962	2937
816.103	2944
816.244	2864
816.385	2899
816.526	2952
816.666	2956
816.807	2739
816.948	2880
817.089	2914
817.23	2823
817.371	2750
817.512	2781
817.653	2842
817.793	2826
817.934	2872
818.075	2975
818.216	2990
818.356	3020
818.497	2899
818.638	2819
818.778	2842
818.919	2800
819.06	2758
819.2	2868
819.341	2834
819.481	2773
819.622	2883
819.762	3089
819.903	3039
820.043	2948
820.184	2891
820.324	2880
820.465	3024
820.605	2990
820.746	3047
820.886	2918
821.026	3127
821.167	3127
821.307	3294
821.447	3253
821.588	3241
821.728	3188
821.868	3199
822.008	3051
822.149	3161
822.289	3256
822.429	3070
822.569	3119
822.709	3192
822.849	3020
822.99	3028
823.13	3127
823.27	3169
823.41	3074
823.55	3165
823.69	3135
823.83	3180
823.97	3097
824.11	3032
824.25	3032
824.389	3070
824.529	3131
824.669	3066
824.809	3180
824.949	3260
825.089	3237
825.228	3165
825.368	2990
825.508	2941
825.648	2986
825.787	3001
825.927	3017
826.067	2975
826.206	2960
826.346	3077
826.485	3058
826.625	3112
826.765	3264
826.904	3233
827.044	2994
827.183	2937
827.323	2883
827.462	2967
827.601	2925
827.741	2933
827.88	2975
828.02	2872
828.159	2960
828.298	3074
828.437	3085
828.577	3039
828.716	3226
828.855	3119
828.994	2895
829.134	2880
829.273	2937
829.412	2834
829.551	2819
829.69	2914
829.829	2975
829.968	3146
830.107	2994
830.246	3062
830.385	2891
830.524	2887
830.663	2804
830.802	2731
830.941	2651
831.08	2655
831.219	2750
831.357	2739
831.496	2982
831.635	2682
831.774	2636
831.913	2602
832.051	2541
832.19	2613
832.329	2686
832.467	2545
832.606	2465
832.744	2575
832.883	2594
833.022	2568
833.16	2621
833.299	2667
833.437	2682
833.576	2667
833.714	2727
833.852	2716
833.991	2758
834.129	2842
834.267	2815
834.406	2800
834.544	2891
834.682	2876
834.821	2918
834.959	3047
835.097	2899
835.235	3047
835.373	3020
835.511	3017
835.65	2975
835.788	2933
835.926	2796
836.064	2796
836.202	2819
836.34	3070
836.478	3146
836.615	3055
836.753	3123
836.891	3169
837.029	3138
837.167	3089
837.305	3028
837.443	3066
837.58	2944
837.718	3150
837.856	3058
837.993	3005
838.131	3127
838.269	3112
838.406	3085
838.544	3062
838.681	2963
838.819	2899
838.956	2849
839.094	2830
839.231	2880
839.369	3005
839.506	3351
839.643	3233
839.781	3051
839.918	2967
840.055	3013
840.193	3039
840.33	3024
840.467	3085
840.604	3119
840.742	3386
840.879	3013
841.016	3036
841.153	3100
841.29	3332
841.427	3294
841.564	3245
841.701	3310
841.838	3230
841.975	3199
842.112	3188
842.249	3058
842.385	3077
842.522	3230
842.659	3097
842.796	3005
842.933	3127
843.069	3062
843.206	3001
843.343	3180
843.479	3077
843.616	3135
843.752	2922
843.889	2880
844.025	3066
844.162	2868
844.298	3055
844.435	2937
844.571	2910
844.708	3081
844.844	3157
844.98	3237
845.117	3207
845.253	3077
845.389	3009
845.525	3097
845.661	3119
845.798	3032
845.934	3112
846.07	3055
846.206	3233
846.342	3283
846.478	3207
846.614	3066
846.75	3039
846.886	3009
847.022	3214
847.158	3123
847.294	3195
847.429	3268
847.565	3226
847.701	3450
847.837	3032
847.972	2941
848.108	3127
848.244	3146
848.379	2979
848.515	2922
848.65	2944
848.786	2975
848.921	3028
849.057	3093
849.192	3142
849.328	3070
849.463	3066
849.598	3077
849.734	3039
849.869	2975
850.004	2899
850.14	2948
850.275	2906
850.41	2826
850.545	2853
850.68	2948
850.815	2994
850.95	2933
851.085	3188
851.22	3074
851.355	3024
851.49	2952
851.625	3009
851.76	3039
851.895	2922
852.03	2891
852.165	3047
852.299	3070
852.434	3165
852.569	3161
852.703	3157
852.838	3218
852.973	3359
853.107	3313
853.242	3123
853.376	3081
853.511	2979
853.645	2990
853.78	3211
853.914	3131
854.048	3112
854.183	3062
854.317	3146
854.451	3294
854.585	3131
854.72	3100
854.854	3211
854.988	3013
855.122	3047
855.256	3005
855.39	3161
855.524	3230
855.658	3176
855.792	3119
855.926	3184
856.06	3226
856.194	3298
856.327	3157
856.461	3070
856.595	3085
856.729	3097
856.862	3180
856.996	3150
857.13	3176
857.263	3199
857.397	3249
857.53	3104
857.664	3199
857.797	3192
857.931	3230
858.064	3154
858.197	3233
858.331	3138
858.464	3104
858.597	3009
858.731	3108
858.864	3150
858.997	3131
859.13	3142
859.263	3138
859.396	3188
859.529	3097
859.662	3043
859.795	3036
859.928	3157
860.061	3310
860.194	3253
860.327	3123
860.46	3100
860.592	3233
860.725	3241
860.858	3249
860.99	3097
861.123	3043
861.256	3036
861.388	3154
861.521	3846
861.653	3024
861.786	2982
861.918	2975
862.05	3074
862.183	3097
862.315	3165
862.447	3211
862.58	3093
862.712	2948
862.844	2883
862.976	3074
863.108	2967
863.24	3412
863.372	2868
863.504	2922
863.636	2944
863.768	3009
863.9	2937
864.032	2918
864.164	2880
864.296	3001
864.428	3081
864.559	3058
864.691	3066
864.823	3051
864.954	3039
865.086	3074
865.217	3009
865.349	2929
865.48	2941
865.612	2963
865.743	3131
865.875	2979
866.006	2956
866.137	2967
866.269	2933
866.4	2902
866.531	2880
866.662	2876
866.793	2902
866.924	2914
867.055	2956
867.186	2925
867.317	2929
867.448	2815
867.579	2853
867.71	2842
867.841	2811
867.972	2891
868.103	2887
868.233	2899
868.364	2880
868.495	2857
868.625	3089
868.756	3165
868.886	2971
869.017	3028
869.147	3146
869.278	3157
869.408	3024
869.539	3024
869.669	3119
869.799	3013
869.929	3123
870.06	3085
870.19	3317
870.32	3249
870.45	3294
870.58	3363
870.71	3443
870.84	3401
870.97	3237
871.1	3211
871.23	3469
871.36	3435
871.489	3344
871.619	3424
871.749	3393
871.879	3424
872.008	3458
872.138	3321
872.267	3256
872.397	3146
872.526	3123
872.656	3028
872.785	3119
872.915	3245
873.044	3329
873.173	3211
873.303	3218
873.432	3226
873.561	3249
873.69	3157
873.819	3127
873.948	3192
874.077	3108
874.206	3043
874.335	3112
874.464	3211
874.593	3355
874.722	3233
874.851	3370
874.979	3329
875.108	3340
875.237	3199
875.365	3150
875.494	3154
875.623	3279
875.751	3085
875.88	3116
876.008	3176
876.136	3214
876.265	3397
876.393	3492
876.521	3405
876.65	3389
876.778	3351
876.906	3211
877.034	3150
877.162	3207
877.29	3173
877.418	3253
877.546	3218
877.674	3256
877.802	3214
877.93	3249
878.058	3150
878.185	3150
878.313	3165
878.441	3230
878.568	3058
878.696	3169
878.824	3214
878.951	3302
879.079	3439
879.206	3591
879.333	3416
879.461	3329
879.588	3378
879.715	3466
879.842	3648
879.97	3317
880.097	3192
880.224	3131
880.351	3192
880.478	3214
880.605	3214
880.732	3188
880.859	3481
880.986	3298
881.112	3268
881.239	3211
881.366	3085
881.493	3032
881.619	3043
881.746	3066
881.872	3058
881.999	3097
882.125	3127
882.252	3264
882.378	3294
882.505	3412
882.631	3272
882.757	3150
882.883	3203
883.01	3218
883.136	3123
883.262	3108
883.388	3112
883.514	3317
883.64	3359
883.766	3336
883.892	3207
884.018	3233
884.143	3428
884.269	3519
884.395	3211
884.52	3146
884.646	3199
884.772	3104
884.897	3104
885.023	3199
885.148	3325
885.274	3382
885.399	3344
885.524	3294
885.65	3260
885.775	3359
885.9	3237
886.025	3428
886.15	3359
886.275	3253
886.4	3253
886.525	3317
886.65	3287
886.775	3291
886.9	3466
887.025	3599
887.149	3412
887.274	3253
887.399	3195
887.523	3226
887.648	3165
887.773	3184
887.897	3382
888.021	3363
888.146	3272
888.27	3386
888.395	3542
888.519	3401
888.643	3473
888.767	3485
888.891	3340
889.015	3245
889.139	3298
889.263	3241
889.387	3370
889.511	3511
889.635	3412
889.759	3283
889.883	3298
890.006	3397
890.13	3488
890.254	3233
890.377	3329
890.501	3211
890.624	3165
890.748	3313
890.871	3165
890.995	3062
891.118	3062
891.241	3199
891.364	3241
891.488	3317
891.611	3157
891.734	3233
891.857	3306
891.98	3188
892.103	3325
892.226	3260
892.349	3237
892.471	3100
892.594	3218
892.717	3272
892.839	3317
892.962	3291
893.085	3348
893.207	3291
893.33	3207
893.452	3192
893.575	3336
893.697	3241
893.819	3458
893.941	3492
894.064	3447
894.186	3275
894.308	3245
894.43	3431
894.552	3530
894.674	3466
894.796	3253
894.918	3313
895.04	3283
895.161	3409
895.283	3393
895.405	3279
895.526	3355
895.648	3412
895.769	3405
895.891	3466
896.012	3469
896.134	3477
896.255	3401
896.376	3359
896.498	3409
896.619	3416
896.74	3317
896.861	3359
896.982	3694
897.103	3827
897.224	3591
897.345	3504
897.466	3473
897.587	3504
897.708	3603
897.828	3553
897.949	3439
898.07	3313
898.19	3424
898.311	3580
898.431	3447
898.552	3481
898.672	3618
898.792	3504
898.913	3504
899.033	3386
899.153	3287
899.273	3195
899.393	3294
899.513	3329
899.633	3306
899.753	3359
899.873	3275
899.993	3348
900.113	3348
900.232	3374
900.352	3336
900.472	3291
900.591	3207
900.711	3302
900.83	3256
900.95	3424
901.069	3488
901.189	3393
901.308	3195
901.427	3150
901.546	3161
901.665	3313
901.784	3321
901.904	3218
902.023	3138
902.141	3020
902.26	2956
902.379	3112
902.498	3051
902.617	3039
902.735	3207
902.854	3211
902.973	3207
903.091	3032
903.21	3043
903.328	3146
903.446	3100
903.565	3108
903.683	3192
903.801	3100
903.919	3207
904.038	3302
904.156	3146
904.274	3253
904.392	3207
904.51	3264
904.627	3340
904.745	3378
904.863	3515
904.981	3256
905.098	3123
905.216	3214
905.334	3272
905.451	3298
905.569	3317
905.686	3386
905.803	3469
905.921	3310
906.038	3397
906.155	3317
906.272	3249
906.389	3340
906.506	3195
906.623	3237
906.74	3245
906.857	3195
906.974	3256
907.091	3443
907.208	3519
907.324	3485
907.441	3351
907.557	3222
907.674	3237
907.79	3176
907.907	3298
908.023	3382
908.139	3370
908.256	3298
908.372	3336
908.488	3374
908.604	3264
908.72	3211
908.836	3279
908.952	3325
909.068	3348
909.184	3515
909.3	3355
909.415	3481
909.531	3515
909.647	3268
909.762	3310
909.878	3291
909.993	3355
910.108	3310
910.224	3348
910.339	3439
910.454	3325
910.57	3283
910.685	3207
910.8	3587
910.915	3515
911.03	3435
911.145	3275
911.259	3298
911.374	3302
911.489	3222
911.604	3230
911.718	3100
911.833	3142
911.947	3036
912.062	2982
912.176	3142
912.291	3218
912.405	3233
912.519	3469
912.633	3443
912.748	3317
912.862	3241
912.976	3154
913.09	3047
913.204	3188
913.318	3180
913.431	3336
913.545	3325
913.659	3435
913.772	3291
913.886	3203
914	3180
914.113	3310
914.226	3367
914.34	3325
914.453	3218
914.566	3409
914.68	3275
914.793	3321
914.906	3150
915.019	3077
915.132	3066
915.245	3161
915.358	3203
915.47	3214
915.583	3272
915.696	3256
915.809	3450
915.921	3431
916.034	3222
916.146	3283
916.259	3222
916.371	3348
916.483	3325
916.595	3283
916.708	3336
916.82	3302
916.932	3355
917.044	3340
917.156	3340
917.268	3241
917.38	3287
917.491	3306
917.603	3325
917.715	3447
917.826	3466
917.938	3409
918.049	3233
918.161	3443
918.272	3564
918.384	3511
918.495	3481
918.606	3329
918.717	3260
918.828	3389
918.939	3443
919.05	3283
919.161	3348
919.272	3222
919.383	3264
919.494	3504
919.604	3679
919.715	3488
919.826	3397
919.936	3420
920.047	3591
920.157	3538
920.267	3774
920.378	3591
920.488	3545
920.598	3812
920.708	3930
920.818	3808
920.928	3838
921.038	4006
921.148	4002
921.258	3686
921.368	3580
921.477	3542
921.587	3530
921.697	3469
921.806	3622
921.916	3500
922.025	3306
922.134	3348
922.244	3298
922.353	3401
922.462	3245
922.571	3226
922.68	3112
922.789	3055
922.898	3157
923.007	3081
923.116	3222
923.224	3184
923.333	3161
923.442	3089
923.55	3100
923.659	3138
923.767	3226
923.876	3097
923.984	3253
924.092	3089
924.201	3146
924.309	3241
924.417	3275
924.525	3142
924.633	3253
924.741	4162
924.849	3047
924.956	3233
925.064	3097
925.172	3036
925.279	3093
925.387	3218
925.494	3211
925.602	3351
925.709	3344
925.816	3188
925.924	3264
926.031	3435
926.138	3340
926.245	3348
926.352	3207
926.459	3412
926.566	3443
926.673	3298
926.779	3237
926.886	3249
926.993	3146
927.099	3135
927.206	3112
927.312	3066
927.419	3249
927.525	3188
927.631	3249
927.737	3100
927.843	3112
927.95	3013
928.056	3123
928.162	3142
928.267	3203
928.373	3857
928.479	3302
928.585	3051
928.69	3188
928.796	3279
928.901	3165
929.007	3024
929.112	3173
929.218	3192
929.323	3100
929.428	3127
929.533	3306
929.638	3123
929.743	3135
929.848	3264
929.953	3192
930.058	3127
930.163	2967
930.267	3051
930.372	3161
930.477	3028
930.581	3325
930.685	3173
930.79	3051
930.894	3119
930.998	3089
931.103	3272
931.207	2929
931.311	2933
931.415	2910
931.519	2796
931.623	2788
