Data from test_V78500241_780.txt Node
Date: Fri Mar 25 16:20:36 CST 2022
User: usil
Spectrometer: V785-0024
Trigger mode: 0
Integration Time (sec): 4.000000E-1
Scans to average: 1
Nonlinearity correction enabled: false
Boxcar width: 0
Storing dark spectrum: false
XAxis mode: Wavelengths
Number of Pixels in Spectrum: 1024
>>>>>Begin Spectral Data<<<<<
801.071	2883
801.214	2960
801.356	2857
801.499	2883
801.641	2845
801.783	2956
801.926	3062
802.068	2952
802.211	2994
802.353	3039
802.496	2960
802.638	2990
802.78	3024
802.923	3062
803.065	2979
803.208	2910
803.35	2899
803.492	2963
803.635	2937
803.777	2773
803.919	2868
804.061	3222
804.204	2960
804.346	2880
804.488	2830
804.63	2982
804.773	2842
804.915	2922
805.057	3104
805.199	2922
805.341	2944
805.483	3058
805.626	3020
805.768	3009
805.91	3108
806.052	3108
806.194	3043
806.336	3268
806.478	2986
806.62	2899
806.762	2933
806.904	3028
807.046	3169
807.188	2960
807.33	2891
807.472	2994
807.614	2895
807.756	2979
807.898	2899
808.04	2910
808.182	2948
808.324	2952
808.465	2887
808.607	2838
808.749	2800
808.891	2823
809.033	2933
809.174	2933
809.316	2902
809.458	2883
809.6	2796
809.741	2785
809.883	2746
810.025	2853
810.166	2853
810.308	2823
810.45	2849
810.591	2781
810.733	2735
810.875	2842
811.016	2769
811.158	2766
811.299	2773
811.441	2937
811.582	2914
811.724	2804
811.865	2815
812.007	2883
812.148	2864
812.29	2853
812.431	2861
812.573	2902
812.714	2986
812.855	3055
812.997	3024
813.138	3142
813.279	2994
813.421	2986
813.562	2956
813.703	2883
813.845	2895
813.986	2773
814.127	2743
814.268	2845
814.41	2845
814.551	2773
814.692	2872
814.833	2834
814.974	2868
815.115	2944
815.256	2823
815.397	2830
815.539	2899
815.68	2743
815.821	2781
815.962	2933
816.103	2910
816.244	2842
816.385	2849
816.526	2967
816.666	2948
816.807	2746
816.948	2899
817.089	2899
817.23	2826
817.371	2788
817.512	2807
817.653	2834
817.793	2838
817.934	2864
818.075	2967
818.216	3001
818.356	3013
818.497	2861
818.638	2769
818.778	2819
818.919	2792
819.06	2731
819.2	2872
819.341	2796
819.481	2819
819.622	2933
819.762	3127
819.903	3058
820.043	2941
820.184	2914
820.324	2876
820.465	3039
820.605	2982
820.746	2986
820.886	2925
821.026	3127
821.167	3150
821.307	3283
821.447	3241
821.588	3218
821.728	3180
821.868	3195
822.008	3093
822.149	3207
822.289	3230
822.429	3070
822.569	3066
822.709	3161
822.849	3020
822.99	3062
823.13	3180
823.27	3211
823.41	3104
823.55	3169
823.69	3131
823.83	3214
823.97	3104
824.11	2986
824.25	2990
824.389	3051
824.529	3081
824.669	3070
824.809	3169
824.949	3256
825.089	3218
825.228	3123
825.368	3039
825.508	2952
825.648	3001
825.787	2994
825.927	2994
826.067	2971
826.206	2975
826.346	3032
826.485	3074
826.625	3142
826.765	3237
826.904	3203
827.044	2963
827.183	2925
827.323	2826
827.462	2979
827.601	2948
827.741	2914
827.88	2944
828.02	2842
828.159	2971
828.298	3039
828.437	3093
828.577	3009
828.716	3237
828.855	3043
828.994	2918
829.134	2861
829.273	2902
829.412	2864
829.551	2838
829.69	2914
829.829	2975
829.968	3116
830.107	3032
830.246	3043
830.385	2929
830.524	2830
830.663	2807
830.802	2686
830.941	2667
831.08	2640
831.219	2743
831.357	2750
831.496	2967
831.635	2712
831.774	2651
831.913	2670
832.051	2507
832.19	2590
832.329	2693
832.467	2549
832.606	2492
832.744	2568
832.883	2568
833.022	2560
833.16	2651
833.299	2667
833.437	2663
833.576	2689
833.714	2712
833.852	2716
833.991	2777
834.129	2804
834.267	2807
834.406	2811
834.544	2849
834.682	2849
834.821	2872
834.959	3077
835.097	2868
835.235	3047
835.373	2960
835.511	3009
835.65	2967
835.788	2941
835.926	2804
836.064	2807
836.202	2838
836.34	3085
836.478	3173
836.615	3058
836.753	3104
836.891	3211
837.029	3142
837.167	3116
837.305	3077
837.443	3043
837.58	2922
837.718	3097
837.856	3032
837.993	3032
838.131	3081
838.269	3100
838.406	3074
838.544	3085
838.681	2956
838.819	2902
838.956	2807
839.094	2819
839.231	2937
839.369	2998
839.506	3386
839.643	3184
839.781	2998
839.918	2910
840.055	3036
840.193	3017
840.33	3043
840.467	3108
840.604	3135
840.742	3378
840.879	3028
841.016	3043
841.153	3074
841.29	3294
841.427	3306
841.564	3237
841.701	3291
841.838	3214
841.975	3169
842.112	3207
842.249	3058
842.385	3036
842.522	3256
842.659	3112
842.796	3066
842.933	3104
843.069	3047
843.206	3074
843.343	3131
843.479	3112
843.616	3138
843.752	2906
843.889	2883
844.025	3085
844.162	2868
844.298	3081
844.435	2948
844.571	2922
844.708	3074
844.844	3169
844.98	3214
845.117	3199
845.253	3066
845.389	3009
845.525	3081
845.661	3081
845.798	3028
845.934	3116
846.07	3036
846.206	3195
846.342	3306
846.478	3211
846.614	3055
846.75	3047
846.886	3032
847.022	3233
847.158	3123
847.294	3169
847.429	3214
847.565	3192
847.701	3488
847.837	3055
847.972	2982
848.108	3135
848.244	3142
848.379	2998
848.515	2925
848.65	2933
848.786	2986
848.921	3005
849.057	3112
849.192	3100
849.328	3058
849.463	3097
849.598	3055
849.734	3039
849.869	2998
850.004	2941
850.14	2937
850.275	2906
850.41	2819
850.545	2864
850.68	2914
850.815	2975
850.95	2956
851.085	3207
851.22	3104
851.355	3043
851.49	2967
851.625	3017
851.76	2971
851.895	2937
852.03	2933
852.165	2994
852.299	3100
852.434	3157
852.569	3131
852.703	3214
852.838	3241
852.973	3291
853.107	3294
853.242	3104
853.376	3062
853.511	2994
853.645	3043
853.78	3222
853.914	3123
854.048	3077
854.183	3089
854.317	3150
854.451	3260
854.585	3119
854.72	3066
854.854	3222
854.988	3058
855.122	3055
855.256	2967
855.39	3112
855.524	3245
855.658	3176
855.792	3135
855.926	3211
856.06	3241
856.194	3230
856.327	3135
856.461	3077
856.595	3077
856.729	3077
856.862	3207
856.996	3142
857.13	3180
857.263	3199
857.397	3321
857.53	3127
857.664	3165
857.797	3218
857.931	3256
858.064	3150
858.197	3230
858.331	3112
858.464	3081
858.597	3005
858.731	3116
858.864	3165
858.997	3089
859.13	3154
859.263	3195
859.396	3184
859.529	3074
859.662	3058
859.795	3062
859.928	3131
860.061	3260
860.194	3245
860.327	3138
860.46	3062
860.592	3253
860.725	3237
860.858	3321
860.99	3074
861.123	3024
861.256	3047
861.388	3150
861.521	3907
861.653	2982
861.786	2967
861.918	3020
862.05	3062
862.183	3070
862.315	3169
862.447	3184
862.58	3077
862.712	2941
862.844	2868
862.976	3013
863.108	2982
863.24	3431
863.372	2872
863.504	2948
863.636	2979
863.768	3024
863.9	3013
864.032	2891
864.164	2933
864.296	2990
864.428	3097
864.559	3123
864.691	3085
864.823	3077
864.954	3036
865.086	3028
865.217	2994
865.349	2963
865.48	3005
865.612	3009
865.743	3138
865.875	2971
866.006	2948
866.137	2948
866.269	2937
866.4	2948
866.531	2899
866.662	2925
866.793	2902
866.924	2842
867.055	2998
867.186	2887
867.317	2876
867.448	2788
867.579	2834
867.71	2819
867.841	2800
867.972	2872
868.103	2857
868.233	2872
868.364	2868
868.495	2876
868.625	3070
868.756	3116
868.886	2944
869.017	3009
869.147	3150
869.278	3123
869.408	3039
869.539	2998
869.669	3066
869.799	3032
869.929	3112
870.06	3058
870.19	3313
870.32	3272
870.45	3287
870.58	3397
870.71	3443
870.84	3447
870.97	3294
871.1	3222
871.23	3469
871.36	3424
871.489	3359
871.619	3397
871.749	3370
871.879	3412
872.008	3477
872.138	3348
872.267	3279
872.397	3104
872.526	3100
872.656	3017
872.785	3066
872.915	3230
873.044	3298
873.173	3218
873.303	3207
873.432	3222
873.561	3230
873.69	3188
873.819	3154
873.948	3169
874.077	3108
874.206	3032
874.335	3066
874.464	3207
874.593	3351
874.722	3203
874.851	3363
874.979	3310
875.108	3302
875.237	3165
875.365	3180
875.494	3146
875.623	3214
875.751	3051
875.88	3131
876.008	3154
876.136	3184
876.265	3374
876.393	3481
876.521	3401
876.65	3370
876.778	3268
876.906	3226
877.034	3184
877.162	3218
877.29	3195
877.418	3207
877.546	3253
877.674	3275
877.802	3226
877.93	3233
878.058	3154
878.185	3138
878.313	3211
878.441	3192
878.568	3127
878.696	3176
878.824	3222
878.951	3306
879.079	3435
879.206	3614
879.333	3416
879.461	3344
879.588	3416
879.715	3447
879.842	3561
879.97	3348
880.097	3176
880.224	3112
880.351	3192
880.478	3211
880.605	3138
880.732	3165
880.859	3500
880.986	3279
881.112	3306
881.239	3131
881.366	3077
881.493	3013
881.619	3032
881.746	3070
881.872	3093
881.999	3093
882.125	3150
882.252	3245
882.378	3317
882.505	3393
882.631	3256
882.757	3127
882.883	3184
883.01	3207
883.136	3154
883.262	3062
883.388	3093
883.514	3332
883.64	3359
883.766	3283
883.892	3173
884.018	3233
884.143	3386
884.269	3530
884.395	3173
884.52	3188
884.646	3131
884.772	3104
884.897	3077
885.023	3199
885.148	3302
885.274	3401
885.399	3401
885.524	3275
885.65	3237
885.775	3310
885.9	3287
886.025	3428
886.15	3325
886.275	3272
886.4	3199
886.525	3272
886.65	3256
886.775	3226
886.9	3534
887.025	3622
887.149	3329
887.274	3207
887.399	3184
887.523	3195
887.648	3146
887.773	3165
887.897	3313
888.021	3370
888.146	3313
888.27	3435
888.395	3504
888.519	3420
888.643	3443
888.767	3481
888.891	3275
889.015	3237
889.139	3260
889.263	3226
889.387	3367
889.511	3496
889.635	3435
889.759	3310
889.883	3268
890.006	3374
890.13	3500
890.254	3253
890.377	3348
890.501	3199
890.624	3161
890.748	3256
890.871	3150
890.995	3089
891.118	3039
891.241	3142
891.364	3199
891.488	3310
891.611	3131
891.734	3241
891.857	3272
891.98	3222
892.103	3306
892.226	3245
892.349	3207
892.471	3097
892.594	3199
892.717	3291
892.839	3268
892.962	3310
893.085	3332
893.207	3298
893.33	3150
893.452	3169
893.575	3332
893.697	3249
893.819	3431
893.941	3469
894.064	3424
894.186	3245
894.308	3253
894.43	3416
894.552	3519
894.674	3507
894.796	3253
894.918	3241
895.04	3294
895.161	3424
895.283	3389
895.405	3294
895.526	3389
895.648	3428
895.769	3420
895.891	3454
896.012	3462
896.134	3492
896.255	3416
896.376	3374
896.498	3409
896.619	3424
896.74	3447
896.861	3435
896.982	3694
897.103	3918
897.224	3599
897.345	3549
897.466	3416
897.587	3545
897.708	3633
897.828	3519
897.949	3447
898.07	3370
898.19	3439
898.311	3618
898.431	3462
898.552	3549
898.672	3637
898.792	3610
898.913	3545
899.033	3450
899.153	3355
899.273	3249
899.393	3351
899.513	3378
899.633	3355
899.753	3332
899.873	3355
899.993	3382
900.113	3351
900.232	3477
900.352	3340
900.472	3336
900.591	3222
900.711	3359
900.83	3272
900.95	3439
901.069	3523
901.189	3378
901.308	3256
901.427	3188
901.546	3222
901.665	3302
901.784	3359
901.904	3256
902.023	3199
902.141	3058
902.26	3039
902.379	3161
902.498	3127
902.617	3116
902.735	3272
902.854	3287
902.973	3226
903.091	3066
903.21	3123
903.328	3135
903.446	3138
903.565	3138
903.683	3256
903.801	3161
903.919	3275
904.038	3302
904.156	3226
904.274	3344
904.392	3317
904.51	3336
904.627	3367
904.745	3458
904.863	3587
904.981	3275
905.098	3176
905.216	3230
905.334	3310
905.451	3348
905.569	3386
905.686	3443
905.803	3485
905.921	3340
906.038	3447
906.155	3386
906.272	3310
906.389	3374
906.506	3245
906.623	3256
906.74	3325
906.857	3237
906.974	3321
907.091	3458
907.208	3637
907.324	3454
907.441	3397
907.557	3230
907.674	3253
907.79	3207
907.907	3329
908.023	3416
908.139	3382
908.256	3370
908.372	3393
908.488	3374
908.604	3245
908.72	3256
908.836	3340
908.952	3306
909.068	3359
909.184	3511
909.3	3397
909.415	3507
909.531	3504
909.647	3317
909.762	3359
909.878	3287
909.993	3382
910.108	3344
910.224	3355
910.339	3420
910.454	3351
910.57	3348
910.685	3245
910.8	3618
910.915	3610
911.03	3450
911.145	3291
911.259	3325
911.374	3367
911.489	3260
911.604	3298
911.718	3123
911.833	3180
911.947	3043
912.062	2994
912.176	3180
912.291	3214
912.405	3218
912.519	3447
912.633	3488
912.748	3382
912.862	3298
912.976	3157
913.09	3100
913.204	3142
913.318	3199
913.431	3340
913.545	3367
913.659	3420
913.772	3355
913.886	3237
914	3260
914.113	3374
914.226	3428
914.34	3447
914.453	3203
914.566	3428
914.68	3317
914.793	3321
914.906	3188
915.019	3142
915.132	3093
915.245	3233
915.358	3226
915.47	3237
915.583	3283
915.696	3287
915.809	3443
915.921	3466
916.034	3272
916.146	3302
916.259	3264
916.371	3382
916.483	3401
916.595	3275
916.708	3363
916.82	3401
916.932	3382
917.044	3370
917.156	3416
917.268	3272
917.38	3302
917.491	3378
917.603	3386
917.715	3454
917.826	3450
917.938	3412
918.049	3310
918.161	3443
918.272	3603
918.384	3587
918.495	3469
918.606	3382
918.717	3260
918.828	3382
918.939	3431
919.05	3340
919.161	3409
919.272	3211
919.383	3340
919.494	3545
919.604	3743
919.715	3477
919.826	3420
919.936	3473
920.047	3648
920.157	3610
920.267	3781
920.378	3648
920.488	3549
920.598	3831
920.708	3983
920.818	3857
920.928	3838
921.038	4029
921.148	4051
921.258	3728
921.368	3641
921.477	3584
921.587	3591
921.697	3488
921.806	3663
921.916	3507
922.025	3424
922.134	3374
922.244	3367
922.353	3492
922.462	3321
922.571	3253
922.68	3142
922.789	3089
922.898	3169
923.007	3104
923.116	3230
923.224	3173
923.333	3188
923.442	3131
923.55	3123
923.659	3211
923.767	3249
923.876	3142
923.984	3256
924.092	3169
924.201	3226
924.309	3253
924.417	3294
924.525	3195
924.633	3253
924.741	4207
924.849	3085
924.956	3306
925.064	3131
925.172	3119
925.279	3116
925.387	3237
925.494	3199
925.602	3393
925.709	3386
925.816	3218
925.924	3302
926.031	3393
926.138	3351
926.245	3389
926.352	3260
926.459	3420
926.566	3477
926.673	3344
926.779	3264
926.886	3291
926.993	3157
927.099	3157
927.206	3150
927.312	3135
927.419	3268
927.525	3245
927.631	3294
927.737	3150
927.843	3135
927.95	3062
928.056	3131
928.162	3192
928.267	3298
928.373	3778
928.479	3340
928.585	3070
928.69	3237
928.796	3298
928.901	3173
929.007	3047
929.112	3237
929.218	3199
929.323	3161
929.428	3173
929.533	3363
929.638	3127
929.743	3207
929.848	3302
929.953	3207
930.058	3165
930.163	3024
930.267	3024
930.372	3218
930.477	3055
930.581	3344
930.685	3199
930.79	3036
930.894	3123
930.998	3100
931.103	3332
931.207	2986
931.311	2967
931.415	2933
931.519	2792
931.623	2830
