Data from test_V78500241_1567.txt Node
Date: Fri Mar 25 16:26:03 CST 2022
User: usil
Spectrometer: V785-0024
Trigger mode: 0
Integration Time (sec): 4.000000E-1
Scans to average: 1
Nonlinearity correction enabled: false
Boxcar width: 0
Storing dark spectrum: false
XAxis mode: Wavelengths
Number of Pixels in Spectrum: 1024
>>>>>Begin Spectral Data<<<<<
801.071	2944
801.214	2956
801.356	2853
801.499	2941
801.641	2887
801.783	2956
801.926	3070
802.068	2967
802.211	3032
802.353	3036
802.496	2994
802.638	3028
802.78	3077
802.923	3131
803.065	2998
803.208	2876
803.35	2941
803.492	2967
803.635	2948
803.777	2773
803.919	2902
804.061	3203
804.204	2975
804.346	2902
804.488	2857
804.63	3005
804.773	2902
804.915	2941
805.057	3077
805.199	2944
805.341	2967
805.483	3036
805.626	3051
805.768	3013
805.91	3138
806.052	3150
806.194	3009
806.336	3226
806.478	2998
806.62	2929
806.762	2994
806.904	3036
807.046	3184
807.188	3009
807.33	2914
807.472	3051
807.614	2895
807.756	2998
807.898	2956
808.04	2941
808.182	2975
808.324	2967
808.465	2906
808.607	2868
808.749	2796
808.891	2838
809.033	3001
809.174	2979
809.316	2887
809.458	2902
809.6	2804
809.741	2785
809.883	2777
810.025	2857
810.166	2880
810.308	2891
810.45	2883
810.591	2766
810.733	2796
810.875	2838
811.016	2769
811.158	2773
811.299	2826
811.441	2941
811.582	2906
811.724	2807
811.865	2861
812.007	2899
812.148	2910
812.29	2883
812.431	2880
812.573	2941
812.714	2956
812.855	3055
812.997	3066
813.138	3085
813.279	3039
813.421	2979
813.562	2963
813.703	2876
813.845	2883
813.986	2785
814.127	2750
814.268	2842
814.41	2811
814.551	2804
814.692	2902
814.833	2815
814.974	2864
815.115	2952
815.256	2811
815.397	2819
815.539	2895
815.68	2762
815.821	2807
815.962	2990
816.103	2944
816.244	2906
816.385	2899
816.526	2986
816.666	2891
816.807	2754
816.948	2891
817.089	2929
817.23	2872
817.371	2792
817.512	2800
817.653	2823
817.793	2887
817.934	2922
818.075	2975
818.216	3024
818.356	3009
818.497	2864
818.638	2823
818.778	2842
818.919	2781
819.06	2773
819.2	2914
819.341	2826
819.481	2807
819.622	2895
819.762	3070
819.903	3039
820.043	2918
820.184	2914
820.324	2922
820.465	3039
820.605	3047
820.746	3013
820.886	2941
821.026	3116
821.167	3154
821.307	3272
821.447	3313
821.588	3275
821.728	3245
821.868	3226
822.008	3062
822.149	3195
822.289	3233
822.429	3089
822.569	3089
822.709	3165
822.849	3020
822.99	3097
823.13	3180
823.27	3180
823.41	3123
823.55	3131
823.69	3154
823.83	3233
823.97	3119
824.11	3013
824.25	3013
824.389	3081
824.529	3142
824.669	3089
824.809	3218
824.949	3253
825.089	3214
825.228	3176
825.368	3013
825.508	2952
825.648	2960
825.787	3036
825.927	3039
826.067	2975
826.206	2990
826.346	3066
826.485	3070
826.625	3108
826.765	3294
826.904	3218
827.044	3024
827.183	2963
827.323	2849
827.462	3013
827.601	2910
827.741	2952
827.88	2948
828.02	2891
828.159	3001
828.298	3051
828.437	3123
828.577	3074
828.716	3253
828.855	3138
828.994	2918
829.134	2914
829.273	2941
829.412	2868
829.551	2845
829.69	2902
829.829	3013
829.968	3131
830.107	3066
830.246	3032
830.385	2941
830.524	2883
830.663	2864
830.802	2746
830.941	2663
831.08	2674
831.219	2788
831.357	2777
831.496	2910
831.635	2727
831.774	2655
831.913	2629
832.051	2564
832.19	2613
832.329	2708
832.467	2571
832.606	2518
832.744	2571
832.883	2613
833.022	2613
833.16	2674
833.299	2705
833.437	2705
833.576	2750
833.714	2746
833.852	2754
833.991	2777
834.129	2826
834.267	2849
834.406	2815
834.544	2899
834.682	2883
834.821	2872
834.959	3036
835.097	2933
835.235	3112
835.373	3005
835.511	2998
835.65	2944
835.788	2998
835.926	2819
836.064	2823
836.202	2872
836.34	3085
836.478	3138
836.615	3066
836.753	3146
836.891	3188
837.029	3184
837.167	3104
837.305	3081
837.443	3066
837.58	3017
837.718	3135
837.856	3089
837.993	3058
838.131	3093
838.269	3097
838.406	3116
838.544	3077
838.681	2944
838.819	2918
838.956	2800
839.094	2857
839.231	2925
839.369	2979
839.506	3412
839.643	3184
839.781	2990
839.918	2971
840.055	3047
840.193	3020
840.33	3066
840.467	3157
840.604	3161
840.742	3416
840.879	3051
841.016	3051
841.153	3119
841.29	3348
841.427	3325
841.564	3264
841.701	3310
841.838	3222
841.975	3192
842.112	3188
842.249	3089
842.385	3005
842.522	3283
842.659	3074
842.796	3066
842.933	3131
843.069	3039
843.206	3043
843.343	3173
843.479	3093
843.616	3131
843.752	2922
843.889	2902
844.025	3085
844.162	2899
844.298	3070
844.435	2956
844.571	2929
844.708	3100
844.844	3161
844.98	3233
845.117	3199
845.253	3089
845.389	3055
845.525	3100
845.661	3131
845.798	3028
845.934	3138
846.07	3043
846.206	3245
846.342	3310
846.478	3253
846.614	3112
846.75	3066
846.886	3043
847.022	3264
847.158	3146
847.294	3203
847.429	3218
847.565	3226
847.701	3530
847.837	3020
847.972	3017
848.108	3146
848.244	3138
848.379	3001
848.515	2960
848.65	2967
848.786	2986
848.921	3047
849.057	3100
849.192	3161
849.328	3077
849.463	3077
849.598	3085
849.734	3058
849.869	2956
850.004	2891
850.14	2967
850.275	2914
850.41	2857
850.545	2880
850.68	2960
850.815	2963
850.95	2979
851.085	3199
851.22	3127
851.355	3055
851.49	3013
851.625	3024
851.76	2998
851.895	2960
852.03	2922
852.165	3062
852.299	3138
852.434	3150
852.569	3138
852.703	3211
852.838	3256
852.973	3325
853.107	3313
853.242	3119
853.376	3131
853.511	2956
853.645	3039
853.78	3245
853.914	3077
854.048	3116
854.183	3074
854.317	3138
854.451	3306
854.585	3123
854.72	3097
854.854	3199
854.988	3058
855.122	3093
855.256	2994
855.39	3119
855.524	3211
855.658	3176
855.792	3116
855.926	3161
856.06	3207
856.194	3260
856.327	3165
856.461	3085
856.595	3066
856.729	3116
856.862	3222
856.996	3135
857.13	3203
857.263	3237
857.397	3298
857.53	3108
857.664	3214
857.797	3237
857.931	3264
858.064	3127
858.197	3180
858.331	3154
858.464	3135
858.597	3013
858.731	3100
858.864	3093
858.997	3100
859.13	3119
859.263	3154
859.396	3176
859.529	3085
859.662	3077
859.795	3039
859.928	3142
860.061	3260
860.194	3294
860.327	3135
860.46	3093
860.592	3222
860.725	3272
860.858	3237
860.99	3074
861.123	3055
861.256	3024
861.388	3176
861.521	3865
861.653	3024
861.786	2963
861.918	2994
862.05	3058
862.183	3093
862.315	3123
862.447	3211
862.58	3085
862.712	2933
862.844	2887
862.976	3017
863.108	3017
863.24	3291
863.372	2872
863.504	2963
863.636	2944
863.768	3043
863.9	2971
864.032	2880
864.164	2982
864.296	2998
864.428	3070
864.559	3070
864.691	3070
864.823	3066
864.954	3055
865.086	2998
865.217	2990
865.349	2948
865.48	3001
865.612	3017
865.743	3119
865.875	2982
866.006	2941
866.137	2941
866.269	2952
866.4	2906
866.531	2941
866.662	2922
866.793	2891
866.924	2922
867.055	3005
867.186	2925
867.317	2864
867.448	2849
867.579	2872
867.71	2849
867.841	2815
867.972	2891
868.103	2925
868.233	2902
868.364	2853
868.495	2868
868.625	3055
868.756	3161
868.886	2956
869.017	3009
869.147	3131
869.278	3135
869.408	3055
869.539	3062
869.669	3089
869.799	3028
869.929	3123
870.06	3104
870.19	3298
870.32	3264
870.45	3310
870.58	3367
870.71	3473
870.84	3401
870.97	3298
871.1	3245
871.23	3496
871.36	3450
871.489	3363
871.619	3393
871.749	3409
871.879	3473
872.008	3500
872.138	3367
872.267	3264
872.397	3157
872.526	3070
872.656	2994
872.785	3135
872.915	3249
873.044	3298
873.173	3233
873.303	3233
873.432	3256
873.561	3222
873.69	3135
873.819	3150
873.948	3188
874.077	3119
874.206	3047
874.335	3089
874.464	3203
874.593	3336
874.722	3256
874.851	3389
874.979	3329
875.108	3325
875.237	3207
875.365	3173
875.494	3173
875.623	3226
875.751	3089
875.88	3135
876.008	3176
876.136	3222
876.265	3370
876.393	3469
876.521	3431
876.65	3389
876.778	3348
876.906	3245
877.034	3192
877.162	3222
877.29	3173
877.418	3256
877.546	3253
877.674	3237
877.802	3241
877.93	3218
878.058	3169
878.185	3081
878.313	3195
878.441	3233
878.568	3104
878.696	3150
878.824	3241
878.951	3329
879.079	3473
879.206	3595
879.333	3462
879.461	3351
879.588	3378
879.715	3500
879.842	3591
879.97	3416
880.097	3226
880.224	3135
880.351	3157
880.478	3207
880.605	3207
880.732	3207
880.859	3504
880.986	3325
881.112	3336
881.239	3173
881.366	3085
881.493	3039
881.619	2994
881.746	3116
881.872	3055
881.999	3070
882.125	3108
882.252	3214
882.378	3306
882.505	3439
882.631	3294
882.757	3169
882.883	3188
883.01	3253
883.136	3146
883.262	3100
883.388	3135
883.514	3325
883.64	3370
883.766	3332
883.892	3180
884.018	3253
884.143	3393
884.269	3561
884.395	3199
884.52	3188
884.646	3165
884.772	3123
884.897	3070
885.023	3226
885.148	3306
885.274	3397
885.399	3359
885.524	3253
885.65	3275
885.775	3310
885.9	3268
886.025	3397
886.15	3344
886.275	3306
886.4	3218
886.525	3268
886.65	3241
886.775	3260
886.9	3496
887.025	3652
887.149	3393
887.274	3245
887.399	3184
887.523	3203
887.648	3188
887.773	3218
887.897	3351
888.021	3393
888.146	3287
888.27	3378
888.395	3549
888.519	3428
888.643	3439
888.767	3466
888.891	3321
889.015	3226
889.139	3302
889.263	3245
889.387	3405
889.511	3481
889.635	3462
889.759	3313
889.883	3302
890.006	3332
890.13	3504
890.254	3256
890.377	3329
890.501	3195
890.624	3135
890.748	3329
890.871	3165
890.995	3100
891.118	3062
891.241	3195
891.364	3249
891.488	3313
891.611	3176
891.734	3199
891.857	3272
891.98	3211
892.103	3336
892.226	3275
892.349	3222
892.471	3104
892.594	3203
892.717	3302
892.839	3256
892.962	3256
893.085	3351
893.207	3287
893.33	3142
893.452	3218
893.575	3359
893.697	3237
893.819	3492
893.941	3504
894.064	3450
894.186	3302
894.308	3287
894.43	3428
894.552	3545
894.674	3473
894.796	3298
894.918	3279
895.04	3279
895.161	3409
895.283	3355
895.405	3298
895.526	3336
895.648	3416
895.769	3454
895.891	3473
896.012	3405
896.134	3481
896.255	3412
896.376	3412
896.498	3359
896.619	3439
896.74	3355
896.861	3367
896.982	3656
897.103	3823
897.224	3622
897.345	3526
897.466	3424
897.587	3481
897.708	3599
897.828	3538
897.949	3420
898.07	3317
898.19	3389
898.311	3587
898.431	3466
898.552	3511
898.672	3587
898.792	3568
898.913	3538
899.033	3378
899.153	3336
899.273	3226
899.393	3279
899.513	3325
899.633	3306
899.753	3329
899.873	3283
899.993	3370
900.113	3298
900.232	3374
900.352	3367
900.472	3294
900.591	3188
900.711	3336
900.83	3218
900.95	3412
901.069	3504
901.189	3355
901.308	3157
901.427	3138
901.546	3173
901.665	3241
901.784	3355
901.904	3214
902.023	3169
902.141	2986
902.26	2975
902.379	3150
902.498	3017
902.617	3058
902.735	3211
902.854	3222
902.973	3192
903.091	3036
903.21	3066
903.328	3131
903.446	3081
903.565	3123
903.683	3218
903.801	3112
903.919	3230
904.038	3253
904.156	3165
904.274	3294
904.392	3256
904.51	3283
904.627	3340
904.745	3454
904.863	3469
904.981	3237
905.098	3207
905.216	3195
905.334	3264
905.451	3325
905.569	3306
905.686	3416
905.803	3462
905.921	3302
906.038	3416
906.155	3374
906.272	3287
906.389	3317
906.506	3230
906.623	3214
906.74	3306
906.857	3180
906.974	3241
907.091	3424
907.208	3553
907.324	3485
907.441	3359
907.557	3237
907.674	3226
907.79	3214
907.907	3256
908.023	3382
908.139	3359
908.256	3336
908.372	3409
908.488	3340
908.604	3249
908.72	3218
908.836	3298
908.952	3287
909.068	3268
909.184	3469
909.3	3397
909.415	3485
909.531	3462
909.647	3253
909.762	3279
909.878	3275
909.993	3332
910.108	3363
910.224	3367
910.339	3386
910.454	3332
910.57	3306
910.685	3268
910.8	3584
910.915	3549
911.03	3435
911.145	3298
911.259	3253
911.374	3310
911.489	3207
911.604	3245
911.718	3104
911.833	3135
911.947	3036
912.062	2963
912.176	3161
912.291	3188
912.405	3184
912.519	3435
912.633	3477
912.748	3325
912.862	3256
912.976	3154
913.09	3074
913.204	3119
913.318	3165
913.431	3310
913.545	3344
913.659	3382
913.772	3310
913.886	3199
914	3211
914.113	3313
914.226	3393
914.34	3382
914.453	3207
914.566	3405
914.68	3325
914.793	3332
914.906	3100
915.019	3131
915.132	3077
915.245	3188
915.358	3188
915.47	3241
915.583	3298
915.696	3329
915.809	3443
915.921	3389
916.034	3260
916.146	3275
916.259	3218
916.371	3374
916.483	3329
916.595	3283
916.708	3329
916.82	3287
916.932	3344
917.044	3332
917.156	3317
917.268	3268
917.38	3298
917.491	3302
917.603	3348
917.715	3447
917.826	3466
917.938	3370
918.049	3260
918.161	3412
918.272	3553
918.384	3568
918.495	3477
918.606	3336
918.717	3237
918.828	3363
918.939	3401
919.05	3291
919.161	3348
919.272	3180
919.383	3249
919.494	3492
919.604	3671
919.715	3462
919.826	3431
919.936	3435
920.047	3606
920.157	3576
920.267	3766
920.378	3603
920.488	3595
920.598	3755
920.708	3960
920.818	3854
920.928	3812
921.038	4036
921.148	4029
921.258	3686
921.368	3614
921.477	3622
921.587	3542
921.697	3473
921.806	3663
921.916	3496
922.025	3336
922.134	3306
922.244	3367
922.353	3386
922.462	3264
922.571	3233
922.68	3131
922.789	3070
922.898	3116
923.007	3112
923.116	3176
923.224	3173
923.333	3195
923.442	3051
923.55	3108
923.659	3169
923.767	3207
923.876	3116
923.984	3184
924.092	3154
924.201	3237
924.309	3214
924.417	3218
924.525	3188
924.633	3253
924.741	4192
924.849	3077
924.956	3275
925.064	3100
925.172	3024
925.279	3032
925.387	3173
925.494	3165
925.602	3397
925.709	3306
925.816	3214
925.924	3287
926.031	3382
926.138	3355
926.245	3401
926.352	3279
926.459	3389
926.566	3481
926.673	3310
926.779	3268
926.886	3245
926.993	3119
927.099	3119
927.206	3108
927.312	3116
927.419	3222
927.525	3154
927.631	3264
927.737	3154
927.843	3119
927.95	3043
928.056	3123
928.162	3203
928.267	3253
928.373	3884
928.479	3294
928.585	3058
928.69	3207
928.796	3275
928.901	3176
929.007	3032
929.112	3199
929.218	3157
929.323	3138
929.428	3138
929.533	3325
929.638	3112
929.743	3180
929.848	3268
929.953	3199
930.058	3150
930.163	2994
930.267	3081
930.372	3176
930.477	3028
930.581	3310
930.685	3169
930.79	3036
930.894	3123
930.998	3081
931.103	3241
931.207	2971
931.311	2929
931.415	2880
931.519	2785
931.623	2834
