Data from test_V78500241_101.txt Node
Date: Fri Mar 25 16:15:54 CST 2022
User: usil
Spectrometer: V785-0024
Trigger mode: 0
Integration Time (sec): 4.000000E-1
Scans to average: 1
Nonlinearity correction enabled: false
Boxcar width: 0
Storing dark spectrum: false
XAxis mode: Wavelengths
Number of Pixels in Spectrum: 1024
>>>>>Begin Spectral Data<<<<<
801.071	3001
801.214	3020
801.356	2963
801.499	2979
801.641	2933
801.783	3028
801.926	3112
802.068	3097
802.211	3051
802.353	3135
802.496	3051
802.638	3047
802.78	3116
802.923	3169
803.065	3058
803.208	3017
803.35	2979
803.492	2986
803.635	3005
803.777	2838
803.919	2914
804.061	3275
804.204	3036
804.346	2986
804.488	2906
804.63	3039
804.773	2948
804.915	2982
805.057	3161
805.199	2979
805.341	3055
805.483	3093
805.626	3062
805.768	3055
805.91	3146
806.052	3131
806.194	3108
806.336	3310
806.478	3077
806.62	3032
806.762	2994
806.904	3104
807.046	3180
807.188	3013
807.33	2937
807.472	3039
807.614	2963
807.756	3066
807.898	3001
808.04	2948
808.182	3039
808.324	3028
808.465	2941
808.607	2925
808.749	2910
808.891	2895
809.033	3058
809.174	3032
809.316	2952
809.458	2937
809.6	2826
809.741	2807
809.883	2807
810.025	2895
810.166	2918
810.308	2902
810.45	2922
810.591	2826
810.733	2796
810.875	2906
811.016	2834
811.158	2800
811.299	2895
811.441	2975
811.582	2963
811.724	2876
811.865	2872
812.007	2986
812.148	2933
812.29	2883
812.431	2963
812.573	2967
812.714	3039
812.855	3112
812.997	3100
813.138	3180
813.279	3093
813.421	3058
813.562	3028
813.703	2887
813.845	2918
813.986	2834
814.127	2785
814.268	2880
814.41	2868
814.551	2899
814.692	2941
814.833	2868
814.974	2944
815.115	3005
815.256	2922
815.397	2864
815.539	2910
815.68	2811
815.821	2845
815.962	3024
816.103	3013
816.244	2914
816.385	2925
816.526	3005
816.666	2982
816.807	2792
816.948	2941
817.089	2944
817.23	2887
817.371	2842
817.512	2826
817.653	2895
817.793	2883
817.934	2929
818.075	2982
818.216	3024
818.356	3093
818.497	2933
818.638	2815
818.778	2880
818.919	2849
819.06	2800
819.2	2933
819.341	2849
819.481	2838
819.622	2971
819.762	3157
819.903	3093
820.043	2986
820.184	2944
820.324	2933
820.465	3055
820.605	3104
820.746	3051
820.886	2967
821.026	3154
821.167	3237
821.307	3294
821.447	3348
821.588	3298
821.728	3222
821.868	3264
822.008	3123
822.149	3241
822.289	3291
822.429	3161
822.569	3081
822.709	3249
822.849	3100
822.99	3138
823.13	3211
823.27	3253
823.41	3184
823.55	3195
823.69	3192
823.83	3230
823.97	3169
824.11	3028
824.25	3066
824.389	3123
824.529	3154
824.669	3093
824.809	3226
824.949	3302
825.089	3260
825.228	3207
825.368	3043
825.508	3005
825.648	2998
825.787	3036
825.927	3077
826.067	3009
826.206	2998
826.346	3108
826.485	3146
826.625	3180
826.765	3294
826.904	3241
827.044	3039
827.183	2971
827.323	2910
827.462	3028
827.601	2952
827.741	2979
827.88	3009
828.02	2868
828.159	3039
828.298	3074
828.437	3188
828.577	3112
828.716	3302
828.855	3123
828.994	2979
829.134	2918
829.273	2975
829.412	2937
829.551	2914
829.69	2922
829.829	3055
829.968	3180
830.107	3055
830.246	3047
830.385	3020
830.524	2933
830.663	2876
830.802	2769
830.941	2701
831.08	2727
831.219	2811
831.357	2796
831.496	2979
831.635	2777
831.774	2667
831.913	2705
832.051	2594
832.19	2594
832.329	2712
832.467	2571
832.606	2537
832.744	2625
832.883	2629
833.022	2640
833.16	2693
833.299	2724
833.437	2743
833.576	2735
833.714	2735
833.852	2788
833.991	2785
834.129	2895
834.267	2861
834.406	2845
834.544	2899
834.682	2941
834.821	2902
834.959	3077
835.097	2933
835.235	3097
835.373	3055
835.511	3043
835.65	2994
835.788	3001
835.926	2876
836.064	2845
836.202	2891
836.34	3165
836.478	3207
836.615	3100
836.753	3176
836.891	3272
837.029	3188
837.167	3146
837.305	3089
837.443	3089
837.58	3009
837.718	3203
837.856	3123
837.993	3074
838.131	3173
838.269	3146
838.406	3131
838.544	3104
838.681	2956
838.819	2975
838.956	2868
839.094	2842
839.231	2937
839.369	3074
839.506	3431
839.643	3249
839.781	3051
839.918	2971
840.055	3058
840.193	3062
840.33	3085
840.467	3150
840.604	3195
840.742	3424
840.879	3066
841.016	3093
841.153	3157
841.29	3367
841.427	3329
841.564	3329
841.701	3332
841.838	3272
841.975	3226
842.112	3237
842.249	3108
842.385	3093
842.522	3332
842.659	3142
842.796	3123
842.933	3138
843.069	3051
843.206	3112
843.343	3207
843.479	3165
843.616	3176
843.752	2941
843.889	2925
844.025	3142
844.162	2948
844.298	3131
844.435	2967
844.571	2960
844.708	3157
844.844	3256
844.98	3283
845.117	3272
845.253	3108
845.389	3028
845.525	3123
845.661	3138
845.798	3062
845.934	3165
846.07	3104
846.206	3283
846.342	3359
846.478	3287
846.614	3131
846.75	3097
846.886	3039
847.022	3275
847.158	3192
847.294	3226
847.429	3329
847.565	3253
847.701	3538
847.837	3112
847.972	3097
848.108	3203
848.244	3161
848.379	3017
848.515	3017
848.65	2952
848.786	2963
848.921	3047
849.057	3112
849.192	3199
849.328	3150
849.463	3135
849.598	3119
849.734	3097
849.869	3024
850.004	2933
850.14	3028
850.275	2944
850.41	2899
850.545	2925
850.68	2922
850.815	2994
850.95	2986
851.085	3241
851.22	3146
851.355	3055
851.49	2994
851.625	3020
851.76	3081
851.895	2933
852.03	2956
852.165	3089
852.299	3138
852.434	3211
852.569	3176
852.703	3222
852.838	3275
852.973	3363
853.107	3359
853.242	3192
853.376	3135
853.511	3028
853.645	3093
853.78	3249
853.914	3180
854.048	3142
854.183	3104
854.317	3195
854.451	3329
854.585	3165
854.72	3135
854.854	3226
854.988	3047
855.122	3085
855.256	3024
855.39	3127
855.524	3275
855.658	3207
855.792	3188
855.926	3253
856.06	3291
856.194	3283
856.327	3192
856.461	3116
856.595	3135
856.729	3138
856.862	3207
856.996	3192
857.13	3222
857.263	3272
857.397	3298
857.53	3150
857.664	3237
857.797	3294
857.931	3279
858.064	3188
858.197	3249
858.331	3165
858.464	3157
858.597	3039
858.731	3150
858.864	3165
858.997	3123
859.13	3199
859.263	3233
859.396	3214
859.529	3108
859.662	3119
859.795	3074
859.928	3176
860.061	3306
860.194	3313
860.327	3146
860.46	3150
860.592	3275
860.725	3325
860.858	3260
860.99	3154
861.123	3055
861.256	3070
861.388	3138
861.521	3751
861.653	3081
861.786	3051
861.918	3017
862.05	3043
862.183	3150
862.315	3176
862.447	3256
862.58	3146
862.712	3001
862.844	2906
862.976	3017
863.108	3028
863.24	3454
863.372	2933
863.504	3028
863.636	2956
863.768	3032
863.9	3024
864.032	2918
864.164	2971
864.296	3081
864.428	3085
864.559	3157
864.691	3097
864.823	3058
864.954	3051
865.086	3081
865.217	3020
865.349	2994
865.48	2994
865.612	3043
865.743	3154
865.875	3005
866.006	2994
866.137	2994
866.269	2960
866.4	2975
866.531	2952
866.662	2948
866.793	2887
866.924	2918
867.055	2986
867.186	2922
867.317	2868
867.448	2872
867.579	2872
867.71	2891
867.841	2902
867.972	2941
868.103	2925
868.233	2937
868.364	2910
868.495	2967
868.625	3070
868.756	3218
868.886	2975
869.017	3077
869.147	3207
869.278	3214
869.408	3093
869.539	3062
869.669	3154
869.799	3093
869.929	3176
870.06	3119
870.19	3355
870.32	3294
870.45	3329
870.58	3416
870.71	3462
870.84	3515
870.97	3348
871.1	3272
871.23	3523
871.36	3549
871.489	3363
871.619	3439
871.749	3462
871.879	3443
872.008	3515
872.138	3393
872.267	3329
872.397	3192
872.526	3150
872.656	3051
872.785	3112
872.915	3268
873.044	3325
873.173	3237
873.303	3268
873.432	3249
873.561	3260
873.69	3211
873.819	3214
873.948	3233
874.077	3138
874.206	3085
874.335	3097
874.464	3237
874.593	3405
874.722	3294
874.851	3397
874.979	3367
875.108	3325
875.237	3237
875.365	3184
875.494	3161
875.623	3275
875.751	3146
875.88	3131
876.008	3268
876.136	3268
876.265	3378
876.393	3545
876.521	3435
876.65	3401
876.778	3389
876.906	3306
877.034	3233
877.162	3272
877.29	3203
877.418	3256
877.546	3253
877.674	3313
877.802	3279
877.93	3249
878.058	3218
878.185	3180
878.313	3222
878.441	3241
878.568	3104
878.696	3173
878.824	3268
878.951	3313
879.079	3500
879.206	3652
879.333	3485
879.461	3378
879.588	3363
879.715	3504
879.842	3637
879.97	3412
880.097	3218
880.224	3180
880.351	3226
880.478	3272
880.605	3260
880.732	3211
880.859	3545
880.986	3325
881.112	3367
881.239	3199
881.366	3119
881.493	3074
881.619	3024
881.746	3077
881.872	3138
881.999	3150
882.125	3184
882.252	3291
882.378	3344
882.505	3477
882.631	3310
882.757	3180
882.883	3203
883.01	3241
883.136	3207
883.262	3157
883.388	3150
883.514	3336
883.64	3397
883.766	3336
883.892	3169
884.018	3291
884.143	3447
884.269	3618
884.395	3245
884.52	3180
884.646	3230
884.772	3169
884.897	3112
885.023	3253
885.148	3321
885.274	3435
885.399	3393
885.524	3298
885.65	3268
885.775	3332
885.9	3306
886.025	3428
886.15	3397
886.275	3336
886.4	3253
886.525	3355
886.65	3287
886.775	3287
886.9	3496
887.025	3667
887.149	3431
887.274	3291
887.399	3180
887.523	3211
887.648	3207
887.773	3222
887.897	3382
888.021	3428
888.146	3306
888.27	3443
888.395	3568
888.519	3477
888.643	3473
888.767	3504
888.891	3348
889.015	3325
889.139	3272
889.263	3287
889.387	3443
889.511	3534
889.635	3454
889.759	3325
889.883	3310
890.006	3409
890.13	3549
890.254	3336
890.377	3348
890.501	3203
890.624	3260
890.748	3355
890.871	3176
890.995	3131
891.118	3127
891.241	3237
891.364	3253
891.488	3397
891.611	3203
891.734	3260
891.857	3298
891.98	3253
892.103	3397
892.226	3298
892.349	3222
892.471	3138
892.594	3260
892.717	3310
892.839	3306
892.962	3287
893.085	3370
893.207	3302
893.33	3169
893.452	3268
893.575	3386
893.697	3268
893.819	3473
893.941	3492
894.064	3481
894.186	3291
894.308	3272
894.43	3462
894.552	3564
894.674	3530
894.796	3294
894.918	3348
895.04	3302
895.161	3439
895.283	3397
895.405	3340
895.526	3367
895.648	3435
895.769	3443
895.891	3473
896.012	3473
896.134	3500
896.255	3454
896.376	3412
896.498	3389
896.619	3462
896.74	3378
896.861	3405
896.982	3728
897.103	3899
897.224	3606
897.345	3545
897.466	3439
897.587	3519
897.708	3637
897.828	3603
897.949	3450
898.07	3412
898.19	3485
898.311	3633
898.431	3519
898.552	3526
898.672	3610
898.792	3629
898.913	3492
899.033	3443
899.153	3325
899.273	3283
899.393	3283
899.513	3355
899.633	3351
899.753	3374
899.873	3351
899.993	3386
900.113	3351
900.232	3443
900.352	3389
900.472	3321
900.591	3203
900.711	3329
900.83	3283
900.95	3420
901.069	3519
901.189	3367
901.308	3222
901.427	3119
901.546	3222
901.665	3275
901.784	3321
901.904	3214
902.023	3195
902.141	3036
902.26	3024
902.379	3184
902.498	3116
902.617	3093
902.735	3226
902.854	3260
902.973	3230
903.091	3097
903.21	3089
903.328	3165
903.446	3131
903.565	3093
903.683	3211
903.801	3173
903.919	3211
904.038	3325
904.156	3218
904.274	3298
904.392	3260
904.51	3313
904.627	3336
904.745	3443
904.863	3523
904.981	3279
905.098	3165
905.216	3249
905.334	3321
905.451	3336
905.569	3389
905.686	3431
905.803	3485
905.921	3325
906.038	3431
906.155	3412
906.272	3313
906.389	3363
906.506	3287
906.623	3287
906.74	3275
906.857	3157
906.974	3249
907.091	3500
907.208	3584
907.324	3473
907.441	3409
907.557	3249
907.674	3268
907.79	3249
907.907	3272
908.023	3450
908.139	3416
908.256	3291
908.372	3447
908.488	3329
908.604	3306
908.72	3294
908.836	3336
908.952	3302
909.068	3370
909.184	3481
909.3	3424
909.415	3515
909.531	3477
909.647	3310
909.762	3336
909.878	3294
909.993	3370
910.108	3386
910.224	3382
910.339	3382
910.454	3348
910.57	3313
910.685	3294
910.8	3622
910.915	3538
911.03	3469
911.145	3302
911.259	3329
911.374	3340
911.489	3268
911.604	3253
911.718	3131
911.833	3161
911.947	3070
912.062	3009
912.176	3199
912.291	3226
912.405	3230
912.519	3435
912.633	3538
912.748	3367
912.862	3325
912.976	3165
913.09	3127
913.204	3150
913.318	3233
913.431	3405
913.545	3363
913.659	3428
913.772	3367
913.886	3245
914	3226
914.113	3344
914.226	3447
914.34	3397
914.453	3237
914.566	3473
914.68	3275
914.793	3329
914.906	3104
915.019	3089
915.132	3119
915.245	3218
915.358	3230
915.47	3256
915.583	3279
915.696	3332
915.809	3405
915.921	3485
916.034	3294
916.146	3310
916.259	3237
916.371	3431
916.483	3370
916.595	3264
916.708	3378
916.82	3363
916.932	3363
917.044	3393
917.156	3412
917.268	3306
917.38	3325
917.491	3329
917.603	3409
917.715	3462
917.826	3496
917.938	3409
918.049	3317
918.161	3447
918.272	3633
918.384	3606
918.495	3507
918.606	3374
918.717	3306
918.828	3435
918.939	3450
919.05	3287
919.161	3397
919.272	3195
919.383	3329
919.494	3504
919.604	3709
919.715	3515
919.826	3420
919.936	3504
920.047	3622
920.157	3599
920.267	3770
920.378	3629
920.488	3625
920.598	3827
920.708	4006
920.818	3876
920.928	3857
921.038	4063
921.148	3998
921.258	3759
921.368	3648
921.477	3641
921.587	3599
921.697	3492
921.806	3652
921.916	3580
922.025	3382
922.134	3382
922.244	3355
922.353	3420
922.462	3340
922.571	3260
922.68	3142
922.789	3097
922.898	3199
923.007	3119
923.116	3237
923.224	3233
923.333	3230
923.442	3154
923.55	3074
923.659	3154
923.767	3230
923.876	3138
923.984	3275
924.092	3138
924.201	3214
924.309	3226
924.417	3237
924.525	3192
924.633	3268
924.741	4238
924.849	3089
924.956	3317
925.064	3104
925.172	3039
925.279	3112
925.387	3241
925.494	3218
925.602	3355
925.709	3359
925.816	3211
925.924	3329
926.031	3439
926.138	3340
926.245	3386
926.352	3291
926.459	3424
926.566	3504
926.673	3386
926.779	3264
926.886	3287
926.993	3173
927.099	3150
927.206	3135
927.312	3127
927.419	3260
927.525	3226
927.631	3321
927.737	3135
927.843	3123
927.95	3039
928.056	3165
928.162	3222
928.267	3272
928.373	3778
928.479	3359
928.585	3077
928.69	3222
928.796	3283
928.901	3173
929.007	3036
929.112	3192
929.218	3218
929.323	3211
929.428	3154
929.533	3313
929.638	3131
929.743	3195
929.848	3298
929.953	3237
930.058	3192
930.163	3013
930.267	3089
930.372	3245
930.477	3055
930.581	3336
930.685	3195
930.79	3093
930.894	3150
930.998	3081
931.103	3268
931.207	3036
931.311	2986
931.415	2941
931.519	2807
931.623	2800
