Data from test_V78500241_903.txt Node
Date: Fri Mar 25 16:21:27 CST 2022
User: usil
Spectrometer: V785-0024
Trigger mode: 0
Integration Time (sec): 4.000000E-1
Scans to average: 1
Nonlinearity correction enabled: false
Boxcar width: 0
Storing dark spectrum: false
XAxis mode: Wavelengths
Number of Pixels in Spectrum: 1024
>>>>>Begin Spectral Data<<<<<
801.071	2929
801.214	2998
801.356	2845
801.499	2861
801.641	2857
801.783	2895
801.926	3028
802.068	2960
802.211	2982
802.353	3055
802.496	2941
802.638	3020
802.78	3036
802.923	3055
803.065	2986
803.208	2918
803.35	2891
803.492	2902
803.635	2918
803.777	2754
803.919	2857
804.061	3218
804.204	2944
804.346	2887
804.488	2872
804.63	3009
804.773	2842
804.915	2933
805.057	3051
805.199	2914
805.341	3009
805.483	3032
805.626	2979
805.768	2971
805.91	3085
806.052	3097
806.194	3036
806.336	3226
806.478	3024
806.62	2948
806.762	2971
806.904	3047
807.046	3165
807.188	2990
807.33	2906
807.472	2963
807.614	2941
807.756	2963
807.898	2922
808.04	2880
808.182	2948
808.324	2944
808.465	2899
808.607	2853
808.749	2838
808.891	2819
809.033	2925
809.174	2963
809.316	2899
809.458	2876
809.6	2781
809.741	2762
809.883	2762
810.025	2823
810.166	2861
810.308	2853
810.45	2872
810.591	2762
810.733	2785
810.875	2849
811.016	2796
811.158	2750
811.299	2796
811.441	2948
811.582	2899
811.724	2811
811.865	2830
812.007	2876
812.148	2868
812.29	2834
812.431	2872
812.573	2967
812.714	2941
812.855	3020
812.997	3020
813.138	3123
813.279	3005
813.421	2967
813.562	2960
813.703	2872
813.845	2880
813.986	2785
814.127	2754
814.268	2815
814.41	2826
814.551	2807
814.692	2868
814.833	2823
814.974	2876
815.115	2941
815.256	2823
815.397	2777
815.539	2872
815.68	2762
815.821	2796
815.962	2925
816.103	2922
816.244	2857
816.385	2853
816.526	2948
816.666	2925
816.807	2724
816.948	2887
817.089	2887
817.23	2872
817.371	2773
817.512	2815
817.653	2830
817.793	2861
817.934	2891
818.075	2967
818.216	2971
818.356	3009
818.497	2864
818.638	2792
818.778	2826
818.919	2804
819.06	2777
819.2	2845
819.341	2796
819.481	2804
819.622	2899
819.762	3077
819.903	3058
820.043	2941
820.184	2895
820.324	2880
820.465	2994
820.605	3028
820.746	3032
820.886	2933
821.026	3100
821.167	3192
821.307	3283
821.447	3226
821.588	3256
821.728	3203
821.868	3192
822.008	3058
822.149	3173
822.289	3218
822.429	3104
822.569	3123
822.709	3180
822.849	3005
822.99	3043
823.13	3176
823.27	3214
823.41	3123
823.55	3104
823.69	3180
823.83	3176
823.97	3112
824.11	2975
824.25	2979
824.389	3028
824.529	3097
824.669	3055
824.809	3176
824.949	3272
825.089	3203
825.228	3150
825.368	2990
825.508	2922
825.648	2925
825.787	3032
825.927	2986
826.067	2963
826.206	2967
826.346	3005
826.485	3066
826.625	3093
826.765	3272
826.904	3203
827.044	2975
827.183	2937
827.323	2868
827.462	2963
827.601	2925
827.741	2941
827.88	2937
828.02	2823
828.159	2937
828.298	3036
828.437	3119
828.577	3039
828.716	3222
828.855	3085
828.994	2918
829.134	2868
829.273	2906
829.412	2849
829.551	2857
829.69	2910
829.829	2998
829.968	3161
830.107	3024
830.246	2975
830.385	2887
830.524	2876
830.663	2800
830.802	2746
830.941	2644
831.08	2644
831.219	2746
831.357	2739
831.496	2960
831.635	2727
831.774	2632
831.913	2663
832.051	2533
832.19	2602
832.329	2693
832.467	2537
832.606	2473
832.744	2579
832.883	2587
833.022	2587
833.16	2629
833.299	2678
833.437	2686
833.576	2659
833.714	2716
833.852	2720
833.991	2796
834.129	2804
834.267	2804
834.406	2773
834.544	2853
834.682	2872
834.821	2834
834.959	3024
835.097	2887
835.235	3047
835.373	3013
835.511	3028
835.65	2952
835.788	2952
835.926	2826
836.064	2762
836.202	2819
836.34	3036
836.478	3188
836.615	3036
836.753	3131
836.891	3211
837.029	3127
837.167	3112
837.305	3051
837.443	3051
837.58	2967
837.718	3093
837.856	3066
837.993	3013
838.131	3104
838.269	3085
838.406	3093
838.544	3081
838.681	2922
838.819	2922
838.956	2811
839.094	2819
839.231	2899
839.369	3017
839.506	3336
839.643	3207
839.781	3020
839.918	2948
840.055	3058
840.193	3005
840.33	3043
840.467	3043
840.604	3157
840.742	3397
840.879	3077
841.016	3070
841.153	3123
841.29	3313
841.427	3291
841.564	3233
841.701	3310
841.838	3214
841.975	3180
842.112	3207
842.249	3093
842.385	3024
842.522	3199
842.659	3081
842.796	3055
842.933	3116
843.069	3051
843.206	3043
843.343	3199
843.479	3127
843.616	3127
843.752	2918
843.889	2845
844.025	3055
844.162	2880
844.298	3081
844.435	2929
844.571	2925
844.708	3070
844.844	3180
844.98	3256
845.117	3237
845.253	3013
845.389	3013
845.525	3074
845.661	3077
845.798	3043
845.934	3097
846.07	3043
846.206	3233
846.342	3283
846.478	3218
846.614	3104
846.75	3024
846.886	3013
847.022	3184
847.158	3138
847.294	3207
847.429	3222
847.565	3195
847.701	3500
847.837	3028
847.972	2967
848.108	3142
848.244	3135
848.379	2956
848.515	2918
848.65	2910
848.786	2937
848.921	3009
849.057	3093
849.192	3157
849.328	3058
849.463	3085
849.598	3024
849.734	3043
849.869	2982
850.004	2918
850.14	2975
850.275	2910
850.41	2834
850.545	2880
850.68	2960
850.815	2956
850.95	2948
851.085	3169
851.22	3108
851.355	3028
851.49	2998
851.625	3005
851.76	3032
851.895	2929
852.03	2906
852.165	3047
852.299	3135
852.434	3161
852.569	3176
852.703	3169
852.838	3253
852.973	3340
853.107	3340
853.242	3157
853.376	3089
853.511	2967
853.645	3013
853.78	3214
853.914	3138
854.048	3089
854.183	3066
854.317	3165
854.451	3332
854.585	3112
854.72	3108
854.854	3188
854.988	3047
855.122	3074
855.256	2971
855.39	3108
855.524	3245
855.658	3184
855.792	3184
855.926	3176
856.06	3218
856.194	3272
856.327	3135
856.461	3119
856.595	3070
856.729	3055
856.862	3176
856.996	3112
857.13	3214
857.263	3211
857.397	3287
857.53	3123
857.664	3211
857.797	3211
857.931	3207
858.064	3123
858.197	3222
858.331	3116
858.464	3093
858.597	3009
858.731	3116
858.864	3123
858.997	3119
859.13	3161
859.263	3161
859.396	3195
859.529	3093
859.662	3051
859.795	3043
859.928	3135
860.061	3268
860.194	3260
860.327	3131
860.46	3123
860.592	3211
860.725	3233
860.858	3245
860.99	3085
861.123	3047
861.256	3028
861.388	3131
861.521	3774
861.653	3017
861.786	2994
861.918	2986
862.05	3005
862.183	3085
862.315	3138
862.447	3165
862.58	3070
862.712	2960
862.844	2845
862.976	3017
863.108	3005
863.24	3325
863.372	2857
863.504	2944
863.636	2948
863.768	2994
863.9	2990
864.032	2887
864.164	2952
864.296	3005
864.428	3127
864.559	3093
864.691	3081
864.823	3051
864.954	3032
865.086	3047
865.217	2944
865.349	2914
865.48	2967
865.612	2979
865.743	3142
865.875	3001
866.006	2963
866.137	2956
866.269	2933
866.4	2918
866.531	2906
866.662	2861
866.793	2868
866.924	2895
867.055	2975
867.186	2922
867.317	2876
867.448	2807
867.579	2826
867.71	2864
867.841	2838
867.972	2895
868.103	2902
868.233	2853
868.364	2914
868.495	2922
868.625	3081
868.756	3165
868.886	2960
869.017	3028
869.147	3150
869.278	3150
869.408	3043
869.539	3058
869.669	3081
869.799	3013
869.929	3135
870.06	3123
870.19	3310
870.32	3264
870.45	3264
870.58	3363
870.71	3454
870.84	3447
870.97	3272
871.1	3253
871.23	3443
871.36	3431
871.489	3317
871.619	3389
871.749	3386
871.879	3420
872.008	3485
872.138	3302
872.267	3298
872.397	3127
872.526	3085
872.656	3036
872.785	3093
872.915	3237
873.044	3291
873.173	3211
873.303	3249
873.432	3211
873.561	3222
873.69	3173
873.819	3142
873.948	3211
874.077	3108
874.206	3066
874.335	3138
874.464	3203
874.593	3363
874.722	3188
874.851	3397
874.979	3359
875.108	3287
875.237	3184
875.365	3169
875.494	3135
875.623	3218
875.751	3074
875.88	3135
876.008	3188
876.136	3226
876.265	3336
876.393	3553
876.521	3431
876.65	3389
876.778	3344
876.906	3226
877.034	3241
877.162	3226
877.29	3150
877.418	3245
877.546	3260
877.674	3203
877.802	3249
877.93	3249
878.058	3131
878.185	3112
878.313	3192
878.441	3195
878.568	3043
878.696	3135
878.824	3211
878.951	3279
879.079	3488
879.206	3629
879.333	3401
879.461	3317
879.588	3348
879.715	3469
879.842	3603
879.97	3374
880.097	3165
880.224	3127
880.351	3165
880.478	3203
880.605	3192
880.732	3214
880.859	3485
880.986	3313
881.112	3306
881.239	3195
881.366	3074
881.493	3036
881.619	3013
881.746	3066
881.872	3097
881.999	3104
882.125	3142
882.252	3249
882.378	3237
882.505	3401
882.631	3298
882.757	3108
882.883	3237
883.01	3195
883.136	3154
883.262	3097
883.388	3119
883.514	3294
883.64	3397
883.766	3291
883.892	3207
884.018	3241
884.143	3462
884.269	3557
884.395	3218
884.52	3161
884.646	3173
884.772	3135
884.897	3093
885.023	3214
885.148	3294
885.274	3458
885.399	3393
885.524	3317
885.65	3237
885.775	3291
885.9	3275
886.025	3447
886.15	3389
886.275	3272
886.4	3283
886.525	3313
886.65	3253
886.775	3283
886.9	3488
887.025	3610
887.149	3405
887.274	3226
887.399	3150
887.523	3180
887.648	3192
887.773	3180
887.897	3374
888.021	3374
888.146	3283
888.27	3412
888.395	3504
888.519	3424
888.643	3454
888.767	3450
888.891	3306
889.015	3214
889.139	3264
889.263	3226
889.387	3378
889.511	3469
889.635	3435
889.759	3294
889.883	3302
890.006	3363
890.13	3496
890.254	3279
890.377	3348
890.501	3214
890.624	3165
890.748	3275
890.871	3157
890.995	3123
891.118	3104
891.241	3222
891.364	3233
891.488	3321
891.611	3154
891.734	3226
891.857	3249
891.98	3245
892.103	3340
892.226	3302
892.349	3207
892.471	3097
892.594	3237
892.717	3291
892.839	3256
892.962	3313
893.085	3332
893.207	3306
893.33	3142
893.452	3211
893.575	3302
893.697	3237
893.819	3447
893.941	3515
894.064	3458
894.186	3230
894.308	3253
894.43	3443
894.552	3500
894.674	3485
894.796	3260
894.918	3344
895.04	3272
895.161	3378
895.283	3393
895.405	3317
895.526	3393
895.648	3409
895.769	3389
895.891	3485
896.012	3473
896.134	3485
896.255	3443
896.376	3359
896.498	3336
896.619	3431
896.74	3332
896.861	3409
896.982	3663
897.103	3838
897.224	3603
897.345	3523
897.466	3409
897.587	3504
897.708	3587
897.828	3534
897.949	3443
898.07	3336
898.19	3424
898.311	3603
898.431	3454
898.552	3492
898.672	3587
898.792	3591
898.913	3507
899.033	3439
899.153	3317
899.273	3211
899.393	3287
899.513	3298
899.633	3344
899.753	3336
899.873	3329
899.993	3405
900.113	3317
900.232	3382
900.352	3310
900.472	3275
900.591	3214
900.711	3291
900.83	3249
900.95	3416
901.069	3507
901.189	3370
901.308	3192
901.427	3104
901.546	3188
901.665	3279
901.784	3291
901.904	3211
902.023	3161
902.141	3005
902.26	2990
902.379	3127
902.498	3077
902.617	3020
902.735	3180
902.854	3264
902.973	3203
903.091	3024
903.21	3074
903.328	3150
903.446	3108
903.565	3081
903.683	3188
903.801	3108
903.919	3256
904.038	3283
904.156	3207
904.274	3313
904.392	3256
904.51	3272
904.627	3321
904.745	3439
904.863	3507
904.981	3268
905.098	3161
905.216	3214
905.334	3298
905.451	3275
905.569	3325
905.686	3382
905.803	3397
905.921	3294
906.038	3420
906.155	3340
906.272	3268
906.389	3313
906.506	3222
906.623	3233
906.74	3283
906.857	3176
906.974	3249
907.091	3439
907.208	3523
907.324	3500
907.441	3386
907.557	3218
907.674	3233
907.79	3237
907.907	3249
908.023	3367
908.139	3351
908.256	3321
908.372	3363
908.488	3367
908.604	3272
908.72	3237
908.836	3260
908.952	3256
909.068	3340
909.184	3469
909.3	3405
909.415	3488
909.531	3462
909.647	3233
909.762	3302
909.878	3237
909.993	3355
910.108	3355
910.224	3355
910.339	3443
910.454	3367
910.57	3310
910.685	3176
910.8	3576
910.915	3511
911.03	3412
911.145	3283
911.259	3302
911.374	3332
911.489	3249
911.604	3245
911.718	3100
911.833	3165
911.947	3055
912.062	2952
912.176	3150
912.291	3192
912.405	3233
912.519	3409
912.633	3450
912.748	3329
912.862	3287
912.976	3192
913.09	3070
913.204	3116
913.318	3230
913.431	3340
913.545	3325
913.659	3397
913.772	3317
913.886	3226
914	3214
914.113	3355
914.226	3401
914.34	3363
914.453	3192
914.566	3428
914.68	3294
914.793	3329
914.906	3116
915.019	3077
915.132	3074
915.245	3165
915.358	3214
915.47	3253
915.583	3279
915.696	3291
915.809	3420
915.921	3397
916.034	3245
916.146	3226
916.259	3241
916.371	3374
916.483	3344
916.595	3264
916.708	3310
916.82	3351
916.932	3313
917.044	3332
917.156	3363
917.268	3226
917.38	3321
917.491	3340
917.603	3367
917.715	3466
917.826	3477
917.938	3370
918.049	3260
918.161	3435
918.272	3557
918.384	3553
918.495	3481
918.606	3329
918.717	3287
918.828	3367
918.939	3374
919.05	3249
919.161	3374
919.272	3188
919.383	3325
919.494	3500
919.604	3686
919.715	3488
919.826	3393
919.936	3477
920.047	3584
920.157	3542
920.267	3781
920.378	3622
920.488	3553
920.598	3755
920.708	3991
920.818	3816
920.928	3827
921.038	4029
921.148	3964
921.258	3652
921.368	3637
921.477	3572
921.587	3504
921.697	3454
921.806	3622
921.916	3507
922.025	3405
922.134	3363
922.244	3294
922.353	3450
922.462	3298
922.571	3214
922.68	3081
922.789	3032
922.898	3089
923.007	3112
923.116	3241
923.224	3135
923.333	3184
923.442	3100
923.55	3123
923.659	3146
923.767	3192
923.876	3119
923.984	3241
924.092	3146
924.201	3195
924.309	3199
924.417	3260
924.525	3214
924.633	3203
924.741	4207
924.849	3077
924.956	3218
925.064	3112
925.172	3039
925.279	3093
925.387	3199
925.494	3188
925.602	3344
925.709	3344
925.816	3207
925.924	3264
926.031	3401
926.138	3283
926.245	3329
926.352	3256
926.459	3389
926.566	3473
926.673	3363
926.779	3253
926.886	3222
926.993	3157
927.099	3146
927.206	3161
927.312	3165
927.419	3264
927.525	3203
927.631	3245
927.737	3135
927.843	3108
927.95	3001
928.056	3138
928.162	3161
928.267	3214
928.373	3892
928.479	3310
928.585	3055
928.69	3195
928.796	3275
928.901	3157
929.007	3077
929.112	3199
929.218	3146
929.323	3135
929.428	3123
929.533	3310
929.638	3100
929.743	3173
929.848	3279
929.953	3192
930.058	3154
930.163	3017
930.267	3043
930.372	3173
930.477	3036
930.581	3294
930.685	3184
930.79	3074
930.894	3138
930.998	3108
931.103	3256
931.207	2918
931.311	2967
931.415	2922
931.519	2773
931.623	2823
