Data from test_V78500241_515.txt Node
Date: Fri Mar 25 16:18:46 CST 2022
User: usil
Spectrometer: V785-0024
Trigger mode: 0
Integration Time (sec): 4.000000E-1
Scans to average: 1
Nonlinearity correction enabled: false
Boxcar width: 0
Storing dark spectrum: false
XAxis mode: Wavelengths
Number of Pixels in Spectrum: 1024
>>>>>Begin Spectral Data<<<<<
801.071	2910
801.214	2880
801.356	2845
801.499	2906
801.641	2876
801.783	2948
801.926	3036
802.068	2952
802.211	2986
802.353	3028
802.496	2929
802.638	3001
802.78	3036
802.923	3055
803.065	2982
803.208	2864
803.35	2937
803.492	2929
803.635	2933
803.777	2724
803.919	2838
804.061	3207
804.204	2925
804.346	2922
804.488	2834
804.63	2986
804.773	2853
804.915	2883
805.057	3070
805.199	2906
805.341	2937
805.483	3043
805.626	2948
805.768	2937
805.91	3070
806.052	3131
806.194	3028
806.336	3233
806.478	3020
806.62	2925
806.762	2952
806.904	3017
807.046	3119
807.188	2975
807.33	2933
807.472	2994
807.614	2922
807.756	2986
807.898	2933
808.04	2929
808.182	2948
808.324	2963
808.465	2861
808.607	2861
808.749	2796
808.891	2834
809.033	2979
809.174	2952
809.316	2895
809.458	2853
809.6	2766
809.741	2739
809.883	2777
810.025	2857
810.166	2857
810.308	2830
810.45	2849
810.591	2766
810.733	2739
810.875	2807
811.016	2769
811.158	2766
811.299	2800
811.441	2963
811.582	2899
811.724	2811
811.865	2834
812.007	2899
812.148	2880
812.29	2849
812.431	2887
812.573	2944
812.714	2967
812.855	3036
812.997	3062
813.138	3123
813.279	3028
813.421	2986
813.562	2941
813.703	2880
813.845	2899
813.986	2777
814.127	2720
814.268	2811
814.41	2845
814.551	2838
814.692	2880
814.833	2830
814.974	2868
815.115	2944
815.256	2815
815.397	2823
815.539	2861
815.68	2773
815.821	2796
815.962	2975
816.103	2918
816.244	2849
816.385	2830
816.526	2956
816.666	2887
816.807	2750
816.948	2910
817.089	2891
817.23	2853
817.371	2746
817.512	2769
817.653	2815
817.793	2849
817.934	2883
818.075	2941
818.216	2979
818.356	2998
818.497	2834
818.638	2792
818.778	2785
818.919	2788
819.06	2773
819.2	2861
819.341	2762
819.481	2807
819.622	2929
819.762	3108
819.903	3032
820.043	2922
820.184	2883
820.324	2864
820.465	3036
820.605	3017
820.746	3005
820.886	2883
821.026	3089
821.167	3142
821.307	3275
821.447	3237
821.588	3222
821.728	3203
821.868	3161
822.008	3058
822.149	3195
822.289	3184
822.429	3093
822.569	3074
822.709	3142
822.849	2982
822.99	3058
823.13	3135
823.27	3199
823.41	3100
823.55	3154
823.69	3104
823.83	3180
823.97	3093
824.11	2971
824.25	2979
824.389	3070
824.529	3131
824.669	3085
824.809	3207
824.949	3283
825.089	3233
825.228	3184
825.368	2990
825.508	2986
825.648	2990
825.787	2998
825.927	3032
826.067	2986
826.206	2960
826.346	3024
826.485	3039
826.625	3093
826.765	3230
826.904	3211
827.044	2941
827.183	2952
827.323	2883
827.462	2982
827.601	2941
827.741	2941
827.88	2925
828.02	2853
828.159	2933
828.298	3024
828.437	3112
828.577	3017
828.716	3237
828.855	3051
828.994	2918
829.134	2861
829.273	2906
829.412	2868
829.551	2830
829.69	2891
829.829	2982
829.968	3119
830.107	2986
830.246	2979
830.385	2918
830.524	2887
830.663	2830
830.802	2735
830.941	2636
831.08	2644
831.219	2758
831.357	2766
831.496	2918
831.635	2705
831.774	2621
831.913	2655
832.051	2530
832.19	2579
832.329	2678
832.467	2518
832.606	2511
832.744	2564
832.883	2556
833.022	2590
833.16	2617
833.299	2682
833.437	2731
833.576	2682
833.714	2689
833.852	2689
833.991	2727
834.129	2826
834.267	2811
834.406	2781
834.544	2849
834.682	2849
834.821	2842
834.959	3055
835.097	2906
835.235	3051
835.373	2986
835.511	3036
835.65	2925
835.788	2963
835.926	2830
836.064	2788
836.202	2781
836.34	3093
836.478	3112
836.615	3066
836.753	3119
836.891	3222
837.029	3138
837.167	3081
837.305	3024
837.443	3013
837.58	2918
837.718	3104
837.856	3085
837.993	3058
838.131	3097
838.269	3070
838.406	3085
838.544	3077
838.681	2922
838.819	2925
838.956	2819
839.094	2807
839.231	2937
839.369	3013
839.506	3374
839.643	3188
839.781	3043
839.918	2971
840.055	3043
840.193	3058
840.33	3066
840.467	3108
840.604	3161
840.742	3389
840.879	3062
841.016	3032
841.153	3085
841.29	3306
841.427	3306
841.564	3233
841.701	3302
841.838	3226
841.975	3192
842.112	3222
842.249	3074
842.385	3039
842.522	3260
842.659	3047
842.796	3028
842.933	3116
843.069	3020
843.206	3020
843.343	3173
843.479	3135
843.616	3135
843.752	2891
843.889	2887
844.025	3097
844.162	2876
844.298	3081
844.435	2929
844.571	2895
844.708	3024
844.844	3211
844.98	3249
845.117	3195
845.253	3043
845.389	3043
845.525	3123
845.661	3116
845.798	3043
845.934	3112
846.07	3039
846.206	3211
846.342	3310
846.478	3241
846.614	3062
846.75	3028
846.886	3051
847.022	3249
847.158	3123
847.294	3154
847.429	3230
847.565	3180
847.701	3515
847.837	3005
847.972	3047
848.108	3123
848.244	3157
848.379	2982
848.515	2933
848.65	2944
848.786	2937
848.921	2990
849.057	3112
849.192	3116
849.328	3066
849.463	3066
849.598	3062
849.734	3017
849.869	2986
850.004	2906
850.14	2963
850.275	2914
850.41	2857
850.545	2876
850.68	2914
850.815	2925
850.95	2925
851.085	3195
851.22	3093
851.355	3028
851.49	2963
851.625	2990
851.76	3032
851.895	2906
852.03	2906
852.165	2986
852.299	3104
852.434	3150
852.569	3123
852.703	3146
852.838	3233
852.973	3279
853.107	3344
853.242	3119
853.376	3093
853.511	2941
853.645	3062
853.78	3203
853.914	3135
854.048	3093
854.183	3077
854.317	3173
854.451	3298
854.585	3131
854.72	3085
854.854	3180
854.988	3047
855.122	3085
855.256	2944
855.39	3085
855.524	3241
855.658	3176
855.792	3161
855.926	3195
856.06	3230
856.194	3222
856.327	3157
856.461	3058
856.595	3062
856.729	3100
856.862	3222
856.996	3146
857.13	3203
857.263	3199
857.397	3264
857.53	3097
857.664	3188
857.797	3264
857.931	3211
858.064	3154
858.197	3222
858.331	3154
858.464	3093
858.597	2963
858.731	3119
858.864	3093
858.997	3104
859.13	3119
859.263	3180
859.396	3199
859.529	3089
859.662	3074
859.795	3077
859.928	3142
860.061	3287
860.194	3298
860.327	3097
860.46	3089
860.592	3195
860.725	3272
860.858	3233
860.99	3116
861.123	3039
861.256	3051
861.388	3169
861.521	3850
861.653	2975
861.786	3020
861.918	2998
862.05	3058
862.183	3070
862.315	3150
862.447	3211
862.58	3085
862.712	2933
862.844	2864
862.976	3039
863.108	2963
863.24	3424
863.372	2891
863.504	2971
863.636	2944
863.768	2986
863.9	2963
864.032	2872
864.164	2929
864.296	2971
864.428	3100
864.559	3104
864.691	3062
864.823	3070
864.954	3047
865.086	3028
865.217	2967
865.349	2941
865.48	2971
865.612	3039
865.743	3104
865.875	2967
866.006	2925
866.137	2956
866.269	2975
866.4	2918
866.531	2922
866.662	2845
866.793	2883
866.924	2918
867.055	2929
867.186	2914
867.317	2880
867.448	2872
867.579	2857
867.71	2838
867.841	2826
867.972	2872
868.103	2895
868.233	2895
868.364	2872
868.495	2883
868.625	3066
868.756	3165
868.886	2944
869.017	3009
869.147	3169
869.278	3138
869.408	3058
869.539	2994
869.669	3097
869.799	3036
869.929	3112
870.06	3104
870.19	3302
870.32	3287
870.45	3275
870.58	3340
870.71	3412
870.84	3420
870.97	3291
871.1	3203
871.23	3454
871.36	3412
871.489	3397
871.619	3359
871.749	3389
871.879	3443
872.008	3481
872.138	3367
872.267	3230
872.397	3176
872.526	3089
872.656	2994
872.785	3089
872.915	3241
873.044	3332
873.173	3222
873.303	3214
873.432	3195
873.561	3256
873.69	3192
873.819	3116
873.948	3199
874.077	3104
874.206	3020
874.335	3058
874.464	3188
874.593	3363
874.722	3249
874.851	3401
874.979	3340
875.108	3325
875.237	3165
875.365	3173
875.494	3176
875.623	3241
875.751	3085
875.88	3108
876.008	3173
876.136	3214
876.265	3355
876.393	3488
876.521	3393
876.65	3389
876.778	3348
876.906	3249
877.034	3195
877.162	3199
877.29	3142
877.418	3241
877.546	3237
877.674	3279
877.802	3222
877.93	3207
878.058	3116
878.185	3074
878.313	3188
878.441	3184
878.568	3070
878.696	3157
878.824	3222
878.951	3241
879.079	3428
879.206	3610
879.333	3462
879.461	3291
879.588	3321
879.715	3469
879.842	3564
879.97	3351
880.097	3119
880.224	3146
880.351	3180
880.478	3188
880.605	3169
880.732	3165
880.859	3477
880.986	3283
881.112	3321
881.239	3173
881.366	3070
881.493	3081
881.619	3024
881.746	3058
881.872	3062
881.999	3093
882.125	3150
882.252	3233
882.378	3268
882.505	3405
882.631	3222
882.757	3127
882.883	3218
883.01	3233
883.136	3146
883.262	3081
883.388	3119
883.514	3317
883.64	3351
883.766	3287
883.892	3192
884.018	3260
884.143	3348
884.269	3538
884.395	3203
884.52	3154
884.646	3184
884.772	3097
884.897	3100
885.023	3203
885.148	3348
885.274	3382
885.399	3344
885.524	3287
885.65	3260
885.775	3336
885.9	3272
886.025	3401
886.15	3367
886.275	3310
886.4	3203
886.525	3283
886.65	3260
886.775	3272
886.9	3450
887.025	3637
887.149	3393
887.274	3283
887.399	3176
887.523	3180
887.648	3211
887.773	3188
887.897	3332
888.021	3378
888.146	3283
888.27	3393
888.395	3507
888.519	3420
888.643	3420
888.767	3424
888.891	3325
889.015	3287
889.139	3275
889.263	3230
889.387	3393
889.511	3526
889.635	3447
889.759	3287
889.883	3279
890.006	3382
890.13	3458
890.254	3253
890.377	3344
890.501	3161
890.624	3169
890.748	3279
890.871	3173
890.995	3089
891.118	3043
891.241	3184
891.364	3230
891.488	3291
891.611	3138
891.734	3222
891.857	3298
891.98	3241
892.103	3367
892.226	3268
892.349	3203
892.471	3074
892.594	3253
892.717	3272
892.839	3329
892.962	3245
893.085	3389
893.207	3325
893.33	3108
893.452	3180
893.575	3306
893.697	3203
893.819	3443
893.941	3496
894.064	3439
894.186	3214
894.308	3298
894.43	3443
894.552	3542
894.674	3447
894.796	3264
894.918	3363
895.04	3222
895.161	3443
895.283	3363
895.405	3313
895.526	3336
895.648	3424
895.769	3409
895.891	3447
896.012	3496
896.134	3450
896.255	3401
896.376	3386
896.498	3310
896.619	3401
896.74	3389
896.861	3393
896.982	3656
897.103	3816
897.224	3610
897.345	3507
897.466	3397
897.587	3488
897.708	3614
897.828	3526
897.949	3462
898.07	3321
898.19	3409
898.311	3595
898.431	3435
898.552	3504
898.672	3587
898.792	3557
898.913	3545
899.033	3389
899.153	3249
899.273	3169
899.393	3291
899.513	3298
899.633	3302
899.753	3344
899.873	3298
899.993	3374
900.113	3317
900.232	3405
900.352	3321
900.472	3298
900.591	3154
900.711	3310
900.83	3230
900.95	3416
901.069	3424
901.189	3348
901.308	3135
901.427	3150
901.546	3180
901.665	3256
901.784	3336
901.904	3142
902.023	3131
902.141	3024
902.26	2952
902.379	3150
902.498	3093
902.617	3036
902.735	3211
902.854	3233
902.973	3169
903.091	3028
903.21	3058
903.328	3146
903.446	3127
903.565	3093
903.683	3180
903.801	3116
903.919	3249
904.038	3268
904.156	3173
904.274	3245
904.392	3230
904.51	3279
904.627	3317
904.745	3424
904.863	3462
904.981	3241
905.098	3176
905.216	3241
905.334	3313
905.451	3279
905.569	3306
905.686	3443
905.803	3439
905.921	3283
906.038	3405
906.155	3348
906.272	3245
906.389	3325
906.506	3218
906.623	3245
906.74	3256
906.857	3214
906.974	3260
907.091	3431
907.208	3538
907.324	3454
907.441	3370
907.557	3237
907.674	3211
907.79	3222
907.907	3249
908.023	3325
908.139	3374
908.256	3310
908.372	3351
908.488	3355
908.604	3256
908.72	3203
908.836	3272
908.952	3272
909.068	3351
909.184	3462
909.3	3374
909.415	3481
909.531	3439
909.647	3264
909.762	3272
909.878	3237
909.993	3378
910.108	3313
910.224	3340
910.339	3409
910.454	3359
910.57	3260
910.685	3226
910.8	3568
910.915	3515
911.03	3416
911.145	3249
911.259	3264
911.374	3260
911.489	3195
911.604	3203
911.718	3081
911.833	3146
911.947	3043
912.062	2944
912.176	3161
912.291	3165
912.405	3233
912.519	3382
912.633	3454
912.748	3329
912.862	3283
912.976	3085
913.09	3077
913.204	3093
913.318	3176
913.431	3336
913.545	3268
913.659	3393
913.772	3294
913.886	3188
914	3199
914.113	3382
914.226	3374
914.34	3351
914.453	3192
914.566	3374
914.68	3275
914.793	3287
914.906	3157
915.019	3131
915.132	3051
915.245	3169
915.358	3218
915.47	3249
915.583	3291
915.696	3348
915.809	3397
915.921	3389
916.034	3249
916.146	3260
916.259	3226
916.371	3370
916.483	3359
916.595	3279
916.708	3367
916.82	3351
916.932	3359
917.044	3412
917.156	3344
917.268	3260
917.38	3317
917.491	3272
917.603	3355
917.715	3458
917.826	3454
917.938	3405
918.049	3325
918.161	3393
918.272	3564
918.384	3595
918.495	3519
918.606	3344
918.717	3287
918.828	3439
918.939	3439
919.05	3332
919.161	3424
919.272	3230
919.383	3313
919.494	3504
919.604	3698
919.715	3542
919.826	3435
919.936	3507
920.047	3568
920.157	3622
920.267	3778
920.378	3633
920.488	3599
920.598	3857
920.708	4021
920.818	3850
920.928	3869
921.038	4059
921.148	4074
921.258	3736
921.368	3682
921.477	3637
921.587	3595
921.697	3458
921.806	3644
921.916	3564
922.025	3409
922.134	3367
922.244	3359
922.353	3443
922.462	3325
922.571	3230
922.68	3154
922.789	3116
922.898	3176
923.007	3142
923.116	3237
923.224	3237
923.333	3154
923.442	3173
923.55	3108
923.659	3173
923.767	3230
923.876	3154
923.984	3279
924.092	3135
924.201	3264
924.309	3214
924.417	3279
924.525	3226
924.633	3268
924.741	4200
924.849	3062
924.956	3317
925.064	3142
925.172	3051
925.279	3176
925.387	3169
925.494	3226
925.602	3386
925.709	3363
925.816	3230
925.924	3310
926.031	3439
926.138	3367
926.245	3405
926.352	3272
926.459	3447
926.566	3507
926.673	3291
926.779	3294
926.886	3302
926.993	3180
927.099	3188
927.206	3119
927.312	3169
927.419	3291
927.525	3222
927.631	3264
927.737	3173
927.843	3154
927.95	3085
928.056	3195
928.162	3203
928.267	3264
928.373	3797
928.479	3351
928.585	3074
928.69	3264
928.796	3340
928.901	3214
929.007	3074
929.112	3241
929.218	3188
929.323	3173
929.428	3165
929.533	3344
929.638	3150
929.743	3192
929.848	3310
929.953	3218
930.058	3211
930.163	3024
930.267	3089
930.372	3237
930.477	3085
930.581	3386
930.685	3184
930.79	3047
930.894	3119
930.998	3112
931.103	3272
931.207	3024
931.311	2971
931.415	2937
931.519	2773
931.623	2815
