Data from test_V78500241_475.txt Node
Date: Fri Mar 25 16:18:29 CST 2022
User: usil
Spectrometer: V785-0024
Trigger mode: 0
Integration Time (sec): 4.000000E-1
Scans to average: 1
Nonlinearity correction enabled: false
Boxcar width: 0
Storing dark spectrum: false
XAxis mode: Wavelengths
Number of Pixels in Spectrum: 1024
>>>>>Begin Spectral Data<<<<<
801.071	2948
801.214	2982
801.356	2914
801.499	2937
801.641	2868
801.783	2941
801.926	3032
802.068	2998
802.211	3009
802.353	3028
802.496	2990
802.638	3020
802.78	3081
802.923	3097
803.065	3017
803.208	2906
803.35	2925
803.492	2941
803.635	2933
803.777	2781
803.919	2864
804.061	3226
804.204	2986
804.346	2922
804.488	2864
804.63	3028
804.773	2868
804.915	2922
805.057	3093
805.199	2925
805.341	2998
805.483	3058
805.626	2998
805.768	2952
805.91	3100
806.052	3104
806.194	3032
806.336	3218
806.478	3074
806.62	2956
806.762	2971
806.904	3070
807.046	3176
807.188	2925
807.33	2941
807.472	2963
807.614	2887
807.756	3024
807.898	2910
808.04	2895
808.182	2967
808.324	2975
808.465	2914
808.607	2861
808.749	2773
808.891	2887
809.033	2963
809.174	2967
809.316	2895
809.458	2872
809.6	2815
809.741	2746
809.883	2781
810.025	2853
810.166	2826
810.308	2842
810.45	2861
810.591	2800
810.733	2758
810.875	2826
811.016	2773
811.158	2727
811.299	2796
811.441	2914
811.582	2899
811.724	2842
811.865	2819
812.007	2868
812.148	2914
812.29	2834
812.431	2883
812.573	2948
812.714	2922
812.855	3039
812.997	3074
813.138	3097
813.279	3032
813.421	2979
813.562	2967
813.703	2880
813.845	2861
813.986	2811
814.127	2693
814.268	2800
814.41	2857
814.551	2781
814.692	2902
814.833	2815
814.974	2906
815.115	2952
815.256	2864
815.397	2785
815.539	2868
815.68	2788
815.821	2788
815.962	2902
816.103	2925
816.244	2868
816.385	2887
816.526	2998
816.666	2902
816.807	2758
816.948	2872
817.089	2861
817.23	2842
817.371	2766
817.512	2792
817.653	2823
817.793	2834
817.934	2902
818.075	2948
818.216	2948
818.356	3017
818.497	2883
818.638	2777
818.778	2788
818.919	2785
819.06	2746
819.2	2819
819.341	2800
819.481	2785
819.622	2933
819.762	3108
819.903	3032
820.043	2922
820.184	2891
820.324	2929
820.465	3017
820.605	3020
820.746	3055
820.886	2937
821.026	3112
821.167	3154
821.307	3260
821.447	3245
821.588	3253
821.728	3203
821.868	3199
822.008	3081
822.149	3260
822.289	3279
822.429	3116
822.569	3100
822.709	3237
822.849	3051
822.99	3058
823.13	3195
823.27	3241
823.41	3135
823.55	3180
823.69	3173
823.83	3211
823.97	3119
824.11	3047
824.25	2998
824.389	3100
824.529	3161
824.669	3116
824.809	3226
824.949	3298
825.089	3272
825.228	3176
825.368	3055
825.508	2982
825.648	3013
825.787	3036
825.927	3081
826.067	2960
826.206	2994
826.346	3009
826.485	3093
826.625	3123
826.765	3302
826.904	3237
827.044	2998
827.183	2956
827.323	2891
827.462	3024
827.601	2933
827.741	2960
827.88	2979
828.02	2887
828.159	3009
828.298	3108
828.437	3146
828.577	3074
828.716	3275
828.855	3157
828.994	2952
829.134	2937
829.273	3013
829.412	2899
829.551	2922
829.69	2941
829.829	3032
829.968	3180
830.107	3028
830.246	3070
830.385	2948
830.524	2906
830.663	2838
830.802	2777
830.941	2667
831.08	2678
831.219	2807
831.357	2785
831.496	2963
831.635	2758
831.774	2648
831.913	2667
832.051	2568
832.19	2625
832.329	2731
832.467	2598
832.606	2492
832.744	2606
832.883	2602
833.022	2629
833.16	2678
833.299	2720
833.437	2762
833.576	2792
833.714	2743
833.852	2792
833.991	2804
834.129	2845
834.267	2876
834.406	2861
834.544	2922
834.682	2922
834.821	2902
834.959	3077
835.097	2929
835.235	3093
835.373	3036
835.511	3070
835.65	2982
835.788	3020
835.926	2902
836.064	2857
836.202	2899
836.34	3108
836.478	3192
836.615	3055
836.753	3192
836.891	3249
837.029	3188
837.167	3119
837.305	3108
837.443	3093
837.58	3013
837.718	3161
837.856	3093
837.993	3051
838.131	3123
838.269	3146
838.406	3135
838.544	3108
838.681	2944
838.819	2944
838.956	2849
839.094	2838
839.231	2929
839.369	3047
839.506	3412
839.643	3275
839.781	3058
839.918	3024
840.055	3077
840.193	3074
840.33	3138
840.467	3135
840.604	3195
840.742	3428
840.879	3097
841.016	3081
841.153	3119
841.29	3355
841.427	3313
841.564	3264
841.701	3329
841.838	3230
841.975	3184
842.112	3233
842.249	3100
842.385	3066
842.522	3260
842.659	3077
842.796	3089
842.933	3146
843.069	3097
843.206	3085
843.343	3226
843.479	3104
843.616	3165
843.752	2918
843.889	2876
844.025	3116
844.162	2929
844.298	3062
844.435	2960
844.571	2979
844.708	3093
844.844	3218
844.98	3275
845.117	3203
845.253	3085
845.389	3032
845.525	3131
845.661	3138
845.798	3032
845.934	3165
846.07	3093
846.206	3256
846.342	3344
846.478	3291
846.614	3142
846.75	3119
846.886	3085
847.022	3279
847.158	3150
847.294	3199
847.429	3287
847.565	3237
847.701	3519
847.837	3051
847.972	3077
848.108	3192
848.244	3173
848.379	2990
848.515	2944
848.65	2941
848.786	3005
848.921	3043
849.057	3127
849.192	3165
849.328	3089
849.463	3100
849.598	3108
849.734	3051
849.869	3028
850.004	2941
850.14	3005
850.275	2922
850.41	2872
850.545	2906
850.68	2948
850.815	3005
850.95	2998
851.085	3207
851.22	3150
851.355	3070
851.49	2975
851.625	3036
851.76	3005
851.895	2998
852.03	2948
852.165	3055
852.299	3127
852.434	3188
852.569	3165
852.703	3176
852.838	3230
852.973	3344
853.107	3370
853.242	3146
853.376	3123
853.511	3009
853.645	3043
853.78	3279
853.914	3150
854.048	3097
854.183	3100
854.317	3188
854.451	3310
854.585	3150
854.72	3093
854.854	3275
854.988	3074
855.122	3093
855.256	2994
855.39	3127
855.524	3268
855.658	3226
855.792	3188
855.926	3211
856.06	3249
856.194	3283
856.327	3180
856.461	3085
856.595	3104
856.729	3138
856.862	3260
856.996	3226
857.13	3195
857.263	3245
857.397	3302
857.53	3100
857.664	3195
857.797	3241
857.931	3245
858.064	3188
858.197	3249
858.331	3146
858.464	3123
858.597	3047
858.731	3157
858.864	3195
858.997	3150
859.13	3192
859.263	3184
859.396	3241
859.529	3081
859.662	3119
859.795	3062
859.928	3150
860.061	3310
860.194	3298
860.327	3146
860.46	3097
860.592	3272
860.725	3287
860.858	3279
860.99	3123
861.123	3108
861.256	3066
861.388	3169
861.521	3934
861.653	3039
861.786	3032
861.918	3039
862.05	3085
862.183	3127
862.315	3165
862.447	3199
862.58	3108
862.712	2982
862.844	2922
862.976	3055
863.108	3024
863.24	3310
863.372	2922
863.504	3005
863.636	2910
863.768	3070
863.9	2982
864.032	2918
864.164	2952
864.296	3047
864.428	3127
864.559	3104
864.691	3051
864.823	3089
864.954	3043
865.086	3032
865.217	2986
865.349	2960
865.48	2979
865.612	3020
865.743	3165
865.875	2963
866.006	2963
866.137	3001
866.269	2937
866.4	2975
866.531	2922
866.662	2937
866.793	2922
866.924	2922
867.055	2994
867.186	2944
867.317	2880
867.448	2826
867.579	2880
867.71	2883
867.841	2849
867.972	2925
868.103	2902
868.233	2914
868.364	2918
868.495	2899
868.625	3097
868.756	3184
868.886	3013
869.017	3074
869.147	3169
869.278	3180
869.408	3032
869.539	3039
869.669	3058
869.799	3039
869.929	3192
870.06	3116
870.19	3340
870.32	3294
870.45	3313
870.58	3409
870.71	3447
870.84	3481
870.97	3325
871.1	3275
871.23	3447
871.36	3515
871.489	3344
871.619	3412
871.749	3397
871.879	3466
872.008	3523
872.138	3409
872.267	3291
872.397	3154
872.526	3085
872.656	3047
872.785	3097
872.915	3241
873.044	3306
873.173	3188
873.303	3268
873.432	3241
873.561	3256
873.69	3157
873.819	3195
873.948	3218
874.077	3097
874.206	3043
874.335	3116
874.464	3249
874.593	3374
874.722	3310
874.851	3416
874.979	3359
875.108	3336
875.237	3222
875.365	3150
875.494	3192
875.623	3245
875.751	3089
875.88	3108
876.008	3173
876.136	3226
876.265	3428
876.393	3530
876.521	3431
876.65	3401
876.778	3340
876.906	3275
877.034	3230
877.162	3241
877.29	3222
877.418	3272
877.546	3211
877.674	3237
877.802	3233
877.93	3237
878.058	3180
878.185	3169
878.313	3237
878.441	3199
878.568	3089
878.696	3146
878.824	3260
878.951	3302
879.079	3481
879.206	3580
879.333	3462
879.461	3370
879.588	3393
879.715	3511
879.842	3587
879.97	3401
880.097	3188
880.224	3131
880.351	3253
880.478	3249
880.605	3211
880.732	3211
880.859	3500
880.986	3313
881.112	3351
881.239	3226
881.366	3112
881.493	3070
881.619	3024
881.746	3077
881.872	3127
881.999	3112
882.125	3135
882.252	3264
882.378	3317
882.505	3416
882.631	3310
882.757	3154
882.883	3245
883.01	3253
883.136	3192
883.262	3108
883.388	3085
883.514	3367
883.64	3382
883.766	3321
883.892	3146
884.018	3214
884.143	3424
884.269	3523
884.395	3199
884.52	3123
884.646	3218
884.772	3165
884.897	3123
885.023	3230
885.148	3355
885.274	3428
885.399	3393
885.524	3302
885.65	3298
885.775	3298
885.9	3329
886.025	3420
886.15	3374
886.275	3336
886.4	3233
886.525	3298
886.65	3283
886.775	3294
886.9	3545
887.025	3614
887.149	3412
887.274	3256
887.399	3188
887.523	3195
887.648	3203
887.773	3214
887.897	3420
888.021	3424
888.146	3336
888.27	3450
888.395	3580
888.519	3466
888.643	3481
888.767	3500
888.891	3336
889.015	3245
889.139	3310
889.263	3253
889.387	3439
889.511	3526
889.635	3477
889.759	3321
889.883	3310
890.006	3424
890.13	3481
890.254	3306
890.377	3340
890.501	3180
890.624	3195
890.748	3348
890.871	3180
890.995	3123
891.118	3062
891.241	3180
891.364	3237
891.488	3348
891.611	3184
891.734	3203
891.857	3302
891.98	3272
892.103	3313
892.226	3279
892.349	3203
892.471	3142
892.594	3260
892.717	3298
892.839	3268
892.962	3291
893.085	3351
893.207	3332
893.33	3150
893.452	3230
893.575	3329
893.697	3272
893.819	3435
893.941	3549
894.064	3424
894.186	3253
894.308	3298
894.43	3443
894.552	3507
894.674	3458
894.796	3268
894.918	3344
895.04	3268
895.161	3450
895.283	3374
895.405	3336
895.526	3355
895.648	3447
895.769	3435
895.891	3462
896.012	3485
896.134	3469
896.255	3443
896.376	3386
896.498	3382
896.619	3428
896.74	3370
896.861	3412
896.982	3679
897.103	3865
897.224	3595
897.345	3485
897.466	3443
897.587	3488
897.708	3603
897.828	3519
897.949	3450
898.07	3329
898.19	3393
898.311	3625
898.431	3473
898.552	3504
898.672	3606
898.792	3614
898.913	3580
899.033	3420
899.153	3275
899.273	3245
899.393	3313
899.513	3291
899.633	3344
899.753	3317
899.873	3332
899.993	3359
900.113	3332
900.232	3416
900.352	3336
900.472	3287
900.591	3222
900.711	3306
900.83	3260
900.95	3397
901.069	3485
901.189	3370
901.308	3142
901.427	3138
901.546	3188
901.665	3283
901.784	3355
901.904	3237
902.023	3123
902.141	3020
902.26	3013
902.379	3112
902.498	3108
902.617	3089
902.735	3218
902.854	3253
902.973	3154
903.091	3017
903.21	3070
903.328	3146
903.446	3108
903.565	3104
903.683	3195
903.801	3123
903.919	3253
904.038	3279
904.156	3188
904.274	3283
904.392	3249
904.51	3264
904.627	3340
904.745	3450
904.863	3507
904.981	3241
905.098	3207
905.216	3241
905.334	3287
905.451	3325
905.569	3283
905.686	3435
905.803	3450
905.921	3294
906.038	3435
906.155	3359
906.272	3249
906.389	3367
906.506	3237
906.623	3253
906.74	3272
906.857	3203
906.974	3283
907.091	3454
907.208	3534
907.324	3435
907.441	3389
907.557	3264
907.674	3268
907.79	3214
907.907	3241
908.023	3386
908.139	3329
908.256	3336
908.372	3382
908.488	3332
908.604	3256
908.72	3241
908.836	3272
908.952	3283
909.068	3325
909.184	3504
909.3	3382
909.415	3500
909.531	3477
909.647	3279
909.762	3279
909.878	3226
909.993	3412
910.108	3325
910.224	3344
910.339	3401
910.454	3355
910.57	3272
910.685	3211
910.8	3603
910.915	3511
911.03	3431
911.145	3264
911.259	3283
911.374	3329
911.489	3310
911.604	3222
911.718	3112
911.833	3138
911.947	3043
912.062	2979
912.176	3195
912.291	3195
912.405	3237
912.519	3424
912.633	3500
912.748	3332
912.862	3306
912.976	3184
913.09	3058
913.204	3089
913.318	3203
913.431	3359
913.545	3332
913.659	3416
913.772	3367
913.886	3245
914	3195
914.113	3355
914.226	3420
914.34	3363
914.453	3241
914.566	3378
914.68	3325
914.793	3325
914.906	3169
915.019	3138
915.132	3112
915.245	3184
915.358	3176
915.47	3207
915.583	3298
915.696	3298
915.809	3367
915.921	3401
916.034	3245
916.146	3279
916.259	3195
916.371	3393
916.483	3363
916.595	3294
916.708	3332
916.82	3313
916.932	3355
917.044	3351
917.156	3310
917.268	3245
917.38	3336
917.491	3294
917.603	3401
917.715	3469
917.826	3450
917.938	3382
918.049	3264
918.161	3420
918.272	3599
918.384	3610
918.495	3492
918.606	3302
918.717	3272
918.828	3340
918.939	3386
919.05	3279
919.161	3332
919.272	3157
919.383	3313
919.494	3496
919.604	3652
919.715	3534
919.826	3420
919.936	3450
920.047	3572
920.157	3534
920.267	3789
920.378	3580
920.488	3564
920.598	3785
920.708	3991
920.818	3857
920.928	3838
921.038	4044
921.148	3975
921.258	3709
921.368	3625
921.477	3580
921.587	3507
921.697	3450
921.806	3591
921.916	3485
922.025	3336
922.134	3317
922.244	3325
922.353	3443
922.462	3279
922.571	3253
922.68	3119
922.789	3058
922.898	3131
923.007	3100
923.116	3173
923.224	3157
923.333	3184
923.442	3093
923.55	3089
923.659	3154
923.767	3226
923.876	3089
923.984	3249
924.092	3093
924.201	3226
924.309	3192
924.417	3283
924.525	3176
924.633	3226
924.741	3964
924.849	3066
924.956	3279
925.064	3062
925.172	3058
925.279	3097
925.387	3222
925.494	3184
925.602	3348
925.709	3321
925.816	3199
925.924	3287
926.031	3382
926.138	3260
926.245	3367
926.352	3279
926.459	3336
926.566	3519
926.673	3340
926.779	3237
926.886	3203
926.993	3138
927.099	3104
927.206	3119
927.312	3093
927.419	3195
927.525	3176
927.631	3275
927.737	3127
927.843	3108
927.95	3017
928.056	3100
928.162	3195
928.267	3241
928.373	3762
928.479	3310
928.585	3062
928.69	3222
928.796	3294
928.901	3127
929.007	3070
929.112	3192
929.218	3135
929.323	3135
929.428	3131
929.533	3291
929.638	3100
929.743	3207
929.848	3302
929.953	3199
930.058	3142
930.163	3051
930.267	3043
930.372	3195
930.477	3028
930.581	3268
930.685	3188
930.79	3070
930.894	3131
930.998	3104
931.103	3264
931.207	2941
931.311	2963
931.415	2902
931.519	2792
931.623	2807
