Data from test_V78500241_1415.txt Node
Date: Fri Mar 25 16:25:00 CST 2022
User: usil
Spectrometer: V785-0024
Trigger mode: 0
Integration Time (sec): 4.000000E-1
Scans to average: 1
Nonlinearity correction enabled: false
Boxcar width: 0
Storing dark spectrum: false
XAxis mode: Wavelengths
Number of Pixels in Spectrum: 1024
>>>>>Begin Spectral Data<<<<<
801.071	2906
801.214	2933
801.356	2857
801.499	2895
801.641	2838
801.783	2922
801.926	3051
802.068	2952
802.211	3051
802.353	3036
802.496	2963
802.638	2971
802.78	3062
802.923	3074
803.065	3001
803.208	2899
803.35	2929
803.492	2937
803.635	2899
803.777	2731
803.919	2838
804.061	3199
804.204	2925
804.346	2872
804.488	2868
804.63	2952
804.773	2891
804.915	2941
805.057	3074
805.199	2929
805.341	2963
805.483	3009
805.626	3013
805.768	2990
805.91	3055
806.052	3112
806.194	3013
806.336	3260
806.478	3028
806.62	2956
806.762	3001
806.904	3039
807.046	3173
807.188	2986
807.33	2937
807.472	2979
807.614	2910
807.756	3001
807.898	2918
808.04	2895
808.182	2986
808.324	2971
808.465	2861
808.607	2883
808.749	2796
808.891	2811
809.033	2994
809.174	2967
809.316	2880
809.458	2952
809.6	2807
809.741	2743
809.883	2750
810.025	2842
810.166	2826
810.308	2864
810.45	2861
810.591	2773
810.733	2769
810.875	2872
811.016	2777
811.158	2785
811.299	2842
811.441	2925
811.582	2922
811.724	2830
811.865	2868
812.007	2914
812.148	2872
812.29	2819
812.431	2876
812.573	2937
812.714	2933
812.855	3051
812.997	3032
813.138	3127
813.279	3009
813.421	2963
813.562	2952
813.703	2864
813.845	2887
813.986	2781
814.127	2746
814.268	2826
814.41	2826
814.551	2804
814.692	2872
814.833	2819
814.974	2902
815.115	2967
815.256	2834
815.397	2807
815.539	2834
815.68	2762
815.821	2796
815.962	2948
816.103	2891
816.244	2861
816.385	2853
816.526	2975
816.666	2914
816.807	2735
816.948	2861
817.089	2883
817.23	2876
817.371	2785
817.512	2754
817.653	2838
817.793	2804
817.934	2906
818.075	2982
818.216	2994
818.356	3013
818.497	2872
818.638	2769
818.778	2811
818.919	2800
819.06	2766
819.2	2853
819.341	2800
819.481	2811
819.622	2906
819.762	3135
819.903	3017
820.043	2956
820.184	2899
820.324	2895
820.465	3032
820.605	2979
820.746	3020
820.886	2952
821.026	3100
821.167	3157
821.307	3264
821.447	3249
821.588	3241
821.728	3218
821.868	3176
822.008	3093
822.149	3192
822.289	3192
822.429	3112
822.569	3081
822.709	3184
822.849	2994
822.99	3097
823.13	3154
823.27	3211
823.41	3123
823.55	3112
823.69	3131
823.83	3173
823.97	3169
824.11	2990
824.25	3001
824.389	3089
824.529	3131
824.669	3074
824.809	3214
824.949	3287
825.089	3249
825.228	3161
825.368	3009
825.508	2998
825.648	2956
825.787	2994
825.927	2986
826.067	2971
826.206	2967
826.346	3093
826.485	3024
826.625	3138
826.765	3298
826.904	3218
827.044	2990
827.183	2918
827.323	2857
827.462	2986
827.601	2918
827.741	2922
827.88	2891
828.02	2838
828.159	2975
828.298	3039
828.437	3123
828.577	3047
828.716	3214
828.855	3074
828.994	2918
829.134	2876
829.273	2891
829.412	2853
829.551	2868
829.69	2883
829.829	3001
829.968	3081
830.107	2990
830.246	3028
830.385	2948
830.524	2864
830.663	2807
830.802	2739
830.941	2621
831.08	2648
831.219	2750
831.357	2762
831.496	2922
831.635	2697
831.774	2644
831.913	2689
832.051	2556
832.19	2571
832.329	2697
832.467	2514
832.606	2465
832.744	2579
832.883	2587
833.022	2606
833.16	2670
833.299	2708
833.437	2705
833.576	2705
833.714	2689
833.852	2705
833.991	2743
834.129	2830
834.267	2815
834.406	2758
834.544	2891
834.682	2868
834.821	2891
834.959	3039
835.097	2910
835.235	3097
835.373	2990
835.511	2994
835.65	2944
835.788	2952
835.926	2826
836.064	2800
836.202	2838
836.34	3055
836.478	3131
836.615	3047
836.753	3112
836.891	3195
837.029	3146
837.167	3119
837.305	3081
837.443	3047
837.58	2944
837.718	3116
837.856	3112
837.993	2975
838.131	3108
838.269	3093
838.406	3089
838.544	3066
838.681	2944
838.819	2910
838.956	2792
839.094	2815
839.231	2914
839.369	3028
839.506	3393
839.643	3226
839.781	3028
839.918	2967
840.055	3051
840.193	3077
840.33	3036
840.467	3097
840.604	3154
840.742	3428
840.879	3043
841.016	3055
841.153	3077
841.29	3355
841.427	3336
841.564	3241
841.701	3298
841.838	3184
841.975	3195
842.112	3180
842.249	3089
842.385	3062
842.522	3245
842.659	3089
842.796	3051
842.933	3119
843.069	3024
843.206	3036
843.343	3222
843.479	3074
843.616	3123
843.752	2899
843.889	2857
844.025	3104
844.162	2849
844.298	3036
844.435	2948
844.571	2929
844.708	3066
844.844	3176
844.98	3214
845.117	3180
845.253	3066
845.389	3020
845.525	3112
845.661	3077
845.798	3043
845.934	3127
846.07	3055
846.206	3199
846.342	3310
846.478	3233
846.614	3070
846.75	3036
846.886	3062
847.022	3214
847.158	3161
847.294	3180
847.429	3207
847.565	3199
847.701	3473
847.837	3036
847.972	3005
848.108	3188
848.244	3116
848.379	2956
848.515	2902
848.65	2891
848.786	2967
848.921	3005
849.057	3089
849.192	3131
849.328	3077
849.463	3085
849.598	3081
849.734	3013
849.869	2975
850.004	2895
850.14	2944
850.275	2910
850.41	2838
850.545	2864
850.68	2925
850.815	2956
850.95	2956
851.085	3195
851.22	3100
851.355	3047
851.49	2963
851.625	3005
851.76	3005
851.895	2944
852.03	2887
852.165	3036
852.299	3127
852.434	3135
852.569	3150
852.703	3161
852.838	3256
852.973	3317
853.107	3336
853.242	3138
853.376	3058
853.511	2982
853.645	3032
853.78	3230
853.914	3081
854.048	3108
854.183	3093
854.317	3184
854.451	3279
854.585	3085
854.72	3104
854.854	3214
854.988	3020
855.122	3051
855.256	2990
855.39	3066
855.524	3253
855.658	3188
855.792	3169
855.926	3184
856.06	3241
856.194	3256
856.327	3180
856.461	3093
856.595	3085
856.729	3051
856.862	3173
856.996	3150
857.13	3207
857.263	3214
857.397	3283
857.53	3081
857.664	3211
857.797	3230
857.931	3241
858.064	3161
858.197	3245
858.331	3131
858.464	3093
858.597	2963
858.731	3081
858.864	3123
858.997	3062
859.13	3161
859.263	3142
859.396	3207
859.529	3036
859.662	3066
859.795	3013
859.928	3146
860.061	3268
860.194	3272
860.327	3131
860.46	3100
860.592	3218
860.725	3233
860.858	3222
860.99	3089
861.123	3058
861.256	3017
861.388	3131
861.521	3751
861.653	3001
861.786	2986
861.918	3009
862.05	3085
862.183	3097
862.315	3123
862.447	3188
862.58	3081
862.712	2944
862.844	2876
862.976	3001
863.108	3043
863.24	3325
863.372	2857
863.504	2952
863.636	2941
863.768	3020
863.9	2979
864.032	2883
864.164	2937
864.296	3020
864.428	3093
864.559	3123
864.691	3066
864.823	3058
864.954	3020
865.086	3032
865.217	3009
865.349	2967
865.48	2982
865.612	3017
865.743	3150
865.875	2960
866.006	2925
866.137	2982
866.269	2929
866.4	2918
866.531	2956
866.662	2937
866.793	2853
866.924	2876
867.055	2994
867.186	2918
867.317	2864
867.448	2811
867.579	2872
867.71	2834
867.841	2807
867.972	2918
868.103	2891
868.233	2895
868.364	2849
868.495	2887
868.625	3062
868.756	3154
868.886	2937
869.017	3013
869.147	3150
869.278	3154
869.408	3058
869.539	3043
869.669	3093
869.799	3036
869.929	3104
870.06	3123
870.19	3325
870.32	3287
870.45	3291
870.58	3355
870.71	3443
870.84	3420
870.97	3298
871.1	3161
871.23	3488
871.36	3454
871.489	3359
871.619	3393
871.749	3409
871.879	3435
872.008	3439
872.138	3336
872.267	3249
872.397	3138
872.526	3085
872.656	2990
872.785	3097
872.915	3237
873.044	3321
873.173	3218
873.303	3237
873.432	3237
873.561	3211
873.69	3214
873.819	3142
873.948	3138
874.077	3089
874.206	3009
874.335	3085
874.464	3207
874.593	3351
874.722	3237
874.851	3340
874.979	3332
875.108	3287
875.237	3195
875.365	3146
875.494	3165
875.623	3214
875.751	3066
875.88	3085
876.008	3173
876.136	3237
876.265	3378
876.393	3481
876.521	3370
876.65	3409
876.778	3321
876.906	3218
877.034	3165
877.162	3226
877.29	3211
877.418	3249
877.546	3241
877.674	3226
877.802	3233
877.93	3207
878.058	3165
878.185	3066
878.313	3184
878.441	3226
878.568	3058
878.696	3127
878.824	3230
878.951	3317
879.079	3424
879.206	3557
879.333	3439
879.461	3321
879.588	3336
879.715	3485
879.842	3625
879.97	3382
880.097	3188
880.224	3135
880.351	3176
880.478	3237
880.605	3180
880.732	3180
880.859	3466
880.986	3302
881.112	3310
881.239	3211
881.366	3077
881.493	3017
881.619	3047
881.746	3077
881.872	3077
881.999	3100
882.125	3157
882.252	3226
882.378	3256
882.505	3374
882.631	3233
882.757	3100
882.883	3222
883.01	3226
883.136	3150
883.262	3074
883.388	3097
883.514	3321
883.64	3401
883.766	3287
883.892	3188
884.018	3237
884.143	3428
884.269	3515
884.395	3188
884.52	3199
884.646	3195
884.772	3123
884.897	3119
885.023	3180
885.148	3317
885.274	3428
885.399	3336
885.524	3275
885.65	3214
885.775	3310
885.9	3272
886.025	3428
886.15	3367
886.275	3256
886.4	3237
886.525	3283
886.65	3233
886.775	3279
886.9	3485
887.025	3679
887.149	3420
887.274	3226
887.399	3199
887.523	3195
887.648	3150
887.773	3184
887.897	3340
888.021	3439
888.146	3329
888.27	3401
888.395	3511
888.519	3428
888.643	3458
888.767	3435
888.891	3344
889.015	3226
889.139	3260
889.263	3233
889.387	3370
889.511	3500
889.635	3435
889.759	3253
889.883	3306
890.006	3393
890.13	3473
890.254	3272
890.377	3348
890.501	3180
890.624	3176
890.748	3310
890.871	3150
890.995	3127
891.118	3066
891.241	3214
891.364	3211
891.488	3336
891.611	3184
891.734	3173
891.857	3260
891.98	3253
892.103	3332
892.226	3283
892.349	3199
892.471	3135
892.594	3260
892.717	3329
892.839	3268
892.962	3279
893.085	3340
893.207	3291
893.33	3146
893.452	3199
893.575	3351
893.697	3249
893.819	3485
893.941	3500
894.064	3454
894.186	3245
894.308	3226
894.43	3409
894.552	3515
894.674	3454
894.796	3249
894.918	3294
895.04	3260
895.161	3439
895.283	3382
895.405	3275
895.526	3367
895.648	3439
895.769	3447
895.891	3443
896.012	3481
896.134	3431
896.255	3416
896.376	3378
896.498	3370
896.619	3443
896.74	3340
896.861	3416
896.982	3667
897.103	3819
897.224	3538
897.345	3538
897.466	3435
897.587	3473
897.708	3625
897.828	3564
897.949	3416
898.07	3363
898.19	3336
898.311	3629
898.431	3435
898.552	3523
898.672	3587
898.792	3564
898.913	3507
899.033	3386
899.153	3256
899.273	3199
899.393	3268
899.513	3340
899.633	3306
899.753	3325
899.873	3283
899.993	3416
900.113	3359
900.232	3359
900.352	3313
900.472	3313
900.591	3188
900.711	3275
900.83	3249
900.95	3416
901.069	3477
901.189	3348
901.308	3165
901.427	3112
901.546	3199
901.665	3302
901.784	3310
901.904	3188
902.023	3093
902.141	2971
902.26	2990
902.379	3142
902.498	3097
902.617	3062
902.735	3211
902.854	3222
902.973	3188
903.091	3047
903.21	3108
903.328	3131
903.446	3074
903.565	3093
903.683	3230
903.801	3089
903.919	3169
904.038	3275
904.156	3119
904.274	3329
904.392	3226
904.51	3264
904.627	3344
904.745	3435
904.863	3477
904.981	3241
905.098	3169
905.216	3207
905.334	3279
905.451	3329
905.569	3268
905.686	3435
905.803	3507
905.921	3260
906.038	3428
906.155	3317
906.272	3283
906.389	3348
906.506	3237
906.623	3245
906.74	3287
906.857	3184
906.974	3272
907.091	3473
907.208	3523
907.324	3462
907.441	3409
907.557	3211
907.674	3218
907.79	3180
907.907	3245
908.023	3382
908.139	3405
908.256	3332
908.372	3382
908.488	3348
908.604	3268
908.72	3207
908.836	3306
908.952	3287
909.068	3340
909.184	3454
909.3	3412
909.415	3466
909.531	3443
909.647	3298
909.762	3253
909.878	3256
909.993	3359
910.108	3332
910.224	3306
910.339	3393
910.454	3332
910.57	3253
910.685	3218
910.8	3599
910.915	3492
911.03	3424
911.145	3230
911.259	3287
911.374	3344
911.489	3211
911.604	3226
911.718	3127
911.833	3131
911.947	3032
912.062	3001
912.176	3180
912.291	3165
912.405	3233
912.519	3382
912.633	3443
912.748	3344
912.862	3279
912.976	3180
913.09	3066
913.204	3119
913.318	3203
913.431	3321
913.545	3344
913.659	3409
913.772	3325
913.886	3233
914	3195
914.113	3416
914.226	3363
914.34	3374
914.453	3207
914.566	3473
914.68	3291
914.793	3302
914.906	3150
915.019	3119
915.132	3077
915.245	3138
915.358	3218
915.47	3230
915.583	3241
915.696	3294
915.809	3389
915.921	3389
916.034	3245
916.146	3245
916.259	3176
916.371	3359
916.483	3367
916.595	3283
916.708	3370
916.82	3321
916.932	3363
917.044	3348
917.156	3329
917.268	3283
917.38	3279
917.491	3294
917.603	3363
917.715	3424
917.826	3507
917.938	3386
918.049	3302
918.161	3454
918.272	3580
918.384	3622
918.495	3504
918.606	3329
918.717	3313
918.828	3355
918.939	3405
919.05	3310
919.161	3393
919.272	3176
919.383	3279
919.494	3500
919.604	3675
919.715	3507
919.826	3382
919.936	3435
920.047	3557
920.157	3549
920.267	3751
920.378	3587
920.488	3572
920.598	3755
920.708	3983
920.818	3846
920.928	3819
921.038	4029
921.148	3994
921.258	3713
921.368	3633
921.477	3564
921.587	3549
921.697	3443
921.806	3641
921.916	3481
922.025	3367
922.134	3370
922.244	3325
922.353	3466
922.462	3279
922.571	3222
922.68	3077
922.789	3081
922.898	3131
923.007	3085
923.116	3211
923.224	3184
923.333	3150
923.442	3127
923.55	3100
923.659	3142
923.767	3230
923.876	3123
923.984	3218
924.092	3138
924.201	3203
924.309	3214
924.417	3260
924.525	3176
924.633	3272
924.741	4188
924.849	3024
924.956	3256
925.064	3135
925.172	3013
925.279	3119
925.387	3192
925.494	3180
925.602	3370
925.709	3325
925.816	3214
925.924	3249
926.031	3374
926.138	3325
926.245	3355
926.352	3245
926.459	3397
926.566	3443
926.673	3260
926.779	3245
926.886	3245
926.993	3211
927.099	3119
927.206	3093
927.312	3089
927.419	3237
927.525	3180
927.631	3279
927.737	3123
927.843	3138
927.95	2975
928.056	3146
928.162	3165
928.267	3241
928.373	3857
928.479	3287
928.585	3055
928.69	3188
928.796	3218
928.901	3176
929.007	3039
929.112	3241
929.218	3195
929.323	3104
929.428	3119
929.533	3291
929.638	3116
929.743	3176
929.848	3241
929.953	3211
930.058	3176
930.163	2994
930.267	3043
930.372	3199
930.477	3032
930.581	3332
930.685	3222
930.79	3043
930.894	3093
930.998	3097
931.103	3283
931.207	2986
931.311	2929
931.415	2906
931.519	2800
931.623	2792
