Data from test_V78500241_106.txt Node
Date: Fri Mar 25 16:15:56 CST 2022
User: usil
Spectrometer: V785-0024
Trigger mode: 0
Integration Time (sec): 4.000000E-1
Scans to average: 1
Nonlinearity correction enabled: false
Boxcar width: 0
Storing dark spectrum: false
XAxis mode: Wavelengths
Number of Pixels in Spectrum: 1024
>>>>>Begin Spectral Data<<<<<
801.071	2937
801.214	2952
801.356	2895
801.499	2906
801.641	2895
801.783	2937
801.926	3058
802.068	3001
802.211	3039
802.353	3097
802.496	3017
802.638	2982
802.78	3062
802.923	3100
803.065	3028
803.208	2914
803.35	2922
803.492	2952
803.635	2914
803.777	2758
803.919	2864
804.061	3226
804.204	2967
804.346	2971
804.488	2876
804.63	3043
804.773	2899
804.915	2925
805.057	3123
805.199	2929
805.341	3001
805.483	3093
805.626	3043
805.768	2986
805.91	3085
806.052	3135
806.194	3043
806.336	3253
806.478	3017
806.62	2990
806.762	3005
806.904	3097
807.046	3165
807.188	3001
807.33	2925
807.472	3043
807.614	2925
807.756	3028
807.898	2956
808.04	2910
808.182	2979
808.324	2948
808.465	2925
808.607	2941
808.749	2796
808.891	2902
809.033	3017
809.174	2944
809.316	2880
809.458	2910
809.6	2769
809.741	2788
809.883	2804
810.025	2861
810.166	2838
810.308	2899
810.45	2918
810.591	2823
810.733	2792
810.875	2838
811.016	2792
811.158	2777
811.299	2853
811.441	3009
811.582	2918
811.724	2864
811.865	2872
812.007	2922
812.148	2895
812.29	2868
812.431	2914
812.573	2979
812.714	3001
812.855	3097
812.997	3058
813.138	3173
813.279	3043
813.421	3020
813.562	2982
813.703	2899
813.845	2922
813.986	2788
814.127	2724
814.268	2864
814.41	2864
814.551	2853
814.692	2845
814.833	2883
814.974	2929
815.115	2975
815.256	2876
815.397	2853
815.539	2914
815.68	2838
815.821	2826
815.962	2956
816.103	2948
816.244	2906
816.385	2887
816.526	2975
816.666	2948
816.807	2800
816.948	2880
817.089	2956
817.23	2883
817.371	2788
817.512	2807
817.653	2899
817.793	2849
817.934	2922
818.075	2986
818.216	3001
818.356	3036
818.497	2937
818.638	2815
818.778	2845
818.919	2792
819.06	2842
819.2	2941
819.341	2842
819.481	2792
819.622	2925
819.762	3116
819.903	3024
820.043	2922
820.184	2933
820.324	2918
820.465	3017
820.605	2990
820.746	3024
820.886	2967
821.026	3142
821.167	3199
821.307	3283
821.447	3306
821.588	3306
821.728	3237
821.868	3237
822.008	3123
822.149	3211
822.289	3275
822.429	3127
822.569	3116
822.709	3192
822.849	3009
822.99	3131
823.13	3173
823.27	3264
823.41	3157
823.55	3199
823.69	3154
823.83	3275
823.97	3116
824.11	3036
824.25	3047
824.389	3116
824.529	3146
824.669	3081
824.809	3245
824.949	3275
825.089	3264
825.228	3195
825.368	3036
825.508	2982
825.648	3020
825.787	3066
825.927	3077
826.067	3005
826.206	2979
826.346	3066
826.485	3089
826.625	3165
826.765	3283
826.904	3260
827.044	3032
827.183	2933
827.323	2899
827.462	3020
827.601	2937
827.741	2982
827.88	2967
828.02	2872
828.159	3005
828.298	3062
828.437	3116
828.577	3070
828.716	3260
828.855	3074
828.994	2975
829.134	2880
829.273	2906
829.412	2883
829.551	2861
829.69	2899
829.829	3005
829.968	3146
830.107	3081
830.246	3051
830.385	2952
830.524	2891
830.663	2815
830.802	2788
830.941	2667
831.08	2651
831.219	2807
831.357	2754
831.496	2967
831.635	2720
831.774	2670
831.913	2663
832.051	2598
832.19	2606
832.329	2720
832.467	2549
832.606	2522
832.744	2590
832.883	2621
833.022	2602
833.16	2648
833.299	2727
833.437	2682
833.576	2743
833.714	2743
833.852	2750
833.991	2792
834.129	2883
834.267	2861
834.406	2826
834.544	2880
834.682	2891
834.821	2887
834.959	3123
835.097	2902
835.235	3100
835.373	3009
835.511	3020
835.65	2937
835.788	2944
835.926	2853
836.064	2845
836.202	2891
836.34	3116
836.478	3173
836.615	3058
836.753	3154
836.891	3237
837.029	3180
837.167	3119
837.305	3097
837.443	3062
837.58	3005
837.718	3127
837.856	3100
837.993	3089
838.131	3123
838.269	3093
838.406	3097
838.544	3116
838.681	2956
838.819	2952
838.956	2819
839.094	2876
839.231	2941
839.369	3013
839.506	3439
839.643	3214
839.781	2998
839.918	2982
840.055	3074
840.193	3066
840.33	3043
840.467	3157
840.604	3138
840.742	3412
840.879	3070
841.016	3058
841.153	3169
841.29	3359
841.427	3317
841.564	3329
841.701	3313
841.838	3241
841.975	3226
842.112	3245
842.249	3093
842.385	3070
842.522	3310
842.659	3108
842.796	3097
842.933	3108
843.069	3085
843.206	3051
843.343	3214
843.479	3146
843.616	3150
843.752	2906
843.889	2876
844.025	3093
844.162	2895
844.298	3108
844.435	2956
844.571	2902
844.708	3089
844.844	3195
844.98	3241
845.117	3169
845.253	3062
845.389	3043
845.525	3131
845.661	3070
845.798	3036
845.934	3127
846.07	3077
846.206	3203
846.342	3355
846.478	3218
846.614	3100
846.75	3051
846.886	3062
847.022	3253
847.158	3142
847.294	3218
847.429	3279
847.565	3222
847.701	3504
847.837	3036
847.972	3009
848.108	3169
848.244	3199
848.379	3020
848.515	2975
848.65	2933
848.786	2971
848.921	3043
849.057	3135
849.192	3154
849.328	3077
849.463	3127
849.598	3066
849.734	3070
849.869	2975
850.004	2922
850.14	2982
850.275	2925
850.41	2864
850.545	2918
850.68	2956
850.815	2986
850.95	2975
851.085	3195
851.22	3116
851.355	3039
851.49	3020
851.625	3001
851.76	3039
851.895	2960
852.03	2910
852.165	3047
852.299	3138
852.434	3188
852.569	3165
852.703	3207
852.838	3264
852.973	3374
853.107	3386
853.242	3165
853.376	3127
853.511	2963
853.645	3074
853.78	3256
853.914	3146
854.048	3138
854.183	3077
854.317	3173
854.451	3306
854.585	3150
854.72	3077
854.854	3249
854.988	3070
855.122	3127
855.256	3009
855.39	3173
855.524	3226
855.658	3218
855.792	3195
855.926	3195
856.06	3256
856.194	3260
856.327	3195
856.461	3100
856.595	3089
856.729	3146
856.862	3222
856.996	3199
857.13	3192
857.263	3253
857.397	3294
857.53	3131
857.664	3184
857.797	3268
857.931	3336
858.064	3192
858.197	3237
858.331	3157
858.464	3108
858.597	3024
858.731	3157
858.864	3176
858.997	3112
859.13	3180
859.263	3188
859.396	3264
859.529	3089
859.662	3074
859.795	3108
859.928	3173
860.061	3272
860.194	3329
860.327	3131
860.46	3108
860.592	3268
860.725	3291
860.858	3283
860.99	3150
861.123	3051
861.256	3055
861.388	3142
861.521	3694
861.653	3066
861.786	2998
861.918	3020
862.05	3081
862.183	3123
862.315	3161
862.447	3188
862.58	3142
862.712	2971
862.844	2922
862.976	3009
863.108	3047
863.24	3439
863.372	2883
863.504	2986
863.636	2986
863.768	3058
863.9	2963
864.032	2922
864.164	2990
864.296	3043
864.428	3093
864.559	3112
864.691	3112
864.823	3097
864.954	3066
865.086	3104
865.217	3039
865.349	2952
865.48	2975
865.612	3066
865.743	3192
865.875	3017
866.006	2963
866.137	2994
866.269	2979
866.4	2941
866.531	2914
866.662	2902
866.793	2891
866.924	2925
867.055	3017
867.186	2952
867.317	2918
867.448	2872
867.579	2861
867.71	2872
867.841	2864
867.972	2922
868.103	2891
868.233	2895
868.364	2914
868.495	2906
868.625	3119
868.756	3169
868.886	2986
869.017	3058
869.147	3203
869.278	3176
869.408	3051
869.539	3062
869.669	3123
869.799	3074
869.929	3146
870.06	3142
870.19	3340
870.32	3317
870.45	3374
870.58	3416
870.71	3485
870.84	3462
870.97	3344
871.1	3237
871.23	3530
871.36	3530
871.489	3348
871.619	3412
871.749	3420
871.879	3473
872.008	3485
872.138	3389
872.267	3310
872.397	3154
872.526	3142
872.656	3058
872.785	3097
872.915	3222
873.044	3355
873.173	3230
873.303	3256
873.432	3291
873.561	3226
873.69	3192
873.819	3214
873.948	3230
874.077	3108
874.206	3100
874.335	3081
874.464	3256
874.593	3363
874.722	3275
874.851	3424
874.979	3378
875.108	3336
875.237	3211
875.365	3211
875.494	3173
875.623	3260
875.751	3138
875.88	3131
876.008	3214
876.136	3291
876.265	3401
876.393	3542
876.521	3447
876.65	3389
876.778	3359
876.906	3253
877.034	3245
877.162	3268
877.29	3233
877.418	3272
877.546	3264
877.674	3287
877.802	3264
877.93	3275
878.058	3195
878.185	3142
878.313	3207
878.441	3241
878.568	3097
878.696	3165
878.824	3268
878.951	3321
879.079	3473
879.206	3644
879.333	3454
879.461	3355
879.588	3382
879.715	3523
879.842	3599
879.97	3439
880.097	3218
880.224	3150
880.351	3230
880.478	3283
880.605	3226
880.732	3188
880.859	3511
880.986	3317
881.112	3367
881.239	3214
881.366	3146
881.493	3051
881.619	3020
881.746	3123
881.872	3104
881.999	3138
882.125	3154
882.252	3253
882.378	3359
882.505	3428
882.631	3291
882.757	3188
882.883	3230
883.01	3241
883.136	3173
883.262	3100
883.388	3135
883.514	3287
883.64	3397
883.766	3351
883.892	3226
884.018	3218
884.143	3397
884.269	3584
884.395	3218
884.52	3214
884.646	3214
884.772	3161
884.897	3112
885.023	3218
885.148	3367
885.274	3428
885.399	3428
885.524	3283
885.65	3287
885.775	3363
885.9	3310
886.025	3466
886.15	3370
886.275	3344
886.4	3260
886.525	3317
886.65	3275
886.775	3298
886.9	3530
887.025	3633
887.149	3386
887.274	3264
887.399	3214
887.523	3226
887.648	3199
887.773	3245
887.897	3409
888.021	3447
888.146	3291
888.27	3496
888.395	3534
888.519	3443
888.643	3469
888.767	3473
888.891	3329
889.015	3287
889.139	3306
889.263	3264
889.387	3447
889.511	3553
889.635	3496
889.759	3351
889.883	3336
890.006	3397
890.13	3496
890.254	3325
890.377	3363
890.501	3214
890.624	3207
890.748	3321
890.871	3203
890.995	3116
891.118	3077
891.241	3230
891.364	3260
891.488	3340
891.611	3161
891.734	3260
891.857	3260
891.98	3256
892.103	3386
892.226	3306
892.349	3249
892.471	3108
892.594	3260
892.717	3287
892.839	3298
892.962	3348
893.085	3416
893.207	3329
893.33	3180
893.452	3249
893.575	3340
893.697	3245
893.819	3504
893.941	3496
894.064	3504
894.186	3260
894.308	3275
894.43	3462
894.552	3538
894.674	3477
894.796	3264
894.918	3310
895.04	3310
895.161	3424
895.283	3450
895.405	3355
895.526	3378
895.648	3447
895.769	3450
895.891	3492
896.012	3511
896.134	3485
896.255	3435
896.376	3420
896.498	3378
896.619	3462
896.74	3386
896.861	3435
896.982	3675
897.103	3896
897.224	3587
897.345	3534
897.466	3466
897.587	3534
897.708	3656
897.828	3542
897.949	3469
898.07	3367
898.19	3412
898.311	3644
898.431	3435
898.552	3568
898.672	3641
898.792	3618
898.913	3572
899.033	3481
899.153	3321
899.273	3256
899.393	3298
899.513	3325
899.633	3359
899.753	3374
899.873	3386
899.993	3405
900.113	3363
900.232	3435
900.352	3386
900.472	3279
900.591	3233
900.711	3313
900.83	3230
900.95	3401
901.069	3488
901.189	3401
901.308	3199
901.427	3154
901.546	3230
901.665	3325
901.784	3355
901.904	3237
902.023	3188
902.141	3055
902.26	3001
902.379	3150
902.498	3074
902.617	3100
902.735	3222
902.854	3256
902.973	3218
903.091	3100
903.21	3074
903.328	3127
903.446	3146
903.565	3119
903.683	3260
903.801	3119
903.919	3294
904.038	3355
904.156	3218
904.274	3291
904.392	3287
904.51	3317
904.627	3313
904.745	3485
904.863	3515
904.981	3283
905.098	3203
905.216	3245
905.334	3313
905.451	3363
905.569	3348
905.686	3431
905.803	3454
905.921	3298
906.038	3450
906.155	3397
906.272	3287
906.389	3348
906.506	3222
906.623	3317
906.74	3310
906.857	3214
906.974	3291
907.091	3496
907.208	3595
907.324	3500
907.441	3420
907.557	3260
907.674	3264
907.79	3253
907.907	3321
908.023	3424
908.139	3382
908.256	3340
908.372	3409
908.488	3409
908.604	3249
908.72	3287
908.836	3264
908.952	3306
909.068	3389
909.184	3542
909.3	3431
909.415	3542
909.531	3481
909.647	3329
909.762	3359
909.878	3298
909.993	3412
910.108	3420
910.224	3386
910.339	3496
910.454	3359
910.57	3332
910.685	3245
910.8	3622
910.915	3526
911.03	3462
911.145	3245
911.259	3313
911.374	3348
911.489	3283
911.604	3275
911.718	3104
911.833	3222
911.947	3055
912.062	3001
912.176	3192
912.291	3180
912.405	3214
912.519	3485
912.633	3462
912.748	3370
912.862	3332
912.976	3218
913.09	3100
913.204	3180
913.318	3256
913.431	3382
913.545	3363
913.659	3416
913.772	3370
913.886	3211
914	3195
914.113	3370
914.226	3450
914.34	3409
914.453	3268
914.566	3450
914.68	3344
914.793	3332
914.906	3165
915.019	3138
915.132	3077
915.245	3192
915.358	3226
915.47	3245
915.583	3321
915.696	3321
915.809	3458
915.921	3469
916.034	3279
916.146	3275
916.259	3287
916.371	3409
916.483	3359
916.595	3310
916.708	3389
916.82	3363
916.932	3393
917.044	3374
917.156	3431
917.268	3306
917.38	3355
917.491	3302
917.603	3428
917.715	3496
917.826	3492
917.938	3370
918.049	3313
918.161	3431
918.272	3610
918.384	3591
918.495	3545
918.606	3367
918.717	3287
918.828	3424
918.939	3435
919.05	3317
919.161	3405
919.272	3192
919.383	3329
919.494	3534
919.604	3682
919.715	3507
919.826	3447
919.936	3496
920.047	3648
920.157	3587
920.267	3774
920.378	3633
920.488	3614
920.598	3759
920.708	3960
920.818	3850
920.928	3892
921.038	4074
921.148	4017
921.258	3766
921.368	3663
921.477	3587
921.587	3553
921.697	3485
921.806	3629
921.916	3580
922.025	3397
922.134	3344
922.244	3317
922.353	3469
922.462	3287
922.571	3237
922.68	3146
922.789	3127
922.898	3165
923.007	3127
923.116	3253
923.224	3207
923.333	3218
923.442	3138
923.55	3085
923.659	3173
923.767	3237
923.876	3135
923.984	3272
924.092	3112
924.201	3245
924.309	3241
924.417	3291
924.525	3199
924.633	3268
924.741	4227
924.849	3097
924.956	3302
925.064	3150
925.172	3074
925.279	3119
925.387	3199
925.494	3245
925.602	3382
925.709	3348
925.816	3211
925.924	3260
926.031	3405
926.138	3363
926.245	3420
926.352	3272
926.459	3420
926.566	3485
926.673	3355
926.779	3287
926.886	3226
926.993	3195
927.099	3138
927.206	3173
927.312	3146
927.419	3237
927.525	3233
927.631	3302
927.737	3180
927.843	3131
927.95	3024
928.056	3169
928.162	3199
928.267	3226
928.373	3797
928.479	3351
928.585	3062
928.69	3287
928.796	3298
928.901	3226
929.007	3036
929.112	3249
929.218	3218
929.323	3192
929.428	3150
929.533	3340
929.638	3100
929.743	3157
929.848	3313
929.953	3253
930.058	3161
930.163	3043
930.267	3066
930.372	3207
930.477	3058
930.581	3359
930.685	3207
930.79	3100
930.894	3161
930.998	3104
931.103	3283
931.207	2990
931.311	2960
931.415	2944
931.519	2769
931.623	2842
