Data from test_V78500241_1996.txt Node
Date: Fri Mar 25 16:29:01 CST 2022
User: usil
Spectrometer: V785-0024
Trigger mode: 0
Integration Time (sec): 4.000000E-1
Scans to average: 1
Nonlinearity correction enabled: false
Boxcar width: 0
Storing dark spectrum: false
XAxis mode: Wavelengths
Number of Pixels in Spectrum: 1024
>>>>>Begin Spectral Data<<<<<
801.071	2914
801.214	2960
801.356	2883
801.499	2906
801.641	2891
801.783	2956
801.926	3093
802.068	3013
802.211	2960
802.353	3047
802.496	2963
802.638	3013
802.78	3036
802.923	3077
803.065	3039
803.208	2914
803.35	2929
803.492	2925
803.635	2944
803.777	2769
803.919	2834
804.061	3214
804.204	2910
804.346	2925
804.488	2853
804.63	3001
804.773	2872
804.915	2963
805.057	3093
805.199	2986
805.341	2979
805.483	3055
805.626	3009
805.768	2941
805.91	3097
806.052	3146
806.194	3039
806.336	3279
806.478	3047
806.62	2971
806.762	3039
806.904	3093
807.046	3268
807.188	3043
807.33	2952
807.472	3039
807.614	2925
807.756	3020
807.898	2982
808.04	2918
808.182	2990
808.324	3001
808.465	2929
808.607	2944
808.749	2853
808.891	2899
809.033	3043
809.174	3013
809.316	2918
809.458	2918
809.6	2811
809.741	2807
809.883	2777
810.025	2895
810.166	2891
810.308	2914
810.45	2880
810.591	2788
810.733	2796
810.875	2849
811.016	2811
811.158	2796
811.299	2838
811.441	2990
811.582	2910
811.724	2853
811.865	2887
812.007	2960
812.148	2906
812.29	2872
812.431	2925
812.573	2956
812.714	3001
812.855	3089
812.997	3089
813.138	3157
813.279	3043
813.421	2990
813.562	2979
813.703	2902
813.845	2918
813.986	2792
814.127	2785
814.268	2849
814.41	2922
814.551	2826
814.692	2899
814.833	2853
814.974	2914
815.115	2971
815.256	2826
815.397	2849
815.539	2861
815.68	2823
815.821	2823
815.962	2944
816.103	2941
816.244	2914
816.385	2906
816.526	2967
816.666	2967
816.807	2796
816.948	2891
817.089	2895
817.23	2914
817.371	2815
817.512	2864
817.653	2853
817.793	2864
817.934	2918
818.075	2956
818.216	3036
818.356	3039
818.497	2941
818.638	2807
818.778	2861
818.919	2849
819.06	2796
819.2	2902
819.341	2842
819.481	2777
819.622	2952
819.762	3142
819.903	3055
820.043	2967
820.184	2914
820.324	2929
820.465	3055
820.605	3074
820.746	3077
820.886	3005
821.026	3142
821.167	3176
821.307	3302
821.447	3260
821.588	3272
821.728	3245
821.868	3214
822.008	3104
822.149	3275
822.289	3264
822.429	3131
822.569	3104
822.709	3169
822.849	3074
822.99	3077
823.13	3161
823.27	3233
823.41	3112
823.55	3169
823.69	3165
823.83	3173
823.97	3135
824.11	3058
824.25	3055
824.389	3074
824.529	3154
824.669	3077
824.809	3214
824.949	3291
825.089	3245
825.228	3222
825.368	3017
825.508	2994
825.648	2979
825.787	3028
825.927	3058
826.067	2975
826.206	3009
826.346	3100
826.485	3097
826.625	3119
826.765	3279
826.904	3249
827.044	2979
827.183	2956
827.323	2849
827.462	2975
827.601	2925
827.741	2975
827.88	2948
828.02	2857
828.159	3001
828.298	3081
828.437	3161
828.577	3066
828.716	3272
828.855	3138
828.994	2914
829.134	2891
829.273	2960
829.412	2899
829.551	2876
829.69	2902
829.829	3036
829.968	3188
830.107	3028
830.246	3081
830.385	2952
830.524	2929
830.663	2834
830.802	2746
830.941	2682
831.08	2678
831.219	2773
831.357	2800
831.496	2948
831.635	2754
831.774	2667
831.913	2678
832.051	2587
832.19	2571
832.329	2716
832.467	2590
832.606	2495
832.744	2610
832.883	2613
833.022	2610
833.16	2689
833.299	2693
833.437	2708
833.576	2739
833.714	2766
833.852	2754
833.991	2777
834.129	2861
834.267	2876
834.406	2800
834.544	2899
834.682	2910
834.821	2880
834.959	3119
835.097	2922
835.235	3116
835.373	3005
835.511	3039
835.65	2960
835.788	2963
835.926	2800
836.064	2842
836.202	2876
836.34	3081
836.478	3154
836.615	3097
836.753	3169
836.891	3237
837.029	3203
837.167	3131
837.305	3119
837.443	3043
837.58	2967
837.718	3150
837.856	3093
837.993	3032
838.131	3161
838.269	3112
838.406	3093
838.544	3123
838.681	2944
838.819	2933
838.956	2842
839.094	2819
839.231	2933
839.369	3036
839.506	3378
839.643	3195
839.781	3051
839.918	2998
840.055	3070
840.193	3028
840.33	3028
840.467	3119
840.604	3146
840.742	3428
840.879	3097
841.016	3074
841.153	3154
841.29	3344
841.427	3313
841.564	3294
841.701	3336
841.838	3214
841.975	3211
842.112	3245
842.249	3104
842.385	3062
842.522	3233
842.659	3104
842.796	3093
842.933	3135
843.069	3097
843.206	3043
843.343	3245
843.479	3081
843.616	3176
843.752	2899
843.889	2887
844.025	3062
844.162	2864
844.298	3081
844.435	2967
844.571	2952
844.708	3051
844.844	3230
844.98	3249
845.117	3211
845.253	3070
845.389	3036
845.525	3085
845.661	3142
845.798	2975
845.934	3146
846.07	3058
846.206	3222
846.342	3310
846.478	3207
846.614	3100
846.75	3055
846.886	3058
847.022	3253
847.158	3131
847.294	3226
847.429	3287
847.565	3237
847.701	3481
847.837	3043
847.972	2990
848.108	3199
848.244	3184
848.379	3009
848.515	2971
848.65	2990
848.786	2994
848.921	3009
849.057	3135
849.192	3146
849.328	3081
849.463	3116
849.598	3077
849.734	3070
849.869	2975
850.004	2918
850.14	2982
850.275	2925
850.41	2864
850.545	2899
850.68	2929
850.815	2975
850.95	2963
851.085	3233
851.22	3089
851.355	3047
851.49	2975
851.625	2998
851.76	3020
851.895	2956
852.03	2929
852.165	3017
852.299	3119
852.434	3176
852.569	3165
852.703	3184
852.838	3214
852.973	3393
853.107	3321
853.242	3165
853.376	3116
853.511	2990
853.645	3055
853.78	3230
853.914	3150
854.048	3123
854.183	3085
854.317	3195
854.451	3302
854.585	3142
854.72	3127
854.854	3214
854.988	3055
855.122	3066
855.256	2990
855.39	3100
855.524	3253
855.658	3195
855.792	3165
855.926	3211
856.06	3226
856.194	3241
856.327	3146
856.461	3051
856.595	3100
856.729	3104
856.862	3237
856.996	3150
857.13	3218
857.263	3264
857.397	3291
857.53	3127
857.664	3203
857.797	3264
857.931	3272
858.064	3180
858.197	3203
858.331	3146
858.464	3085
858.597	3009
858.731	3100
858.864	3104
858.997	3127
859.13	3173
859.263	3165
859.396	3233
859.529	3097
859.662	3074
859.795	3066
859.928	3127
860.061	3272
860.194	3287
860.327	3165
860.46	3100
860.592	3260
860.725	3256
860.858	3249
860.99	3127
861.123	3032
861.256	3077
861.388	3188
861.521	3854
861.653	3009
861.786	2994
861.918	3013
862.05	3093
862.183	3097
862.315	3138
862.447	3192
862.58	3119
862.712	2967
862.844	2880
862.976	2994
863.108	3036
863.24	3450
863.372	2876
863.504	2982
863.636	2979
863.768	3051
863.9	2952
864.032	2922
864.164	2956
864.296	3020
864.428	3085
864.559	3077
864.691	3093
864.823	3089
864.954	3036
865.086	3051
865.217	3020
865.349	2982
865.48	2975
865.612	3043
865.743	3192
865.875	2967
866.006	2925
866.137	2994
866.269	2963
866.4	2960
866.531	2944
866.662	2910
866.793	2883
866.924	2929
867.055	3013
867.186	2971
867.317	2895
867.448	2864
867.579	2845
867.71	2861
867.841	2823
867.972	2933
868.103	2948
868.233	2899
868.364	2857
868.495	2910
868.625	3097
868.756	3150
868.886	2937
869.017	3001
869.147	3150
869.278	3180
869.408	3039
869.539	3005
869.669	3104
869.799	3043
869.929	3169
870.06	3150
870.19	3313
870.32	3245
870.45	3268
870.58	3374
870.71	3454
870.84	3496
870.97	3272
871.1	3260
871.23	3500
871.36	3488
871.489	3382
871.619	3420
871.749	3401
871.879	3420
872.008	3466
872.138	3382
872.267	3279
872.397	3104
872.526	3119
872.656	3058
872.785	3116
872.915	3306
873.044	3306
873.173	3237
873.303	3241
873.432	3241
873.561	3245
873.69	3169
873.819	3192
873.948	3207
874.077	3119
874.206	3047
874.335	3104
874.464	3222
874.593	3378
874.722	3233
874.851	3351
874.979	3397
875.108	3306
875.237	3180
875.365	3150
875.494	3142
875.623	3195
875.751	3089
875.88	3119
876.008	3203
876.136	3222
876.265	3370
876.393	3466
876.521	3447
876.65	3397
876.778	3374
876.906	3283
877.034	3176
877.162	3195
877.29	3161
877.418	3264
877.546	3241
877.674	3226
877.802	3245
877.93	3192
878.058	3142
878.185	3142
878.313	3207
878.441	3188
878.568	3074
878.696	3165
878.824	3279
878.951	3294
879.079	3458
879.206	3625
879.333	3420
879.461	3298
879.588	3367
879.715	3485
879.842	3614
879.97	3389
880.097	3176
880.224	3093
880.351	3203
880.478	3241
880.605	3192
880.732	3188
880.859	3507
880.986	3340
881.112	3302
881.239	3176
881.366	3100
881.493	3020
881.619	3001
881.746	3081
881.872	3051
881.999	3100
882.125	3165
882.252	3253
882.378	3294
882.505	3424
882.631	3256
882.757	3176
882.883	3192
883.01	3237
883.136	3173
883.262	3074
883.388	3127
883.514	3306
883.64	3370
883.766	3302
883.892	3222
884.018	3272
884.143	3382
884.269	3519
884.395	3211
884.52	3154
884.646	3173
884.772	3138
884.897	3081
885.023	3180
885.148	3386
885.274	3450
885.399	3363
885.524	3283
885.65	3260
885.775	3313
885.9	3268
886.025	3431
886.15	3370
886.275	3260
886.4	3249
886.525	3313
886.65	3272
886.775	3260
886.9	3488
887.025	3648
887.149	3382
887.274	3249
887.399	3184
887.523	3218
887.648	3195
887.773	3214
887.897	3351
888.021	3412
888.146	3272
888.27	3466
888.395	3519
888.519	3443
888.643	3409
888.767	3466
888.891	3313
889.015	3275
889.139	3283
889.263	3214
889.387	3393
889.511	3492
889.635	3431
889.759	3321
889.883	3268
890.006	3382
890.13	3538
890.254	3275
890.377	3367
890.501	3188
890.624	3199
890.748	3302
890.871	3188
890.995	3119
891.118	3089
891.241	3203
891.364	3233
891.488	3332
891.611	3169
891.734	3260
891.857	3302
891.98	3195
892.103	3325
892.226	3275
892.349	3207
892.471	3123
892.594	3249
892.717	3275
892.839	3279
892.962	3283
893.085	3321
893.207	3313
893.33	3176
893.452	3199
893.575	3359
893.697	3256
893.819	3481
893.941	3504
894.064	3439
894.186	3275
894.308	3291
894.43	3485
894.552	3553
894.674	3481
894.796	3283
894.918	3310
895.04	3283
895.161	3382
895.283	3428
895.405	3294
895.526	3363
895.648	3443
895.769	3412
895.891	3435
896.012	3473
896.134	3473
896.255	3389
896.376	3374
896.498	3397
896.619	3466
896.74	3359
896.861	3424
896.982	3690
897.103	3816
897.224	3614
897.345	3511
897.466	3473
897.587	3447
897.708	3618
897.828	3523
897.949	3435
898.07	3317
898.19	3393
898.311	3587
898.431	3447
898.552	3500
898.672	3564
898.792	3587
898.913	3534
899.033	3401
899.153	3325
899.273	3249
899.393	3302
899.513	3306
899.633	3336
899.753	3359
899.873	3287
899.993	3401
900.113	3374
900.232	3412
900.352	3291
900.472	3260
900.591	3203
900.711	3294
900.83	3249
900.95	3431
901.069	3488
901.189	3359
901.308	3169
901.427	3104
901.546	3150
901.665	3253
901.784	3348
901.904	3237
902.023	3127
902.141	2998
902.26	2975
902.379	3116
902.498	3066
902.617	3001
902.735	3207
902.854	3256
902.973	3207
903.091	3020
903.21	3070
903.328	3127
903.446	3093
903.565	3116
903.683	3184
903.801	3169
903.919	3249
904.038	3325
904.156	3173
904.274	3283
904.392	3272
904.51	3321
904.627	3329
904.745	3428
904.863	3492
904.981	3230
905.098	3142
905.216	3203
905.334	3310
905.451	3287
905.569	3294
905.686	3443
905.803	3420
905.921	3279
906.038	3454
906.155	3386
906.272	3279
906.389	3317
906.506	3222
906.623	3226
906.74	3291
906.857	3203
906.974	3226
907.091	3466
907.208	3557
907.324	3447
907.441	3370
907.557	3195
907.674	3241
907.79	3199
907.907	3294
908.023	3348
908.139	3363
908.256	3340
908.372	3374
908.488	3363
908.604	3256
908.72	3214
908.836	3313
908.952	3298
909.068	3332
909.184	3515
909.3	3405
909.415	3492
909.531	3477
909.647	3294
909.762	3302
909.878	3249
909.993	3344
910.108	3332
910.224	3306
910.339	3401
910.454	3325
910.57	3294
910.685	3264
910.8	3599
910.915	3511
911.03	3389
911.145	3283
911.259	3275
911.374	3283
911.489	3264
911.604	3230
911.718	3135
911.833	3150
911.947	3032
912.062	2941
912.176	3176
912.291	3184
912.405	3188
912.519	3359
912.633	3462
912.748	3340
912.862	3275
912.976	3150
913.09	3036
913.204	3127
913.318	3188
913.431	3298
913.545	3306
913.659	3393
913.772	3287
913.886	3218
914	3233
914.113	3359
914.226	3386
914.34	3351
914.453	3237
914.566	3397
914.68	3279
914.793	3317
914.906	3138
915.019	3108
915.132	3028
915.245	3169
915.358	3184
915.47	3241
915.583	3287
915.696	3283
915.809	3370
915.921	3382
916.034	3260
916.146	3230
916.259	3241
916.371	3382
916.483	3405
916.595	3268
916.708	3294
916.82	3344
916.932	3310
917.044	3374
917.156	3374
917.268	3260
917.38	3272
917.491	3291
917.603	3348
917.715	3439
917.826	3466
917.938	3412
918.049	3275
918.161	3431
918.272	3576
918.384	3576
918.495	3500
918.606	3336
918.717	3241
918.828	3389
918.939	3443
919.05	3332
919.161	3397
919.272	3192
919.383	3313
919.494	3507
919.604	3679
919.715	3477
919.826	3378
919.936	3481
920.047	3568
920.157	3526
920.267	3762
920.378	3618
920.488	3557
920.598	3766
920.708	3937
920.818	3827
920.928	3876
921.038	4021
921.148	3949
921.258	3724
921.368	3637
921.477	3561
921.587	3545
921.697	3443
921.806	3637
921.916	3534
922.025	3351
922.134	3348
922.244	3302
922.353	3405
922.462	3260
922.571	3226
922.68	3127
922.789	3036
922.898	3112
923.007	3116
923.116	3207
923.224	3180
923.333	3165
923.442	3085
923.55	3104
923.659	3119
923.767	3233
923.876	3085
923.984	3207
924.092	3100
924.201	3165
924.309	3230
924.417	3253
924.525	3161
924.633	3222
924.741	4154
924.849	3032
924.956	3241
925.064	3100
925.172	3058
925.279	3097
925.387	3165
925.494	3211
925.602	3344
925.709	3321
925.816	3169
925.924	3260
926.031	3336
926.138	3264
926.245	3351
926.352	3268
926.459	3405
926.566	3466
926.673	3325
926.779	3245
926.886	3253
926.993	3154
927.099	3104
927.206	3135
927.312	3116
927.419	3245
927.525	3214
927.631	3264
927.737	3150
927.843	3135
927.95	3043
928.056	3089
928.162	3142
928.267	3237
928.373	3819
928.479	3332
928.585	3089
928.69	3173
928.796	3275
928.901	3142
929.007	3051
929.112	3192
929.218	3146
929.323	3123
929.428	3116
929.533	3279
929.638	3077
929.743	3157
929.848	3268
929.953	3199
930.058	3161
930.163	2979
930.267	3047
930.372	3195
930.477	3020
930.581	3310
930.685	3161
930.79	3062
930.894	3104
930.998	3093
931.103	3313
931.207	2929
931.311	2967
931.415	2918
931.519	2773
931.623	2826
