Data from test_V78500241_1170.txt Node
Date: Fri Mar 25 16:23:18 CST 2022
User: usil
Spectrometer: V785-0024
Trigger mode: 0
Integration Time (sec): 4.000000E-1
Scans to average: 1
Nonlinearity correction enabled: false
Boxcar width: 0
Storing dark spectrum: false
XAxis mode: Wavelengths
Number of Pixels in Spectrum: 1024
>>>>>Begin Spectral Data<<<<<
801.071	2960
801.214	2979
801.356	2880
801.499	2902
801.641	2880
801.783	2952
801.926	3051
802.068	3013
802.211	2990
802.353	3062
802.496	2979
802.638	3039
802.78	3028
802.923	3070
803.065	2998
803.208	2880
803.35	2925
803.492	2918
803.635	2906
803.777	2762
803.919	2876
804.061	3169
804.204	2914
804.346	2876
804.488	2842
804.63	2986
804.773	2883
804.915	2960
805.057	3108
805.199	2952
805.341	2994
805.483	3039
805.626	2994
805.768	2963
805.91	3116
806.052	3097
806.194	3047
806.336	3264
806.478	3001
806.62	2982
806.762	2994
806.904	3089
807.046	3165
807.188	2975
807.33	2899
807.472	2990
807.614	2914
807.756	2960
807.898	2922
808.04	2872
808.182	2956
808.324	2963
808.465	2887
808.607	2895
808.749	2792
808.891	2823
809.033	2960
809.174	2963
809.316	2861
809.458	2883
809.6	2781
809.741	2773
809.883	2773
810.025	2853
810.166	2861
810.308	2872
810.45	2868
810.591	2762
810.733	2758
810.875	2815
811.016	2804
811.158	2750
811.299	2781
811.441	2937
811.582	2929
811.724	2807
811.865	2834
812.007	2899
812.148	2872
812.29	2819
812.431	2872
812.573	2925
812.714	2975
812.855	3020
812.997	3024
813.138	3097
813.279	3017
813.421	2948
813.562	2929
813.703	2876
813.845	2887
813.986	2785
814.127	2739
814.268	2864
814.41	2826
814.551	2804
814.692	2880
814.833	2864
814.974	2899
815.115	2941
815.256	2845
815.397	2826
815.539	2849
815.68	2785
815.821	2838
815.962	2948
816.103	2925
816.244	2883
816.385	2872
816.526	2937
816.666	2899
816.807	2766
816.948	2914
817.089	2868
817.23	2849
817.371	2758
817.512	2754
817.653	2849
817.793	2826
817.934	2872
818.075	2960
818.216	3032
818.356	2994
818.497	2914
818.638	2811
818.778	2823
818.919	2796
819.06	2769
819.2	2880
819.341	2800
819.481	2754
819.622	2944
819.762	3108
819.903	3043
820.043	2891
820.184	2880
820.324	2902
820.465	2998
820.605	3017
820.746	3039
820.886	2933
821.026	3077
821.167	3184
821.307	3253
821.447	3264
821.588	3241
821.728	3230
821.868	3142
822.008	3074
822.149	3192
822.289	3184
822.429	3081
822.569	3097
822.709	3127
822.849	2994
822.99	3097
823.13	3131
823.27	3188
823.41	3127
823.55	3157
823.69	3157
823.83	3192
823.97	3062
824.11	3005
824.25	2990
824.389	3028
824.529	3104
824.669	3081
824.809	3203
824.949	3203
825.089	3218
825.228	3161
825.368	3001
825.508	2933
825.648	2990
825.787	3005
825.927	3047
826.067	2971
826.206	2929
826.346	3047
826.485	3112
826.625	3112
826.765	3294
826.904	3245
827.044	3024
827.183	2941
827.323	2891
827.462	2975
827.601	2922
827.741	2925
827.88	2994
828.02	2899
828.159	3020
828.298	3036
828.437	3161
828.577	3070
828.716	3268
828.855	3119
828.994	2967
829.134	2918
829.273	2952
829.412	2861
829.551	2861
829.69	2899
829.829	3047
829.968	3135
830.107	3058
830.246	3093
830.385	2960
830.524	2922
830.663	2849
830.802	2777
830.941	2655
831.08	2689
831.219	2773
831.357	2800
831.496	2998
831.635	2788
831.774	2674
831.913	2693
832.051	2583
832.19	2583
832.329	2705
832.467	2610
832.606	2518
832.744	2613
832.883	2606
833.022	2629
833.16	2663
833.299	2754
833.437	2724
833.576	2746
833.714	2781
833.852	2758
833.991	2804
834.129	2842
834.267	2845
834.406	2800
834.544	2864
834.682	2876
834.821	2891
834.959	3081
835.097	2944
835.235	3123
835.373	3009
835.511	3051
835.65	3009
835.788	2982
835.926	2876
836.064	2853
836.202	2883
836.34	3116
836.478	3214
836.615	3077
836.753	3169
836.891	3233
837.029	3176
837.167	3138
837.305	3104
837.443	3081
837.58	3005
837.718	3165
837.856	3123
837.993	3097
838.131	3154
838.269	3169
838.406	3135
838.544	3085
838.681	3001
838.819	2948
838.956	2830
839.094	2864
839.231	2929
839.369	3043
839.506	3424
839.643	3275
839.781	3047
839.918	3005
840.055	3077
840.193	3047
840.33	3089
840.467	3116
840.604	3157
840.742	3443
840.879	3074
841.016	3055
841.153	3165
841.29	3367
841.427	3344
841.564	3260
841.701	3302
841.838	3230
841.975	3157
842.112	3222
842.249	3116
842.385	3100
842.522	3237
842.659	3104
842.796	3097
842.933	3138
843.069	3074
843.206	3039
843.343	3207
843.479	3131
843.616	3157
843.752	2918
843.889	2914
844.025	3089
844.162	2899
844.298	3085
844.435	3001
844.571	2960
844.708	3097
844.844	3245
844.98	3264
845.117	3214
845.253	3081
845.389	3043
845.525	3165
845.661	3123
845.798	3047
845.934	3176
846.07	3055
846.206	3294
846.342	3348
846.478	3241
846.614	3165
846.75	3070
846.886	3051
847.022	3272
847.158	3154
847.294	3230
847.429	3310
847.565	3226
847.701	3523
847.837	3039
847.972	3005
848.108	3169
848.244	3169
848.379	3032
848.515	2990
848.65	2944
848.786	2971
848.921	3066
849.057	3127
849.192	3188
849.328	3077
849.463	3131
849.598	3108
849.734	3051
849.869	3020
850.004	3001
850.14	3028
850.275	2948
850.41	2872
850.545	2914
850.68	2944
850.815	2986
850.95	2986
851.085	3192
851.22	3112
851.355	3039
851.49	3036
851.625	2967
851.76	3036
851.895	2971
852.03	2979
852.165	3066
852.299	3104
852.434	3218
852.569	3154
852.703	3211
852.838	3253
852.973	3389
853.107	3325
853.242	3184
853.376	3119
853.511	3005
853.645	3013
853.78	3294
853.914	3165
854.048	3169
854.183	3108
854.317	3192
854.451	3317
854.585	3127
854.72	3116
854.854	3272
854.988	3051
855.122	3100
855.256	3009
855.39	3157
855.524	3264
855.658	3233
855.792	3176
855.926	3207
856.06	3241
856.194	3279
856.327	3169
856.461	3081
856.595	3142
856.729	3138
856.862	3245
856.996	3184
857.13	3264
857.263	3241
857.397	3249
857.53	3146
857.664	3222
857.797	3264
857.931	3260
858.064	3184
858.197	3283
858.331	3135
858.464	3161
858.597	3028
858.731	3123
858.864	3127
858.997	3142
859.13	3218
859.263	3203
859.396	3214
859.529	3108
859.662	3058
859.795	3058
859.928	3146
860.061	3268
860.194	3336
860.327	3157
860.46	3131
860.592	3310
860.725	3268
860.858	3268
860.99	3116
861.123	3070
861.256	3077
861.388	3203
861.521	3724
861.653	3013
861.786	3024
861.918	3051
862.05	3097
862.183	3100
862.315	3180
862.447	3230
862.58	3104
862.712	2971
862.844	2914
862.976	3066
863.108	3024
863.24	3336
863.372	2880
863.504	2994
863.636	2933
863.768	3024
863.9	2998
864.032	2887
864.164	2971
864.296	3020
864.428	3108
864.559	3093
864.691	3077
864.823	3062
864.954	3055
865.086	3077
865.217	3013
865.349	2963
865.48	3009
865.612	3032
865.743	3192
865.875	2986
866.006	2956
866.137	2986
866.269	2967
866.4	2979
866.531	2944
866.662	2918
866.793	2876
866.924	2925
867.055	2982
867.186	2910
867.317	2922
867.448	2861
867.579	2849
867.71	2880
867.841	2853
867.972	2914
868.103	2929
868.233	2895
868.364	2929
868.495	2910
868.625	3142
868.756	3195
868.886	3020
869.017	3058
869.147	3214
869.278	3165
869.408	3085
869.539	3043
869.669	3108
869.799	3024
869.929	3131
870.06	3116
870.19	3344
870.32	3294
870.45	3325
870.58	3389
870.71	3492
870.84	3435
870.97	3268
871.1	3268
871.23	3545
871.36	3469
871.489	3393
871.619	3416
871.749	3409
871.879	3439
872.008	3492
872.138	3370
872.267	3321
872.397	3157
872.526	3131
872.656	3020
872.785	3127
872.915	3272
873.044	3336
873.173	3222
873.303	3283
873.432	3256
873.561	3256
873.69	3173
873.819	3131
873.948	3222
874.077	3119
874.206	3066
874.335	3093
874.464	3226
874.593	3367
874.722	3264
874.851	3420
874.979	3348
875.108	3340
875.237	3188
875.365	3176
875.494	3150
875.623	3275
875.751	3116
875.88	3108
876.008	3218
876.136	3222
876.265	3332
876.393	3492
876.521	3473
876.65	3424
876.778	3363
876.906	3298
877.034	3184
877.162	3268
877.29	3207
877.418	3249
877.546	3260
877.674	3275
877.802	3237
877.93	3226
878.058	3142
878.185	3150
878.313	3249
878.441	3207
878.568	3097
878.696	3173
878.824	3279
878.951	3279
879.079	3469
879.206	3644
879.333	3454
879.461	3306
879.588	3359
879.715	3504
879.842	3641
879.97	3405
880.097	3173
880.224	3154
880.351	3226
880.478	3207
880.605	3199
880.732	3192
880.859	3485
880.986	3374
881.112	3329
881.239	3226
881.366	3131
881.493	3043
881.619	3017
881.746	3104
881.872	3146
881.999	3108
882.125	3192
882.252	3214
882.378	3291
882.505	3458
882.631	3306
882.757	3154
882.883	3237
883.01	3233
883.136	3188
883.262	3127
883.388	3161
883.514	3348
883.64	3370
883.766	3325
883.892	3218
884.018	3264
884.143	3397
884.269	3568
884.395	3192
884.52	3165
884.646	3203
884.772	3146
884.897	3093
885.023	3207
885.148	3382
885.274	3409
885.399	3370
885.524	3325
885.65	3275
885.775	3306
885.9	3275
886.025	3466
886.15	3424
886.275	3329
886.4	3211
886.525	3336
886.65	3287
886.775	3291
886.9	3500
887.025	3641
887.149	3412
887.274	3264
887.399	3199
887.523	3268
887.648	3180
887.773	3184
887.897	3393
888.021	3405
888.146	3325
888.27	3416
888.395	3523
888.519	3439
888.643	3496
888.767	3443
888.891	3325
889.015	3203
889.139	3321
889.263	3214
889.387	3401
889.511	3511
889.635	3458
889.759	3291
889.883	3272
890.006	3416
890.13	3492
890.254	3302
890.377	3348
890.501	3230
890.624	3184
890.748	3313
890.871	3169
890.995	3085
891.118	3070
891.241	3214
891.364	3203
891.488	3313
891.611	3192
891.734	3199
891.857	3329
891.98	3253
892.103	3386
892.226	3245
892.349	3218
892.471	3142
892.594	3264
892.717	3279
892.839	3294
892.962	3283
893.085	3386
893.207	3294
893.33	3214
893.452	3241
893.575	3340
893.697	3241
893.819	3439
893.941	3515
894.064	3469
894.186	3275
894.308	3287
894.43	3428
894.552	3542
894.674	3481
894.796	3245
894.918	3363
895.04	3329
895.161	3431
895.283	3420
895.405	3298
895.526	3332
895.648	3412
895.769	3416
895.891	3450
896.012	3454
896.134	3477
896.255	3416
896.376	3420
896.498	3374
896.619	3416
896.74	3344
896.861	3389
896.982	3701
897.103	3816
897.224	3606
897.345	3542
897.466	3458
897.587	3496
897.708	3603
897.828	3530
897.949	3473
898.07	3344
898.19	3401
898.311	3584
898.431	3458
898.552	3545
898.672	3595
898.792	3595
898.913	3557
899.033	3435
899.153	3302
899.273	3241
899.393	3325
899.513	3336
899.633	3351
899.753	3355
899.873	3355
899.993	3336
900.113	3344
900.232	3359
900.352	3378
900.472	3291
900.591	3188
900.711	3313
900.83	3249
900.95	3443
901.069	3485
901.189	3367
901.308	3195
901.427	3119
901.546	3195
901.665	3283
901.784	3313
901.904	3222
902.023	3176
902.141	2998
902.26	3017
902.379	3157
902.498	3070
902.617	3066
902.735	3249
902.854	3241
902.973	3211
903.091	3055
903.21	3017
903.328	3127
903.446	3112
903.565	3112
903.683	3195
903.801	3131
903.919	3287
904.038	3268
904.156	3150
904.274	3268
904.392	3272
904.51	3294
904.627	3336
904.745	3431
904.863	3481
904.981	3253
905.098	3180
905.216	3237
905.334	3313
905.451	3294
905.569	3291
905.686	3431
905.803	3469
905.921	3264
906.038	3462
906.155	3359
906.272	3241
906.389	3367
906.506	3249
906.623	3249
906.74	3306
906.857	3233
906.974	3226
907.091	3462
907.208	3595
907.324	3477
907.441	3393
907.557	3256
907.674	3211
907.79	3207
907.907	3275
908.023	3367
908.139	3370
908.256	3363
908.372	3367
908.488	3378
908.604	3245
908.72	3249
908.836	3310
908.952	3302
909.068	3370
909.184	3447
909.3	3389
909.415	3447
909.531	3469
909.647	3310
909.762	3313
909.878	3317
909.993	3386
910.108	3344
910.224	3348
910.339	3374
910.454	3321
910.57	3291
910.685	3275
910.8	3618
910.915	3545
911.03	3458
911.145	3260
911.259	3291
911.374	3287
911.489	3233
911.604	3245
911.718	3150
911.833	3157
911.947	3070
912.062	2971
912.176	3169
912.291	3207
912.405	3184
912.519	3450
912.633	3469
912.748	3321
912.862	3355
912.976	3165
913.09	3074
913.204	3157
913.318	3203
913.431	3332
913.545	3329
913.659	3386
913.772	3329
913.886	3188
914	3245
914.113	3351
914.226	3401
914.34	3351
914.453	3222
914.566	3424
914.68	3302
914.793	3321
914.906	3131
915.019	3138
915.132	3058
915.245	3188
915.358	3222
915.47	3199
915.583	3260
915.696	3283
915.809	3405
915.921	3428
916.034	3256
916.146	3287
916.259	3233
916.371	3382
916.483	3386
916.595	3233
916.708	3336
916.82	3317
916.932	3287
917.044	3336
917.156	3359
917.268	3321
917.38	3340
917.491	3310
917.603	3340
917.715	3447
917.826	3473
917.938	3386
918.049	3283
918.161	3420
918.272	3580
918.384	3576
918.495	3530
918.606	3344
918.717	3283
918.828	3367
918.939	3386
919.05	3317
919.161	3359
919.272	3184
919.383	3253
919.494	3462
919.604	3698
919.715	3477
919.826	3420
919.936	3462
920.047	3568
920.157	3564
920.267	3755
920.378	3595
920.488	3561
920.598	3789
920.708	3930
920.818	3880
920.928	3838
921.038	4002
921.148	4013
921.258	3694
921.368	3633
921.477	3603
921.587	3545
921.697	3439
921.806	3625
921.916	3545
922.025	3389
922.134	3336
922.244	3332
922.353	3409
922.462	3237
922.571	3237
922.68	3081
922.789	3123
922.898	3150
923.007	3093
923.116	3173
923.224	3211
923.333	3180
923.442	3085
923.55	3097
923.659	3150
923.767	3241
923.876	3104
923.984	3256
924.092	3123
924.201	3199
924.309	3173
924.417	3253
924.525	3173
924.633	3233
924.741	4040
924.849	3070
924.956	3275
925.064	3077
925.172	3001
925.279	3127
925.387	3173
925.494	3207
925.602	3344
925.709	3325
925.816	3195
925.924	3298
926.031	3382
926.138	3359
926.245	3313
926.352	3218
926.459	3428
926.566	3443
926.673	3279
926.779	3241
926.886	3195
926.993	3154
927.099	3104
927.206	3104
927.312	3100
927.419	3256
927.525	3222
927.631	3283
927.737	3161
927.843	3150
927.95	3017
928.056	3192
928.162	3184
928.267	3291
928.373	3888
928.479	3351
928.585	3119
928.69	3245
928.796	3245
928.901	3165
929.007	3055
929.112	3233
929.218	3195
929.323	3150
929.428	3138
929.533	3310
929.638	3127
929.743	3146
929.848	3249
929.953	3173
930.058	3150
930.163	3032
930.267	3032
930.372	3199
930.477	3028
930.581	3310
930.685	3207
930.79	3058
930.894	3119
930.998	3112
931.103	3291
931.207	2944
931.311	2918
931.415	2914
931.519	2769
931.623	2785
