Data from test_V78500241_137.txt Node
Date: Fri Mar 25 16:16:09 CST 2022
User: usil
Spectrometer: V785-0024
Trigger mode: 0
Integration Time (sec): 4.000000E-1
Scans to average: 1
Nonlinearity correction enabled: false
Boxcar width: 0
Storing dark spectrum: false
XAxis mode: Wavelengths
Number of Pixels in Spectrum: 1024
>>>>>Begin Spectral Data<<<<<
801.071	2960
801.214	2986
801.356	2899
801.499	2929
801.641	2925
801.783	2948
801.926	3058
802.068	2986
802.211	3001
802.353	3032
802.496	2994
802.638	3024
802.78	3058
802.923	3108
803.065	3043
803.208	2899
803.35	2910
803.492	2956
803.635	2944
803.777	2811
803.919	2853
804.061	3226
804.204	2967
804.346	2910
804.488	2845
804.63	2994
804.773	2887
804.915	2922
805.057	3074
805.199	2963
805.341	3001
805.483	3062
805.626	3017
805.768	2979
805.91	3085
806.052	3108
806.194	3100
806.336	3275
806.478	3047
806.62	2998
806.762	3001
806.904	3089
807.046	3207
807.188	3013
807.33	2941
807.472	2994
807.614	2895
807.756	2967
807.898	2937
808.04	2902
808.182	3001
808.324	2975
808.465	2922
808.607	2918
808.749	2819
808.891	2826
809.033	3009
809.174	2979
809.316	2895
809.458	2895
809.6	2788
809.741	2800
809.883	2781
810.025	2883
810.166	2899
810.308	2857
810.45	2861
810.591	2769
810.733	2811
810.875	2834
811.016	2766
811.158	2762
811.299	2792
811.441	2937
811.582	2918
811.724	2838
811.865	2838
812.007	2914
812.148	2906
812.29	2857
812.431	2891
812.573	2944
812.714	2960
812.855	3058
812.997	3081
813.138	3169
813.279	3051
813.421	3024
813.562	2979
813.703	2918
813.845	2906
813.986	2777
814.127	2766
814.268	2849
814.41	2842
814.551	2823
814.692	2891
814.833	2830
814.974	2887
815.115	2967
815.256	2834
815.397	2842
815.539	2906
815.68	2815
815.821	2792
815.962	2998
816.103	2929
816.244	2902
816.385	2872
816.526	3001
816.666	2963
816.807	2758
816.948	2887
817.089	2929
817.23	2857
817.371	2796
817.512	2834
817.653	2845
817.793	2815
817.934	2914
818.075	2994
818.216	3032
818.356	3024
818.497	2944
818.638	2800
818.778	2853
818.919	2819
819.06	2785
819.2	2937
819.341	2800
819.481	2853
819.622	2941
819.762	3100
819.903	3039
820.043	2933
820.184	2902
820.324	2891
820.465	3013
820.605	3005
820.746	3013
820.886	2967
821.026	3112
821.167	3180
821.307	3279
821.447	3283
821.588	3233
821.728	3211
821.868	3230
822.008	3097
822.149	3184
822.289	3230
822.429	3100
822.569	3074
822.709	3176
822.849	3013
822.99	3093
823.13	3180
823.27	3211
823.41	3138
823.55	3157
823.69	3169
823.83	3222
823.97	3093
824.11	3055
824.25	3009
824.389	3074
824.529	3116
824.669	3077
824.809	3211
824.949	3283
825.089	3222
825.228	3161
825.368	3036
825.508	2937
825.648	3001
825.787	3036
825.927	3028
826.067	2982
826.206	2941
826.346	3017
826.485	3100
826.625	3116
826.765	3336
826.904	3233
827.044	3032
827.183	2975
827.323	2880
827.462	2990
827.601	2929
827.741	2948
827.88	2948
828.02	2872
828.159	3017
828.298	3020
828.437	3165
828.577	3055
828.716	3272
828.855	3093
828.994	2929
829.134	2914
829.273	2902
829.412	2853
829.551	2891
829.69	2876
829.829	3020
829.968	3154
830.107	3009
830.246	3051
830.385	2948
830.524	2895
830.663	2819
830.802	2766
830.941	2667
831.08	2659
831.219	2788
831.357	2750
831.496	2948
831.635	2746
831.774	2689
831.913	2644
832.051	2575
832.19	2598
832.329	2716
832.467	2541
832.606	2514
832.744	2571
832.883	2602
833.022	2590
833.16	2644
833.299	2678
833.437	2743
833.576	2705
833.714	2731
833.852	2762
833.991	2788
834.129	2857
834.267	2861
834.406	2792
834.544	2880
834.682	2906
834.821	2845
834.959	3074
835.097	2906
835.235	3047
835.373	3005
835.511	3032
835.65	2944
835.788	2960
835.926	2804
836.064	2807
836.202	2845
836.34	3146
836.478	3135
836.615	3051
836.753	3135
836.891	3241
837.029	3199
837.167	3146
837.305	3066
837.443	3051
837.58	3001
837.718	3184
837.856	3058
837.993	3066
838.131	3142
838.269	3135
838.406	3100
838.544	3051
838.681	2937
838.819	2967
838.956	2823
839.094	2834
839.231	2937
839.369	3020
839.506	3412
839.643	3230
839.781	3036
839.918	2982
840.055	3066
840.193	3058
840.33	3100
840.467	3116
840.604	3157
840.742	3431
840.879	3070
841.016	3058
841.153	3123
841.29	3340
841.427	3306
841.564	3287
841.701	3321
841.838	3241
841.975	3199
842.112	3241
842.249	3066
842.385	3062
842.522	3291
842.659	3058
842.796	3104
842.933	3150
843.069	3032
843.206	3032
843.343	3161
843.479	3146
843.616	3157
843.752	2876
843.889	2872
844.025	3081
844.162	2883
844.298	3077
844.435	2918
844.571	2918
844.708	3058
844.844	3211
844.98	3275
845.117	3203
845.253	3066
845.389	2998
845.525	3157
845.661	3135
845.798	3017
845.934	3123
846.07	3058
846.206	3207
846.342	3374
846.478	3260
846.614	3112
846.75	3051
846.886	3009
847.022	3245
847.158	3154
847.294	3222
847.429	3241
847.565	3214
847.701	3515
847.837	3047
847.972	3017
848.108	3161
848.244	3161
848.379	2975
848.515	2944
848.65	2944
848.786	2975
848.921	3020
849.057	3135
849.192	3157
849.328	3077
849.463	3157
849.598	3081
849.734	3036
849.869	2979
850.004	2948
850.14	2975
850.275	2960
850.41	2880
850.545	2868
850.68	2956
850.815	2956
850.95	2990
851.085	3188
851.22	3100
851.355	3017
851.49	3001
851.625	3020
851.76	3001
851.895	2948
852.03	2902
852.165	3070
852.299	3146
852.434	3188
852.569	3192
852.703	3161
852.838	3279
852.973	3317
853.107	3393
853.242	3097
853.376	3119
853.511	2982
853.645	3089
853.78	3211
853.914	3100
854.048	3161
854.183	3116
854.317	3146
854.451	3272
854.585	3161
854.72	3123
854.854	3214
854.988	3062
855.122	3070
855.256	2960
855.39	3104
855.524	3226
855.658	3199
855.792	3161
855.926	3203
856.06	3195
856.194	3279
856.327	3161
856.461	3112
856.595	3108
856.729	3081
856.862	3237
856.996	3165
857.13	3249
857.263	3268
857.397	3291
857.53	3123
857.664	3195
857.797	3264
857.931	3279
858.064	3218
858.197	3241
858.331	3150
858.464	3123
858.597	3074
858.731	3138
858.864	3169
858.997	3100
859.13	3180
859.263	3157
859.396	3214
859.529	3093
859.662	3097
859.795	3070
859.928	3142
860.061	3275
860.194	3275
860.327	3131
860.46	3135
860.592	3256
860.725	3287
860.858	3275
860.99	3112
861.123	3070
861.256	3051
861.388	3127
861.521	3690
861.653	3028
861.786	2998
861.918	3020
862.05	3104
862.183	3104
862.315	3173
862.447	3207
862.58	3108
862.712	2982
862.844	2910
862.976	3070
863.108	3005
863.24	3439
863.372	2887
863.504	2971
863.636	2956
863.768	3070
863.9	2990
864.032	2902
864.164	2979
864.296	3051
864.428	3119
864.559	3119
864.691	3104
864.823	3085
864.954	3005
865.086	3062
865.217	2994
865.349	2963
865.48	2990
865.612	2990
865.743	3161
865.875	3039
866.006	2960
866.137	3005
866.269	2975
866.4	2944
866.531	2910
866.662	2929
866.793	2967
866.924	2906
867.055	2979
867.186	2944
867.317	2929
867.448	2849
867.579	2857
867.71	2910
867.841	2823
867.972	2853
868.103	2918
868.233	2902
868.364	2872
868.495	2925
868.625	3108
868.756	3161
868.886	2982
869.017	3036
869.147	3184
869.278	3211
869.408	3077
869.539	3024
869.669	3135
869.799	3043
869.929	3176
870.06	3184
870.19	3351
870.32	3306
870.45	3310
870.58	3386
870.71	3481
870.84	3469
870.97	3294
871.1	3233
871.23	3488
871.36	3488
871.489	3348
871.619	3401
871.749	3389
871.879	3435
872.008	3473
872.138	3409
872.267	3272
872.397	3150
872.526	3116
872.656	3001
872.785	3127
872.915	3245
873.044	3351
873.173	3222
873.303	3268
873.432	3256
873.561	3241
873.69	3157
873.819	3154
873.948	3226
874.077	3108
874.206	3100
874.335	3119
874.464	3241
874.593	3355
874.722	3256
874.851	3378
874.979	3359
875.108	3344
875.237	3222
875.365	3150
875.494	3207
875.623	3260
875.751	3127
875.88	3138
876.008	3211
876.136	3233
876.265	3351
876.393	3519
876.521	3469
876.65	3431
876.778	3382
876.906	3306
877.034	3207
877.162	3268
877.29	3180
877.418	3272
877.546	3237
877.674	3298
877.802	3249
877.93	3272
878.058	3161
878.185	3131
878.313	3230
878.441	3222
878.568	3154
878.696	3146
878.824	3264
878.951	3298
879.079	3439
879.206	3648
879.333	3428
879.461	3367
879.588	3397
879.715	3519
879.842	3584
879.97	3412
880.097	3146
880.224	3169
880.351	3218
880.478	3199
880.605	3207
880.732	3207
880.859	3534
880.986	3340
881.112	3359
881.239	3173
881.366	3131
881.493	3009
881.619	3024
881.746	3097
881.872	3093
881.999	3165
882.125	3154
882.252	3237
882.378	3306
882.505	3458
882.631	3306
882.757	3150
882.883	3245
883.01	3253
883.136	3161
883.262	3116
883.388	3135
883.514	3355
883.64	3378
883.766	3298
883.892	3199
884.018	3260
884.143	3389
884.269	3576
884.395	3207
884.52	3203
884.646	3195
884.772	3123
884.897	3116
885.023	3237
885.148	3367
885.274	3435
885.399	3382
885.524	3287
885.65	3302
885.775	3321
885.9	3325
886.025	3454
886.15	3386
886.275	3329
886.4	3256
886.525	3332
886.65	3329
886.775	3302
886.9	3538
887.025	3644
887.149	3412
887.274	3272
887.399	3230
887.523	3222
887.648	3218
887.773	3222
887.897	3344
888.021	3469
888.146	3321
888.27	3466
888.395	3545
888.519	3466
888.643	3485
888.767	3450
888.891	3332
889.015	3272
889.139	3260
889.263	3279
889.387	3458
889.511	3511
889.635	3454
889.759	3310
889.883	3272
890.006	3389
890.13	3485
890.254	3287
890.377	3401
890.501	3218
890.624	3195
890.748	3336
890.871	3173
890.995	3100
891.118	3043
891.241	3222
891.364	3218
891.488	3317
891.611	3218
891.734	3233
891.857	3291
891.98	3260
892.103	3363
892.226	3313
892.349	3260
892.471	3154
892.594	3218
892.717	3313
892.839	3287
892.962	3313
893.085	3344
893.207	3321
893.33	3142
893.452	3199
893.575	3348
893.697	3233
893.819	3519
893.941	3504
894.064	3477
894.186	3260
894.308	3294
894.43	3477
894.552	3549
894.674	3485
894.796	3302
894.918	3348
895.04	3302
895.161	3435
895.283	3389
895.405	3355
895.526	3386
895.648	3450
895.769	3424
895.891	3515
896.012	3477
896.134	3496
896.255	3424
896.376	3412
896.498	3367
896.619	3435
896.74	3382
896.861	3386
896.982	3694
897.103	3896
897.224	3660
897.345	3526
897.466	3473
897.587	3542
897.708	3641
897.828	3561
897.949	3477
898.07	3344
898.19	3389
898.311	3637
898.431	3466
898.552	3515
898.672	3660
898.792	3595
898.913	3523
899.033	3435
899.153	3302
899.273	3218
899.393	3302
899.513	3298
899.633	3355
899.753	3382
899.873	3317
899.993	3389
900.113	3336
900.232	3409
900.352	3340
900.472	3302
900.591	3207
900.711	3329
900.83	3222
900.95	3469
901.069	3515
901.189	3393
901.308	3230
901.427	3127
901.546	3237
901.665	3321
901.784	3367
901.904	3233
902.023	3146
902.141	3051
902.26	3047
902.379	3173
902.498	3058
902.617	3077
902.735	3218
902.854	3260
902.973	3222
903.091	3058
903.21	3066
903.328	3135
903.446	3150
903.565	3131
903.683	3222
903.801	3138
903.919	3226
904.038	3272
904.156	3180
904.274	3336
904.392	3306
904.51	3332
904.627	3367
904.745	3462
904.863	3492
904.981	3260
905.098	3203
905.216	3214
905.334	3325
905.451	3321
905.569	3283
905.686	3454
905.803	3466
905.921	3291
906.038	3458
906.155	3355
906.272	3329
906.389	3332
906.506	3268
906.623	3272
906.74	3283
906.857	3165
906.974	3279
907.091	3447
907.208	3614
907.324	3492
907.441	3344
907.557	3272
907.674	3283
907.79	3264
907.907	3332
908.023	3386
908.139	3359
908.256	3359
908.372	3401
908.488	3416
908.604	3287
908.72	3237
908.836	3317
908.952	3306
909.068	3340
909.184	3538
909.3	3416
909.415	3492
909.531	3500
909.647	3298
909.762	3287
909.878	3283
909.993	3405
910.108	3382
910.224	3332
910.339	3409
910.454	3363
910.57	3302
910.685	3298
910.8	3591
910.915	3542
911.03	3477
911.145	3249
911.259	3287
911.374	3329
911.489	3260
911.604	3268
911.718	3154
911.833	3157
911.947	3077
912.062	2990
912.176	3195
912.291	3245
912.405	3222
912.519	3439
912.633	3466
912.748	3306
912.862	3298
912.976	3188
913.09	3097
913.204	3138
913.318	3245
913.431	3329
913.545	3325
913.659	3447
913.772	3340
913.886	3241
914	3222
914.113	3401
914.226	3424
914.34	3412
914.453	3256
914.566	3424
914.68	3321
914.793	3359
914.906	3184
915.019	3131
915.132	3085
915.245	3184
915.358	3222
915.47	3211
915.583	3268
915.696	3283
915.809	3458
915.921	3397
916.034	3279
916.146	3264
916.259	3233
916.371	3401
916.483	3359
916.595	3283
916.708	3386
916.82	3370
916.932	3359
917.044	3389
917.156	3363
917.268	3279
917.38	3348
917.491	3283
917.603	3409
917.715	3477
917.826	3496
917.938	3359
918.049	3332
918.161	3454
918.272	3633
918.384	3584
918.495	3530
918.606	3393
918.717	3294
918.828	3386
918.939	3450
919.05	3325
919.161	3374
919.272	3188
919.383	3268
919.494	3534
919.604	3682
919.715	3500
919.826	3466
919.936	3492
920.047	3606
920.157	3561
920.267	3770
920.378	3606
920.488	3606
920.598	3797
920.708	3998
920.818	3850
920.928	3819
921.038	4040
921.148	3998
921.258	3724
921.368	3656
921.477	3603
921.587	3584
921.697	3477
921.806	3690
921.916	3542
922.025	3374
922.134	3389
922.244	3321
922.353	3473
922.462	3317
922.571	3279
922.68	3138
922.789	3116
922.898	3116
923.007	3112
923.116	3249
923.224	3173
923.333	3214
923.442	3119
923.55	3116
923.659	3157
923.767	3233
923.876	3142
923.984	3302
924.092	3097
924.201	3211
924.309	3260
924.417	3275
924.525	3241
924.633	3272
924.741	4227
924.849	3055
924.956	3260
925.064	3108
925.172	3070
925.279	3169
925.387	3203
925.494	3230
925.602	3348
925.709	3378
925.816	3199
925.924	3306
926.031	3409
926.138	3340
926.245	3386
926.352	3264
926.459	3435
926.566	3507
926.673	3359
926.779	3283
926.886	3241
926.993	3154
927.099	3142
927.206	3135
927.312	3154
927.419	3253
927.525	3199
927.631	3279
927.737	3192
927.843	3142
927.95	3036
928.056	3135
928.162	3207
928.267	3283
928.373	3800
928.479	3313
928.585	3062
928.69	3249
928.796	3317
928.901	3157
929.007	3081
929.112	3188
929.218	3207
929.323	3157
929.428	3165
929.533	3348
929.638	3097
929.743	3180
929.848	3272
929.953	3256
930.058	3192
930.163	3024
930.267	3024
930.372	3211
930.477	3047
930.581	3321
930.685	3237
930.79	3077
930.894	3146
930.998	3093
931.103	3302
931.207	2994
931.311	2979
931.415	2937
931.519	2754
931.623	2819
