Data from test_V78500241_67.txt Node
Date: Fri Mar 25 16:15:40 CST 2022
User: usil
Spectrometer: V785-0024
Trigger mode: 0
Integration Time (sec): 4.000000E-1
Scans to average: 1
Nonlinearity correction enabled: false
Boxcar width: 0
Storing dark spectrum: false
XAxis mode: Wavelengths
Number of Pixels in Spectrum: 1024
>>>>>Begin Spectral Data<<<<<
801.071	2944
801.214	2986
801.356	2906
801.499	2918
801.641	2914
801.783	2963
801.926	3085
802.068	3036
802.211	3066
802.353	3055
802.496	2982
802.638	3058
802.78	3062
802.923	3119
803.065	3020
803.208	2948
803.35	2960
803.492	2986
803.635	2944
803.777	2815
803.919	2895
804.061	3245
804.204	2979
804.346	2918
804.488	2880
804.63	2998
804.773	2902
804.915	2960
805.057	3146
805.199	2963
805.341	2998
805.483	3062
805.626	3051
805.768	3005
805.91	3112
806.052	3150
806.194	3081
806.336	3253
806.478	3039
806.62	2990
806.762	3036
806.904	3070
807.046	3230
807.188	3020
807.33	2937
807.472	3020
807.614	2956
807.756	3013
807.898	2975
808.04	2906
808.182	3005
808.324	2967
808.465	2891
808.607	2914
808.749	2845
808.891	2902
809.033	3032
809.174	2994
809.316	2925
809.458	2948
809.6	2807
809.741	2834
809.883	2815
810.025	2883
810.166	2880
810.308	2880
810.45	2899
810.591	2807
810.733	2788
810.875	2895
811.016	2823
811.158	2807
811.299	2876
811.441	2971
811.582	2952
811.724	2857
811.865	2902
812.007	2979
812.148	2925
812.29	2918
812.431	2872
812.573	2979
812.714	2967
812.855	3093
812.997	3085
813.138	3146
813.279	3055
813.421	3043
813.562	2975
813.703	2929
813.845	2937
813.986	2838
814.127	2766
814.268	2838
814.41	2891
814.551	2842
814.692	2925
814.833	2842
814.974	2937
815.115	2979
815.256	2876
815.397	2826
815.539	2914
815.68	2792
815.821	2838
815.962	3005
816.103	2979
816.244	2929
816.385	2902
816.526	2990
816.666	2963
816.807	2788
816.948	2899
817.089	2941
817.23	2906
817.371	2864
817.512	2853
817.653	2880
817.793	2880
817.934	2922
818.075	2998
818.216	3036
818.356	3020
818.497	2933
818.638	2842
818.778	2899
818.919	2819
819.06	2766
819.2	2929
819.341	2834
819.481	2853
819.622	2948
819.762	3077
819.903	3077
820.043	2948
820.184	2922
820.324	2925
820.465	3058
820.605	3043
820.746	3058
820.886	2941
821.026	3127
821.167	3199
821.307	3317
821.447	3317
821.588	3268
821.728	3203
821.868	3180
822.008	3081
822.149	3214
822.289	3283
822.429	3135
822.569	3150
822.709	3207
822.849	3066
822.99	3077
823.13	3188
823.27	3253
823.41	3138
823.55	3169
823.69	3180
823.83	3268
823.97	3150
824.11	3028
824.25	3058
824.389	3116
824.529	3131
824.669	3097
824.809	3268
824.949	3264
825.089	3245
825.228	3203
825.368	3043
825.508	2994
825.648	3001
825.787	3017
825.927	3047
826.067	2994
826.206	2979
826.346	3089
826.485	3135
826.625	3123
826.765	3283
826.904	3226
827.044	3017
827.183	2948
827.323	2883
827.462	3001
827.601	2990
827.741	2925
827.88	2967
828.02	2880
828.159	3001
828.298	3097
828.437	3161
828.577	3104
828.716	3287
828.855	3138
828.994	2918
829.134	2906
829.273	2963
829.412	2902
829.551	2910
829.69	2891
829.829	3055
829.968	3188
830.107	3039
830.246	3055
830.385	2929
830.524	2891
830.663	2811
830.802	2773
830.941	2689
831.08	2678
831.219	2785
831.357	2769
831.496	3009
831.635	2739
831.774	2678
831.913	2712
832.051	2583
832.19	2602
832.329	2735
832.467	2568
832.606	2522
832.744	2629
832.883	2613
833.022	2594
833.16	2674
833.299	2716
833.437	2739
833.576	2712
833.714	2724
833.852	2750
833.991	2796
834.129	2861
834.267	2876
834.406	2819
834.544	2895
834.682	2883
834.821	2883
834.959	3081
835.097	2933
835.235	3089
835.373	3017
835.511	3062
835.65	2971
835.788	2990
835.926	2876
836.064	2834
836.202	2887
836.34	3123
836.478	3161
836.615	3112
836.753	3146
836.891	3218
837.029	3199
837.167	3108
837.305	3093
837.443	3070
837.58	2982
837.718	3154
837.856	3100
837.993	3108
838.131	3165
838.269	3138
838.406	3077
838.544	3108
838.681	3024
838.819	2952
838.956	2849
839.094	2887
839.231	2941
839.369	3055
839.506	3397
839.643	3291
839.781	3043
839.918	3024
840.055	3097
840.193	3089
840.33	3093
840.467	3123
840.604	3176
840.742	3439
840.879	3123
841.016	3047
841.153	3157
841.29	3389
841.427	3332
841.564	3294
841.701	3332
841.838	3256
841.975	3188
842.112	3268
842.249	3119
842.385	3062
842.522	3306
842.659	3077
842.796	3093
842.933	3131
843.069	3039
843.206	3077
843.343	3192
843.479	3161
843.616	3195
843.752	2906
843.889	2891
844.025	3119
844.162	2918
844.298	3081
844.435	2986
844.571	2967
844.708	3100
844.844	3226
844.98	3302
845.117	3214
845.253	3112
845.389	3066
845.525	3150
845.661	3169
845.798	3055
845.934	3146
846.07	3070
846.206	3294
846.342	3348
846.478	3245
846.614	3161
846.75	3108
846.886	3108
847.022	3329
847.158	3165
847.294	3264
847.429	3260
847.565	3253
847.701	3530
847.837	3062
847.972	3036
848.108	3157
848.244	3176
848.379	3051
848.515	2944
848.65	2982
848.786	2982
848.921	2998
849.057	3161
849.192	3188
849.328	3085
849.463	3135
849.598	3062
849.734	3077
849.869	2998
850.004	2956
850.14	3005
850.275	2929
850.41	2853
850.545	2899
850.68	2963
850.815	3013
850.95	2994
851.085	3275
851.22	3116
851.355	3058
851.49	3013
851.625	3043
851.76	3001
851.895	2986
852.03	2941
852.165	3077
852.299	3131
852.434	3226
852.569	3199
852.703	3214
852.838	3279
852.973	3363
853.107	3359
853.242	3192
853.376	3093
853.511	3009
853.645	3074
853.78	3275
853.914	3203
854.048	3146
854.183	3127
854.317	3192
854.451	3325
854.585	3123
854.72	3097
854.854	3233
854.988	3089
855.122	3100
855.256	3036
855.39	3146
855.524	3253
855.658	3211
855.792	3161
855.926	3233
856.06	3268
856.194	3306
856.327	3180
856.461	3108
856.595	3116
856.729	3119
856.862	3272
856.996	3195
857.13	3230
857.263	3241
857.397	3272
857.53	3142
857.664	3237
857.797	3306
857.931	3294
858.064	3199
858.197	3241
858.331	3176
858.464	3108
858.597	3020
858.731	3138
858.864	3173
858.997	3135
859.13	3192
859.263	3188
859.396	3233
859.529	3108
859.662	3097
859.795	3043
859.928	3218
860.061	3306
860.194	3294
860.327	3116
860.46	3150
860.592	3256
860.725	3291
860.858	3294
860.99	3112
861.123	3081
861.256	3100
861.388	3176
861.521	3892
861.653	3058
861.786	3009
861.918	3039
862.05	3058
862.183	3123
862.315	3157
862.447	3241
862.58	3108
862.712	2975
862.844	2883
862.976	3055
863.108	3043
863.24	3340
863.372	2883
863.504	3013
863.636	2971
863.768	3055
863.9	2990
864.032	2914
864.164	2956
864.296	3055
864.428	3127
864.559	3138
864.691	3089
864.823	3058
864.954	3043
865.086	3089
865.217	3032
865.349	2944
865.48	2994
865.612	3077
865.743	3165
865.875	2994
866.006	2963
866.137	2952
866.269	2967
866.4	2948
866.531	2914
866.662	2914
866.793	2914
866.924	2910
867.055	3013
867.186	2967
867.317	2918
867.448	2883
867.579	2876
867.71	2883
867.841	2857
867.972	2937
868.103	2944
868.233	2902
868.364	2876
868.495	2941
868.625	3097
868.756	3214
868.886	2982
869.017	3036
869.147	3195
869.278	3161
869.408	3066
869.539	3024
869.669	3123
869.799	3062
869.929	3154
870.06	3142
870.19	3359
870.32	3275
870.45	3325
870.58	3393
870.71	3458
870.84	3469
870.97	3340
871.1	3294
871.23	3488
871.36	3519
871.489	3393
871.619	3424
871.749	3462
871.879	3450
872.008	3507
872.138	3386
872.267	3279
872.397	3176
872.526	3108
872.656	3055
872.785	3157
872.915	3268
873.044	3329
873.173	3233
873.303	3275
873.432	3317
873.561	3283
873.69	3184
873.819	3207
873.948	3222
874.077	3131
874.206	3089
874.335	3146
874.464	3233
874.593	3340
874.722	3306
874.851	3412
874.979	3401
875.108	3363
875.237	3279
875.365	3211
875.494	3169
875.623	3279
875.751	3123
875.88	3169
876.008	3256
876.136	3260
876.265	3424
876.393	3561
876.521	3450
876.65	3420
876.778	3363
876.906	3264
877.034	3275
877.162	3233
877.29	3233
877.418	3340
877.546	3256
877.674	3287
877.802	3283
877.93	3233
878.058	3165
878.185	3119
878.313	3214
878.441	3256
878.568	3119
878.696	3150
878.824	3279
878.951	3348
879.079	3458
879.206	3660
879.333	3469
879.461	3374
879.588	3397
879.715	3519
879.842	3637
879.97	3431
880.097	3188
880.224	3146
880.351	3214
880.478	3245
880.605	3222
880.732	3161
880.859	3534
880.986	3355
881.112	3374
881.239	3218
881.366	3127
881.493	3055
881.619	3039
881.746	3123
881.872	3138
881.999	3165
882.125	3142
882.252	3291
882.378	3355
882.505	3473
882.631	3287
882.757	3173
882.883	3268
883.01	3260
883.136	3199
883.262	3173
883.388	3157
883.514	3355
883.64	3439
883.766	3355
883.892	3214
884.018	3298
884.143	3466
884.269	3618
884.395	3226
884.52	3226
884.646	3275
884.772	3146
884.897	3154
885.023	3214
885.148	3370
885.274	3401
885.399	3401
885.524	3336
885.65	3321
885.775	3370
885.9	3351
886.025	3485
886.15	3363
886.275	3348
886.4	3302
886.525	3317
886.65	3306
886.775	3302
886.9	3507
887.025	3682
887.149	3428
887.274	3287
887.399	3237
887.523	3256
887.648	3203
887.773	3230
887.897	3393
888.021	3450
888.146	3329
888.27	3473
888.395	3549
888.519	3439
888.643	3500
888.767	3485
888.891	3329
889.015	3279
889.139	3348
889.263	3279
889.387	3462
889.511	3542
889.635	3492
889.759	3348
889.883	3340
890.006	3401
890.13	3542
890.254	3317
890.377	3389
890.501	3233
890.624	3249
890.748	3321
890.871	3226
890.995	3100
891.118	3108
891.241	3199
891.364	3211
891.488	3363
891.611	3237
891.734	3249
891.857	3317
891.98	3287
892.103	3374
892.226	3336
892.349	3218
892.471	3131
892.594	3287
892.717	3332
892.839	3332
892.962	3336
893.085	3386
893.207	3332
893.33	3211
893.452	3218
893.575	3355
893.697	3283
893.819	3477
893.941	3526
894.064	3496
894.186	3268
894.308	3332
894.43	3473
894.552	3561
894.674	3504
894.796	3306
894.918	3310
895.04	3321
895.161	3481
895.283	3458
895.405	3370
895.526	3431
895.648	3435
895.769	3469
895.891	3496
896.012	3519
896.134	3545
896.255	3488
896.376	3405
896.498	3435
896.619	3450
896.74	3389
896.861	3447
896.982	3766
897.103	3854
897.224	3648
897.345	3542
897.466	3435
897.587	3580
897.708	3679
897.828	3610
897.949	3450
898.07	3389
898.19	3431
898.311	3644
898.431	3519
898.552	3580
898.672	3682
898.792	3663
898.913	3564
899.033	3469
899.153	3351
899.273	3253
899.393	3306
899.513	3332
899.633	3355
899.753	3370
899.873	3374
899.993	3405
900.113	3367
900.232	3439
900.352	3386
900.472	3340
900.591	3237
900.711	3332
900.83	3294
900.95	3477
901.069	3492
901.189	3401
901.308	3218
901.427	3112
901.546	3256
901.665	3310
901.784	3389
901.904	3249
902.023	3199
902.141	3055
902.26	3020
902.379	3176
902.498	3089
902.617	3093
902.735	3218
902.854	3279
902.973	3214
903.091	3062
903.21	3100
903.328	3176
903.446	3123
903.565	3138
903.683	3230
903.801	3154
903.919	3245
904.038	3348
904.156	3199
904.274	3359
904.392	3348
904.51	3351
904.627	3344
904.745	3507
904.863	3511
904.981	3283
905.098	3192
905.216	3253
905.334	3355
905.451	3378
905.569	3363
905.686	3500
905.803	3458
905.921	3310
906.038	3469
906.155	3420
906.272	3321
906.389	3386
906.506	3256
906.623	3302
906.74	3363
906.857	3226
906.974	3264
907.091	3481
907.208	3599
907.324	3477
907.441	3458
907.557	3272
907.674	3264
907.79	3226
907.907	3306
908.023	3378
908.139	3405
908.256	3378
908.372	3412
908.488	3431
908.604	3310
908.72	3283
908.836	3329
908.952	3336
909.068	3370
909.184	3542
909.3	3473
909.415	3564
909.531	3519
909.647	3310
909.762	3340
909.878	3325
909.993	3439
910.108	3325
910.224	3374
910.339	3485
910.454	3386
910.57	3355
910.685	3294
910.8	3679
910.915	3561
911.03	3477
911.145	3329
911.259	3302
911.374	3374
911.489	3275
911.604	3226
911.718	3169
911.833	3207
911.947	3051
912.062	3062
912.176	3226
912.291	3260
912.405	3218
912.519	3488
912.633	3500
912.748	3367
912.862	3298
912.976	3173
913.09	3089
913.204	3173
913.318	3233
913.431	3412
913.545	3393
913.659	3409
913.772	3355
913.886	3249
914	3241
914.113	3405
914.226	3424
914.34	3428
914.453	3245
914.566	3439
914.68	3340
914.793	3340
914.906	3184
915.019	3157
915.132	3062
915.245	3211
915.358	3237
915.47	3268
915.583	3298
915.696	3325
915.809	3428
915.921	3469
916.034	3260
916.146	3279
916.259	3260
916.371	3443
916.483	3443
916.595	3325
916.708	3344
916.82	3348
916.932	3374
917.044	3401
917.156	3370
917.268	3283
917.38	3370
917.491	3310
917.603	3401
917.715	3458
917.826	3496
917.938	3420
918.049	3275
918.161	3481
918.272	3595
918.384	3591
918.495	3545
918.606	3355
918.717	3310
918.828	3443
918.939	3412
919.05	3359
919.161	3401
919.272	3195
919.383	3317
919.494	3549
919.604	3682
919.715	3526
919.826	3481
919.936	3481
920.047	3629
920.157	3610
920.267	3816
920.378	3625
920.488	3641
920.598	3816
920.708	4002
920.818	3835
920.928	3876
921.038	4025
921.148	4029
921.258	3740
921.368	3682
921.477	3614
921.587	3622
921.697	3500
921.806	3675
921.916	3591
922.025	3367
922.134	3412
922.244	3348
922.353	3450
922.462	3313
922.571	3260
922.68	3127
922.789	3104
922.898	3154
923.007	3097
923.116	3222
923.224	3203
923.333	3207
923.442	3173
923.55	3154
923.659	3173
923.767	3237
923.876	3165
923.984	3279
924.092	3127
924.201	3214
924.309	3226
924.417	3287
924.525	3211
924.633	3230
924.741	4166
924.849	3062
924.956	3340
925.064	3150
925.172	3066
925.279	3116
925.387	3222
925.494	3241
925.602	3428
925.709	3359
925.816	3230
925.924	3306
926.031	3412
926.138	3374
926.245	3412
926.352	3279
926.459	3420
926.566	3538
926.673	3363
926.779	3279
926.886	3237
926.993	3222
927.099	3154
927.206	3165
927.312	3131
927.419	3264
927.525	3230
927.631	3313
927.737	3135
927.843	3127
927.95	3058
928.056	3154
928.162	3233
928.267	3260
928.373	3835
928.479	3344
928.585	3142
928.69	3233
928.796	3279
928.901	3195
929.007	3093
929.112	3218
929.218	3192
929.323	3154
929.428	3180
929.533	3340
929.638	3146
929.743	3214
929.848	3306
929.953	3268
930.058	3169
930.163	3043
930.267	3077
930.372	3211
930.477	3062
930.581	3340
930.685	3192
930.79	3093
930.894	3169
930.998	3119
931.103	3336
931.207	3017
931.311	2998
931.415	2944
931.519	2792
931.623	2853
