Data from test_V78500241_1561.txt Node
Date: Fri Mar 25 16:26:01 CST 2022
User: usil
Spectrometer: V785-0024
Trigger mode: 0
Integration Time (sec): 4.000000E-1
Scans to average: 1
Nonlinearity correction enabled: false
Boxcar width: 0
Storing dark spectrum: false
XAxis mode: Wavelengths
Number of Pixels in Spectrum: 1024
>>>>>Begin Spectral Data<<<<<
801.071	2937
801.214	2910
801.356	2845
801.499	2883
801.641	2887
801.783	2914
801.926	3051
802.068	2986
802.211	2979
802.353	3013
802.496	2944
802.638	2960
802.78	2998
802.923	3089
803.065	2979
803.208	2895
803.35	2868
803.492	2922
803.635	2922
803.777	2762
803.919	2853
804.061	3218
804.204	2971
804.346	2918
804.488	2788
804.63	2952
804.773	2861
804.915	2929
805.057	3055
805.199	2910
805.341	2952
805.483	3039
805.626	2979
805.768	2952
805.91	3135
806.052	3100
806.194	3024
806.336	3207
806.478	3005
806.62	2937
806.762	2990
806.904	3066
807.046	3165
807.188	2929
807.33	2952
807.472	2979
807.614	2910
807.756	2979
807.898	2906
808.04	2922
808.182	2956
808.324	2937
808.465	2899
808.607	2864
808.749	2769
808.891	2849
809.033	2979
809.174	2960
809.316	2857
809.458	2872
809.6	2773
809.741	2743
809.883	2769
810.025	2883
810.166	2861
810.308	2804
810.45	2864
810.591	2746
810.733	2766
810.875	2823
811.016	2750
811.158	2785
811.299	2796
811.441	2929
811.582	2872
811.724	2750
811.865	2845
812.007	2925
812.148	2823
812.29	2845
812.431	2876
812.573	2910
812.714	2933
812.855	2998
812.997	3020
813.138	3108
813.279	2998
813.421	2963
813.562	2941
813.703	2861
813.845	2891
813.986	2750
814.127	2712
814.268	2807
814.41	2853
814.551	2804
814.692	2876
814.833	2773
814.974	2887
815.115	2944
815.256	2826
815.397	2826
815.539	2849
815.68	2773
815.821	2792
815.962	2929
816.103	2933
816.244	2876
816.385	2838
816.526	2979
816.666	2929
816.807	2750
816.948	2880
817.089	2906
817.23	2838
817.371	2792
817.512	2792
817.653	2815
817.793	2842
817.934	2868
818.075	2971
818.216	3013
818.356	3013
818.497	2895
818.638	2762
818.778	2834
818.919	2800
819.06	2762
819.2	2891
819.341	2777
819.481	2800
819.622	2941
819.762	3104
819.903	3074
820.043	2941
820.184	2929
820.324	2883
820.465	2998
820.605	3055
820.746	3013
820.886	2918
821.026	3077
821.167	3146
821.307	3249
821.447	3287
821.588	3249
821.728	3233
821.868	3184
822.008	3062
822.149	3176
822.289	3207
822.429	3074
822.569	3074
822.709	3173
822.849	3013
822.99	3085
823.13	3131
823.27	3195
823.41	3089
823.55	3116
823.69	3127
823.83	3157
823.97	3123
824.11	2994
824.25	2971
824.389	3097
824.529	3089
824.669	3070
824.809	3199
824.949	3272
825.089	3249
825.228	3146
825.368	3009
825.508	2960
825.648	2963
825.787	3001
825.927	2998
826.067	3001
826.206	2990
826.346	3058
826.485	3024
826.625	3089
826.765	3230
826.904	3214
827.044	2994
827.183	2925
827.323	2872
827.462	2979
827.601	2922
827.741	2918
827.88	2933
828.02	2861
828.159	2960
828.298	3062
828.437	3085
828.577	3074
828.716	3188
828.855	3058
828.994	2933
829.134	2918
829.273	2872
829.412	2849
829.551	2845
829.69	2880
829.829	2956
829.968	3081
830.107	3020
830.246	3047
830.385	2948
830.524	2849
830.663	2807
830.802	2720
830.941	2644
831.08	2625
831.219	2754
831.357	2762
831.496	2963
831.635	2689
831.774	2625
831.913	2617
832.051	2545
832.19	2575
832.329	2697
832.467	2518
832.606	2476
832.744	2610
832.883	2556
833.022	2583
833.16	2640
833.299	2705
833.437	2678
833.576	2701
833.714	2720
833.852	2724
833.991	2758
834.129	2819
834.267	2804
834.406	2769
834.544	2864
834.682	2857
834.821	2891
834.959	3043
835.097	2887
835.235	3066
835.373	2982
835.511	2967
835.65	2960
835.788	2967
835.926	2785
836.064	2807
836.202	2845
836.34	3077
836.478	3135
836.615	3077
836.753	3100
836.891	3207
837.029	3199
837.167	3142
837.305	3066
837.443	3074
837.58	2967
837.718	3131
837.856	3062
837.993	3001
838.131	3093
838.269	3085
838.406	3100
838.544	3047
838.681	2918
838.819	2914
838.956	2823
839.094	2811
839.231	2925
839.369	3013
839.506	3370
839.643	3214
839.781	2994
839.918	2948
840.055	2986
840.193	3055
840.33	3039
840.467	3108
840.604	3142
840.742	3397
840.879	3020
841.016	3039
841.153	3119
841.29	3317
841.427	3260
841.564	3230
841.701	3272
841.838	3253
841.975	3142
842.112	3192
842.249	3081
842.385	3055
842.522	3237
842.659	3104
842.796	3051
842.933	3093
843.069	3043
843.206	3043
843.343	3199
843.479	3119
843.616	3154
843.752	2895
843.889	2880
844.025	3074
844.162	2853
844.298	3074
844.435	2944
844.571	2895
844.708	3085
844.844	3169
844.98	3256
845.117	3176
845.253	3024
845.389	3013
845.525	3062
845.661	3104
845.798	2998
845.934	3131
846.07	3070
846.206	3199
846.342	3313
846.478	3260
846.614	3093
846.75	3051
846.886	3020
847.022	3218
847.158	3123
847.294	3195
847.429	3260
847.565	3207
847.701	3511
847.837	3036
847.972	2998
848.108	3165
848.244	3112
848.379	2963
848.515	2941
848.65	2956
848.786	2960
848.921	3039
849.057	3085
849.192	3100
849.328	3047
849.463	3123
849.598	3036
849.734	3039
849.869	2982
850.004	2933
850.14	2937
850.275	2876
850.41	2819
850.545	2857
850.68	2948
850.815	2933
850.95	2952
851.085	3173
851.22	3081
851.355	3005
851.49	3001
851.625	2994
851.76	3020
851.895	2895
852.03	2891
852.165	3005
852.299	3108
852.434	3138
852.569	3150
852.703	3180
852.838	3195
852.973	3325
853.107	3344
853.242	3142
853.376	3146
853.511	2956
853.645	3039
853.78	3226
853.914	3104
854.048	3108
854.183	3058
854.317	3108
854.451	3279
854.585	3138
854.72	3089
854.854	3199
854.988	3009
855.122	3085
855.256	2971
855.39	3104
855.524	3249
855.658	3207
855.792	3142
855.926	3211
856.06	3222
856.194	3241
856.327	3173
856.461	3070
856.595	3085
856.729	3085
856.862	3188
856.996	3184
857.13	3173
857.263	3195
857.397	3211
857.53	3085
857.664	3173
857.797	3226
857.931	3283
858.064	3157
858.197	3214
858.331	3123
858.464	3100
858.597	2948
858.731	3058
858.864	3108
858.997	3066
859.13	3157
859.263	3188
859.396	3199
859.529	3089
859.662	3058
859.795	3020
859.928	3123
860.061	3211
860.194	3275
860.327	3131
860.46	3089
860.592	3214
860.725	3241
860.858	3245
860.99	3093
861.123	3020
861.256	3070
861.388	3161
861.521	3850
861.653	3036
861.786	2971
861.918	3020
862.05	3032
862.183	3093
862.315	3176
862.447	3203
862.58	3062
862.712	2967
862.844	2902
862.976	3017
863.108	3017
863.24	3310
863.372	2876
863.504	2952
863.636	2941
863.768	2998
863.9	2986
864.032	2891
864.164	2941
864.296	2998
864.428	3062
864.559	3100
864.691	3070
864.823	3074
864.954	3051
865.086	3043
865.217	2986
865.349	2975
865.48	3001
865.612	3024
865.743	3127
865.875	2960
866.006	2933
866.137	2963
866.269	2944
866.4	2948
866.531	2952
866.662	2876
866.793	2883
866.924	2891
867.055	2944
867.186	2883
867.317	2887
867.448	2830
867.579	2872
867.71	2838
867.841	2838
867.972	2891
868.103	2906
868.233	2880
868.364	2880
868.495	2906
868.625	3062
868.756	3184
868.886	2986
869.017	3055
869.147	3173
869.278	3138
869.408	3028
869.539	3009
869.669	3089
869.799	3051
869.929	3161
870.06	3066
870.19	3344
870.32	3264
870.45	3310
870.58	3386
870.71	3420
870.84	3439
870.97	3298
871.1	3226
871.23	3458
871.36	3420
871.489	3359
871.619	3424
871.749	3370
871.879	3393
872.008	3469
872.138	3344
872.267	3256
872.397	3150
872.526	3108
872.656	3013
872.785	3062
872.915	3241
873.044	3287
873.173	3237
873.303	3245
873.432	3249
873.561	3218
873.69	3142
873.819	3104
873.948	3180
874.077	3119
874.206	3013
874.335	3093
874.464	3199
874.593	3329
874.722	3249
874.851	3382
874.979	3348
875.108	3294
875.237	3180
875.365	3142
875.494	3154
875.623	3222
875.751	3074
875.88	3097
876.008	3173
876.136	3233
876.265	3363
876.393	3545
876.521	3401
876.65	3386
876.778	3325
876.906	3214
877.034	3176
877.162	3222
877.29	3199
877.418	3241
877.546	3233
877.674	3245
877.802	3203
877.93	3222
878.058	3146
878.185	3093
878.313	3203
878.441	3161
878.568	3055
878.696	3123
878.824	3256
878.951	3329
879.079	3431
879.206	3603
879.333	3416
879.461	3302
879.588	3374
879.715	3469
879.842	3568
879.97	3355
880.097	3184
880.224	3123
880.351	3135
880.478	3218
880.605	3211
880.732	3161
880.859	3500
880.986	3291
881.112	3332
881.239	3173
881.366	3104
881.493	3024
881.619	2979
881.746	3108
881.872	3062
881.999	3116
882.125	3169
882.252	3245
882.378	3313
882.505	3420
882.631	3294
882.757	3131
882.883	3192
883.01	3233
883.136	3150
883.262	3074
883.388	3123
883.514	3325
883.64	3359
883.766	3317
883.892	3173
884.018	3241
884.143	3454
884.269	3523
884.395	3180
884.52	3161
884.646	3173
884.772	3104
884.897	3066
885.023	3192
885.148	3283
885.274	3378
885.399	3340
885.524	3291
885.65	3264
885.775	3256
885.9	3249
886.025	3431
886.15	3344
886.275	3317
886.4	3233
886.525	3260
886.65	3264
886.775	3287
886.9	3488
887.025	3584
887.149	3386
887.274	3275
887.399	3169
887.523	3184
887.648	3222
887.773	3154
887.897	3370
888.021	3412
888.146	3294
888.27	3378
888.395	3538
888.519	3435
888.643	3469
888.767	3431
888.891	3325
889.015	3207
889.139	3264
889.263	3237
889.387	3393
889.511	3523
889.635	3412
889.759	3283
889.883	3310
890.006	3378
890.13	3416
890.254	3237
890.377	3336
890.501	3214
890.624	3207
890.748	3287
890.871	3146
890.995	3097
891.118	3062
891.241	3176
891.364	3218
891.488	3340
891.611	3199
891.734	3203
891.857	3275
891.98	3188
892.103	3306
892.226	3294
892.349	3218
892.471	3100
892.594	3245
892.717	3275
892.839	3249
892.962	3298
893.085	3355
893.207	3279
893.33	3119
893.452	3161
893.575	3329
893.697	3249
893.819	3481
893.941	3496
894.064	3443
894.186	3291
894.308	3272
894.43	3492
894.552	3545
894.674	3481
894.796	3287
894.918	3321
895.04	3294
895.161	3428
895.283	3412
895.405	3321
895.526	3344
895.648	3416
895.769	3386
895.891	3477
896.012	3454
896.134	3454
896.255	3393
896.376	3378
896.498	3348
896.619	3454
896.74	3336
896.861	3409
896.982	3663
897.103	3835
897.224	3610
897.345	3511
897.466	3443
897.587	3462
897.708	3599
897.828	3568
897.949	3409
898.07	3359
898.19	3389
898.311	3644
898.431	3466
898.552	3519
898.672	3610
898.792	3553
898.913	3530
899.033	3393
899.153	3302
899.273	3241
899.393	3294
899.513	3283
899.633	3317
899.753	3336
899.873	3317
899.993	3355
900.113	3344
900.232	3397
900.352	3325
900.472	3294
900.591	3150
900.711	3306
900.83	3256
900.95	3367
901.069	3473
901.189	3344
901.308	3188
901.427	3119
901.546	3188
901.665	3291
901.784	3294
901.904	3237
902.023	3150
902.141	3020
902.26	2998
902.379	3142
902.498	3100
902.617	3024
902.735	3207
902.854	3230
902.973	3184
903.091	3043
903.21	3093
903.328	3142
903.446	3138
903.565	3081
903.683	3142
903.801	3100
903.919	3230
904.038	3310
904.156	3176
904.274	3279
904.392	3249
904.51	3264
904.627	3329
904.745	3420
904.863	3500
904.981	3241
905.098	3180
905.216	3260
905.334	3275
905.451	3291
905.569	3317
905.686	3409
905.803	3409
905.921	3325
906.038	3428
906.155	3374
906.272	3260
906.389	3340
906.506	3211
906.623	3249
906.74	3253
906.857	3157
906.974	3287
907.091	3431
907.208	3553
907.324	3466
907.441	3416
907.557	3226
907.674	3237
907.79	3222
907.907	3294
908.023	3405
908.139	3348
908.256	3253
908.372	3348
908.488	3325
908.604	3230
908.72	3249
908.836	3272
908.952	3249
909.068	3332
909.184	3485
909.3	3374
909.415	3462
909.531	3443
909.647	3313
909.762	3287
909.878	3264
909.993	3363
910.108	3348
910.224	3348
910.339	3386
910.454	3332
910.57	3294
910.685	3241
910.8	3561
910.915	3545
911.03	3424
911.145	3275
911.259	3264
911.374	3298
911.489	3233
911.604	3226
911.718	3123
911.833	3127
911.947	2994
912.062	3001
912.176	3211
912.291	3188
912.405	3184
912.519	3424
912.633	3431
912.748	3363
912.862	3279
912.976	3161
913.09	3070
913.204	3195
913.318	3226
913.431	3321
913.545	3313
913.659	3405
913.772	3306
913.886	3249
914	3199
914.113	3355
914.226	3412
914.34	3313
914.453	3241
914.566	3412
914.68	3298
914.793	3321
914.906	3123
915.019	3055
915.132	3089
915.245	3188
915.358	3211
915.47	3199
915.583	3233
915.696	3302
915.809	3435
915.921	3409
916.034	3287
916.146	3283
916.259	3245
916.371	3359
916.483	3336
916.595	3264
916.708	3287
916.82	3355
916.932	3332
917.044	3348
917.156	3351
917.268	3264
917.38	3253
917.491	3317
917.603	3344
917.715	3469
917.826	3454
917.938	3397
918.049	3256
918.161	3447
918.272	3545
918.384	3568
918.495	3488
918.606	3313
918.717	3268
918.828	3344
918.939	3393
919.05	3291
919.161	3359
919.272	3188
919.383	3302
919.494	3477
919.604	3671
919.715	3500
919.826	3428
919.936	3477
920.047	3595
920.157	3549
920.267	3743
920.378	3603
920.488	3542
920.598	3781
920.708	3930
920.818	3797
920.928	3842
921.038	3960
921.148	3994
921.258	3732
921.368	3618
921.477	3568
921.587	3542
921.697	3443
921.806	3637
921.916	3553
922.025	3374
922.134	3374
922.244	3306
922.353	3462
922.462	3256
922.571	3203
922.68	3123
922.789	3074
922.898	3119
923.007	3116
923.116	3180
923.224	3195
923.333	3192
923.442	3089
923.55	3081
923.659	3150
923.767	3211
923.876	3112
923.984	3253
924.092	3089
924.201	3192
924.309	3230
924.417	3230
924.525	3199
924.633	3233
924.741	4147
924.849	3051
924.956	3260
925.064	3100
925.172	3097
925.279	3100
925.387	3214
925.494	3214
925.602	3348
925.709	3329
925.816	3192
925.924	3268
926.031	3367
926.138	3355
926.245	3382
926.352	3249
926.459	3424
926.566	3488
926.673	3272
926.779	3214
926.886	3222
926.993	3146
927.099	3112
927.206	3123
927.312	3123
927.419	3241
927.525	3207
927.631	3291
927.737	3146
927.843	3135
927.95	2990
928.056	3112
928.162	3131
928.267	3237
928.373	3766
928.479	3298
928.585	3047
928.69	3203
928.796	3268
928.901	3142
929.007	3055
929.112	3199
929.218	3165
929.323	3146
929.428	3146
929.533	3321
929.638	3112
929.743	3157
929.848	3275
929.953	3226
930.058	3146
930.163	2986
930.267	3070
930.372	3176
930.477	3036
930.581	3264
930.685	3192
930.79	3055
930.894	3127
930.998	3116
931.103	3264
931.207	2948
931.311	2948
931.415	2952
931.519	2792
931.623	2815
