Data from test_V78500241_1281.txt Node
Date: Fri Mar 25 16:24:04 CST 2022
User: usil
Spectrometer: V785-0024
Trigger mode: 0
Integration Time (sec): 4.000000E-1
Scans to average: 1
Nonlinearity correction enabled: false
Boxcar width: 0
Storing dark spectrum: false
XAxis mode: Wavelengths
Number of Pixels in Spectrum: 1024
>>>>>Begin Spectral Data<<<<<
801.071	2956
801.214	2979
801.356	2887
801.499	2899
801.641	2876
801.783	3005
801.926	3055
802.068	3005
802.211	3005
802.353	3085
802.496	2975
802.638	3024
802.78	3089
802.923	3081
803.065	3017
803.208	2902
803.35	2952
803.492	2971
803.635	2941
803.777	2769
803.919	2899
804.061	3211
804.204	2952
804.346	2941
804.488	2864
804.63	2998
804.773	2899
804.915	2952
805.057	3108
805.199	2944
805.341	2979
805.483	3039
805.626	3032
805.768	3028
805.91	3127
806.052	3116
806.194	3032
806.336	3211
806.478	3043
806.62	2944
806.762	2998
806.904	3097
807.046	3211
807.188	2994
807.33	2914
807.472	2982
807.614	2895
807.756	2990
807.898	2933
808.04	2944
808.182	2979
808.324	2963
808.465	2914
808.607	2891
808.749	2826
808.891	2853
809.033	3005
809.174	2979
809.316	2944
809.458	2883
809.6	2785
809.741	2792
809.883	2800
810.025	2842
810.166	2853
810.308	2830
810.45	2834
810.591	2766
810.733	2777
810.875	2815
811.016	2769
811.158	2769
811.299	2819
811.441	2929
811.582	2925
811.724	2849
811.865	2845
812.007	2948
812.148	2887
812.29	2895
812.431	2887
812.573	2963
812.714	2960
812.855	3024
812.997	3066
813.138	3173
813.279	3032
813.421	2986
813.562	2929
813.703	2876
813.845	2910
813.986	2781
814.127	2758
814.268	2830
814.41	2872
814.551	2811
814.692	2868
814.833	2861
814.974	2937
815.115	2971
815.256	2842
815.397	2792
815.539	2868
815.68	2781
815.821	2842
815.962	2967
816.103	2971
816.244	2887
816.385	2872
816.526	2960
816.666	2914
816.807	2716
816.948	2906
817.089	2929
817.23	2834
817.371	2819
817.512	2781
817.653	2876
817.793	2838
817.934	2887
818.075	2971
818.216	2960
818.356	3047
818.497	2887
818.638	2804
818.778	2842
818.919	2792
819.06	2800
819.2	2887
819.341	2872
819.481	2830
819.622	2944
819.762	3108
819.903	3066
820.043	2914
820.184	2914
820.324	2944
820.465	3039
820.605	3036
820.746	3051
820.886	2956
821.026	3108
821.167	3199
821.307	3272
821.447	3279
821.588	3218
821.728	3203
821.868	3218
822.008	3077
822.149	3180
822.289	3207
822.429	3112
822.569	3108
822.709	3169
822.849	3024
822.99	3093
823.13	3138
823.27	3192
823.41	3135
823.55	3123
823.69	3192
823.83	3207
823.97	3085
824.11	3005
824.25	3032
824.389	3077
824.529	3112
824.669	3089
824.809	3199
824.949	3279
825.089	3256
825.228	3184
825.368	3024
825.508	2998
825.648	2986
825.787	2979
825.927	3036
826.067	2979
826.206	2963
826.346	3077
826.485	3112
826.625	3116
826.765	3245
826.904	3211
827.044	2990
827.183	2937
827.323	2906
827.462	2960
827.601	2941
827.741	2944
827.88	2990
828.02	2857
828.159	2967
828.298	3005
828.437	3146
828.577	3058
828.716	3230
828.855	3085
828.994	2922
829.134	2887
829.273	2925
829.412	2883
829.551	2883
829.69	2906
829.829	2998
829.968	3123
830.107	3032
830.246	3036
830.385	2906
830.524	2880
830.663	2830
830.802	2785
830.941	2689
831.08	2625
831.219	2754
831.357	2777
831.496	2956
831.635	2731
831.774	2686
831.913	2648
832.051	2556
832.19	2598
832.329	2705
832.467	2552
832.606	2488
832.744	2610
832.883	2590
833.022	2602
833.16	2655
833.299	2727
833.437	2697
833.576	2701
833.714	2724
833.852	2724
833.991	2796
834.129	2842
834.267	2838
834.406	2811
834.544	2883
834.682	2895
834.821	2868
834.959	3062
835.097	2899
835.235	3066
835.373	2967
835.511	3013
835.65	2998
835.788	2998
835.926	2861
836.064	2811
836.202	2861
836.34	3062
836.478	3150
836.615	3036
836.753	3146
836.891	3241
837.029	3180
837.167	3135
837.305	3066
837.443	3051
837.58	2986
837.718	3157
837.856	3077
837.993	3051
838.131	3112
838.269	3100
838.406	3085
838.544	3070
838.681	2933
838.819	2937
838.956	2826
839.094	2842
839.231	2899
839.369	2998
839.506	3378
839.643	3222
839.781	3009
839.918	2948
840.055	3058
840.193	3097
840.33	3074
840.467	3116
840.604	3195
840.742	3450
840.879	3036
841.016	3039
841.153	3104
841.29	3317
841.427	3294
841.564	3310
841.701	3310
841.838	3233
841.975	3146
842.112	3237
842.249	3093
842.385	3043
842.522	3233
842.659	3097
842.796	3066
842.933	3108
843.069	3051
843.206	3055
843.343	3222
843.479	3089
843.616	3127
843.752	2891
843.889	2891
844.025	3066
844.162	2857
844.298	3077
844.435	2960
844.571	2941
844.708	3032
844.844	3180
844.98	3226
845.117	3233
845.253	3028
845.389	2994
845.525	3131
845.661	3116
845.798	2971
845.934	3138
846.07	3047
846.206	3260
846.342	3298
846.478	3245
846.614	3093
846.75	3062
846.886	3009
847.022	3272
847.158	3116
847.294	3222
847.429	3241
847.565	3214
847.701	3519
847.837	3047
847.972	3039
848.108	3146
848.244	3146
848.379	2994
848.515	2956
848.65	2963
848.786	2971
848.921	3005
849.057	3104
849.192	3104
849.328	3070
849.463	3116
849.598	3066
849.734	3020
849.869	2979
850.004	2941
850.14	2952
850.275	2918
850.41	2838
850.545	2857
850.68	2925
850.815	2948
850.95	2990
851.085	3203
851.22	3142
851.355	3005
851.49	2990
851.625	3009
851.76	3039
851.895	2910
852.03	2937
852.165	3024
852.299	3097
852.434	3173
852.569	3146
852.703	3150
852.838	3268
852.973	3321
853.107	3313
853.242	3157
853.376	3100
853.511	2963
853.645	3036
853.78	3245
853.914	3116
854.048	3116
854.183	3066
854.317	3142
854.451	3264
854.585	3138
854.72	3116
854.854	3203
854.988	3051
855.122	3097
855.256	2956
855.39	3108
855.524	3218
855.658	3173
855.792	3112
855.926	3180
856.06	3211
856.194	3226
856.327	3131
856.461	3093
856.595	3116
856.729	3081
856.862	3245
856.996	3157
857.13	3256
857.263	3260
857.397	3207
857.53	3127
857.664	3203
857.797	3214
857.931	3264
858.064	3184
858.197	3199
858.331	3138
858.464	3108
858.597	3043
858.731	3138
858.864	3100
858.997	3081
859.13	3127
859.263	3169
859.396	3207
859.529	3089
859.662	3066
859.795	3055
859.928	3119
860.061	3260
860.194	3260
860.327	3104
860.46	3062
860.592	3203
860.725	3237
860.858	3222
860.99	3097
861.123	3062
861.256	3055
861.388	3108
861.521	3682
861.653	3032
861.786	2948
861.918	3017
862.05	3089
862.183	3081
862.315	3173
862.447	3176
862.58	3070
862.712	2941
862.844	2891
862.976	3005
863.108	3001
863.24	3317
863.372	2899
863.504	2998
863.636	2929
863.768	3036
863.9	2960
864.032	2887
864.164	2925
864.296	3005
864.428	3070
864.559	3081
864.691	3058
864.823	3070
864.954	3047
865.086	3051
865.217	2963
865.349	2963
865.48	2963
865.612	2975
865.743	3112
865.875	2960
866.006	2933
866.137	2975
866.269	2941
866.4	2963
866.531	2925
866.662	2891
866.793	2906
866.924	2910
867.055	2941
867.186	2929
867.317	2899
867.448	2838
867.579	2853
867.71	2838
867.841	2804
867.972	2918
868.103	2887
868.233	2906
868.364	2861
868.495	2883
868.625	3062
868.756	3161
868.886	2975
869.017	3013
869.147	3161
869.278	3180
869.408	3062
869.539	3058
869.669	3089
869.799	3001
869.929	3089
870.06	3104
870.19	3329
870.32	3260
870.45	3321
870.58	3370
870.71	3454
870.84	3466
870.97	3272
871.1	3211
871.23	3481
871.36	3473
871.489	3325
871.619	3370
871.749	3416
871.879	3443
872.008	3447
872.138	3332
872.267	3253
872.397	3127
872.526	3116
872.656	3009
872.785	3081
872.915	3245
873.044	3302
873.173	3237
873.303	3233
873.432	3253
873.561	3253
873.69	3157
873.819	3142
873.948	3207
874.077	3108
874.206	3039
874.335	3097
874.464	3199
874.593	3389
874.722	3291
874.851	3401
874.979	3317
875.108	3344
875.237	3226
875.365	3165
875.494	3135
875.623	3253
875.751	3074
875.88	3112
876.008	3214
876.136	3245
876.265	3348
876.393	3515
876.521	3412
876.65	3370
876.778	3294
876.906	3230
877.034	3199
877.162	3207
877.29	3157
877.418	3237
877.546	3287
877.674	3264
877.802	3218
877.93	3207
878.058	3116
878.185	3100
878.313	3165
878.441	3226
878.568	3077
878.696	3165
878.824	3256
878.951	3291
879.079	3431
879.206	3591
879.333	3405
879.461	3332
879.588	3310
879.715	3466
879.842	3557
879.97	3389
880.097	3184
880.224	3161
880.351	3165
880.478	3203
880.605	3173
880.732	3203
880.859	3500
880.986	3332
881.112	3329
881.239	3195
881.366	3127
881.493	3058
881.619	2994
881.746	3051
881.872	3127
881.999	3100
882.125	3119
882.252	3211
882.378	3321
882.505	3428
882.631	3264
882.757	3157
882.883	3218
883.01	3237
883.136	3169
883.262	3097
883.388	3100
883.514	3294
883.64	3374
883.766	3310
883.892	3173
884.018	3237
884.143	3386
884.269	3599
884.395	3207
884.52	3165
884.646	3165
884.772	3119
884.897	3062
885.023	3237
885.148	3310
885.274	3466
885.399	3336
885.524	3275
885.65	3291
885.775	3291
885.9	3294
886.025	3450
886.15	3370
886.275	3340
886.4	3256
886.525	3302
886.65	3275
886.775	3321
886.9	3492
887.025	3633
887.149	3431
887.274	3195
887.399	3207
887.523	3188
887.648	3188
887.773	3150
887.897	3370
888.021	3393
888.146	3245
888.27	3412
888.395	3542
888.519	3401
888.643	3431
888.767	3466
888.891	3253
889.015	3237
889.139	3279
889.263	3283
889.387	3363
889.511	3526
889.635	3443
889.759	3253
889.883	3298
890.006	3397
890.13	3469
890.254	3294
890.377	3363
890.501	3180
890.624	3157
890.748	3249
890.871	3157
890.995	3093
891.118	3058
891.241	3169
891.364	3241
891.488	3332
891.611	3169
891.734	3207
891.857	3302
891.98	3226
892.103	3359
892.226	3283
892.349	3222
892.471	3135
892.594	3249
892.717	3302
892.839	3256
892.962	3245
893.085	3363
893.207	3287
893.33	3150
893.452	3184
893.575	3348
893.697	3298
893.819	3454
893.941	3523
894.064	3428
894.186	3264
894.308	3272
894.43	3370
894.552	3530
894.674	3450
894.796	3260
894.918	3344
895.04	3279
895.161	3428
895.283	3351
895.405	3298
895.526	3386
895.648	3386
895.769	3428
895.891	3443
896.012	3496
896.134	3428
896.255	3428
896.376	3378
896.498	3351
896.619	3431
896.74	3336
896.861	3412
896.982	3671
897.103	3816
897.224	3545
897.345	3500
897.466	3405
897.587	3469
897.708	3606
897.828	3564
897.949	3428
898.07	3306
898.19	3370
898.311	3622
898.431	3424
898.552	3504
898.672	3595
898.792	3587
898.913	3538
899.033	3412
899.153	3302
899.273	3192
899.393	3260
899.513	3294
899.633	3321
899.753	3336
899.873	3329
899.993	3401
900.113	3310
900.232	3416
900.352	3359
900.472	3279
900.591	3207
900.711	3298
900.83	3237
900.95	3412
901.069	3519
901.189	3329
901.308	3157
901.427	3093
901.546	3203
901.665	3302
901.784	3370
901.904	3214
902.023	3127
902.141	3051
902.26	2971
902.379	3127
902.498	3100
902.617	3032
902.735	3218
902.854	3222
902.973	3214
903.091	3047
903.21	3066
903.328	3135
903.446	3123
903.565	3112
903.683	3207
903.801	3146
903.919	3249
904.038	3264
904.156	3199
904.274	3313
904.392	3268
904.51	3294
904.627	3332
904.745	3431
904.863	3458
904.981	3253
905.098	3173
905.216	3253
905.334	3306
905.451	3291
905.569	3283
905.686	3378
905.803	3450
905.921	3268
906.038	3431
906.155	3344
906.272	3272
906.389	3306
906.506	3253
906.623	3260
906.74	3268
906.857	3180
906.974	3275
907.091	3466
907.208	3538
907.324	3443
907.441	3367
907.557	3253
907.674	3218
907.79	3211
907.907	3230
908.023	3359
908.139	3351
908.256	3313
908.372	3374
908.488	3348
908.604	3230
908.72	3192
908.836	3264
908.952	3298
909.068	3294
909.184	3526
909.3	3409
909.415	3500
909.531	3469
909.647	3256
909.762	3298
909.878	3279
909.993	3382
910.108	3363
910.224	3367
910.339	3386
910.454	3325
910.57	3279
910.685	3233
910.8	3584
910.915	3545
911.03	3450
911.145	3298
911.259	3253
911.374	3325
911.489	3272
911.604	3207
911.718	3119
911.833	3161
911.947	3039
912.062	2967
912.176	3135
912.291	3169
912.405	3222
912.519	3439
912.633	3466
912.748	3302
912.862	3264
912.976	3112
913.09	3097
913.204	3127
913.318	3195
913.431	3325
913.545	3329
913.659	3416
913.772	3370
913.886	3199
914	3214
914.113	3363
914.226	3405
914.34	3359
914.453	3180
914.566	3405
914.68	3302
914.793	3325
914.906	3135
915.019	3085
915.132	3085
915.245	3180
915.358	3207
915.47	3192
915.583	3264
915.696	3260
915.809	3409
915.921	3412
916.034	3249
916.146	3287
916.259	3237
916.371	3363
916.483	3340
916.595	3260
916.708	3344
916.82	3306
916.932	3329
917.044	3367
917.156	3344
917.268	3294
917.38	3302
917.491	3306
917.603	3359
917.715	3431
917.826	3454
917.938	3389
918.049	3245
918.161	3409
918.272	3580
918.384	3572
918.495	3469
918.606	3348
918.717	3279
918.828	3382
918.939	3443
919.05	3298
919.161	3367
919.272	3188
919.383	3325
919.494	3500
919.604	3671
919.715	3492
919.826	3420
919.936	3492
920.047	3572
920.157	3507
920.267	3724
920.378	3591
920.488	3568
920.598	3800
920.708	3953
920.818	3838
920.928	3835
921.038	3991
921.148	3968
921.258	3679
921.368	3663
921.477	3587
921.587	3542
921.697	3420
921.806	3660
921.916	3526
922.025	3348
922.134	3348
922.244	3306
922.353	3393
922.462	3279
922.571	3237
922.68	3104
922.789	3116
922.898	3108
923.007	3066
923.116	3211
923.224	3173
923.333	3195
923.442	3081
923.55	3119
923.659	3127
923.767	3199
923.876	3142
923.984	3226
924.092	3100
924.201	3192
924.309	3218
924.417	3237
924.525	3180
924.633	3237
924.741	3998
924.849	3066
924.956	3264
925.064	3062
925.172	3043
925.279	3093
925.387	3192
925.494	3207
925.602	3359
925.709	3332
925.816	3154
925.924	3256
926.031	3405
926.138	3332
926.245	3348
926.352	3237
926.459	3412
926.566	3458
926.673	3344
926.779	3256
926.886	3230
926.993	3146
927.099	3169
927.206	3116
927.312	3108
927.419	3241
927.525	3195
927.631	3287
927.737	3165
927.843	3127
927.95	2998
928.056	3108
928.162	3176
928.267	3245
928.373	3876
928.479	3283
928.585	3074
928.69	3218
928.796	3272
928.901	3188
929.007	3039
929.112	3211
929.218	3173
929.323	3138
929.428	3097
929.533	3283
929.638	3131
929.743	3161
929.848	3214
929.953	3203
930.058	3161
930.163	3009
930.267	3055
930.372	3222
930.477	3005
930.581	3302
930.685	3135
930.79	3047
930.894	3112
930.998	3104
931.103	3275
931.207	2990
931.311	2956
931.415	2937
931.519	2762
931.623	2800
