Data from test_V78500241_311.txt Node
Date: Fri Mar 25 16:17:21 CST 2022
User: usil
Spectrometer: V785-0024
Trigger mode: 0
Integration Time (sec): 4.000000E-1
Scans to average: 1
Nonlinearity correction enabled: false
Boxcar width: 0
Storing dark spectrum: false
XAxis mode: Wavelengths
Number of Pixels in Spectrum: 1024
>>>>>Begin Spectral Data<<<<<
801.071	2887
801.214	2979
801.356	2891
801.499	2941
801.641	2902
801.783	2963
801.926	3089
802.068	2982
802.211	3009
802.353	3028
802.496	2967
802.638	3005
802.78	3032
802.923	3093
803.065	3032
803.208	2918
803.35	2937
803.492	2944
803.635	2986
803.777	2762
803.919	2853
804.061	3253
804.204	2952
804.346	2922
804.488	2845
804.63	2979
804.773	2868
804.915	2910
805.057	3074
805.199	2933
805.341	2986
805.483	3039
805.626	2998
805.768	2982
805.91	3112
806.052	3131
806.194	3055
806.336	3176
806.478	3020
806.62	2960
806.762	2986
806.904	3005
807.046	3173
807.188	2994
807.33	2918
807.472	3032
807.614	2906
807.756	2994
807.898	2937
808.04	2906
808.182	2963
808.324	2933
808.465	2887
808.607	2891
808.749	2796
808.891	2845
809.033	2986
809.174	2941
809.316	2910
809.458	2922
809.6	2769
809.741	2743
809.883	2769
810.025	2857
810.166	2868
810.308	2823
810.45	2861
810.591	2754
810.733	2777
810.875	2834
811.016	2777
811.158	2769
811.299	2811
811.441	2902
811.582	2922
811.724	2842
811.865	2826
812.007	2933
812.148	2895
812.29	2857
812.431	2918
812.573	2929
812.714	2944
812.855	3020
812.997	3062
813.138	3119
813.279	3032
813.421	2971
813.562	2952
813.703	2872
813.845	2872
813.986	2762
814.127	2731
814.268	2845
814.41	2857
814.551	2815
814.692	2899
814.833	2834
814.974	2864
815.115	2971
815.256	2807
815.397	2807
815.539	2853
815.68	2788
815.821	2811
815.962	2937
816.103	2914
816.244	2895
816.385	2891
816.526	2956
816.666	2883
816.807	2758
816.948	2864
817.089	2872
817.23	2853
817.371	2781
817.512	2800
817.653	2830
817.793	2842
817.934	2918
818.075	2990
818.216	2979
818.356	3036
818.497	2872
818.638	2804
818.778	2811
818.919	2800
819.06	2758
819.2	2883
819.341	2815
819.481	2773
819.622	2883
819.762	3119
819.903	3036
820.043	2929
820.184	2906
820.324	2918
820.465	2998
820.605	2982
820.746	3058
820.886	2910
821.026	3116
821.167	3135
821.307	3253
821.447	3317
821.588	3233
821.728	3230
821.868	3192
822.008	3081
822.149	3184
822.289	3222
822.429	3100
822.569	3119
822.709	3180
822.849	3055
822.99	3081
823.13	3176
823.27	3169
823.41	3142
823.55	3142
823.69	3123
823.83	3218
823.97	3104
824.11	2990
824.25	2952
824.389	3077
824.529	3100
824.669	3058
824.809	3207
824.949	3253
825.089	3214
825.228	3184
825.368	3043
825.508	2990
825.648	2960
825.787	3024
825.927	3013
826.067	2998
826.206	2948
826.346	3043
826.485	3112
826.625	3138
826.765	3294
826.904	3218
827.044	3032
827.183	2952
827.323	2880
827.462	2990
827.601	2971
827.741	2967
827.88	2994
828.02	2910
828.159	3001
828.298	3074
828.437	3123
828.577	3089
828.716	3268
828.855	3116
828.994	2906
829.134	2918
829.273	2933
829.412	2891
829.551	2895
829.69	2944
829.829	3001
829.968	3169
830.107	3039
830.246	3089
830.385	3001
830.524	2975
830.663	2842
830.802	2758
830.941	2701
831.08	2678
831.219	2800
831.357	2815
831.496	2994
831.635	2739
831.774	2689
831.913	2697
832.051	2606
832.19	2632
832.329	2739
832.467	2587
832.606	2530
832.744	2610
832.883	2602
833.022	2625
833.16	2697
833.299	2743
833.437	2674
833.576	2746
833.714	2785
833.852	2796
833.991	2807
834.129	2887
834.267	2864
834.406	2849
834.544	2960
834.682	2910
834.821	2925
834.959	3081
835.097	2937
835.235	3089
835.373	3036
835.511	3108
835.65	3001
835.788	2982
835.926	2899
836.064	2891
836.202	2880
836.34	3169
836.478	3176
836.615	3097
836.753	3180
836.891	3241
837.029	3188
837.167	3135
837.305	3089
837.443	3020
837.58	3036
837.718	3142
837.856	3112
837.993	3074
838.131	3157
838.269	3100
838.406	3146
838.544	3131
838.681	2971
838.819	2956
838.956	2845
839.094	2868
839.231	2944
839.369	3051
839.506	3412
839.643	3253
839.781	3043
839.918	2986
840.055	3085
840.193	3081
840.33	3070
840.467	3146
840.604	3157
840.742	3431
840.879	3085
841.016	3066
841.153	3180
841.29	3336
841.427	3336
841.564	3355
841.701	3348
841.838	3245
841.975	3211
842.112	3245
842.249	3077
842.385	3074
842.522	3325
842.659	3119
842.796	3077
842.933	3150
843.069	3070
843.206	3062
843.343	3268
843.479	3157
843.616	3161
843.752	2941
843.889	2872
844.025	3108
844.162	2925
844.298	3100
844.435	2956
844.571	2948
844.708	3100
844.844	3211
844.98	3256
845.117	3195
845.253	3100
845.389	3028
845.525	3154
845.661	3116
845.798	3051
845.934	3138
846.07	3112
846.206	3211
846.342	3374
846.478	3279
846.614	3116
846.75	3085
846.886	3097
847.022	3283
847.158	3203
847.294	3226
847.429	3310
847.565	3272
847.701	3519
847.837	3077
847.972	3013
848.108	3195
848.244	3192
848.379	3005
848.515	2971
848.65	2979
848.786	2986
848.921	3043
849.057	3169
849.192	3211
849.328	3108
849.463	3165
849.598	3074
849.734	3032
849.869	2971
850.004	2956
850.14	2975
850.275	2979
850.41	2880
850.545	2895
850.68	2971
850.815	2986
850.95	3001
851.085	3211
851.22	3119
851.355	3020
851.49	3005
851.625	3051
851.76	3043
851.895	2979
852.03	2933
852.165	3081
852.299	3135
852.434	3214
852.569	3173
852.703	3241
852.838	3291
852.973	3355
853.107	3370
853.242	3199
853.376	3127
853.511	3013
853.645	3062
853.78	3283
853.914	3150
854.048	3138
854.183	3142
854.317	3188
854.451	3359
854.585	3180
854.72	3116
854.854	3203
854.988	3131
855.122	3165
855.256	3005
855.39	3165
855.524	3218
855.658	3203
855.792	3180
855.926	3203
856.06	3249
856.194	3241
856.327	3150
856.461	3085
856.595	3085
856.729	3138
856.862	3279
856.996	3211
857.13	3283
857.263	3241
857.397	3306
857.53	3146
857.664	3226
857.797	3275
857.931	3325
858.064	3222
858.197	3283
858.331	3161
858.464	3108
858.597	3039
858.731	3188
858.864	3154
858.997	3131
859.13	3188
859.263	3214
859.396	3233
859.529	3135
859.662	3112
859.795	3081
859.928	3192
860.061	3329
860.194	3332
860.327	3173
860.46	3108
860.592	3253
860.725	3256
860.858	3275
860.99	3127
861.123	3077
861.256	3077
861.388	3157
861.521	3880
861.653	3028
861.786	3024
861.918	3043
862.05	3058
862.183	3142
862.315	3165
862.447	3245
862.58	3146
862.712	2998
862.844	2902
862.976	3062
863.108	3043
863.24	3317
863.372	2872
863.504	2994
863.636	2982
863.768	3062
863.9	2990
864.032	2952
864.164	2998
864.296	3036
864.428	3119
864.559	3097
864.691	3108
864.823	3077
864.954	3043
865.086	3081
865.217	3028
865.349	2944
865.48	3047
865.612	3058
865.743	3214
865.875	3024
866.006	2960
866.137	3017
866.269	2918
866.4	2948
866.531	2952
866.662	2914
866.793	2910
866.924	2906
867.055	2994
867.186	2922
867.317	2868
867.448	2864
867.579	2887
867.71	2895
867.841	2838
867.972	2956
868.103	2937
868.233	2948
868.364	2876
868.495	2929
868.625	3100
868.756	3165
868.886	2990
869.017	3036
869.147	3203
869.278	3226
869.408	3089
869.539	3036
869.669	3104
869.799	3085
869.929	3146
870.06	3119
870.19	3306
870.32	3298
870.45	3329
870.58	3458
870.71	3485
870.84	3450
870.97	3336
871.1	3230
871.23	3530
871.36	3492
871.489	3332
871.619	3443
871.749	3401
871.879	3481
872.008	3500
872.138	3374
872.267	3287
872.397	3142
872.526	3100
872.656	3036
872.785	3089
872.915	3241
873.044	3344
873.173	3264
873.303	3260
873.432	3222
873.561	3230
873.69	3180
873.819	3180
873.948	3188
874.077	3146
874.206	3032
874.335	3131
874.464	3226
874.593	3393
874.722	3260
874.851	3443
874.979	3363
875.108	3370
875.237	3211
875.365	3157
875.494	3150
875.623	3283
875.751	3085
875.88	3100
876.008	3173
876.136	3260
876.265	3370
876.393	3519
876.521	3447
876.65	3462
876.778	3344
876.906	3268
877.034	3230
877.162	3237
877.29	3207
877.418	3260
877.546	3313
877.674	3268
877.802	3279
877.93	3230
878.058	3173
878.185	3146
878.313	3203
878.441	3218
878.568	3131
878.696	3165
878.824	3310
878.951	3310
879.079	3435
879.206	3637
879.333	3481
879.461	3370
879.588	3367
879.715	3515
879.842	3595
879.97	3382
880.097	3165
880.224	3135
880.351	3211
880.478	3222
880.605	3207
880.732	3207
880.859	3481
880.986	3348
881.112	3332
881.239	3237
881.366	3077
881.493	3058
881.619	3032
881.746	3142
881.872	3142
881.999	3097
882.125	3165
882.252	3291
882.378	3329
882.505	3454
882.631	3287
882.757	3195
882.883	3233
883.01	3272
883.136	3150
883.262	3077
883.388	3104
883.514	3386
883.64	3401
883.766	3310
883.892	3203
884.018	3283
884.143	3428
884.269	3557
884.395	3237
884.52	3192
884.646	3207
884.772	3192
884.897	3119
885.023	3226
885.148	3332
885.274	3420
885.399	3401
885.524	3332
885.65	3260
885.775	3321
885.9	3298
886.025	3424
886.15	3401
886.275	3291
886.4	3275
886.525	3329
886.65	3298
886.775	3283
886.9	3473
887.025	3682
887.149	3450
887.274	3279
887.399	3207
887.523	3184
887.648	3195
887.773	3203
887.897	3405
888.021	3401
888.146	3313
888.27	3454
888.395	3542
888.519	3454
888.643	3473
888.767	3492
888.891	3325
889.015	3283
889.139	3298
889.263	3268
889.387	3428
889.511	3549
889.635	3496
889.759	3275
889.883	3313
890.006	3416
890.13	3500
890.254	3321
890.377	3370
890.501	3211
890.624	3195
890.748	3306
890.871	3207
890.995	3127
891.118	3097
891.241	3203
891.364	3230
891.488	3344
891.611	3203
891.734	3230
891.857	3302
891.98	3245
892.103	3329
892.226	3291
892.349	3294
892.471	3123
892.594	3249
892.717	3344
892.839	3298
892.962	3310
893.085	3378
893.207	3302
893.33	3169
893.452	3245
893.575	3397
893.697	3241
893.819	3496
893.941	3507
894.064	3466
894.186	3291
894.308	3275
894.43	3454
894.552	3564
894.674	3488
894.796	3275
894.918	3306
895.04	3321
895.161	3450
895.283	3386
895.405	3317
895.526	3348
895.648	3428
895.769	3462
895.891	3435
896.012	3466
896.134	3504
896.255	3412
896.376	3393
896.498	3393
896.619	3420
896.74	3416
896.861	3458
896.982	3675
897.103	3857
897.224	3610
897.345	3515
897.466	3431
897.587	3481
897.708	3622
897.828	3553
897.949	3447
898.07	3374
898.19	3401
898.311	3641
898.431	3485
898.552	3523
898.672	3648
898.792	3618
898.913	3511
899.033	3397
899.153	3313
899.273	3268
899.393	3336
899.513	3325
899.633	3374
899.753	3332
899.873	3344
899.993	3389
900.113	3332
900.232	3416
900.352	3389
900.472	3363
900.591	3203
900.711	3279
900.83	3233
900.95	3374
901.069	3504
901.189	3382
901.308	3180
901.427	3165
901.546	3237
901.665	3287
901.784	3363
901.904	3241
902.023	3150
902.141	3036
902.26	3001
902.379	3142
902.498	3081
902.617	3062
902.735	3199
902.854	3249
902.973	3222
903.091	3047
903.21	3058
903.328	3131
903.446	3157
903.565	3131
903.683	3195
903.801	3138
903.919	3291
904.038	3283
904.156	3184
904.274	3287
904.392	3291
904.51	3294
904.627	3370
904.745	3473
904.863	3466
904.981	3294
905.098	3188
905.216	3233
905.334	3313
905.451	3298
905.569	3321
905.686	3420
905.803	3443
905.921	3321
906.038	3428
906.155	3355
906.272	3283
906.389	3306
906.506	3241
906.623	3275
906.74	3283
906.857	3192
906.974	3253
907.091	3435
907.208	3557
907.324	3450
907.441	3397
907.557	3237
907.674	3279
907.79	3237
907.907	3321
908.023	3370
908.139	3389
908.256	3302
908.372	3397
908.488	3374
908.604	3306
908.72	3268
908.836	3298
908.952	3256
909.068	3298
909.184	3485
909.3	3412
909.415	3488
909.531	3481
909.647	3279
909.762	3329
909.878	3283
909.993	3351
910.108	3359
910.224	3317
910.339	3409
910.454	3393
910.57	3298
910.685	3207
910.8	3587
910.915	3557
911.03	3393
911.145	3279
911.259	3260
911.374	3317
911.489	3233
911.604	3241
911.718	3119
911.833	3180
911.947	3047
912.062	3009
912.176	3218
912.291	3226
912.405	3207
912.519	3473
912.633	3492
912.748	3340
912.862	3306
912.976	3195
913.09	3093
913.204	3135
913.318	3222
913.431	3294
913.545	3378
913.659	3435
913.772	3329
913.886	3256
914	3237
914.113	3374
914.226	3412
914.34	3393
914.453	3222
914.566	3431
914.68	3317
914.793	3329
914.906	3157
915.019	3119
915.132	3100
915.245	3176
915.358	3241
915.47	3218
915.583	3249
915.696	3332
915.809	3412
915.921	3420
916.034	3249
916.146	3253
916.259	3249
916.371	3412
916.483	3370
916.595	3294
916.708	3340
916.82	3355
916.932	3351
917.044	3374
917.156	3351
917.268	3279
917.38	3321
917.491	3351
917.603	3355
917.715	3428
917.826	3481
917.938	3363
918.049	3268
918.161	3469
918.272	3561
918.384	3599
918.495	3511
918.606	3336
918.717	3283
918.828	3329
918.939	3382
919.05	3294
919.161	3397
919.272	3188
919.383	3291
919.494	3473
919.604	3686
919.715	3523
919.826	3401
919.936	3454
920.047	3599
920.157	3534
920.267	3789
920.378	3633
920.488	3545
920.598	3774
920.708	3934
920.818	3850
920.928	3819
921.038	4036
921.148	3972
921.258	3682
921.368	3652
921.477	3564
921.587	3538
921.697	3488
921.806	3667
921.916	3530
922.025	3416
922.134	3367
922.244	3348
922.353	3443
922.462	3241
922.571	3207
922.68	3127
922.789	3097
922.898	3154
923.007	3127
923.116	3260
923.224	3180
923.333	3230
923.442	3108
923.55	3116
923.659	3169
923.767	3195
923.876	3070
923.984	3222
924.092	3104
924.201	3226
924.309	3222
924.417	3241
924.525	3169
924.633	3256
924.741	4173
924.849	3062
924.956	3310
925.064	3093
925.172	3001
925.279	3077
925.387	3203
925.494	3211
925.602	3401
925.709	3321
925.816	3169
925.924	3313
926.031	3370
926.138	3306
926.245	3370
926.352	3264
926.459	3393
926.566	3485
926.673	3325
926.779	3211
926.886	3249
926.993	3135
927.099	3093
927.206	3127
927.312	3135
927.419	3214
927.525	3222
927.631	3287
927.737	3169
927.843	3150
927.95	3005
928.056	3127
928.162	3161
928.267	3260
928.373	3876
928.479	3325
928.585	3089
928.69	3173
928.796	3279
928.901	3161
929.007	3036
929.112	3199
929.218	3195
929.323	3154
929.428	3161
929.533	3298
929.638	3146
929.743	3214
929.848	3283
929.953	3203
930.058	3169
930.163	3001
930.267	3043
930.372	3230
930.477	3024
930.581	3332
930.685	3180
930.79	3024
930.894	3112
930.998	3100
931.103	3275
931.207	2952
931.311	2952
931.415	2948
931.519	2811
931.623	2823
