Data from test_V78500241_1290.txt Node
Date: Fri Mar 25 16:24:08 CST 2022
User: usil
Spectrometer: V785-0024
Trigger mode: 0
Integration Time (sec): 4.000000E-1
Scans to average: 1
Nonlinearity correction enabled: false
Boxcar width: 0
Storing dark spectrum: false
XAxis mode: Wavelengths
Number of Pixels in Spectrum: 1024
>>>>>Begin Spectral Data<<<<<
801.071	2910
801.214	2948
801.356	2849
801.499	2872
801.641	2902
801.783	2895
801.926	3051
802.068	2944
802.211	2971
802.353	3066
802.496	2933
802.638	3001
802.78	3058
802.923	3058
803.065	3020
803.208	2906
803.35	2902
803.492	2914
803.635	2906
803.777	2777
803.919	2853
804.061	3176
804.204	2887
804.346	2899
804.488	2872
804.63	2967
804.773	2834
804.915	2902
805.057	3097
805.199	2902
805.341	2944
805.483	3032
805.626	2982
805.768	2971
805.91	3100
806.052	3135
806.194	3001
806.336	3237
806.478	3032
806.62	2933
806.762	2960
806.904	3077
807.046	3169
807.188	3036
807.33	2922
807.472	2967
807.614	2918
807.756	2982
807.898	2933
808.04	2891
808.182	2918
808.324	2937
808.465	2861
808.607	2880
808.749	2762
808.891	2872
809.033	2963
809.174	2944
809.316	2876
809.458	2876
809.6	2777
809.741	2769
809.883	2785
810.025	2807
810.166	2826
810.308	2876
810.45	2849
810.591	2750
810.733	2766
810.875	2834
811.016	2766
811.158	2739
811.299	2800
811.441	2922
811.582	2910
811.724	2815
811.865	2807
812.007	2891
812.148	2857
812.29	2830
812.431	2864
812.573	2944
812.714	2933
812.855	3058
812.997	3058
813.138	3138
813.279	3032
813.421	3032
813.562	2982
813.703	2883
813.845	2868
813.986	2739
814.127	2701
814.268	2807
814.41	2819
814.551	2781
814.692	2864
814.833	2781
814.974	2902
815.115	2937
815.256	2819
815.397	2823
815.539	2845
815.68	2788
815.821	2807
815.962	2941
816.103	2906
816.244	2887
816.385	2853
816.526	2956
816.666	2887
816.807	2773
816.948	2906
817.089	2891
817.23	2853
817.371	2754
817.512	2804
817.653	2819
817.793	2811
817.934	2868
818.075	2963
818.216	2952
818.356	3028
818.497	2872
818.638	2800
818.778	2838
818.919	2785
819.06	2769
819.2	2895
819.341	2785
819.481	2796
819.622	2922
819.762	3085
819.903	3024
820.043	2937
820.184	2883
820.324	2891
820.465	3001
820.605	3024
820.746	3047
820.886	2918
821.026	3077
821.167	3142
821.307	3245
821.447	3294
821.588	3260
821.728	3169
821.868	3218
822.008	3070
822.149	3195
822.289	3233
822.429	3089
822.569	3081
822.709	3199
822.849	2979
822.99	3070
823.13	3176
823.27	3211
823.41	3104
823.55	3165
823.69	3138
823.83	3180
823.97	3100
824.11	2971
824.25	2994
824.389	3028
824.529	3085
824.669	3047
824.809	3192
824.949	3249
825.089	3188
825.228	3184
825.368	2986
825.508	2956
825.648	2967
825.787	3001
825.927	2994
826.067	2960
826.206	2933
826.346	3047
826.485	3036
826.625	3062
826.765	3241
826.904	3157
827.044	2982
827.183	2933
827.323	2842
827.462	3009
827.601	2914
827.741	2918
827.88	2941
828.02	2853
828.159	2944
828.298	3017
828.437	3089
828.577	3020
828.716	3268
828.855	3093
828.994	2891
829.134	2895
829.273	2906
829.412	2902
829.551	2838
829.69	2929
829.829	3001
829.968	3112
830.107	2986
830.246	2960
830.385	2929
830.524	2861
830.663	2807
830.802	2739
830.941	2674
831.08	2663
831.219	2766
831.357	2739
831.496	2948
831.635	2712
831.774	2632
831.913	2640
832.051	2530
832.19	2598
832.329	2648
832.467	2556
832.606	2503
832.744	2583
832.883	2606
833.022	2556
833.16	2621
833.299	2674
833.437	2670
833.576	2720
833.714	2720
833.852	2731
833.991	2777
834.129	2838
834.267	2804
834.406	2781
834.544	2895
834.682	2864
834.821	2857
834.959	3081
835.097	2883
835.235	3097
835.373	2979
835.511	3032
835.65	2960
835.788	2952
835.926	2861
836.064	2811
836.202	2849
836.34	3081
836.478	3146
836.615	3047
836.753	3146
836.891	3173
837.029	3173
837.167	3093
837.305	3066
837.443	3020
837.58	2925
837.718	3089
837.856	3051
837.993	3051
838.131	3093
838.269	3100
838.406	3112
838.544	3043
838.681	2944
838.819	2910
838.956	2826
839.094	2830
839.231	2906
839.369	2998
839.506	3370
839.643	3218
839.781	3005
839.918	2960
840.055	3020
840.193	3013
840.33	3074
840.467	3097
840.604	3161
840.742	3386
840.879	3017
841.016	3043
841.153	3093
841.29	3317
841.427	3260
841.564	3268
841.701	3283
841.838	3218
841.975	3150
842.112	3173
842.249	3085
842.385	3024
842.522	3241
842.659	3108
842.796	3081
842.933	3077
843.069	3074
843.206	3032
843.343	3180
843.479	3108
843.616	3119
843.752	2876
843.889	2880
844.025	3062
844.162	2857
844.298	3081
844.435	2922
844.571	2933
844.708	3043
844.844	3173
844.98	3199
845.117	3176
845.253	3047
845.389	2982
845.525	3116
845.661	3093
845.798	3039
845.934	3127
846.07	3043
846.206	3199
846.342	3275
846.478	3211
846.614	3055
846.75	3039
846.886	3009
847.022	3241
847.158	3104
847.294	3192
847.429	3226
847.565	3237
847.701	3454
847.837	3009
847.972	3001
848.108	3154
848.244	3161
848.379	2963
848.515	2929
848.65	2948
848.786	2933
848.921	3032
849.057	3100
849.192	3150
849.328	3074
849.463	3077
849.598	3074
849.734	3051
849.869	2963
850.004	2906
850.14	2941
850.275	2918
850.41	2807
850.545	2891
850.68	2922
850.815	2922
850.95	2960
851.085	3165
851.22	3112
851.355	3017
851.49	2971
851.625	3009
851.76	3036
851.895	2906
852.03	2906
852.165	2998
852.299	3100
852.434	3138
852.569	3138
852.703	3157
852.838	3207
852.973	3340
853.107	3325
853.242	3165
853.376	3100
853.511	2960
853.645	3051
853.78	3192
853.914	3085
854.048	3085
854.183	3093
854.317	3142
854.451	3283
854.585	3131
854.72	3077
854.854	3222
854.988	3036
855.122	3051
855.256	2963
855.39	3085
855.524	3241
855.658	3169
855.792	3157
855.926	3199
856.06	3180
856.194	3245
856.327	3154
856.461	3074
856.595	3081
856.729	3062
856.862	3222
856.996	3161
857.13	3188
857.263	3207
857.397	3268
857.53	3108
857.664	3188
857.797	3264
857.931	3226
858.064	3138
858.197	3230
858.331	3135
858.464	3058
858.597	2994
858.731	3081
858.864	3131
858.997	3104
859.13	3127
859.263	3203
859.396	3180
859.529	3066
859.662	3032
859.795	3047
859.928	3150
860.061	3272
860.194	3291
860.327	3123
860.46	3066
860.592	3245
860.725	3275
860.858	3211
860.99	3100
861.123	3028
861.256	3058
861.388	3093
861.521	3705
861.653	3032
861.786	2960
861.918	3005
862.05	3017
862.183	3062
862.315	3112
862.447	3211
862.58	3112
862.712	2944
862.844	2853
862.976	3051
863.108	2998
863.24	3332
863.372	2868
863.504	2944
863.636	2941
863.768	2994
863.9	2944
864.032	2887
864.164	2971
864.296	3009
864.428	3055
864.559	3108
864.691	3058
864.823	3058
864.954	3017
865.086	3066
865.217	3013
865.349	2937
865.48	2986
865.612	3020
865.743	3123
865.875	3028
866.006	2960
866.137	2998
866.269	2948
866.4	2960
866.531	2933
866.662	2876
866.793	2895
866.924	2902
867.055	2998
867.186	2933
867.317	2876
867.448	2796
867.579	2830
867.71	2815
867.841	2845
867.972	2868
868.103	2914
868.233	2872
868.364	2899
868.495	2895
868.625	3043
868.756	3150
868.886	2944
869.017	3017
869.147	3180
869.278	3131
869.408	3047
869.539	3020
869.669	3112
869.799	3104
869.929	3150
870.06	3097
870.19	3279
870.32	3241
870.45	3283
870.58	3359
870.71	3443
870.84	3447
870.97	3298
871.1	3218
871.23	3458
871.36	3443
871.489	3370
871.619	3412
871.749	3397
871.879	3443
872.008	3485
872.138	3348
872.267	3272
872.397	3142
872.526	3077
872.656	2990
872.785	3058
872.915	3233
873.044	3336
873.173	3218
873.303	3241
873.432	3226
873.561	3233
873.69	3176
873.819	3108
873.948	3203
874.077	3108
874.206	3032
874.335	3077
874.464	3249
874.593	3329
874.722	3230
874.851	3393
874.979	3344
875.108	3264
875.237	3176
875.365	3150
875.494	3157
875.623	3264
875.751	3066
875.88	3097
876.008	3184
876.136	3222
876.265	3389
876.393	3504
876.521	3393
876.65	3359
876.778	3325
876.906	3275
877.034	3199
877.162	3222
877.29	3188
877.418	3241
877.546	3233
877.674	3211
877.802	3188
877.93	3207
878.058	3157
878.185	3066
878.313	3188
878.441	3199
878.568	3070
878.696	3138
878.824	3253
878.951	3325
879.079	3431
879.206	3595
879.333	3431
879.461	3283
879.588	3325
879.715	3473
879.842	3622
879.97	3397
880.097	3135
880.224	3108
880.351	3165
880.478	3169
880.605	3214
880.732	3184
880.859	3469
880.986	3291
881.112	3325
881.239	3169
881.366	3039
881.493	3058
881.619	3020
881.746	3085
881.872	3100
881.999	3097
882.125	3108
882.252	3272
882.378	3279
882.505	3378
882.631	3294
882.757	3146
882.883	3199
883.01	3207
883.136	3184
883.262	3093
883.388	3135
883.514	3325
883.64	3370
883.766	3294
883.892	3188
884.018	3214
884.143	3439
884.269	3511
884.395	3192
884.52	3142
884.646	3195
884.772	3085
884.897	3070
885.023	3184
885.148	3317
885.274	3389
885.399	3405
885.524	3241
885.65	3275
885.775	3302
885.9	3237
886.025	3389
886.15	3329
886.275	3245
886.4	3253
886.525	3313
886.65	3283
886.775	3245
886.9	3458
887.025	3663
887.149	3412
887.274	3256
887.399	3123
887.523	3180
887.648	3214
887.773	3192
887.897	3367
888.021	3378
888.146	3275
888.27	3454
888.395	3549
888.519	3439
888.643	3405
888.767	3416
888.891	3313
889.015	3241
889.139	3275
889.263	3279
889.387	3393
889.511	3500
889.635	3454
889.759	3264
889.883	3283
890.006	3424
890.13	3481
890.254	3249
890.377	3298
890.501	3184
890.624	3157
890.748	3306
890.871	3195
890.995	3116
891.118	3051
891.241	3222
891.364	3192
891.488	3298
891.611	3138
891.734	3214
891.857	3275
891.98	3211
892.103	3306
892.226	3283
892.349	3184
892.471	3104
892.594	3226
892.717	3256
892.839	3275
892.962	3302
893.085	3367
893.207	3264
893.33	3127
893.452	3203
893.575	3310
893.697	3237
893.819	3469
893.941	3481
894.064	3416
894.186	3237
894.308	3268
894.43	3435
894.552	3519
894.674	3477
894.796	3272
894.918	3313
895.04	3294
895.161	3450
895.283	3340
895.405	3298
895.526	3348
895.648	3389
895.769	3424
895.891	3431
896.012	3447
896.134	3462
896.255	3397
896.376	3363
896.498	3355
896.619	3443
896.74	3332
896.861	3431
896.982	3713
897.103	3865
897.224	3564
897.345	3488
897.466	3424
897.587	3477
897.708	3591
897.828	3538
897.949	3420
898.07	3359
898.19	3431
898.311	3584
898.431	3439
898.552	3477
898.672	3591
898.792	3564
898.913	3507
899.033	3378
899.153	3321
899.273	3218
899.393	3317
899.513	3340
899.633	3294
899.753	3306
899.873	3275
899.993	3397
900.113	3329
900.232	3378
900.352	3332
900.472	3310
900.591	3195
900.711	3298
900.83	3256
900.95	3397
901.069	3469
901.189	3348
901.308	3199
901.427	3119
901.546	3173
901.665	3279
901.784	3332
901.904	3184
902.023	3180
902.141	2979
902.26	2967
902.379	3112
902.498	3081
902.617	3024
902.735	3222
902.854	3233
902.973	3169
903.091	3028
903.21	3081
903.328	3127
903.446	3116
903.565	3097
903.683	3176
903.801	3146
903.919	3230
904.038	3291
904.156	3138
904.274	3268
904.392	3233
904.51	3298
904.627	3313
904.745	3412
904.863	3507
904.981	3264
905.098	3199
905.216	3233
905.334	3260
905.451	3310
905.569	3275
905.686	3431
905.803	3428
905.921	3264
906.038	3412
906.155	3382
906.272	3260
906.389	3298
906.506	3233
906.623	3260
906.74	3275
906.857	3180
906.974	3241
907.091	3454
907.208	3564
907.324	3447
907.441	3393
907.557	3237
907.674	3222
907.79	3199
907.907	3264
908.023	3348
908.139	3348
908.256	3306
908.372	3389
908.488	3382
908.604	3233
908.72	3249
908.836	3256
908.952	3249
909.068	3374
909.184	3473
909.3	3351
909.415	3485
909.531	3431
909.647	3260
909.762	3294
909.878	3264
909.993	3386
910.108	3321
910.224	3310
910.339	3473
910.454	3348
910.57	3287
910.685	3184
910.8	3606
910.915	3545
911.03	3412
911.145	3241
911.259	3249
911.374	3313
911.489	3226
911.604	3203
911.718	3119
911.833	3173
911.947	2990
912.062	2986
912.176	3157
912.291	3222
912.405	3203
912.519	3412
912.633	3458
912.748	3291
912.862	3268
912.976	3169
913.09	3062
913.204	3123
913.318	3211
913.431	3298
913.545	3329
913.659	3393
913.772	3302
913.886	3176
914	3169
914.113	3382
914.226	3405
914.34	3370
914.453	3188
914.566	3443
914.68	3275
914.793	3287
914.906	3154
915.019	3154
915.132	3032
915.245	3108
915.358	3169
915.47	3230
915.583	3249
915.696	3272
915.809	3386
915.921	3424
916.034	3241
916.146	3241
916.259	3237
916.371	3363
916.483	3389
916.595	3230
916.708	3313
916.82	3306
916.932	3321
917.044	3351
917.156	3344
917.268	3264
917.38	3279
917.491	3260
917.603	3344
917.715	3416
917.826	3462
917.938	3382
918.049	3268
918.161	3405
918.272	3561
918.384	3553
918.495	3477
918.606	3306
918.717	3268
918.828	3348
918.939	3409
919.05	3306
919.161	3355
919.272	3154
919.383	3260
919.494	3450
919.604	3663
919.715	3450
919.826	3367
919.936	3405
920.047	3603
920.157	3519
920.267	3759
920.378	3591
920.488	3538
920.598	3755
920.708	3956
920.818	3854
920.928	3774
921.038	4021
921.148	3953
921.258	3663
921.368	3584
921.477	3557
921.587	3534
921.697	3469
921.806	3648
921.916	3530
922.025	3348
922.134	3351
922.244	3294
922.353	3412
922.462	3294
922.571	3233
922.68	3089
922.789	3093
922.898	3135
923.007	3097
923.116	3203
923.224	3195
923.333	3195
923.442	3135
923.55	3119
923.659	3161
923.767	3241
923.876	3176
923.984	3226
924.092	3127
924.201	3241
924.309	3195
924.417	3264
924.525	3218
924.633	3230
924.741	4078
924.849	3089
924.956	3291
925.064	3142
925.172	3093
925.279	3123
925.387	3245
925.494	3222
925.602	3393
925.709	3340
925.816	3230
925.924	3283
926.031	3431
926.138	3336
926.245	3382
926.352	3291
926.459	3428
926.566	3504
926.673	3374
926.779	3272
926.886	3302
926.993	3199
927.099	3157
927.206	3150
927.312	3154
927.419	3268
927.525	3245
927.631	3275
927.737	3188
927.843	3188
927.95	3085
928.056	3230
928.162	3203
928.267	3294
928.373	3907
928.479	3363
928.585	3119
928.69	3260
928.796	3329
928.901	3211
929.007	3100
929.112	3241
929.218	3218
929.323	3176
929.428	3199
929.533	3348
929.638	3169
929.743	3188
929.848	3260
929.953	3298
930.058	3150
930.163	3017
930.267	3062
930.372	3233
930.477	3081
930.581	3317
930.685	3192
930.79	3077
930.894	3154
930.998	3146
931.103	3348
931.207	2998
931.311	2982
931.415	2937
931.519	2823
931.623	2857
