Data from test_V78500241_493.txt Node
Date: Fri Mar 25 16:18:37 CST 2022
User: usil
Spectrometer: V785-0024
Trigger mode: 0
Integration Time (sec): 4.000000E-1
Scans to average: 1
Nonlinearity correction enabled: false
Boxcar width: 0
Storing dark spectrum: false
XAxis mode: Wavelengths
Number of Pixels in Spectrum: 1024
>>>>>Begin Spectral Data<<<<<
801.071	2899
801.214	2967
801.356	2857
801.499	2891
801.641	2891
801.783	2891
801.926	3043
802.068	2982
802.211	3005
802.353	3036
802.496	2998
802.638	3009
802.78	3028
802.923	3062
803.065	2998
803.208	2925
803.35	2910
803.492	2922
803.635	2979
803.777	2754
803.919	2876
804.061	3203
804.204	2933
804.346	2929
804.488	2853
804.63	3043
804.773	2864
804.915	2910
805.057	3081
805.199	2960
805.341	2982
805.483	3047
805.626	3017
805.768	2986
805.91	3085
806.052	3104
806.194	3005
806.336	3279
806.478	3074
806.62	2975
806.762	2948
806.904	3039
807.046	3123
807.188	2948
807.33	2937
807.472	2998
807.614	2906
807.756	2990
807.898	2914
808.04	2891
808.182	3001
808.324	2948
808.465	2853
808.607	2868
808.749	2804
808.891	2868
809.033	2967
809.174	2967
809.316	2891
809.458	2899
809.6	2781
809.741	2800
809.883	2743
810.025	2861
810.166	2876
810.308	2868
810.45	2880
810.591	2788
810.733	2777
810.875	2830
811.016	2826
811.158	2766
811.299	2807
811.441	2933
811.582	2918
811.724	2834
811.865	2838
812.007	2941
812.148	2864
812.29	2834
812.431	2922
812.573	2925
812.714	2971
812.855	3066
812.997	3047
813.138	3131
813.279	3020
813.421	2982
813.562	2933
813.703	2895
813.845	2880
813.986	2762
814.127	2758
814.268	2830
814.41	2838
814.551	2823
814.692	2868
814.833	2807
814.974	2902
815.115	3009
815.256	2823
815.397	2811
815.539	2864
815.68	2773
815.821	2796
815.962	2952
816.103	2906
816.244	2872
816.385	2834
816.526	3005
816.666	2929
816.807	2758
816.948	2876
817.089	2902
817.23	2887
817.371	2781
817.512	2792
817.653	2849
817.793	2849
817.934	2902
818.075	2990
818.216	2994
818.356	3013
818.497	2842
818.638	2788
818.778	2826
818.919	2792
819.06	2762
819.2	2872
819.341	2800
819.481	2773
819.622	2918
819.762	3104
819.903	3066
820.043	2902
820.184	2899
820.324	2891
820.465	3001
820.605	2994
820.746	3028
820.886	2910
821.026	3138
821.167	3161
821.307	3245
821.447	3294
821.588	3211
821.728	3195
821.868	3207
822.008	3104
822.149	3161
822.289	3233
822.429	3085
822.569	3070
822.709	3157
822.849	3032
822.99	3062
823.13	3161
823.27	3214
823.41	3127
823.55	3176
823.69	3154
823.83	3161
823.97	3093
824.11	2990
824.25	2986
824.389	3074
824.529	3100
824.669	3081
824.809	3207
824.949	3249
825.089	3214
825.228	3127
825.368	2982
825.508	2937
825.648	2971
825.787	3036
825.927	3028
826.067	2956
826.206	2941
826.346	3020
826.485	3043
826.625	3135
826.765	3241
826.904	3214
827.044	2971
827.183	2941
827.323	2887
827.462	2998
827.601	2887
827.741	2914
827.88	2975
828.02	2838
828.159	2956
828.298	3024
828.437	3100
828.577	3062
828.716	3233
828.855	3085
828.994	2906
829.134	2891
829.273	2933
829.412	2880
829.551	2899
829.69	2902
829.829	2960
829.968	3119
830.107	3001
830.246	3024
830.385	2891
830.524	2872
830.663	2834
830.802	2693
830.941	2636
831.08	2655
831.219	2766
831.357	2781
831.496	2929
831.635	2735
831.774	2636
831.913	2667
832.051	2556
832.19	2568
832.329	2674
832.467	2530
832.606	2518
832.744	2560
832.883	2587
833.022	2564
833.16	2629
833.299	2674
833.437	2678
833.576	2727
833.714	2697
833.852	2708
833.991	2754
834.129	2876
834.267	2842
834.406	2796
834.544	2861
834.682	2899
834.821	2853
834.959	3066
835.097	2891
835.235	3081
835.373	2990
835.511	3001
835.65	2963
835.788	2937
835.926	2826
836.064	2826
836.202	2857
836.34	3093
836.478	3138
836.615	3074
836.753	3123
836.891	3161
837.029	3161
837.167	3104
837.305	3055
837.443	3039
837.58	2975
837.718	3142
837.856	3070
837.993	3047
838.131	3116
838.269	3093
838.406	3077
838.544	3066
838.681	2986
838.819	2933
838.956	2781
839.094	2811
839.231	2933
839.369	3020
839.506	3378
839.643	3192
839.781	3013
839.918	2986
840.055	3005
840.193	3024
840.33	3081
840.467	3119
840.604	3104
840.742	3370
840.879	3039
841.016	3062
841.153	3119
841.29	3344
841.427	3253
841.564	3260
841.701	3275
841.838	3188
841.975	3184
842.112	3180
842.249	3074
842.385	3024
842.522	3260
842.659	3112
842.796	3036
842.933	3074
843.069	3032
843.206	3058
843.343	3150
843.479	3135
843.616	3135
843.752	2914
843.889	2872
844.025	3081
844.162	2868
844.298	3074
844.435	2933
844.571	2902
844.708	3047
844.844	3169
844.98	3222
845.117	3188
845.253	3028
845.389	2990
845.525	3070
845.661	3116
845.798	3013
845.934	3119
846.07	3024
846.206	3195
846.342	3306
846.478	3211
846.614	3055
846.75	3062
846.886	3036
847.022	3256
847.158	3161
847.294	3165
847.429	3256
847.565	3192
847.701	3443
847.837	3013
847.972	3001
848.108	3161
848.244	3165
848.379	2952
848.515	2944
848.65	2929
848.786	2948
848.921	2990
849.057	3116
849.192	3138
849.328	3066
849.463	3119
849.598	3055
849.734	2982
849.869	2967
850.004	2918
850.14	2910
850.275	2906
850.41	2872
850.545	2891
850.68	2929
850.815	2960
850.95	2937
851.085	3169
851.22	3081
851.355	3039
851.49	3013
851.625	2994
851.76	3020
851.895	2891
852.03	2876
852.165	3013
852.299	3089
852.434	3199
852.569	3123
852.703	3184
852.838	3264
852.973	3370
853.107	3329
853.242	3119
853.376	3100
853.511	2982
853.645	3036
853.78	3218
853.914	3116
854.048	3093
854.183	3085
854.317	3131
854.451	3336
854.585	3142
854.72	3085
854.854	3176
854.988	3062
855.122	3085
855.256	2994
855.39	3127
855.524	3264
855.658	3195
855.792	3104
855.926	3203
856.06	3188
856.194	3287
856.327	3165
856.461	3043
856.595	3093
856.729	3085
856.862	3199
856.996	3157
857.13	3192
857.263	3256
857.397	3275
857.53	3154
857.664	3199
857.797	3222
857.931	3268
858.064	3195
858.197	3230
858.331	3123
858.464	3089
858.597	3005
858.731	3119
858.864	3142
858.997	3070
859.13	3127
859.263	3161
859.396	3214
859.529	3093
859.662	3077
859.795	3047
859.928	3116
860.061	3287
860.194	3306
860.327	3138
860.46	3100
860.592	3218
860.725	3237
860.858	3272
860.99	3097
861.123	3055
861.256	3058
861.388	3161
861.521	3835
861.653	3017
861.786	2963
861.918	3013
862.05	3051
862.183	3108
862.315	3131
862.447	3154
862.58	3093
862.712	2941
862.844	2861
862.976	3032
863.108	3039
863.24	3268
863.372	2864
863.504	2960
863.636	2944
863.768	3043
863.9	2971
864.032	2895
864.164	2925
864.296	3001
864.428	3055
864.559	3131
864.691	3074
864.823	3055
864.954	3043
865.086	3005
865.217	2998
865.349	2971
865.48	2971
865.612	3001
865.743	3169
865.875	2967
866.006	2944
866.137	3009
866.269	2982
866.4	2944
866.531	2910
866.662	2868
866.793	2868
866.924	2891
867.055	3020
867.186	2914
867.317	2868
867.448	2826
867.579	2845
867.71	2842
867.841	2834
867.972	2895
868.103	2914
868.233	2880
868.364	2887
868.495	2872
868.625	3062
868.756	3176
868.886	2990
869.017	3013
869.147	3135
869.278	3218
869.408	3070
869.539	2994
869.669	3116
869.799	3047
869.929	3154
870.06	3116
870.19	3306
870.32	3306
870.45	3294
870.58	3370
870.71	3443
870.84	3389
870.97	3283
871.1	3184
871.23	3488
871.36	3435
871.489	3340
871.619	3409
871.749	3424
871.879	3405
872.008	3485
872.138	3355
872.267	3283
872.397	3119
872.526	3097
872.656	2998
872.785	3077
872.915	3237
873.044	3313
873.173	3203
873.303	3260
873.432	3199
873.561	3218
873.69	3161
873.819	3150
873.948	3188
874.077	3100
874.206	3066
874.335	3070
874.464	3222
874.593	3397
874.722	3214
874.851	3374
874.979	3344
875.108	3275
875.237	3199
875.365	3169
875.494	3161
875.623	3256
875.751	3089
875.88	3100
876.008	3138
876.136	3222
876.265	3382
876.393	3488
876.521	3409
876.65	3370
876.778	3344
876.906	3226
877.034	3154
877.162	3241
877.29	3222
877.418	3279
877.546	3211
877.674	3249
877.802	3241
877.93	3233
878.058	3112
878.185	3081
878.313	3176
878.441	3241
878.568	3097
878.696	3131
878.824	3233
878.951	3287
879.079	3458
879.206	3637
879.333	3424
879.461	3329
879.588	3359
879.715	3492
879.842	3572
879.97	3405
880.097	3176
880.224	3169
880.351	3157
880.478	3176
880.605	3184
880.732	3199
880.859	3507
880.986	3310
881.112	3344
881.239	3207
881.366	3112
881.493	3039
881.619	3028
881.746	3093
881.872	3097
881.999	3104
882.125	3150
882.252	3237
882.378	3283
882.505	3443
882.631	3287
882.757	3157
882.883	3218
883.01	3218
883.136	3173
883.262	3070
883.388	3142
883.514	3325
883.64	3355
883.766	3321
883.892	3165
884.018	3260
884.143	3424
884.269	3519
884.395	3211
884.52	3142
884.646	3195
884.772	3146
884.897	3116
885.023	3165
885.148	3332
885.274	3447
885.399	3367
885.524	3287
885.65	3237
885.775	3287
885.9	3264
886.025	3374
886.15	3348
886.275	3268
886.4	3199
886.525	3310
886.65	3264
886.775	3256
886.9	3488
887.025	3663
887.149	3412
887.274	3241
887.399	3184
887.523	3169
887.648	3161
887.773	3260
887.897	3351
888.021	3386
888.146	3253
888.27	3435
888.395	3477
888.519	3450
888.643	3405
888.767	3469
888.891	3313
889.015	3241
889.139	3253
889.263	3253
889.387	3428
889.511	3496
889.635	3466
889.759	3291
889.883	3287
890.006	3374
890.13	3473
890.254	3230
890.377	3351
890.501	3165
890.624	3169
890.748	3306
890.871	3188
890.995	3074
891.118	3047
891.241	3161
891.364	3214
891.488	3310
891.611	3188
891.734	3230
891.857	3313
891.98	3253
892.103	3325
892.226	3287
892.349	3192
892.471	3108
892.594	3260
892.717	3325
892.839	3260
892.962	3306
893.085	3355
893.207	3298
893.33	3135
893.452	3230
893.575	3348
893.697	3294
893.819	3458
893.941	3519
894.064	3447
894.186	3306
894.308	3283
894.43	3420
894.552	3530
894.674	3488
894.796	3272
894.918	3317
895.04	3310
895.161	3450
895.283	3405
895.405	3329
895.526	3329
895.648	3420
895.769	3393
895.891	3443
896.012	3466
896.134	3473
896.255	3367
896.376	3378
896.498	3374
896.619	3393
896.74	3382
896.861	3397
896.982	3698
897.103	3842
897.224	3564
897.345	3530
897.466	3435
897.587	3515
897.708	3663
897.828	3534
897.949	3462
898.07	3336
898.19	3401
898.311	3599
898.431	3447
898.552	3496
898.672	3591
898.792	3599
898.913	3519
899.033	3409
899.153	3287
899.273	3207
899.393	3279
899.513	3294
899.633	3336
899.753	3336
899.873	3298
899.993	3340
900.113	3359
900.232	3374
900.352	3313
900.472	3279
900.591	3192
900.711	3306
900.83	3207
900.95	3416
901.069	3481
901.189	3355
901.308	3119
901.427	3142
901.546	3199
901.665	3291
901.784	3336
901.904	3157
902.023	3116
902.141	3047
902.26	2979
902.379	3127
902.498	3097
902.617	3077
902.735	3237
902.854	3211
902.973	3131
903.091	3039
903.21	3039
903.328	3169
903.446	3089
903.565	3135
903.683	3203
903.801	3108
903.919	3249
904.038	3302
904.156	3157
904.274	3287
904.392	3249
904.51	3268
904.627	3325
904.745	3450
904.863	3481
904.981	3230
905.098	3207
905.216	3222
905.334	3287
905.451	3287
905.569	3302
905.686	3409
905.803	3447
905.921	3241
906.038	3462
906.155	3351
906.272	3275
906.389	3294
906.506	3211
906.623	3241
906.74	3268
906.857	3165
906.974	3253
907.091	3431
907.208	3553
907.324	3538
907.441	3378
907.557	3214
907.674	3222
907.79	3188
907.907	3264
908.023	3363
908.139	3397
908.256	3332
908.372	3370
908.488	3344
908.604	3249
908.72	3249
908.836	3298
908.952	3272
909.068	3363
909.184	3466
909.3	3409
909.415	3496
909.531	3462
909.647	3249
909.762	3291
909.878	3260
909.993	3370
910.108	3355
910.224	3336
910.339	3431
910.454	3321
910.57	3302
910.685	3192
910.8	3545
910.915	3542
911.03	3443
911.145	3249
911.259	3268
911.374	3306
911.489	3245
911.604	3222
911.718	3093
911.833	3184
911.947	3066
912.062	2990
912.176	3154
912.291	3161
912.405	3199
912.519	3431
912.633	3473
912.748	3359
912.862	3287
912.976	3176
913.09	3020
913.204	3142
913.318	3176
913.431	3355
913.545	3344
913.659	3412
913.772	3351
913.886	3245
914	3214
914.113	3329
914.226	3386
914.34	3355
914.453	3192
914.566	3386
914.68	3310
914.793	3325
914.906	3116
915.019	3108
915.132	3039
915.245	3154
915.358	3211
915.47	3226
915.583	3283
915.696	3253
915.809	3412
915.921	3363
916.034	3268
916.146	3222
916.259	3203
916.371	3389
916.483	3359
916.595	3272
916.708	3306
916.82	3370
916.932	3321
917.044	3332
917.156	3348
917.268	3241
917.38	3329
917.491	3317
917.603	3386
917.715	3435
917.826	3450
917.938	3386
918.049	3283
918.161	3443
918.272	3561
918.384	3568
918.495	3481
918.606	3325
918.717	3272
918.828	3389
918.939	3409
919.05	3294
919.161	3393
919.272	3146
919.383	3253
919.494	3500
919.604	3698
919.715	3496
919.826	3370
919.936	3462
920.047	3603
920.157	3580
920.267	3747
920.378	3610
920.488	3542
920.598	3789
920.708	3945
920.818	3793
920.928	3766
921.038	4055
921.148	4013
921.258	3717
921.368	3629
921.477	3580
921.587	3481
921.697	3485
921.806	3606
921.916	3530
922.025	3332
922.134	3355
922.244	3351
922.353	3420
922.462	3233
922.571	3237
922.68	3112
922.789	3104
922.898	3180
923.007	3097
923.116	3173
923.224	3146
923.333	3127
923.442	3077
923.55	3089
923.659	3123
923.767	3180
923.876	3112
923.984	3214
924.092	3119
924.201	3199
924.309	3195
924.417	3237
924.525	3135
924.633	3230
924.741	3991
924.849	3036
924.956	3283
925.064	3108
925.172	3028
925.279	3104
925.387	3199
925.494	3195
925.602	3329
925.709	3329
925.816	3165
925.924	3291
926.031	3359
926.138	3329
926.245	3382
926.352	3222
926.459	3424
926.566	3462
926.673	3306
926.779	3260
926.886	3233
926.993	3146
927.099	3135
927.206	3074
927.312	3116
927.419	3245
927.525	3188
927.631	3233
927.737	3112
927.843	3176
927.95	3020
928.056	3131
928.162	3154
928.267	3233
928.373	3781
928.479	3310
928.585	3036
928.69	3249
928.796	3249
928.901	3169
929.007	3036
929.112	3233
929.218	3195
929.323	3123
929.428	3192
929.533	3329
929.638	3142
929.743	3188
929.848	3287
929.953	3173
930.058	3108
930.163	2986
930.267	3013
930.372	3199
930.477	3036
930.581	3306
930.685	3173
930.79	3089
930.894	3142
930.998	3097
931.103	3226
931.207	2963
931.311	2956
931.415	2967
931.519	2788
931.623	2811
