Data from test_V78500241_434.txt Node
Date: Fri Mar 25 16:18:12 CST 2022
User: usil
Spectrometer: V785-0024
Trigger mode: 0
Integration Time (sec): 4.000000E-1
Scans to average: 1
Nonlinearity correction enabled: false
Boxcar width: 0
Storing dark spectrum: false
XAxis mode: Wavelengths
Number of Pixels in Spectrum: 1024
>>>>>Begin Spectral Data<<<<<
801.071	2918
801.214	2918
801.356	2868
801.499	2857
801.641	2868
801.783	2891
801.926	3051
802.068	2952
802.211	2963
802.353	3005
802.496	2963
802.638	3024
802.78	3032
802.923	3043
803.065	2994
803.208	2895
803.35	2876
803.492	2948
803.635	2906
803.777	2781
803.919	2830
804.061	3245
804.204	2902
804.346	2910
804.488	2864
804.63	3009
804.773	2883
804.915	2929
805.057	3081
805.199	2925
805.341	2990
805.483	3047
805.626	2994
805.768	2994
805.91	3066
806.052	3093
806.194	3058
806.336	3245
806.478	3039
806.62	2994
806.762	2960
806.904	3039
807.046	3173
807.188	2960
807.33	2971
807.472	3001
807.614	2929
807.756	3001
807.898	2937
808.04	2922
808.182	2994
808.324	2956
808.465	2891
808.607	2902
808.749	2815
808.891	2887
809.033	2994
809.174	3001
809.316	2918
809.458	2925
809.6	2796
809.741	2819
809.883	2815
810.025	2906
810.166	2868
810.308	2853
810.45	2857
810.591	2796
810.733	2807
810.875	2864
811.016	2796
811.158	2792
811.299	2815
811.441	2967
811.582	2925
811.724	2868
811.865	2883
812.007	2963
812.148	2899
812.29	2823
812.431	2933
812.573	2971
812.714	2967
812.855	3108
812.997	3093
813.138	3135
813.279	3020
813.421	3013
813.562	3020
813.703	2944
813.845	2937
813.986	2826
814.127	2758
814.268	2861
814.41	2819
814.551	2861
814.692	2902
814.833	2849
814.974	2937
815.115	2963
815.256	2880
815.397	2830
815.539	2876
815.68	2819
815.821	2830
815.962	2986
816.103	2929
816.244	2887
816.385	2910
816.526	3001
816.666	2937
816.807	2777
816.948	2876
817.089	2971
817.23	2895
817.371	2811
817.512	2834
817.653	2887
817.793	2842
817.934	2918
818.075	2998
818.216	3005
818.356	3036
818.497	2899
818.638	2804
818.778	2887
818.919	2838
819.06	2777
819.2	2914
819.341	2830
819.481	2838
819.622	2933
819.762	3123
819.903	3039
820.043	2937
820.184	2887
820.324	2929
820.465	3036
820.605	3051
820.746	3036
820.886	2971
821.026	3074
821.167	3180
821.307	3249
821.447	3302
821.588	3253
821.728	3260
821.868	3226
822.008	3112
822.149	3226
822.289	3241
822.429	3062
822.569	3123
822.709	3195
822.849	3047
822.99	3093
823.13	3169
823.27	3222
823.41	3150
823.55	3169
823.69	3157
823.83	3214
823.97	3127
824.11	3005
824.25	3009
824.389	3066
824.529	3157
824.669	3097
824.809	3218
824.949	3253
825.089	3268
825.228	3218
825.368	3043
825.508	2975
825.648	2986
825.787	3055
825.927	3058
826.067	3009
826.206	3020
826.346	3020
826.485	3104
826.625	3119
826.765	3283
826.904	3283
827.044	2990
827.183	2986
827.323	2868
827.462	2986
827.601	2933
827.741	2963
827.88	2975
828.02	2891
828.159	3009
828.298	3077
828.437	3146
828.577	3077
828.716	3283
828.855	3127
828.994	2933
829.134	2910
829.273	2910
829.412	2891
829.551	2876
829.69	2971
829.829	3036
829.968	3192
830.107	3047
830.246	3032
830.385	2918
830.524	2880
830.663	2830
830.802	2777
830.941	2686
831.08	2655
831.219	2773
831.357	2807
831.496	3001
831.635	2731
831.774	2659
831.913	2678
832.051	2587
832.19	2629
832.329	2686
832.467	2564
832.606	2511
832.744	2617
832.883	2587
833.022	2590
833.16	2705
833.299	2735
833.437	2750
833.576	2724
833.714	2731
833.852	2720
833.991	2800
834.129	2853
834.267	2891
834.406	2830
834.544	2918
834.682	2895
834.821	2891
834.959	3077
835.097	2902
835.235	3077
835.373	3017
835.511	3028
835.65	2975
835.788	2998
835.926	2804
836.064	2815
836.202	2868
836.34	3112
836.478	3180
836.615	3070
836.753	3150
836.891	3214
837.029	3195
837.167	3116
837.305	3055
837.443	3051
837.58	3017
837.718	3138
837.856	3089
837.993	3062
838.131	3154
838.269	3100
838.406	3131
838.544	3127
838.681	2960
838.819	2948
838.956	2826
839.094	2842
839.231	2933
839.369	3013
839.506	3378
839.643	3237
839.781	3032
839.918	2990
840.055	3085
840.193	3055
840.33	3093
840.467	3127
840.604	3165
840.742	3416
840.879	3093
841.016	3085
841.153	3157
841.29	3336
841.427	3325
841.564	3294
841.701	3336
841.838	3260
841.975	3173
842.112	3233
842.249	3131
842.385	3036
842.522	3279
842.659	3093
842.796	3085
842.933	3089
843.069	3097
843.206	3051
843.343	3173
843.479	3089
843.616	3161
843.752	2883
843.889	2861
844.025	3047
844.162	2910
844.298	3119
844.435	2979
844.571	2929
844.708	3123
844.844	3192
844.98	3260
845.117	3222
845.253	3077
845.389	3039
845.525	3108
845.661	3123
845.798	3005
845.934	3138
846.07	3081
846.206	3260
846.342	3344
846.478	3226
846.614	3112
846.75	3081
846.886	3032
847.022	3268
847.158	3154
847.294	3226
847.429	3283
847.565	3184
847.701	3481
847.837	3081
847.972	2982
848.108	3199
848.244	3157
848.379	3017
848.515	2948
848.65	2986
848.786	2982
848.921	3013
849.057	3104
849.192	3176
849.328	3074
849.463	3112
849.598	3062
849.734	3066
849.869	3036
850.004	2906
850.14	3001
850.275	2944
850.41	2834
850.545	2876
850.68	2960
850.815	3017
850.95	3013
851.085	3237
851.22	3150
851.355	3032
851.49	2998
851.625	3043
851.76	3020
851.895	2922
852.03	2918
852.165	3055
852.299	3142
852.434	3195
852.569	3165
852.703	3173
852.838	3230
852.973	3397
853.107	3336
853.242	3150
853.376	3085
853.511	2979
853.645	3039
853.78	3214
853.914	3169
854.048	3119
854.183	3077
854.317	3142
854.451	3294
854.585	3173
854.72	3112
854.854	3222
854.988	3081
855.122	3100
855.256	2971
855.39	3173
855.524	3245
855.658	3195
855.792	3165
855.926	3207
856.06	3245
856.194	3291
856.327	3161
856.461	3047
856.595	3085
856.729	3116
856.862	3226
856.996	3165
857.13	3207
857.263	3241
857.397	3287
857.53	3150
857.664	3214
857.797	3241
857.931	3291
858.064	3180
858.197	3249
858.331	3154
858.464	3127
858.597	3032
858.731	3116
858.864	3112
858.997	3112
859.13	3161
859.263	3207
859.396	3207
859.529	3104
859.662	3066
859.795	3081
859.928	3150
860.061	3260
860.194	3344
860.327	3146
860.46	3154
860.592	3253
860.725	3260
860.858	3294
860.99	3116
861.123	3062
861.256	3032
861.388	3131
861.521	3983
861.653	2986
861.786	2986
861.918	3005
862.05	3093
862.183	3142
862.315	3161
862.447	3214
862.58	3116
862.712	2941
862.844	2891
862.976	3058
863.108	3028
863.24	3405
863.372	2883
863.504	2952
863.636	2994
863.768	3020
863.9	3005
864.032	2895
864.164	2918
864.296	3036
864.428	3135
864.559	3108
864.691	3100
864.823	3074
864.954	3039
865.086	3058
865.217	2971
865.349	2975
865.48	2979
865.612	3017
865.743	3169
865.875	2986
866.006	2948
866.137	2986
866.269	2967
866.4	2967
866.531	2925
866.662	2895
866.793	2914
866.924	2910
867.055	2960
867.186	2956
867.317	2929
867.448	2880
867.579	2872
867.71	2830
867.841	2849
867.972	2929
868.103	2929
868.233	2883
868.364	2876
868.495	2925
868.625	3089
868.756	3188
868.886	2986
869.017	2990
869.147	3195
869.278	3161
869.408	3055
869.539	3009
869.669	3100
869.799	3066
869.929	3127
870.06	3108
870.19	3332
870.32	3294
870.45	3344
870.58	3412
870.71	3462
870.84	3450
870.97	3321
871.1	3256
871.23	3469
871.36	3488
871.489	3348
871.619	3374
871.749	3412
871.879	3454
872.008	3523
872.138	3359
872.267	3279
872.397	3138
872.526	3104
872.656	3017
872.785	3081
872.915	3245
873.044	3351
873.173	3268
873.303	3249
873.432	3237
873.561	3207
873.69	3142
873.819	3123
873.948	3180
874.077	3093
874.206	3032
874.335	3097
874.464	3184
874.593	3321
874.722	3298
874.851	3428
874.979	3344
875.108	3302
875.237	3218
875.365	3169
875.494	3173
875.623	3256
875.751	3097
875.88	3123
876.008	3218
876.136	3237
876.265	3348
876.393	3530
876.521	3431
876.65	3405
876.778	3359
876.906	3253
877.034	3203
877.162	3222
877.29	3173
877.418	3279
877.546	3245
877.674	3256
877.802	3241
877.93	3264
878.058	3169
878.185	3097
878.313	3218
878.441	3207
878.568	3108
878.696	3173
878.824	3245
878.951	3355
879.079	3481
879.206	3663
879.333	3466
879.461	3340
879.588	3370
879.715	3477
879.842	3587
879.97	3424
880.097	3195
880.224	3157
880.351	3249
880.478	3249
880.605	3226
880.732	3218
880.859	3534
880.986	3298
881.112	3363
881.239	3207
881.366	3131
881.493	3058
881.619	3074
881.746	3112
881.872	3108
881.999	3150
882.125	3195
882.252	3291
882.378	3336
882.505	3473
882.631	3313
882.757	3207
882.883	3249
883.01	3294
883.136	3218
883.262	3154
883.388	3146
883.514	3329
883.64	3378
883.766	3348
883.892	3203
884.018	3302
884.143	3469
884.269	3614
884.395	3268
884.52	3199
884.646	3256
884.772	3165
884.897	3146
885.023	3241
885.148	3370
885.274	3488
885.399	3378
885.524	3302
885.65	3279
885.775	3302
885.9	3344
886.025	3462
886.15	3439
886.275	3363
886.4	3298
886.525	3317
886.65	3306
886.775	3332
886.9	3549
887.025	3705
887.149	3458
887.274	3302
887.399	3188
887.523	3237
887.648	3226
887.773	3249
887.897	3370
888.021	3428
888.146	3340
888.27	3454
888.395	3576
888.519	3492
888.643	3488
888.767	3469
888.891	3317
889.015	3306
889.139	3325
889.263	3256
889.387	3409
889.511	3545
889.635	3500
889.759	3340
889.883	3332
890.006	3439
890.13	3515
890.254	3313
890.377	3416
890.501	3211
890.624	3230
890.748	3336
890.871	3241
890.995	3116
891.118	3089
891.241	3237
891.364	3283
891.488	3370
891.611	3199
891.734	3283
891.857	3287
891.98	3268
892.103	3336
892.226	3321
892.349	3253
892.471	3214
892.594	3275
892.717	3348
892.839	3313
892.962	3287
893.085	3370
893.207	3374
893.33	3184
893.452	3260
893.575	3348
893.697	3310
893.819	3511
893.941	3507
894.064	3477
894.186	3306
894.308	3325
894.43	3424
894.552	3534
894.674	3553
894.796	3310
894.918	3370
895.04	3336
895.161	3492
895.283	3424
895.405	3348
895.526	3416
895.648	3500
895.769	3443
895.891	3481
896.012	3504
896.134	3526
896.255	3439
896.376	3412
896.498	3397
896.619	3469
896.74	3397
896.861	3439
896.982	3667
897.103	3892
897.224	3584
897.345	3511
897.466	3492
897.587	3545
897.708	3637
897.828	3545
897.949	3450
898.07	3348
898.19	3450
898.311	3648
898.431	3500
898.552	3538
898.672	3606
898.792	3637
898.913	3587
899.033	3454
899.153	3340
899.273	3203
899.393	3294
899.513	3332
899.633	3348
899.753	3401
899.873	3348
899.993	3443
900.113	3355
900.232	3409
900.352	3435
900.472	3291
900.591	3291
900.711	3351
900.83	3294
900.95	3447
901.069	3530
901.189	3409
901.308	3241
901.427	3154
901.546	3245
901.665	3332
901.784	3351
901.904	3233
902.023	3195
902.141	3058
902.26	2990
902.379	3184
902.498	3100
902.617	3116
902.735	3253
902.854	3272
902.973	3226
903.091	3077
903.21	3058
903.328	3192
903.446	3146
903.565	3154
903.683	3195
903.801	3192
903.919	3264
904.038	3298
904.156	3218
904.274	3317
904.392	3275
904.51	3325
904.627	3389
904.745	3481
904.863	3530
904.981	3317
905.098	3207
905.216	3256
905.334	3329
905.451	3336
905.569	3351
905.686	3462
905.803	3466
905.921	3310
906.038	3469
906.155	3393
906.272	3287
906.389	3340
906.506	3253
906.623	3317
906.74	3317
906.857	3199
906.974	3298
907.091	3485
907.208	3587
907.324	3538
907.441	3389
907.557	3226
907.674	3260
907.79	3272
907.907	3317
908.023	3428
908.139	3389
908.256	3351
908.372	3409
908.488	3367
908.604	3291
908.72	3287
908.836	3275
908.952	3302
909.068	3351
909.184	3496
909.3	3450
909.415	3507
909.531	3538
909.647	3291
909.762	3306
909.878	3321
909.993	3359
910.108	3329
910.224	3367
910.339	3447
910.454	3348
910.57	3313
910.685	3249
910.8	3580
910.915	3618
911.03	3458
911.145	3302
911.259	3283
911.374	3348
911.489	3256
911.604	3256
911.718	3131
911.833	3188
911.947	3081
912.062	3020
912.176	3230
912.291	3226
912.405	3203
912.519	3481
912.633	3504
912.748	3348
912.862	3291
912.976	3169
913.09	3066
913.204	3199
913.318	3226
913.431	3359
913.545	3348
913.659	3412
913.772	3374
913.886	3268
914	3169
914.113	3355
914.226	3409
914.34	3367
914.453	3268
914.566	3450
914.68	3302
914.793	3348
914.906	3154
915.019	3161
915.132	3104
915.245	3222
915.358	3226
915.47	3241
915.583	3279
915.696	3344
915.809	3424
915.921	3424
916.034	3310
916.146	3294
916.259	3256
916.371	3420
916.483	3397
916.595	3321
916.708	3340
916.82	3359
916.932	3378
917.044	3374
917.156	3367
917.268	3298
917.38	3298
917.491	3291
917.603	3386
917.715	3450
917.826	3462
917.938	3420
918.049	3302
918.161	3439
918.272	3587
918.384	3599
918.495	3504
918.606	3351
918.717	3329
918.828	3367
918.939	3424
919.05	3264
919.161	3401
919.272	3214
919.383	3287
919.494	3496
919.604	3705
919.715	3538
919.826	3458
919.936	3435
920.047	3572
920.157	3591
920.267	3808
920.378	3595
920.488	3545
920.598	3823
920.708	3998
920.818	3835
920.928	3861
921.038	4032
921.148	4029
921.258	3736
921.368	3629
921.477	3618
921.587	3568
921.697	3469
921.806	3656
921.916	3557
922.025	3409
922.134	3355
922.244	3325
922.353	3450
922.462	3332
922.571	3298
922.68	3146
922.789	3131
922.898	3112
923.007	3131
923.116	3233
923.224	3203
923.333	3222
923.442	3123
923.55	3131
923.659	3176
923.767	3237
923.876	3146
923.984	3275
924.092	3169
924.201	3233
924.309	3226
924.417	3233
924.525	3226
924.633	3264
924.741	4204
924.849	3097
924.956	3272
925.064	3138
925.172	3062
925.279	3089
925.387	3237
925.494	3241
925.602	3386
925.709	3329
925.816	3176
925.924	3329
926.031	3397
926.138	3332
926.245	3370
926.352	3272
926.459	3416
926.566	3526
926.673	3329
926.779	3283
926.886	3298
926.993	3173
927.099	3135
927.206	3119
927.312	3161
927.419	3264
927.525	3211
927.631	3310
927.737	3157
927.843	3119
927.95	3062
928.056	3138
928.162	3211
928.267	3279
928.373	3892
928.479	3279
928.585	3085
928.69	3218
928.796	3294
928.901	3207
929.007	3055
929.112	3222
929.218	3230
929.323	3157
929.428	3203
929.533	3348
929.638	3150
929.743	3184
929.848	3291
929.953	3233
930.058	3112
930.163	3017
930.267	3024
930.372	3188
930.477	2998
930.581	3340
930.685	3180
930.79	3043
930.894	3142
930.998	3112
931.103	3332
931.207	2982
931.311	2941
931.415	2937
931.519	2788
931.623	2807
