Data from test_V78500241_1031.txt Node
Date: Fri Mar 25 16:22:20 CST 2022
User: usil
Spectrometer: V785-0024
Trigger mode: 0
Integration Time (sec): 4.000000E-1
Scans to average: 1
Nonlinearity correction enabled: false
Boxcar width: 0
Storing dark spectrum: false
XAxis mode: Wavelengths
Number of Pixels in Spectrum: 1024
>>>>>Begin Spectral Data<<<<<
801.071	2929
801.214	2994
801.356	2868
801.499	2918
801.641	2887
801.783	2960
801.926	3055
802.068	2982
802.211	3020
802.353	3036
802.496	2998
802.638	3009
802.78	3051
802.923	3066
803.065	3013
803.208	2895
803.35	2971
803.492	2941
803.635	2933
803.777	2773
803.919	2899
804.061	3184
804.204	2952
804.346	2902
804.488	2834
804.63	2975
804.773	2872
804.915	2933
805.057	3066
805.199	2956
805.341	2990
805.483	3043
805.626	3028
805.768	2963
805.91	3108
806.052	3180
806.194	3032
806.336	3222
806.478	3013
806.62	2963
806.762	2979
806.904	3066
807.046	3138
807.188	2979
807.33	2902
807.472	3013
807.614	2887
807.756	2975
807.898	2922
808.04	2960
808.182	2971
808.324	2963
808.465	2910
808.607	2842
808.749	2777
808.891	2872
809.033	2986
809.174	2994
809.316	2891
809.458	2880
809.6	2785
809.741	2750
809.883	2792
810.025	2823
810.166	2864
810.308	2830
810.45	2883
810.591	2762
810.733	2781
810.875	2834
811.016	2762
811.158	2766
811.299	2834
811.441	2906
811.582	2910
811.724	2845
811.865	2826
812.007	2914
812.148	2899
812.29	2838
812.431	2868
812.573	2914
812.714	2956
812.855	3055
812.997	3020
813.138	3112
813.279	2979
813.421	2986
813.562	2918
813.703	2910
813.845	2895
813.986	2758
814.127	2727
814.268	2823
814.41	2815
814.551	2792
814.692	2883
814.833	2788
814.974	2872
815.115	2956
815.256	2830
815.397	2792
815.539	2857
815.68	2773
815.821	2796
815.962	2922
816.103	2906
816.244	2853
816.385	2849
816.526	2918
816.666	2922
816.807	2727
816.948	2872
817.089	2899
817.23	2845
817.371	2762
817.512	2788
817.653	2842
817.793	2876
817.934	2872
818.075	2975
818.216	2982
818.356	3062
818.497	2918
818.638	2796
818.778	2804
818.919	2766
819.06	2743
819.2	2845
819.341	2781
819.481	2800
819.622	2929
819.762	3123
819.903	3043
820.043	2918
820.184	2876
820.324	2895
820.465	3047
820.605	3017
820.746	2994
820.886	2922
821.026	3097
821.167	3154
821.307	3275
821.447	3298
821.588	3260
821.728	3214
821.868	3207
822.008	3108
822.149	3199
822.289	3260
822.429	3089
822.569	3093
822.709	3180
822.849	3066
822.99	3058
823.13	3233
823.27	3233
823.41	3108
823.55	3188
823.69	3184
823.83	3226
823.97	3131
824.11	3047
824.25	3017
824.389	3100
824.529	3127
824.669	3104
824.809	3226
824.949	3294
825.089	3230
825.228	3192
825.368	3020
825.508	3013
825.648	2994
825.787	3043
825.927	3055
826.067	2956
826.206	3013
826.346	3104
826.485	3081
826.625	3142
826.765	3325
826.904	3279
827.044	3013
827.183	2979
827.323	2899
827.462	3051
827.601	2986
827.741	2979
827.88	3028
828.02	2918
828.159	3028
828.298	3077
828.437	3150
828.577	3074
828.716	3298
828.855	3104
828.994	2982
829.134	2906
829.273	2944
829.412	2975
829.551	2872
829.69	2937
829.829	3024
829.968	3150
830.107	3070
830.246	3055
830.385	2975
830.524	2933
830.663	2857
830.802	2788
830.941	2689
831.08	2689
831.219	2830
831.357	2800
831.496	2982
831.635	2735
831.774	2686
831.913	2712
832.051	2610
832.19	2602
832.329	2746
832.467	2549
832.606	2571
832.744	2594
832.883	2590
833.022	2621
833.16	2670
833.299	2724
833.437	2731
833.576	2705
833.714	2758
833.852	2781
833.991	2823
834.129	2895
834.267	2880
834.406	2796
834.544	2902
834.682	2929
834.821	2902
834.959	3100
835.097	2925
835.235	3104
835.373	3017
835.511	3039
835.65	2960
835.788	3024
835.926	2849
836.064	2853
836.202	2895
836.34	3108
836.478	3161
836.615	3055
836.753	3157
836.891	3214
837.029	3195
837.167	3142
837.305	3104
837.443	3108
837.58	2982
837.718	3173
837.856	3081
837.993	3058
838.131	3192
838.269	3116
838.406	3104
838.544	3097
838.681	2975
838.819	2929
838.956	2834
839.094	2902
839.231	2952
839.369	3081
839.506	3374
839.643	3249
839.781	3051
839.918	2998
840.055	3074
840.193	3085
840.33	3093
840.467	3142
840.604	3199
840.742	3439
840.879	3081
841.016	3070
841.153	3157
841.29	3329
841.427	3344
841.564	3325
841.701	3336
841.838	3233
841.975	3195
842.112	3214
842.249	3108
842.385	3070
842.522	3317
842.659	3146
842.796	3135
842.933	3146
843.069	3070
843.206	3055
843.343	3233
843.479	3142
843.616	3150
843.752	2937
843.889	2880
844.025	3089
844.162	2895
844.298	3116
844.435	2979
844.571	2948
844.708	3097
844.844	3264
844.98	3241
845.117	3218
845.253	3070
845.389	3051
845.525	3123
845.661	3116
845.798	3055
845.934	3184
846.07	3089
846.206	3230
846.342	3317
846.478	3268
846.614	3135
846.75	3047
846.886	3039
847.022	3287
847.158	3112
847.294	3214
847.429	3268
847.565	3211
847.701	3481
847.837	3081
847.972	3020
848.108	3176
848.244	3154
848.379	2994
848.515	2941
848.65	2933
848.786	3013
848.921	3024
849.057	3119
849.192	3146
849.328	3112
849.463	3157
849.598	3154
849.734	3024
849.869	3001
850.004	2941
850.14	2982
850.275	2952
850.41	2906
850.545	2918
850.68	2963
850.815	2963
850.95	3005
851.085	3199
851.22	3154
851.355	3047
851.49	3032
851.625	3070
851.76	3043
851.895	2941
852.03	2948
852.165	3055
852.299	3131
852.434	3207
852.569	3180
852.703	3188
852.838	3291
852.973	3378
853.107	3344
853.242	3142
853.376	3131
853.511	3020
853.645	3058
853.78	3279
853.914	3131
854.048	3135
854.183	3100
854.317	3154
854.451	3275
854.585	3180
854.72	3116
854.854	3226
854.988	3093
855.122	3116
855.256	2982
855.39	3154
855.524	3253
855.658	3214
855.792	3165
855.926	3214
856.06	3241
856.194	3306
856.327	3211
856.461	3062
856.595	3047
856.729	3108
856.862	3268
856.996	3165
857.13	3218
857.263	3272
857.397	3260
857.53	3142
857.664	3230
857.797	3241
857.931	3291
858.064	3184
858.197	3260
858.331	3184
858.464	3077
858.597	3013
858.731	3104
858.864	3119
858.997	3108
859.13	3146
859.263	3173
859.396	3253
859.529	3123
859.662	3074
859.795	3066
859.928	3154
860.061	3272
860.194	3291
860.327	3146
860.46	3081
860.592	3218
860.725	3245
860.858	3287
860.99	3116
861.123	3081
861.256	3070
861.388	3180
861.521	3846
861.653	3047
861.786	3020
861.918	3032
862.05	3066
862.183	3116
862.315	3180
862.447	3203
862.58	3104
862.712	2998
862.844	2883
862.976	3032
863.108	3005
863.24	3431
863.372	2887
863.504	2967
863.636	2982
863.768	3085
863.9	2971
864.032	2956
864.164	2960
864.296	3077
864.428	3077
864.559	3108
864.691	3097
864.823	3097
864.954	3058
865.086	3062
865.217	2963
865.349	2956
865.48	3009
865.612	3081
865.743	3157
865.875	2990
866.006	2967
866.137	2948
866.269	2979
866.4	2990
866.531	2910
866.662	2902
866.793	2891
866.924	2948
867.055	3017
867.186	2941
867.317	2910
867.448	2872
867.579	2857
867.71	2834
867.841	2807
867.972	2914
868.103	2922
868.233	2876
868.364	2910
868.495	2914
868.625	3112
868.756	3184
868.886	3032
869.017	3013
869.147	3188
869.278	3169
869.408	3036
869.539	3074
869.669	3135
869.799	3077
869.929	3146
870.06	3138
870.19	3348
870.32	3310
870.45	3302
870.58	3409
870.71	3450
870.84	3485
870.97	3272
871.1	3241
871.23	3511
871.36	3469
871.489	3359
871.619	3473
871.749	3431
871.879	3447
872.008	3496
872.138	3344
872.267	3306
872.397	3176
872.526	3116
872.656	3036
872.785	3077
872.915	3249
873.044	3374
873.173	3275
873.303	3268
873.432	3241
873.561	3256
873.69	3199
873.819	3154
873.948	3176
874.077	3123
874.206	3081
874.335	3081
874.464	3237
874.593	3363
874.722	3237
874.851	3409
874.979	3367
875.108	3348
875.237	3214
875.365	3211
875.494	3150
875.623	3249
875.751	3062
875.88	3127
876.008	3180
876.136	3203
876.265	3374
876.393	3500
876.521	3458
876.65	3431
876.778	3340
876.906	3268
877.034	3253
877.162	3226
877.29	3195
877.418	3291
877.546	3245
877.674	3245
877.802	3233
877.93	3272
878.058	3207
878.185	3131
878.313	3173
878.441	3165
878.568	3108
878.696	3146
878.824	3294
878.951	3294
879.079	3481
879.206	3618
879.333	3485
879.461	3363
879.588	3348
879.715	3485
879.842	3599
879.97	3367
880.097	3146
880.224	3123
880.351	3195
880.478	3241
880.605	3211
880.732	3165
880.859	3530
880.986	3268
881.112	3302
881.239	3203
881.366	3138
881.493	3036
881.619	3047
881.746	3077
881.872	3097
881.999	3123
882.125	3146
882.252	3291
882.378	3294
882.505	3431
882.631	3287
882.757	3173
882.883	3192
883.01	3241
883.136	3180
883.262	3097
883.388	3127
883.514	3310
883.64	3374
883.766	3310
883.892	3188
884.018	3253
884.143	3420
884.269	3523
884.395	3222
884.52	3184
884.646	3199
884.772	3150
884.897	3127
885.023	3211
885.148	3363
885.274	3409
885.399	3367
885.524	3279
885.65	3264
885.775	3367
885.9	3321
886.025	3492
886.15	3435
886.275	3310
886.4	3199
886.525	3340
886.65	3249
886.775	3302
886.9	3519
887.025	3667
887.149	3409
887.274	3302
887.399	3184
887.523	3233
887.648	3184
887.773	3230
887.897	3359
888.021	3409
888.146	3310
888.27	3481
888.395	3523
888.519	3458
888.643	3462
888.767	3450
888.891	3302
889.015	3275
889.139	3310
889.263	3249
889.387	3416
889.511	3500
889.635	3450
889.759	3313
889.883	3355
890.006	3416
890.13	3496
890.254	3298
890.377	3382
890.501	3233
890.624	3199
890.748	3298
890.871	3195
890.995	3097
891.118	3077
891.241	3218
891.364	3233
891.488	3351
891.611	3169
891.734	3249
891.857	3310
891.98	3249
892.103	3351
892.226	3272
892.349	3218
892.471	3108
892.594	3207
892.717	3294
892.839	3275
892.962	3237
893.085	3370
893.207	3302
893.33	3176
893.452	3207
893.575	3310
893.697	3260
893.819	3519
893.941	3504
894.064	3420
894.186	3268
894.308	3302
894.43	3443
894.552	3534
894.674	3496
894.796	3279
894.918	3321
895.04	3310
895.161	3469
895.283	3416
895.405	3294
895.526	3386
895.648	3431
895.769	3393
895.891	3428
896.012	3466
896.134	3504
896.255	3466
896.376	3386
896.498	3389
896.619	3443
896.74	3382
896.861	3389
896.982	3686
897.103	3827
897.224	3595
897.345	3557
897.466	3439
897.587	3496
897.708	3679
897.828	3553
897.949	3428
898.07	3332
898.19	3393
898.311	3641
898.431	3466
898.552	3496
898.672	3614
898.792	3606
898.913	3568
899.033	3397
899.153	3302
899.273	3241
899.393	3291
899.513	3336
899.633	3355
899.753	3340
899.873	3329
899.993	3412
900.113	3317
900.232	3424
900.352	3363
900.472	3233
900.591	3211
900.711	3287
900.83	3237
900.95	3428
901.069	3507
901.189	3336
901.308	3157
901.427	3176
901.546	3184
901.665	3291
901.784	3340
901.904	3195
902.023	3173
902.141	3036
902.26	2956
902.379	3142
902.498	3070
902.617	3089
902.735	3230
902.854	3233
902.973	3192
903.091	3074
903.21	3055
903.328	3138
903.446	3108
903.565	3081
903.683	3207
903.801	3138
903.919	3203
904.038	3241
904.156	3161
904.274	3287
904.392	3241
904.51	3298
904.627	3329
904.745	3447
904.863	3515
904.981	3241
905.098	3157
905.216	3237
905.334	3275
905.451	3336
905.569	3298
905.686	3431
905.803	3443
905.921	3313
906.038	3443
906.155	3336
906.272	3283
906.389	3363
906.506	3233
906.623	3275
906.74	3294
906.857	3184
906.974	3230
907.091	3424
907.208	3534
907.324	3481
907.441	3332
907.557	3237
907.674	3199
907.79	3218
907.907	3279
908.023	3397
908.139	3382
908.256	3336
908.372	3397
908.488	3382
908.604	3256
908.72	3199
908.836	3287
908.952	3279
909.068	3348
909.184	3458
909.3	3348
909.415	3507
909.531	3507
909.647	3287
909.762	3291
909.878	3264
909.993	3348
910.108	3340
910.224	3321
910.339	3412
910.454	3351
910.57	3325
910.685	3249
910.8	3580
910.915	3515
911.03	3416
911.145	3294
911.259	3306
911.374	3344
911.489	3241
911.604	3230
911.718	3142
911.833	3169
911.947	3013
912.062	2990
912.176	3131
912.291	3211
912.405	3237
912.519	3443
912.633	3481
912.748	3329
912.862	3306
912.976	3176
913.09	3051
913.204	3116
913.318	3245
913.431	3367
913.545	3321
913.659	3424
913.772	3325
913.886	3230
914	3218
914.113	3382
914.226	3420
914.34	3351
914.453	3237
914.566	3454
914.68	3302
914.793	3340
914.906	3157
915.019	3097
915.132	3093
915.245	3161
915.358	3192
915.47	3214
915.583	3241
915.696	3302
915.809	3405
915.921	3397
916.034	3237
916.146	3272
916.259	3249
916.371	3386
916.483	3351
916.595	3317
916.708	3370
916.82	3313
916.932	3355
917.044	3370
917.156	3367
917.268	3264
917.38	3321
917.491	3294
917.603	3348
917.715	3454
917.826	3462
917.938	3378
918.049	3287
918.161	3409
918.272	3568
918.384	3530
918.495	3473
918.606	3325
918.717	3268
918.828	3382
918.939	3409
919.05	3298
919.161	3401
919.272	3180
919.383	3245
919.494	3473
919.604	3682
919.715	3473
919.826	3393
919.936	3496
920.047	3587
920.157	3530
920.267	3770
920.378	3618
920.488	3526
920.598	3736
920.708	3994
920.818	3823
920.928	3800
921.038	4036
921.148	4010
921.258	3724
921.368	3622
921.477	3561
921.587	3523
921.697	3466
921.806	3622
921.916	3458
922.025	3363
922.134	3321
922.244	3321
922.353	3431
922.462	3268
922.571	3222
922.68	3131
922.789	3066
922.898	3131
923.007	3116
923.116	3188
923.224	3150
923.333	3214
923.442	3089
923.55	3097
923.659	3127
923.767	3230
923.876	3116
923.984	3264
924.092	3119
924.201	3142
924.309	3214
924.417	3283
924.525	3192
924.633	3272
924.741	4181
924.849	3058
924.956	3279
925.064	3097
925.172	3024
925.279	3104
925.387	3184
925.494	3207
925.602	3344
925.709	3325
925.816	3207
925.924	3310
926.031	3370
926.138	3310
926.245	3344
926.352	3249
926.459	3405
926.566	3481
926.673	3336
926.779	3264
926.886	3294
926.993	3127
927.099	3119
927.206	3138
927.312	3127
927.419	3230
927.525	3199
927.631	3298
927.737	3146
927.843	3157
927.95	3058
928.056	3154
928.162	3157
928.267	3275
928.373	3865
928.479	3298
928.585	3020
928.69	3173
928.796	3245
928.901	3157
929.007	3066
929.112	3218
929.218	3176
929.323	3142
929.428	3154
929.533	3325
929.638	3142
929.743	3150
929.848	3264
929.953	3233
930.058	3146
930.163	2998
930.267	3051
930.372	3211
930.477	3055
930.581	3302
930.685	3161
930.79	3070
930.894	3173
930.998	3104
931.103	3260
931.207	2979
931.311	2971
931.415	2883
931.519	2811
931.623	2838
