Data from test_V78500241_1575.txt Node
Date: Fri Mar 25 16:26:06 CST 2022
User: usil
Spectrometer: V785-0024
Trigger mode: 0
Integration Time (sec): 4.000000E-1
Scans to average: 1
Nonlinearity correction enabled: false
Boxcar width: 0
Storing dark spectrum: false
XAxis mode: Wavelengths
Number of Pixels in Spectrum: 1024
>>>>>Begin Spectral Data<<<<<
801.071	2883
801.214	2948
801.356	2891
801.499	2868
801.641	2868
801.783	2937
801.926	3020
802.068	2960
802.211	2994
802.353	2986
802.496	2960
802.638	2998
802.78	3013
802.923	3081
803.065	3028
803.208	2895
803.35	2925
803.492	2960
803.635	2941
803.777	2746
803.919	2849
804.061	3230
804.204	2971
804.346	2895
804.488	2845
804.63	2986
804.773	2872
804.915	2944
805.057	3066
805.199	2933
805.341	2956
805.483	3024
805.626	3009
805.768	2971
805.91	3070
806.052	3135
806.194	3036
806.336	3226
806.478	2994
806.62	2967
806.762	2990
806.904	3100
807.046	3165
807.188	2986
807.33	2941
807.472	2998
807.614	2914
807.756	3001
807.898	2918
808.04	2883
808.182	2971
808.324	2956
808.465	2925
808.607	2853
808.749	2868
808.891	2876
809.033	2944
809.174	2948
809.316	2899
809.458	2918
809.6	2777
809.741	2758
809.883	2796
810.025	2868
810.166	2864
810.308	2826
810.45	2872
810.591	2769
810.733	2781
810.875	2830
811.016	2800
811.158	2777
811.299	2781
811.441	2914
811.582	2899
811.724	2823
811.865	2796
812.007	2910
812.148	2864
812.29	2849
812.431	2883
812.573	2899
812.714	2982
812.855	3047
812.997	3039
813.138	3100
813.279	3020
813.421	2998
813.562	2941
813.703	2853
813.845	2925
813.986	2777
814.127	2708
814.268	2819
814.41	2861
814.551	2792
814.692	2845
814.833	2788
814.974	2899
815.115	2933
815.256	2864
815.397	2823
815.539	2849
815.68	2766
815.821	2796
815.962	2929
816.103	2925
816.244	2883
816.385	2872
816.526	2994
816.666	2914
816.807	2762
816.948	2880
817.089	2929
817.23	2834
817.371	2758
817.512	2800
817.653	2823
817.793	2823
817.934	2880
818.075	2975
818.216	2956
818.356	3024
818.497	2887
818.638	2766
818.778	2773
818.919	2792
819.06	2769
819.2	2895
819.341	2788
819.481	2819
819.622	2941
819.762	3112
819.903	3036
820.043	2937
820.184	2872
820.324	2864
820.465	2998
820.605	3036
820.746	2994
820.886	2941
821.026	3089
821.167	3142
821.307	3253
821.447	3291
821.588	3207
821.728	3154
821.868	3211
822.008	3070
822.149	3173
822.289	3218
822.429	3051
822.569	3055
822.709	3157
822.849	3024
822.99	3081
823.13	3123
823.27	3233
823.41	3104
823.55	3169
823.69	3146
823.83	3192
823.97	3104
824.11	2986
824.25	3013
824.389	3039
824.529	3100
824.669	3085
824.809	3203
824.949	3245
825.089	3207
825.228	3173
825.368	3013
825.508	2941
825.648	2948
825.787	3017
825.927	3009
826.067	2963
826.206	2929
826.346	3062
826.485	3081
826.625	3104
826.765	3260
826.904	3195
827.044	3020
827.183	2906
827.323	2887
827.462	2982
827.601	2891
827.741	2929
827.88	2979
828.02	2883
828.159	2952
828.298	3036
828.437	3119
828.577	3028
828.716	3214
828.855	3051
828.994	2880
829.134	2861
829.273	2918
829.412	2887
829.551	2864
829.69	2918
829.829	2982
829.968	3119
830.107	3013
830.246	3001
830.385	2880
830.524	2864
830.663	2834
830.802	2716
830.941	2648
831.08	2659
831.219	2746
831.357	2762
831.496	2975
831.635	2735
831.774	2670
831.913	2674
832.051	2518
832.19	2560
832.329	2697
832.467	2541
832.606	2484
832.744	2579
832.883	2606
833.022	2575
833.16	2678
833.299	2655
833.437	2682
833.576	2663
833.714	2716
833.852	2716
833.991	2758
834.129	2819
834.267	2842
834.406	2788
834.544	2830
834.682	2891
834.821	2895
834.959	3062
835.097	2883
835.235	3058
835.373	3032
835.511	3039
835.65	2956
835.788	2963
835.926	2823
836.064	2826
836.202	2796
836.34	3123
836.478	3165
836.615	3062
836.753	3116
836.891	3199
837.029	3157
837.167	3108
837.305	3097
837.443	3024
837.58	2948
837.718	3135
837.856	3039
837.993	3032
838.131	3119
838.269	3135
838.406	3066
838.544	3077
838.681	2929
838.819	2933
838.956	2788
839.094	2861
839.231	2902
839.369	3005
839.506	3409
839.643	3188
839.781	2994
839.918	2979
840.055	3047
840.193	3043
840.33	3074
840.467	3081
840.604	3154
840.742	3386
840.879	3089
841.016	3032
841.153	3138
841.29	3374
841.427	3332
841.564	3272
841.701	3283
841.838	3253
841.975	3176
842.112	3222
842.249	3089
842.385	3074
842.522	3268
842.659	3070
842.796	3062
842.933	3081
843.069	3013
843.206	3020
843.343	3161
843.479	3104
843.616	3176
843.752	2891
843.889	2864
844.025	3066
844.162	2910
844.298	3043
844.435	2960
844.571	2918
844.708	3062
844.844	3184
844.98	3226
845.117	3214
845.253	3028
845.389	3051
845.525	3108
845.661	3131
845.798	3001
845.934	3127
846.07	3077
846.206	3222
846.342	3317
846.478	3249
846.614	3081
846.75	3081
846.886	3039
847.022	3249
847.158	3173
847.294	3203
847.429	3226
847.565	3211
847.701	3485
847.837	3032
847.972	3051
848.108	3104
848.244	3165
848.379	3013
848.515	2910
848.65	2933
848.786	2956
848.921	2990
849.057	3100
849.192	3119
849.328	3066
849.463	3116
849.598	3039
849.734	3036
849.869	2952
850.004	2922
850.14	2933
850.275	2914
850.41	2826
850.545	2864
850.68	2948
850.815	2986
850.95	2979
851.085	3192
851.22	3108
851.355	3032
851.49	2967
851.625	2998
851.76	2971
851.895	2963
852.03	2910
852.165	3013
852.299	3093
852.434	3146
852.569	3161
852.703	3123
852.838	3226
852.973	3298
853.107	3302
853.242	3138
853.376	3043
853.511	2979
853.645	3032
853.78	3203
853.914	3093
854.048	3112
854.183	3089
854.317	3127
854.451	3298
854.585	3093
854.72	3108
854.854	3173
854.988	3013
855.122	3077
855.256	2979
855.39	3104
855.524	3241
855.658	3176
855.792	3157
855.926	3169
856.06	3233
856.194	3222
856.327	3112
856.461	3058
856.595	3097
856.729	3070
856.862	3195
856.996	3154
857.13	3207
857.263	3207
857.397	3298
857.53	3093
857.664	3203
857.797	3237
857.931	3241
858.064	3169
858.197	3218
858.331	3112
858.464	3085
858.597	2994
858.731	3070
858.864	3165
858.997	3066
859.13	3123
859.263	3161
859.396	3157
859.529	3093
859.662	3058
859.795	2998
859.928	3116
860.061	3245
860.194	3237
860.327	3165
860.46	3066
860.592	3184
860.725	3249
860.858	3272
860.99	3131
861.123	3036
861.256	3055
861.388	3173
861.521	3793
861.653	2967
861.786	2941
861.918	3005
862.05	3066
862.183	3112
862.315	3142
862.447	3188
862.58	3066
862.712	2937
862.844	2876
862.976	3005
863.108	2982
863.24	3306
863.372	2895
863.504	2990
863.636	2952
863.768	3058
863.9	2963
864.032	2872
864.164	2941
864.296	2990
864.428	3058
864.559	3051
864.691	3085
864.823	3085
864.954	3047
865.086	3024
865.217	2998
865.349	2952
865.48	2933
865.612	3017
865.743	3142
865.875	2975
866.006	2937
866.137	2979
866.269	2937
866.4	2918
866.531	2910
866.662	2891
866.793	2868
866.924	2880
867.055	2960
867.186	2906
867.317	2857
867.448	2804
867.579	2861
867.71	2830
867.841	2811
867.972	2902
868.103	2891
868.233	2845
868.364	2880
868.495	2842
868.625	3070
868.756	3123
868.886	2967
869.017	3013
869.147	3169
869.278	3131
869.408	3028
869.539	3020
869.669	3104
869.799	3020
869.929	3112
870.06	3112
870.19	3313
870.32	3275
870.45	3268
870.58	3348
870.71	3454
870.84	3477
870.97	3306
871.1	3222
871.23	3473
871.36	3431
871.489	3374
871.619	3401
871.749	3424
871.879	3447
872.008	3481
872.138	3382
872.267	3249
872.397	3135
872.526	3070
872.656	3028
872.785	3131
872.915	3241
873.044	3241
873.173	3226
873.303	3249
873.432	3245
873.561	3275
873.69	3165
873.819	3112
873.948	3173
874.077	3074
874.206	3047
874.335	3108
874.464	3199
874.593	3351
874.722	3233
874.851	3393
874.979	3340
875.108	3317
875.237	3188
875.365	3173
875.494	3180
875.623	3272
875.751	3100
875.88	3100
876.008	3184
876.136	3176
876.265	3359
876.393	3488
876.521	3409
876.65	3416
876.778	3336
876.906	3214
877.034	3188
877.162	3192
877.29	3180
877.418	3256
877.546	3253
877.674	3249
877.802	3222
877.93	3233
878.058	3176
878.185	3150
878.313	3207
878.441	3176
878.568	3066
878.696	3142
878.824	3272
878.951	3325
879.079	3439
879.206	3637
879.333	3435
879.461	3302
879.588	3374
879.715	3500
879.842	3568
879.97	3409
880.097	3142
880.224	3119
880.351	3176
880.478	3207
880.605	3173
880.732	3154
880.859	3466
880.986	3283
881.112	3370
881.239	3138
881.366	3108
881.493	3074
881.619	3001
881.746	3062
881.872	3104
881.999	3100
882.125	3135
882.252	3302
882.378	3321
882.505	3401
882.631	3260
882.757	3180
882.883	3222
883.01	3260
883.136	3112
883.262	3100
883.388	3100
883.514	3283
883.64	3370
883.766	3294
883.892	3169
884.018	3203
884.143	3363
884.269	3561
884.395	3207
884.52	3127
884.646	3180
884.772	3123
884.897	3116
885.023	3195
885.148	3348
885.274	3416
885.399	3340
885.524	3283
885.65	3256
885.775	3336
885.9	3237
886.025	3389
886.15	3351
886.275	3279
886.4	3264
886.525	3306
886.65	3260
886.775	3287
886.9	3496
887.025	3663
887.149	3428
887.274	3253
887.399	3195
887.523	3211
887.648	3211
887.773	3199
887.897	3393
888.021	3389
888.146	3287
888.27	3481
888.395	3553
888.519	3435
888.643	3428
888.767	3469
888.891	3329
889.015	3249
889.139	3302
889.263	3268
889.387	3386
889.511	3523
889.635	3428
889.759	3260
889.883	3298
890.006	3420
890.13	3488
890.254	3272
890.377	3332
890.501	3214
890.624	3199
890.748	3287
890.871	3184
890.995	3104
891.118	3066
891.241	3199
891.364	3218
891.488	3298
891.611	3184
891.734	3218
891.857	3291
891.98	3214
892.103	3348
892.226	3275
892.349	3173
892.471	3116
892.594	3237
892.717	3287
892.839	3218
892.962	3291
893.085	3359
893.207	3279
893.33	3150
893.452	3184
893.575	3298
893.697	3233
893.819	3435
893.941	3466
894.064	3454
894.186	3253
894.308	3245
894.43	3420
894.552	3553
894.674	3450
894.796	3253
894.918	3321
895.04	3313
895.161	3428
895.283	3367
895.405	3310
895.526	3382
895.648	3424
895.769	3428
895.891	3447
896.012	3504
896.134	3504
896.255	3401
896.376	3374
896.498	3344
896.619	3424
896.74	3359
896.861	3393
896.982	3698
897.103	3838
897.224	3553
897.345	3519
897.466	3420
897.587	3469
897.708	3599
897.828	3534
897.949	3477
898.07	3329
898.19	3409
898.311	3568
898.431	3431
898.552	3538
898.672	3595
898.792	3595
898.913	3530
899.033	3405
899.153	3279
899.273	3214
899.393	3291
899.513	3325
899.633	3336
899.753	3332
899.873	3287
899.993	3450
900.113	3344
900.232	3370
900.352	3351
900.472	3291
900.591	3226
900.711	3298
900.83	3222
900.95	3374
901.069	3488
901.189	3359
901.308	3188
901.427	3108
901.546	3218
901.665	3302
901.784	3355
901.904	3173
902.023	3154
902.141	3028
902.26	3013
902.379	3104
902.498	3043
902.617	3074
902.735	3192
902.854	3253
902.973	3199
903.091	3020
903.21	3074
903.328	3142
903.446	3077
903.565	3100
903.683	3218
903.801	3131
903.919	3233
904.038	3321
904.156	3161
904.274	3253
904.392	3222
904.51	3306
904.627	3294
904.745	3420
904.863	3511
904.981	3275
905.098	3131
905.216	3211
905.334	3306
905.451	3275
905.569	3279
905.686	3409
905.803	3428
905.921	3317
906.038	3454
906.155	3348
906.272	3294
906.389	3340
906.506	3230
906.623	3233
906.74	3291
906.857	3188
906.974	3275
907.091	3458
907.208	3561
907.324	3435
907.441	3370
907.557	3260
907.674	3230
907.79	3214
907.907	3226
908.023	3424
908.139	3348
908.256	3332
908.372	3370
908.488	3378
908.604	3268
908.72	3230
908.836	3287
908.952	3294
909.068	3310
909.184	3488
909.3	3389
909.415	3473
909.531	3447
909.647	3298
909.762	3294
909.878	3268
909.993	3355
910.108	3332
910.224	3348
910.339	3378
910.454	3294
910.57	3275
910.685	3226
910.8	3572
910.915	3549
911.03	3431
911.145	3279
911.259	3218
911.374	3325
911.489	3222
911.604	3203
911.718	3085
911.833	3169
911.947	3039
912.062	2967
912.176	3173
912.291	3195
912.405	3226
912.519	3409
912.633	3450
912.748	3355
912.862	3241
912.976	3184
913.09	3070
913.204	3089
913.318	3218
913.431	3367
913.545	3351
913.659	3397
913.772	3344
913.886	3207
914	3142
914.113	3317
914.226	3409
914.34	3367
914.453	3222
914.566	3378
914.68	3302
914.793	3310
914.906	3127
915.019	3138
915.132	3036
915.245	3184
915.358	3207
915.47	3233
915.583	3268
915.696	3268
915.809	3401
915.921	3386
916.034	3218
916.146	3230
916.259	3233
916.371	3439
916.483	3370
916.595	3283
916.708	3351
916.82	3325
916.932	3351
917.044	3306
917.156	3317
917.268	3268
917.38	3310
917.491	3317
917.603	3405
917.715	3492
917.826	3477
917.938	3389
918.049	3283
918.161	3462
918.272	3545
918.384	3614
918.495	3481
918.606	3359
918.717	3283
918.828	3340
918.939	3397
919.05	3302
919.161	3389
919.272	3199
919.383	3306
919.494	3507
919.604	3648
919.715	3485
919.826	3374
919.936	3405
920.047	3572
920.157	3561
920.267	3770
920.378	3603
920.488	3549
920.598	3774
920.708	3926
920.818	3778
920.928	3831
921.038	4029
921.148	3975
921.258	3747
921.368	3641
921.477	3591
921.587	3557
921.697	3443
921.806	3603
921.916	3458
922.025	3367
922.134	3332
922.244	3313
922.353	3405
922.462	3275
922.571	3230
922.68	3100
922.789	3081
922.898	3127
923.007	3085
923.116	3203
923.224	3169
923.333	3157
923.442	3077
923.55	3074
923.659	3161
923.767	3245
923.876	3150
923.984	3253
924.092	3089
924.201	3195
924.309	3237
924.417	3256
924.525	3195
924.633	3237
924.741	4169
924.849	3036
924.956	3283
925.064	3116
925.172	3043
925.279	3104
925.387	3214
925.494	3169
925.602	3367
925.709	3294
925.816	3169
925.924	3283
926.031	3401
926.138	3313
926.245	3351
926.352	3237
926.459	3424
926.566	3454
926.673	3321
926.779	3230
926.886	3260
926.993	3150
927.099	3123
927.206	3100
927.312	3138
927.419	3233
927.525	3203
927.631	3275
927.737	3150
927.843	3104
927.95	3005
928.056	3131
928.162	3150
928.267	3264
928.373	3880
928.479	3325
928.585	3032
928.69	3184
928.796	3279
928.901	3165
929.007	3047
929.112	3192
929.218	3157
929.323	3150
929.428	3138
929.533	3306
929.638	3116
929.743	3154
929.848	3275
929.953	3211
930.058	3161
930.163	2990
930.267	3039
930.372	3256
930.477	3058
930.581	3317
930.685	3192
930.79	3062
930.894	3089
930.998	3112
931.103	3294
931.207	2941
931.311	2933
931.415	2933
931.519	2754
931.623	2796
