Data from test_V78500241_1912.txt Node
Date: Fri Mar 25 16:28:26 CST 2022
User: usil
Spectrometer: V785-0024
Trigger mode: 0
Integration Time (sec): 4.000000E-1
Scans to average: 1
Nonlinearity correction enabled: false
Boxcar width: 0
Storing dark spectrum: false
XAxis mode: Wavelengths
Number of Pixels in Spectrum: 1024
>>>>>Begin Spectral Data<<<<<
801.071	2941
801.214	2963
801.356	2952
801.499	2948
801.641	2918
801.783	2948
801.926	3089
802.068	3017
802.211	3032
802.353	3081
802.496	2990
802.638	3047
802.78	3093
802.923	3116
803.065	3043
803.208	2982
803.35	2986
803.492	2963
803.635	2952
803.777	2781
803.919	2891
804.061	3245
804.204	2998
804.346	2918
804.488	2880
804.63	3028
804.773	2887
804.915	2960
805.057	3138
805.199	2963
805.341	3005
805.483	3066
805.626	3062
805.768	2986
805.91	3119
806.052	3165
806.194	3051
806.336	3294
806.478	3028
806.62	2979
806.762	3009
806.904	3070
807.046	3142
807.188	3028
807.33	2948
807.472	2967
807.614	2933
807.756	3013
807.898	2948
808.04	2918
808.182	2982
808.324	2994
808.465	2891
808.607	2929
808.749	2823
808.891	2880
809.033	2971
809.174	3013
809.316	2918
809.458	2899
809.6	2788
809.741	2819
809.883	2800
810.025	2887
810.166	2872
810.308	2857
810.45	2918
810.591	2800
810.733	2769
810.875	2853
811.016	2800
811.158	2819
811.299	2845
811.441	2933
811.582	2937
811.724	2853
811.865	2838
812.007	2960
812.148	2914
812.29	2872
812.431	2933
812.573	2929
812.714	2960
812.855	3058
812.997	3081
813.138	3150
813.279	3077
813.421	2979
813.562	2990
813.703	2899
813.845	2910
813.986	2830
814.127	2781
814.268	2853
814.41	2861
814.551	2819
814.692	2849
814.833	2838
814.974	2895
815.115	2986
815.256	2838
815.397	2819
815.539	2899
815.68	2826
815.821	2796
815.962	2956
816.103	2933
816.244	2895
816.385	2864
816.526	3005
816.666	2948
816.807	2766
816.948	2918
817.089	2937
817.23	2899
817.371	2781
817.512	2811
817.653	2876
817.793	2853
817.934	2887
818.075	3032
818.216	2994
818.356	3043
818.497	2918
818.638	2815
818.778	2830
818.919	2811
819.06	2800
819.2	2868
819.341	2842
819.481	2819
819.622	2971
819.762	3104
819.903	3077
820.043	2925
820.184	2918
820.324	2891
820.465	3013
820.605	3028
820.746	3055
820.886	2971
821.026	3180
821.167	3203
821.307	3253
821.447	3294
821.588	3275
821.728	3272
821.868	3233
822.008	3070
822.149	3199
822.289	3230
822.429	3138
822.569	3116
822.709	3180
822.849	3055
822.99	3070
823.13	3146
823.27	3230
823.41	3138
823.55	3207
823.69	3184
823.83	3268
823.97	3070
824.11	3024
824.25	3036
824.389	3081
824.529	3146
824.669	3123
824.809	3233
824.949	3298
825.089	3291
825.228	3184
825.368	3020
825.508	3001
825.648	2986
825.787	3005
825.927	3028
826.067	2971
826.206	2982
826.346	3070
826.485	3085
826.625	3131
826.765	3279
826.904	3226
827.044	2994
827.183	2929
827.323	2880
827.462	2986
827.601	2925
827.741	2952
827.88	2975
828.02	2838
828.159	2990
828.298	3074
828.437	3146
828.577	3062
828.716	3264
828.855	3142
828.994	2883
829.134	2918
829.273	2929
829.412	2922
829.551	2876
829.69	2887
829.829	2967
829.968	3131
830.107	3039
830.246	3055
830.385	2929
830.524	2864
830.663	2849
830.802	2720
830.941	2678
831.08	2659
831.219	2781
831.357	2758
831.496	2975
831.635	2701
831.774	2659
831.913	2686
832.051	2545
832.19	2598
832.329	2674
832.467	2556
832.606	2495
832.744	2594
832.883	2606
833.022	2617
833.16	2659
833.299	2682
833.437	2701
833.576	2720
833.714	2693
833.852	2731
833.991	2800
834.129	2864
834.267	2853
834.406	2842
834.544	2880
834.682	2861
834.821	2853
834.959	3085
835.097	2914
835.235	3089
835.373	3032
835.511	3043
835.65	2963
835.788	3001
835.926	2868
836.064	2804
836.202	2845
836.34	3089
836.478	3192
836.615	3074
836.753	3157
836.891	3188
837.029	3173
837.167	3150
837.305	3089
837.443	3055
837.58	2971
837.718	3150
837.856	3074
837.993	3058
838.131	3192
838.269	3123
838.406	3100
838.544	3081
838.681	2971
838.819	2925
838.956	2811
839.094	2868
839.231	2906
839.369	3005
839.506	3420
839.643	3237
839.781	3039
839.918	2963
840.055	3077
840.193	3070
840.33	3077
840.467	3100
840.604	3173
840.742	3405
840.879	3062
841.016	3100
841.153	3169
841.29	3321
841.427	3321
841.564	3291
841.701	3325
841.838	3211
841.975	3188
842.112	3226
842.249	3074
842.385	3066
842.522	3264
842.659	3085
842.796	3055
842.933	3112
843.069	3055
843.206	3051
843.343	3157
843.479	3116
843.616	3142
843.752	2910
843.889	2891
844.025	3051
844.162	2899
844.298	3089
844.435	2982
844.571	2910
844.708	3097
844.844	3169
844.98	3268
845.117	3226
845.253	3051
845.389	2994
845.525	3119
845.661	3112
845.798	3043
845.934	3127
846.07	3051
846.206	3253
846.342	3321
846.478	3211
846.614	3108
846.75	3066
846.886	3051
847.022	3264
847.158	3169
847.294	3157
847.429	3245
847.565	3249
847.701	3488
847.837	3074
847.972	3028
848.108	3150
848.244	3157
848.379	2990
848.515	2956
848.65	2952
848.786	2986
848.921	3020
849.057	3119
849.192	3142
849.328	3074
849.463	3093
849.598	3074
849.734	3089
849.869	2982
850.004	2937
850.14	3001
850.275	2902
850.41	2864
850.545	2883
850.68	2918
850.815	2956
850.95	2994
851.085	3203
851.22	3112
851.355	3043
851.49	2998
851.625	3013
851.76	3074
851.895	2986
852.03	2906
852.165	3047
852.299	3135
852.434	3176
852.569	3157
852.703	3203
852.838	3241
852.973	3355
853.107	3336
853.242	3100
853.376	3058
853.511	2998
853.645	3058
853.78	3256
853.914	3119
854.048	3154
854.183	3131
854.317	3138
854.451	3332
854.585	3108
854.72	3097
854.854	3192
854.988	3020
855.122	3100
855.256	2979
855.39	3116
855.524	3260
855.658	3176
855.792	3176
855.926	3218
856.06	3233
856.194	3256
856.327	3207
856.461	3093
856.595	3074
856.729	3100
856.862	3180
856.996	3165
857.13	3226
857.263	3211
857.397	3313
857.53	3108
857.664	3218
857.797	3260
857.931	3253
858.064	3195
858.197	3199
858.331	3150
858.464	3097
858.597	3017
858.731	3127
858.864	3077
858.997	3108
859.13	3207
859.263	3199
859.396	3211
859.529	3093
859.662	3051
859.795	3028
859.928	3093
860.061	3298
860.194	3310
860.327	3123
860.46	3089
860.592	3272
860.725	3275
860.858	3256
860.99	3116
861.123	3066
861.256	3047
861.388	3123
861.521	3812
861.653	3017
861.786	2990
861.918	3077
862.05	3085
862.183	3100
862.315	3150
862.447	3180
862.58	3093
862.712	2941
862.844	2891
862.976	3051
863.108	3047
863.24	3344
863.372	2895
863.504	2960
863.636	2967
863.768	3089
863.9	2990
864.032	2895
864.164	2952
864.296	3017
864.428	3081
864.559	3112
864.691	3070
864.823	3089
864.954	3039
865.086	3013
865.217	3017
865.349	2979
865.48	2990
865.612	3017
865.743	3119
865.875	3013
866.006	2948
866.137	2967
866.269	2925
866.4	2941
866.531	2929
866.662	2868
866.793	2922
866.924	2906
867.055	2979
867.186	2937
867.317	2849
867.448	2857
867.579	2826
867.71	2849
867.841	2807
867.972	2906
868.103	2906
868.233	2887
868.364	2883
868.495	2887
868.625	3093
868.756	3188
868.886	2990
869.017	3020
869.147	3161
869.278	3180
869.408	3074
869.539	3032
869.669	3093
869.799	3039
869.929	3108
870.06	3100
870.19	3336
870.32	3291
870.45	3291
870.58	3363
870.71	3507
870.84	3477
870.97	3310
871.1	3230
871.23	3519
871.36	3473
871.489	3367
871.619	3405
871.749	3424
871.879	3447
872.008	3447
872.138	3340
872.267	3283
872.397	3123
872.526	3108
872.656	3001
872.785	3066
872.915	3249
873.044	3306
873.173	3211
873.303	3256
873.432	3249
873.561	3256
873.69	3142
873.819	3127
873.948	3226
874.077	3108
874.206	3028
874.335	3051
874.464	3211
874.593	3332
874.722	3241
874.851	3351
874.979	3405
875.108	3287
875.237	3199
875.365	3161
875.494	3161
875.623	3226
875.751	3104
875.88	3146
876.008	3207
876.136	3207
876.265	3405
876.393	3526
876.521	3405
876.65	3348
876.778	3313
876.906	3272
877.034	3195
877.162	3253
877.29	3222
877.418	3260
877.546	3230
877.674	3249
877.802	3283
877.93	3226
878.058	3146
878.185	3138
878.313	3165
878.441	3188
878.568	3066
878.696	3165
878.824	3264
878.951	3298
879.079	3450
879.206	3633
879.333	3428
879.461	3306
879.588	3321
879.715	3469
879.842	3580
879.97	3374
880.097	3176
880.224	3127
880.351	3188
880.478	3222
880.605	3207
880.732	3211
880.859	3511
880.986	3256
881.112	3340
881.239	3199
881.366	3104
881.493	3051
881.619	3058
881.746	3055
881.872	3112
881.999	3135
882.125	3123
882.252	3249
882.378	3272
882.505	3450
882.631	3275
882.757	3142
882.883	3195
883.01	3233
883.136	3138
883.262	3077
883.388	3085
883.514	3302
883.64	3370
883.766	3321
883.892	3188
884.018	3249
884.143	3397
884.269	3568
884.395	3218
884.52	3188
884.646	3165
884.772	3116
884.897	3085
885.023	3188
885.148	3332
885.274	3424
885.399	3359
885.524	3279
885.65	3291
885.775	3329
885.9	3260
886.025	3389
886.15	3405
886.275	3279
886.4	3237
886.525	3306
886.65	3310
886.775	3291
886.9	3526
887.025	3614
887.149	3412
887.274	3245
887.399	3142
887.523	3184
887.648	3173
887.773	3188
887.897	3389
888.021	3428
888.146	3302
888.27	3424
888.395	3595
888.519	3428
888.643	3450
888.767	3454
888.891	3359
889.015	3272
889.139	3268
889.263	3264
889.387	3401
889.511	3488
889.635	3450
889.759	3291
889.883	3321
890.006	3393
890.13	3507
890.254	3268
890.377	3325
890.501	3169
890.624	3192
890.748	3321
890.871	3161
890.995	3100
891.118	3062
891.241	3184
891.364	3241
891.488	3313
891.611	3180
891.734	3222
891.857	3302
891.98	3233
892.103	3374
892.226	3302
892.349	3222
892.471	3116
892.594	3249
892.717	3302
892.839	3264
892.962	3287
893.085	3367
893.207	3298
893.33	3180
893.452	3245
893.575	3321
893.697	3203
893.819	3450
893.941	3496
894.064	3462
894.186	3272
894.308	3233
894.43	3447
894.552	3542
894.674	3492
894.796	3317
894.918	3332
895.04	3317
895.161	3409
895.283	3374
895.405	3287
895.526	3348
895.648	3469
895.769	3401
895.891	3420
896.012	3466
896.134	3439
896.255	3439
896.376	3397
896.498	3344
896.619	3443
896.74	3351
896.861	3386
896.982	3656
897.103	3835
897.224	3603
897.345	3496
897.466	3443
897.587	3492
897.708	3637
897.828	3542
897.949	3454
898.07	3310
898.19	3420
898.311	3591
898.431	3424
898.552	3496
898.672	3591
898.792	3587
898.913	3530
899.033	3428
899.153	3283
899.273	3199
899.393	3291
899.513	3272
899.633	3321
899.753	3310
899.873	3302
899.993	3374
900.113	3302
900.232	3397
900.352	3325
900.472	3287
900.591	3176
900.711	3298
900.83	3233
900.95	3450
901.069	3477
901.189	3344
901.308	3150
901.427	3123
901.546	3214
901.665	3321
901.784	3363
901.904	3207
902.023	3116
902.141	2986
902.26	2975
902.379	3142
902.498	3066
902.617	3055
902.735	3180
902.854	3211
902.973	3188
903.091	3028
903.21	3077
903.328	3119
903.446	3100
903.565	3116
903.683	3268
903.801	3142
903.919	3230
904.038	3275
904.156	3184
904.274	3264
904.392	3264
904.51	3283
904.627	3340
904.745	3454
904.863	3424
904.981	3260
905.098	3180
905.216	3222
905.334	3291
905.451	3363
905.569	3298
905.686	3405
905.803	3412
905.921	3279
906.038	3462
906.155	3336
906.272	3294
906.389	3306
906.506	3275
906.623	3291
906.74	3249
906.857	3165
906.974	3268
907.091	3443
907.208	3561
907.324	3466
907.441	3386
907.557	3226
907.674	3195
907.79	3165
907.907	3233
908.023	3382
908.139	3367
908.256	3329
908.372	3348
908.488	3317
908.604	3237
908.72	3230
908.836	3272
908.952	3272
909.068	3332
909.184	3466
909.3	3389
909.415	3515
909.531	3481
909.647	3275
909.762	3283
909.878	3264
909.993	3332
910.108	3344
910.224	3332
910.339	3454
910.454	3294
910.57	3306
910.685	3260
910.8	3561
910.915	3530
911.03	3386
911.145	3260
911.259	3275
911.374	3332
911.489	3237
911.604	3226
911.718	3116
911.833	3142
911.947	3013
912.062	3001
912.176	3169
912.291	3176
912.405	3192
912.519	3443
912.633	3443
912.748	3325
912.862	3283
912.976	3176
913.09	3074
913.204	3123
913.318	3180
913.431	3321
913.545	3359
913.659	3363
913.772	3344
913.886	3233
914	3192
914.113	3329
914.226	3424
914.34	3367
914.453	3207
914.566	3393
914.68	3291
914.793	3355
914.906	3146
915.019	3081
915.132	3062
915.245	3161
915.358	3165
915.47	3214
915.583	3253
915.696	3317
915.809	3367
915.921	3431
916.034	3230
916.146	3241
916.259	3161
916.371	3393
916.483	3355
916.595	3260
916.708	3340
916.82	3310
916.932	3291
917.044	3332
917.156	3325
917.268	3245
917.38	3291
917.491	3256
917.603	3336
917.715	3458
917.826	3458
917.938	3370
918.049	3260
918.161	3416
918.272	3564
918.384	3580
918.495	3458
918.606	3302
918.717	3249
918.828	3367
918.939	3424
919.05	3287
919.161	3355
919.272	3165
919.383	3302
919.494	3488
919.604	3675
919.715	3500
919.826	3382
919.936	3454
920.047	3580
920.157	3504
920.267	3732
920.378	3629
920.488	3553
920.598	3838
920.708	3937
920.818	3778
920.928	3854
921.038	4032
921.148	4025
921.258	3690
921.368	3614
921.477	3545
921.587	3553
921.697	3450
921.806	3656
921.916	3507
922.025	3374
922.134	3348
922.244	3313
922.353	3397
922.462	3260
922.571	3226
922.68	3123
922.789	3081
922.898	3116
923.007	3081
923.116	3161
923.224	3199
923.333	3150
923.442	3085
923.55	3074
923.659	3157
923.767	3226
923.876	3112
923.984	3207
924.092	3089
924.201	3138
924.309	3203
924.417	3241
924.525	3226
924.633	3245
924.741	3998
924.849	3020
924.956	3249
925.064	3142
925.172	3013
925.279	3085
925.387	3211
925.494	3180
925.602	3340
925.709	3329
925.816	3169
925.924	3241
926.031	3374
926.138	3298
926.245	3386
926.352	3226
926.459	3412
926.566	3454
926.673	3325
926.779	3226
926.886	3253
926.993	3146
927.099	3142
927.206	3100
927.312	3116
927.419	3237
927.525	3192
927.631	3298
927.737	3165
927.843	3150
927.95	3062
928.056	3123
928.162	3169
928.267	3249
928.373	3876
928.479	3279
928.585	3100
928.69	3195
928.796	3275
928.901	3195
929.007	3024
929.112	3211
929.218	3161
929.323	3154
929.428	3119
929.533	3344
929.638	3093
929.743	3169
929.848	3260
929.953	3180
930.058	3123
930.163	2982
930.267	3013
930.372	3203
930.477	3039
930.581	3291
930.685	3142
930.79	3039
930.894	3112
930.998	3055
931.103	3291
931.207	2952
931.311	2948
931.415	2922
931.519	2746
931.623	2781
