Data from test_V78500241_1538.txt Node
Date: Fri Mar 25 16:25:51 CST 2022
User: usil
Spectrometer: V785-0024
Trigger mode: 0
Integration Time (sec): 4.000000E-1
Scans to average: 1
Nonlinearity correction enabled: false
Boxcar width: 0
Storing dark spectrum: false
XAxis mode: Wavelengths
Number of Pixels in Spectrum: 1024
>>>>>Begin Spectral Data<<<<<
801.071	2929
801.214	2910
801.356	2834
801.499	2891
801.641	2902
801.783	2918
801.926	3039
802.068	2990
802.211	2994
802.353	3009
802.496	2967
802.638	3005
802.78	3017
802.923	3074
803.065	3017
803.208	2868
803.35	2918
803.492	2933
803.635	2944
803.777	2785
803.919	2849
804.061	3211
804.204	2956
804.346	2902
804.488	2807
804.63	3024
804.773	2895
804.915	2918
805.057	3093
805.199	2922
805.341	3005
805.483	3017
805.626	3009
805.768	2971
805.91	3081
806.052	3097
806.194	3039
806.336	3264
806.478	2986
806.62	2941
806.762	2975
806.904	3055
807.046	3142
807.188	2986
807.33	2910
807.472	2990
807.614	2918
807.756	3017
807.898	2922
808.04	2895
808.182	2952
808.324	2937
808.465	2883
808.607	2887
808.749	2815
808.891	2823
809.033	2967
809.174	2975
809.316	2880
809.458	2899
809.6	2773
809.741	2773
809.883	2777
810.025	2826
810.166	2845
810.308	2861
810.45	2834
810.591	2739
810.733	2785
810.875	2834
811.016	2769
811.158	2712
811.299	2785
811.441	2914
811.582	2918
811.724	2826
811.865	2826
812.007	2925
812.148	2857
812.29	2857
812.431	2845
812.573	2895
812.714	2986
812.855	3066
812.997	3017
813.138	3142
813.279	2998
813.421	2967
813.562	2941
813.703	2887
813.845	2887
813.986	2796
814.127	2743
814.268	2800
814.41	2826
814.551	2804
814.692	2880
814.833	2838
814.974	2887
815.115	2967
815.256	2830
815.397	2819
815.539	2872
815.68	2758
815.821	2777
815.962	2963
816.103	2918
816.244	2880
816.385	2880
816.526	2948
816.666	2918
816.807	2731
816.948	2895
817.089	2899
817.23	2868
817.371	2773
817.512	2800
817.653	2819
817.793	2804
817.934	2845
818.075	2982
818.216	2971
818.356	2990
818.497	2887
818.638	2785
818.778	2815
818.919	2796
819.06	2750
819.2	2868
819.341	2811
819.481	2785
819.622	2876
819.762	3066
819.903	3017
820.043	2922
820.184	2842
820.324	2883
820.465	3020
820.605	3020
820.746	3051
820.886	2922
821.026	3119
821.167	3161
821.307	3233
821.447	3283
821.588	3249
821.728	3195
821.868	3138
822.008	3093
822.149	3169
822.289	3195
822.429	3055
822.569	3112
822.709	3165
822.849	3005
822.99	3066
823.13	3165
823.27	3214
823.41	3097
823.55	3173
823.69	3104
823.83	3207
823.97	3089
824.11	2982
824.25	3009
824.389	3085
824.529	3112
824.669	3051
824.809	3211
824.949	3241
825.089	3237
825.228	3123
825.368	3009
825.508	2967
825.648	2979
825.787	3009
825.927	3032
826.067	2948
826.206	2967
826.346	3039
826.485	3028
826.625	3119
826.765	3237
826.904	3218
827.044	2963
827.183	2952
827.323	2834
827.462	2990
827.601	2891
827.741	2922
827.88	2941
828.02	2853
828.159	2963
828.298	2990
828.437	3085
828.577	3047
828.716	3245
828.855	3093
828.994	2876
829.134	2868
829.273	2910
829.412	2857
829.551	2849
829.69	2918
829.829	2994
829.968	3142
830.107	3017
830.246	3039
830.385	2895
830.524	2861
830.663	2819
830.802	2750
830.941	2674
831.08	2659
831.219	2762
831.357	2727
831.496	2960
831.635	2708
831.774	2644
831.913	2663
832.051	2579
832.19	2583
832.329	2648
832.467	2526
832.606	2507
832.744	2598
832.883	2602
833.022	2590
833.16	2648
833.299	2686
833.437	2648
833.576	2686
833.714	2773
833.852	2720
833.991	2788
834.129	2826
834.267	2849
834.406	2796
834.544	2849
834.682	2849
834.821	2876
834.959	3062
835.097	2899
835.235	3036
835.373	3009
835.511	3013
835.65	2910
835.788	2948
835.926	2807
836.064	2773
836.202	2842
836.34	3097
836.478	3165
836.615	3051
836.753	3104
836.891	3176
837.029	3150
837.167	3093
837.305	3043
837.443	3066
837.58	2952
837.718	3116
837.856	3062
837.993	2986
838.131	3112
838.269	3127
838.406	3085
838.544	3070
838.681	2941
838.819	2880
838.956	2861
839.094	2815
839.231	2922
839.369	3001
839.506	3344
839.643	3180
839.781	3047
839.918	2944
840.055	3062
840.193	3066
840.33	3036
840.467	3100
840.604	3154
840.742	3397
840.879	3081
841.016	3032
841.153	3116
841.29	3306
841.427	3287
841.564	3306
841.701	3264
841.838	3214
841.975	3192
842.112	3173
842.249	3089
842.385	3020
842.522	3275
842.659	3116
842.796	3036
842.933	3047
843.069	3058
843.206	3047
843.343	3161
843.479	3154
843.616	3119
843.752	2861
843.889	2868
844.025	3047
844.162	2914
844.298	3070
844.435	2937
844.571	2902
844.708	3047
844.844	3188
844.98	3184
845.117	3180
845.253	3066
845.389	3013
845.525	3085
845.661	3097
845.798	3051
845.934	3112
846.07	3058
846.206	3222
846.342	3317
846.478	3211
846.614	3077
846.75	3036
846.886	2982
847.022	3260
847.158	3119
847.294	3203
847.429	3245
847.565	3176
847.701	3523
847.837	3024
847.972	2967
848.108	3138
848.244	3165
848.379	2982
848.515	2971
848.65	2899
848.786	2975
848.921	3009
849.057	3085
849.192	3135
849.328	3074
849.463	3116
849.598	3032
849.734	3028
849.869	2971
850.004	2899
850.14	2963
850.275	2914
850.41	2853
850.545	2842
850.68	2929
850.815	2956
850.95	2944
851.085	3154
851.22	3104
851.355	3058
851.49	2998
851.625	2986
851.76	3009
851.895	2944
852.03	2918
852.165	3024
852.299	3051
852.434	3188
852.569	3142
852.703	3188
852.838	3230
852.973	3355
853.107	3298
853.242	3123
853.376	3085
853.511	2948
853.645	2994
853.78	3218
853.914	3097
854.048	3104
854.183	3024
854.317	3150
854.451	3321
854.585	3154
854.72	3085
854.854	3176
854.988	3020
855.122	3077
855.256	2967
855.39	3108
855.524	3230
855.658	3192
855.792	3161
855.926	3176
856.06	3218
856.194	3195
856.327	3176
856.461	3085
856.595	3058
856.729	3116
856.862	3188
856.996	3157
857.13	3222
857.263	3218
857.397	3241
857.53	3104
857.664	3226
857.797	3253
857.931	3203
858.064	3142
858.197	3203
858.331	3135
858.464	3112
858.597	3009
858.731	3104
858.864	3077
858.997	3074
859.13	3112
859.263	3135
859.396	3173
859.529	3104
859.662	3077
859.795	3020
859.928	3150
860.061	3287
860.194	3283
860.327	3123
860.46	3043
860.592	3207
860.725	3222
860.858	3245
860.99	3089
861.123	3047
861.256	3036
861.388	3116
861.521	3876
861.653	3039
861.786	3001
861.918	3020
862.05	3051
862.183	3104
862.315	3146
862.447	3184
862.58	3077
862.712	2963
862.844	2876
862.976	2998
863.108	2998
863.24	3287
863.372	2883
863.504	2956
863.636	2956
863.768	3032
863.9	2967
864.032	2902
864.164	2941
864.296	3017
864.428	3070
864.559	3081
864.691	3039
864.823	3058
864.954	3032
865.086	3055
865.217	3017
865.349	2944
865.48	2990
865.612	2994
865.743	3138
865.875	2979
866.006	2933
866.137	2952
866.269	2956
866.4	2918
866.531	2960
866.662	2868
866.793	2902
866.924	2895
867.055	2967
867.186	2925
867.317	2876
867.448	2845
867.579	2834
867.71	2853
867.841	2811
867.972	2899
868.103	2849
868.233	2853
868.364	2883
868.495	2902
868.625	3081
868.756	3142
868.886	2990
869.017	2994
869.147	3173
869.278	3176
869.408	3009
869.539	3032
869.669	3051
869.799	3032
869.929	3131
870.06	3097
870.19	3348
870.32	3291
870.45	3264
870.58	3359
870.71	3435
870.84	3450
870.97	3325
871.1	3241
871.23	3496
871.36	3454
871.489	3382
871.619	3386
871.749	3386
871.879	3428
872.008	3496
872.138	3363
872.267	3283
872.397	3131
872.526	3081
872.656	3005
872.785	3093
872.915	3253
873.044	3294
873.173	3214
873.303	3226
873.432	3222
873.561	3222
873.69	3104
873.819	3100
873.948	3230
874.077	3058
874.206	3036
874.335	3085
874.464	3176
874.593	3329
874.722	3237
874.851	3386
874.979	3382
875.108	3272
875.237	3188
875.365	3180
875.494	3161
875.623	3256
875.751	3093
875.88	3112
876.008	3207
876.136	3237
876.265	3344
876.393	3485
876.521	3409
876.65	3336
876.778	3359
876.906	3256
877.034	3199
877.162	3218
877.29	3169
877.418	3237
877.546	3287
877.674	3241
877.802	3211
877.93	3211
878.058	3097
878.185	3081
878.313	3195
878.441	3203
878.568	3051
878.696	3123
878.824	3222
878.951	3310
879.079	3428
879.206	3610
879.333	3443
879.461	3336
879.588	3374
879.715	3485
879.842	3564
879.97	3405
880.097	3146
880.224	3123
880.351	3192
880.478	3211
880.605	3207
880.732	3180
880.859	3519
880.986	3313
881.112	3317
881.239	3203
881.366	3070
881.493	3043
881.619	3032
881.746	3097
881.872	3104
881.999	3104
882.125	3131
882.252	3230
882.378	3291
882.505	3386
882.631	3287
882.757	3112
882.883	3233
883.01	3203
883.136	3138
883.262	3112
883.388	3112
883.514	3321
883.64	3359
883.766	3268
883.892	3169
884.018	3256
884.143	3428
884.269	3545
884.395	3169
884.52	3184
884.646	3195
884.772	3074
884.897	3097
885.023	3188
885.148	3287
885.274	3359
885.399	3370
885.524	3264
885.65	3222
885.775	3317
885.9	3279
886.025	3431
886.15	3344
886.275	3325
886.4	3249
886.525	3264
886.65	3241
886.775	3306
886.9	3507
887.025	3663
887.149	3401
887.274	3264
887.399	3157
887.523	3184
887.648	3176
887.773	3245
887.897	3378
888.021	3397
888.146	3275
888.27	3435
888.395	3507
888.519	3412
888.643	3416
888.767	3431
888.891	3340
889.015	3245
889.139	3294
889.263	3245
889.387	3409
889.511	3504
889.635	3424
889.759	3291
889.883	3291
890.006	3374
890.13	3481
890.254	3253
890.377	3283
890.501	3203
890.624	3116
890.748	3294
890.871	3180
890.995	3093
891.118	3104
891.241	3180
891.364	3203
891.488	3294
891.611	3154
891.734	3184
891.857	3264
891.98	3268
892.103	3340
892.226	3256
892.349	3211
892.471	3116
892.594	3272
892.717	3291
892.839	3298
892.962	3233
893.085	3332
893.207	3294
893.33	3127
893.452	3199
893.575	3359
893.697	3245
893.819	3439
893.941	3515
894.064	3454
894.186	3249
894.308	3275
894.43	3431
894.552	3545
894.674	3466
894.796	3253
894.918	3325
895.04	3291
895.161	3393
895.283	3431
895.405	3272
895.526	3367
895.648	3397
895.769	3386
895.891	3447
896.012	3462
896.134	3473
896.255	3389
896.376	3370
896.498	3348
896.619	3412
896.74	3351
896.861	3431
896.982	3660
897.103	3846
897.224	3614
897.345	3526
897.466	3428
897.587	3515
897.708	3580
897.828	3492
897.949	3447
898.07	3393
898.19	3466
898.311	3545
898.431	3431
898.552	3523
898.672	3610
898.792	3591
898.913	3500
899.033	3412
899.153	3275
899.273	3192
899.393	3268
899.513	3329
899.633	3317
899.753	3298
899.873	3294
899.993	3348
900.113	3325
900.232	3355
900.352	3370
900.472	3268
900.591	3237
900.711	3310
900.83	3214
900.95	3405
901.069	3485
901.189	3329
901.308	3154
901.427	3100
901.546	3184
901.665	3317
901.784	3310
901.904	3230
902.023	3169
902.141	3009
902.26	2986
902.379	3108
902.498	3108
902.617	3066
902.735	3211
902.854	3226
902.973	3230
903.091	3043
903.21	3051
903.328	3146
903.446	3116
903.565	3104
903.683	3203
903.801	3138
903.919	3230
904.038	3272
904.156	3169
904.274	3275
904.392	3237
904.51	3268
904.627	3344
904.745	3435
904.863	3481
904.981	3272
905.098	3199
905.216	3237
905.334	3245
905.451	3287
905.569	3310
905.686	3412
905.803	3409
905.921	3256
906.038	3428
906.155	3336
906.272	3275
906.389	3298
906.506	3222
906.623	3233
906.74	3272
906.857	3241
906.974	3268
907.091	3443
907.208	3511
907.324	3443
907.441	3393
907.557	3245
907.674	3241
907.79	3218
907.907	3287
908.023	3359
908.139	3386
908.256	3336
908.372	3355
908.488	3340
908.604	3260
908.72	3245
908.836	3275
908.952	3253
909.068	3363
909.184	3473
909.3	3420
909.415	3466
909.531	3504
909.647	3279
909.762	3272
909.878	3249
909.993	3378
910.108	3321
910.224	3359
910.339	3401
910.454	3382
910.57	3287
910.685	3253
910.8	3545
910.915	3549
911.03	3370
911.145	3264
911.259	3275
911.374	3325
911.489	3253
911.604	3241
911.718	3108
911.833	3131
911.947	2998
912.062	2941
912.176	3112
912.291	3199
912.405	3245
912.519	3424
912.633	3458
912.748	3310
912.862	3325
912.976	3165
913.09	3047
913.204	3146
913.318	3218
913.431	3317
913.545	3325
913.659	3393
913.772	3336
913.886	3226
914	3192
914.113	3336
914.226	3416
914.34	3397
914.453	3188
914.566	3420
914.68	3336
914.793	3306
914.906	3154
915.019	3142
915.132	3043
915.245	3199
915.358	3237
915.47	3230
915.583	3241
915.696	3291
915.809	3382
915.921	3409
916.034	3211
916.146	3256
916.259	3203
916.371	3370
916.483	3351
916.595	3241
916.708	3332
916.82	3359
916.932	3351
917.044	3332
917.156	3355
917.268	3230
917.38	3268
917.491	3298
917.603	3348
917.715	3473
917.826	3409
917.938	3367
918.049	3241
918.161	3386
918.272	3564
918.384	3587
918.495	3462
918.606	3287
918.717	3275
918.828	3340
918.939	3409
919.05	3306
919.161	3397
919.272	3165
919.383	3245
919.494	3496
919.604	3641
919.715	3492
919.826	3412
919.936	3469
920.047	3572
920.157	3580
920.267	3770
920.378	3591
920.488	3564
920.598	3747
920.708	3941
920.818	3846
920.928	3854
921.038	4025
921.148	3998
921.258	3709
921.368	3644
921.477	3606
921.587	3576
921.697	3473
921.806	3614
921.916	3538
922.025	3348
922.134	3348
922.244	3325
922.353	3409
922.462	3279
922.571	3253
922.68	3100
922.789	3066
922.898	3165
923.007	3089
923.116	3184
923.224	3154
923.333	3150
923.442	3070
923.55	3116
923.659	3135
923.767	3214
923.876	3089
923.984	3222
924.092	3097
924.201	3207
924.309	3173
924.417	3211
924.525	3192
924.633	3233
924.741	4200
924.849	3104
924.956	3256
925.064	3100
925.172	3070
925.279	3104
925.387	3214
925.494	3188
925.602	3348
925.709	3298
925.816	3192
925.924	3249
926.031	3382
926.138	3313
926.245	3367
926.352	3233
926.459	3393
926.566	3458
926.673	3355
926.779	3237
926.886	3222
926.993	3169
927.099	3127
927.206	3127
927.312	3093
927.419	3218
927.525	3230
927.631	3283
927.737	3173
927.843	3100
927.95	3043
928.056	3119
928.162	3199
928.267	3275
928.373	3740
928.479	3275
928.585	3093
928.69	3218
928.796	3260
928.901	3165
929.007	3039
929.112	3222
929.218	3180
929.323	3154
929.428	3157
929.533	3321
929.638	3112
929.743	3169
929.848	3237
929.953	3203
930.058	3146
930.163	3001
930.267	3089
930.372	3207
930.477	3009
930.581	3310
930.685	3154
930.79	3077
930.894	3089
930.998	3062
931.103	3279
931.207	2967
931.311	2944
931.415	2929
931.519	2823
931.623	2804
