Data from test_V78500241_1002.txt Node
Date: Fri Mar 25 16:22:08 CST 2022
User: usil
Spectrometer: V785-0024
Trigger mode: 0
Integration Time (sec): 4.000000E-1
Scans to average: 1
Nonlinearity correction enabled: false
Boxcar width: 0
Storing dark spectrum: false
XAxis mode: Wavelengths
Number of Pixels in Spectrum: 1024
>>>>>Begin Spectral Data<<<<<
801.071	2887
801.214	2922
801.356	2864
801.499	2895
801.641	2853
801.783	2906
801.926	3055
802.068	2963
802.211	2982
802.353	3028
802.496	2979
802.638	2990
802.78	3036
802.923	3062
803.065	2990
803.208	2876
803.35	2872
803.492	2914
803.635	2899
803.777	2766
803.919	2868
804.061	3203
804.204	2937
804.346	2902
804.488	2838
804.63	2937
804.773	2864
804.915	2880
805.057	3066
805.199	2876
805.341	2979
805.483	3043
805.626	3017
805.768	2975
805.91	3116
806.052	3127
806.194	3051
806.336	3233
806.478	3028
806.62	2990
806.762	2941
806.904	3005
807.046	3169
807.188	2990
807.33	2910
807.472	2967
807.614	2925
807.756	3001
807.898	2914
808.04	2857
808.182	2979
808.324	2929
808.465	2876
808.607	2868
808.749	2781
808.891	2819
809.033	2960
809.174	2986
809.316	2914
809.458	2933
809.6	2781
809.741	2762
809.883	2766
810.025	2849
810.166	2857
810.308	2830
810.45	2868
810.591	2792
810.733	2762
810.875	2849
811.016	2804
811.158	2754
811.299	2781
811.441	2906
811.582	2891
811.724	2815
811.865	2826
812.007	2933
812.148	2834
812.29	2861
812.431	2872
812.573	2941
812.714	2971
812.855	3066
812.997	3036
813.138	3104
813.279	2994
813.421	2990
813.562	2937
813.703	2891
813.845	2872
813.986	2788
814.127	2739
814.268	2811
814.41	2834
814.551	2826
814.692	2861
814.833	2823
814.974	2887
815.115	2967
815.256	2807
815.397	2826
815.539	2849
815.68	2750
815.821	2796
815.962	2922
816.103	2948
816.244	2842
816.385	2853
816.526	2952
816.666	2960
816.807	2735
816.948	2887
817.089	2918
817.23	2857
817.371	2750
817.512	2788
817.653	2868
817.793	2868
817.934	2853
818.075	2963
818.216	2975
818.356	2998
818.497	2868
818.638	2811
818.778	2830
818.919	2826
819.06	2762
819.2	2891
819.341	2823
819.481	2769
819.622	2933
819.762	3081
819.903	3051
820.043	2967
820.184	2895
820.324	2933
820.465	3013
820.605	3028
820.746	3009
820.886	2918
821.026	3077
821.167	3150
821.307	3275
821.447	3283
821.588	3230
821.728	3203
821.868	3199
822.008	3097
822.149	3192
822.289	3226
822.429	3108
822.569	3104
822.709	3207
822.849	2998
822.99	3077
823.13	3154
823.27	3203
823.41	3108
823.55	3135
823.69	3116
823.83	3161
823.97	3100
824.11	2994
824.25	2982
824.389	3039
824.529	3097
824.669	3051
824.809	3142
824.949	3214
825.089	3214
825.228	3169
825.368	3001
825.508	2967
825.648	2956
825.787	3009
825.927	3020
826.067	2982
826.206	2956
826.346	2998
826.485	3074
826.625	3100
826.765	3287
826.904	3218
827.044	2967
827.183	2971
827.323	2910
827.462	2971
827.601	2906
827.741	2933
827.88	2906
828.02	2834
828.159	2982
828.298	3024
828.437	3070
828.577	3013
828.716	3222
828.855	3051
828.994	2910
829.134	2891
829.273	2944
829.412	2838
829.551	2853
829.69	2872
829.829	2979
829.968	3116
830.107	3020
830.246	2990
830.385	2925
830.524	2868
830.663	2796
830.802	2689
830.941	2636
831.08	2651
831.219	2735
831.357	2758
831.496	2944
831.635	2697
831.774	2621
831.913	2640
832.051	2537
832.19	2556
832.329	2667
832.467	2530
832.606	2465
832.744	2583
832.883	2594
833.022	2587
833.16	2670
833.299	2670
833.437	2655
833.576	2705
833.714	2727
833.852	2720
833.991	2754
834.129	2811
834.267	2845
834.406	2785
834.544	2864
834.682	2880
834.821	2868
834.959	3055
835.097	2868
835.235	3032
835.373	2990
835.511	3024
835.65	2929
835.788	2971
835.926	2819
836.064	2815
836.202	2796
836.34	3062
836.478	3127
836.615	3036
836.753	3093
836.891	3218
837.029	3142
837.167	3119
837.305	3051
837.443	3047
837.58	2929
837.718	3108
837.856	3074
837.993	3036
838.131	3138
838.269	3066
838.406	3070
838.544	3089
838.681	2929
838.819	2887
838.956	2796
839.094	2838
839.231	2887
839.369	3013
839.506	3370
839.643	3241
839.781	2979
839.918	2952
840.055	3043
840.193	3039
840.33	3024
840.467	3074
840.604	3142
840.742	3424
840.879	3077
841.016	3028
841.153	3085
841.29	3310
841.427	3302
841.564	3233
841.701	3310
841.838	3226
841.975	3192
842.112	3218
842.249	3055
842.385	3028
842.522	3260
842.659	3097
842.796	3055
842.933	3100
843.069	3039
843.206	3055
843.343	3161
843.479	3135
843.616	3127
843.752	2899
843.889	2853
844.025	3058
844.162	2857
844.298	3081
844.435	2918
844.571	2948
844.708	3017
844.844	3127
844.98	3218
845.117	3154
845.253	3017
845.389	3005
845.525	3100
845.661	3093
845.798	3036
845.934	3123
846.07	3043
846.206	3203
846.342	3329
846.478	3218
846.614	3119
846.75	3020
846.886	3020
847.022	3226
847.158	3127
847.294	3207
847.429	3233
847.565	3199
847.701	3496
847.837	3070
847.972	3013
848.108	3142
848.244	3154
848.379	2960
848.515	2925
848.65	2883
848.786	2952
848.921	3005
849.057	3089
849.192	3146
849.328	3074
849.463	3104
849.598	3047
849.734	2994
849.869	2971
850.004	2895
850.14	2971
850.275	2872
850.41	2807
850.545	2868
850.68	2872
850.815	2960
850.95	2998
851.085	3161
851.22	3116
851.355	3043
851.49	2971
851.625	2998
851.76	3020
851.895	2933
852.03	2906
852.165	2990
852.299	3077
852.434	3150
852.569	3154
852.703	3180
852.838	3218
852.973	3291
853.107	3344
853.242	3119
853.376	3104
853.511	2994
853.645	3013
853.78	3237
853.914	3108
854.048	3108
854.183	3066
854.317	3173
854.451	3325
854.585	3142
854.72	3051
854.854	3233
854.988	3055
855.122	3032
855.256	2956
855.39	3123
855.524	3192
855.658	3188
855.792	3138
855.926	3195
856.06	3249
856.194	3226
856.327	3165
856.461	3093
856.595	3062
856.729	3074
856.862	3222
856.996	3116
857.13	3195
857.263	3199
857.397	3275
857.53	3077
857.664	3207
857.797	3218
857.931	3241
858.064	3157
858.197	3184
858.331	3131
858.464	3081
858.597	2986
858.731	3081
858.864	3138
858.997	3093
859.13	3142
859.263	3169
859.396	3207
859.529	3116
859.662	3093
859.795	3009
859.928	3142
860.061	3283
860.194	3272
860.327	3108
860.46	3112
860.592	3192
860.725	3222
860.858	3230
860.99	3093
861.123	3036
861.256	3055
861.388	3154
861.521	3793
861.653	3017
861.786	2990
861.918	2971
862.05	3058
862.183	3070
862.315	3165
862.447	3176
862.58	3047
862.712	2948
862.844	2883
862.976	3009
863.108	2979
863.24	3420
863.372	2876
863.504	2960
863.636	2948
863.768	2998
863.9	2975
864.032	2925
864.164	2906
864.296	3001
864.428	3066
864.559	3070
864.691	3089
864.823	3036
864.954	3055
865.086	3062
865.217	2998
865.349	2933
865.48	2979
865.612	3005
865.743	3161
865.875	2960
866.006	2963
866.137	2979
866.269	2929
866.4	2925
866.531	2910
866.662	2910
866.793	2842
866.924	2872
867.055	2948
867.186	2899
867.317	2819
867.448	2834
867.579	2838
867.71	2853
867.841	2807
867.972	2891
868.103	2910
868.233	2895
868.364	2857
868.495	2868
868.625	3074
868.756	3161
868.886	2929
869.017	3028
869.147	3154
869.278	3192
869.408	3043
869.539	3009
869.669	3039
869.799	3001
869.929	3146
870.06	3100
870.19	3306
870.32	3249
870.45	3294
870.58	3370
870.71	3424
870.84	3454
870.97	3321
871.1	3241
871.23	3462
871.36	3454
871.489	3348
871.619	3412
871.749	3393
871.879	3458
872.008	3462
872.138	3344
872.267	3245
872.397	3135
872.526	3104
872.656	2998
872.785	3058
872.915	3260
873.044	3332
873.173	3230
873.303	3275
873.432	3245
873.561	3256
873.69	3112
873.819	3127
873.948	3226
874.077	3081
874.206	3055
874.335	3055
874.464	3233
874.593	3332
874.722	3253
874.851	3363
874.979	3359
875.108	3317
875.237	3192
875.365	3150
875.494	3135
875.623	3230
875.751	3074
875.88	3112
876.008	3161
876.136	3218
876.265	3351
876.393	3473
876.521	3382
876.65	3431
876.778	3355
876.906	3268
877.034	3188
877.162	3218
877.29	3146
877.418	3230
877.546	3249
877.674	3199
877.802	3233
877.93	3199
878.058	3127
878.185	3085
878.313	3192
878.441	3195
878.568	3081
878.696	3180
878.824	3241
878.951	3279
879.079	3428
879.206	3576
879.333	3405
879.461	3336
879.588	3370
879.715	3515
879.842	3564
879.97	3382
880.097	3157
880.224	3142
880.351	3230
880.478	3214
880.605	3188
880.732	3173
880.859	3481
880.986	3306
881.112	3336
881.239	3237
881.366	3070
881.493	3055
881.619	3020
881.746	3097
881.872	3074
881.999	3070
882.125	3116
882.252	3241
882.378	3302
882.505	3458
882.631	3268
882.757	3135
882.883	3192
883.01	3207
883.136	3150
883.262	3070
883.388	3127
883.514	3329
883.64	3344
883.766	3298
883.892	3173
884.018	3207
884.143	3397
884.269	3507
884.395	3218
884.52	3165
884.646	3180
884.772	3131
884.897	3085
885.023	3188
885.148	3325
885.274	3431
885.399	3378
885.524	3294
885.65	3241
885.775	3302
885.9	3260
886.025	3435
886.15	3359
886.275	3260
886.4	3245
886.525	3256
886.65	3245
886.775	3237
886.9	3454
887.025	3686
887.149	3409
887.274	3260
887.399	3169
887.523	3203
887.648	3176
887.773	3203
887.897	3370
888.021	3405
888.146	3302
888.27	3416
888.395	3473
888.519	3431
888.643	3409
888.767	3447
888.891	3329
889.015	3184
889.139	3264
889.263	3226
889.387	3374
889.511	3496
889.635	3439
889.759	3325
889.883	3321
890.006	3431
890.13	3473
890.254	3260
890.377	3329
890.501	3184
890.624	3184
890.748	3291
890.871	3222
890.995	3142
891.118	3047
891.241	3173
891.364	3184
891.488	3317
891.611	3188
891.734	3199
891.857	3306
891.98	3241
892.103	3325
892.226	3283
892.349	3188
892.471	3108
892.594	3245
892.717	3256
892.839	3249
892.962	3279
893.085	3351
893.207	3241
893.33	3116
893.452	3180
893.575	3355
893.697	3222
893.819	3447
893.941	3488
894.064	3428
894.186	3264
894.308	3264
894.43	3420
894.552	3507
894.674	3462
894.796	3256
894.918	3313
895.04	3294
895.161	3409
895.283	3424
895.405	3275
895.526	3348
895.648	3431
895.769	3431
895.891	3431
896.012	3439
896.134	3469
896.255	3443
896.376	3359
896.498	3363
896.619	3401
896.74	3355
896.861	3370
896.982	3720
897.103	3808
897.224	3564
897.345	3485
897.466	3412
897.587	3492
897.708	3599
897.828	3519
897.949	3424
898.07	3306
898.19	3386
898.311	3633
898.431	3477
898.552	3496
898.672	3622
898.792	3530
898.913	3511
899.033	3435
899.153	3291
899.273	3237
899.393	3241
899.513	3340
899.633	3313
899.753	3329
899.873	3317
899.993	3397
900.113	3294
900.232	3348
900.352	3287
900.472	3283
900.591	3218
900.711	3249
900.83	3264
900.95	3412
901.069	3530
901.189	3386
901.308	3176
901.427	3123
901.546	3161
901.665	3268
901.784	3313
901.904	3199
902.023	3108
902.141	3024
902.26	2994
902.379	3138
902.498	3070
902.617	3089
902.735	3283
902.854	3241
902.973	3150
903.091	3001
903.21	3074
903.328	3123
903.446	3100
903.565	3070
903.683	3199
903.801	3150
903.919	3241
904.038	3260
904.156	3176
904.274	3249
904.392	3245
904.51	3351
904.627	3294
904.745	3450
904.863	3477
904.981	3245
905.098	3127
905.216	3241
905.334	3302
905.451	3268
905.569	3306
905.686	3428
905.803	3416
905.921	3272
906.038	3416
906.155	3317
906.272	3291
906.389	3351
906.506	3214
906.623	3268
906.74	3260
906.857	3176
906.974	3256
907.091	3447
907.208	3561
907.324	3462
907.441	3374
907.557	3203
907.674	3268
907.79	3188
907.907	3260
908.023	3401
908.139	3363
908.256	3310
908.372	3378
908.488	3389
908.604	3249
908.72	3237
908.836	3298
908.952	3283
909.068	3306
909.184	3473
909.3	3397
909.415	3488
909.531	3469
909.647	3279
909.762	3325
909.878	3241
909.993	3329
910.108	3348
910.224	3344
910.339	3420
910.454	3321
910.57	3272
910.685	3207
910.8	3629
910.915	3523
911.03	3431
911.145	3207
911.259	3256
911.374	3310
911.489	3218
911.604	3222
911.718	3127
911.833	3154
911.947	3020
912.062	2990
912.176	3142
912.291	3146
912.405	3230
912.519	3409
912.633	3473
912.748	3325
912.862	3275
912.976	3154
913.09	3036
913.204	3119
913.318	3222
913.431	3340
913.545	3306
913.659	3370
913.772	3317
913.886	3184
914	3184
914.113	3317
914.226	3378
914.34	3370
914.453	3188
914.566	3367
914.68	3253
914.793	3283
914.906	3138
915.019	3116
915.132	3066
915.245	3131
915.358	3226
915.47	3233
915.583	3283
915.696	3279
915.809	3397
915.921	3409
916.034	3264
916.146	3230
916.259	3192
916.371	3321
916.483	3359
916.595	3233
916.708	3348
916.82	3291
916.932	3336
917.044	3351
917.156	3359
917.268	3264
917.38	3302
917.491	3298
917.603	3344
917.715	3424
917.826	3462
917.938	3401
918.049	3253
918.161	3431
918.272	3545
918.384	3572
918.495	3496
918.606	3313
918.717	3268
918.828	3363
918.939	3397
919.05	3279
919.161	3363
919.272	3192
919.383	3275
919.494	3488
919.604	3667
919.715	3492
919.826	3405
919.936	3409
920.047	3572
920.157	3572
920.267	3762
920.378	3652
920.488	3584
920.598	3774
920.708	3953
920.818	3804
920.928	3835
921.038	3998
921.148	3998
921.258	3743
921.368	3618
921.477	3580
921.587	3523
921.697	3477
921.806	3633
921.916	3526
922.025	3351
922.134	3351
922.244	3302
922.353	3439
922.462	3260
922.571	3226
922.68	3097
922.789	3051
922.898	3116
923.007	3112
923.116	3199
923.224	3180
923.333	3184
923.442	3074
923.55	3074
923.659	3116
923.767	3233
923.876	3093
923.984	3260
924.092	3100
924.201	3192
924.309	3211
924.417	3272
924.525	3211
924.633	3218
924.741	4181
924.849	3039
924.956	3283
925.064	3074
925.172	3020
925.279	3077
925.387	3184
925.494	3203
925.602	3348
925.709	3336
925.816	3184
925.924	3233
926.031	3363
926.138	3340
926.245	3348
926.352	3298
926.459	3386
926.566	3412
926.673	3294
926.779	3233
926.886	3218
926.993	3131
927.099	3135
927.206	3123
927.312	3138
927.419	3241
927.525	3195
927.631	3268
927.737	3157
927.843	3135
927.95	3013
928.056	3161
928.162	3184
928.267	3230
928.373	3861
928.479	3298
928.585	3085
928.69	3176
928.796	3256
928.901	3165
929.007	3074
929.112	3253
929.218	3180
929.323	3165
929.428	3127
929.533	3325
929.638	3119
929.743	3154
929.848	3214
929.953	3180
930.058	3119
930.163	2975
930.267	3024
930.372	3176
930.477	3028
930.581	3313
930.685	3146
930.79	3047
930.894	3097
930.998	3135
931.103	3272
931.207	2960
931.311	2937
931.415	2922
931.519	2766
931.623	2792
