Data from test_V78500241_1386.txt Node
Date: Fri Mar 25 16:24:48 CST 2022
User: usil
Spectrometer: V785-0024
Trigger mode: 0
Integration Time (sec): 4.000000E-1
Scans to average: 1
Nonlinearity correction enabled: false
Boxcar width: 0
Storing dark spectrum: false
XAxis mode: Wavelengths
Number of Pixels in Spectrum: 1024
>>>>>Begin Spectral Data<<<<<
801.071	2902
801.214	2971
801.356	2914
801.499	2880
801.641	2899
801.783	2975
801.926	3070
802.068	3009
802.211	3013
802.353	3070
802.496	2971
802.638	3028
802.78	3017
802.923	3089
803.065	3036
803.208	2918
803.35	2971
803.492	2990
803.635	2956
803.777	2788
803.919	2902
804.061	3241
804.204	2960
804.346	2956
804.488	2906
804.63	2998
804.773	2891
804.915	2971
805.057	3119
805.199	2967
805.341	3001
805.483	3051
805.626	3005
805.768	2986
805.91	3123
806.052	3173
806.194	3058
806.336	3237
806.478	3077
806.62	2963
806.762	2990
806.904	3089
807.046	3188
807.188	2948
807.33	2941
807.472	3024
807.614	2933
807.756	3009
807.898	2925
808.04	2922
808.182	3005
808.324	2899
808.465	2902
808.607	2933
808.749	2811
808.891	2880
809.033	2994
809.174	2971
809.316	2891
809.458	2910
809.6	2811
809.741	2754
809.883	2788
810.025	2880
810.166	2887
810.308	2853
810.45	2880
810.591	2811
810.733	2815
810.875	2864
811.016	2807
811.158	2777
811.299	2849
811.441	2941
811.582	2872
811.724	2842
811.865	2842
812.007	2948
812.148	2880
812.29	2853
812.431	2895
812.573	2971
812.714	2960
812.855	3055
812.997	3055
813.138	3165
813.279	3036
813.421	3017
813.562	2952
813.703	2910
813.845	2887
813.986	2807
814.127	2724
814.268	2838
814.41	2872
814.551	2819
814.692	2880
814.833	2845
814.974	2906
815.115	3005
815.256	2876
815.397	2804
815.539	2910
815.68	2804
815.821	2811
815.962	2941
816.103	2944
816.244	2899
816.385	2887
816.526	3001
816.666	2963
816.807	2762
816.948	2922
817.089	2941
817.23	2861
817.371	2819
817.512	2811
817.653	2842
817.793	2838
817.934	2883
818.075	2990
818.216	3001
818.356	3036
818.497	2895
818.638	2792
818.778	2849
818.919	2826
819.06	2766
819.2	2895
819.341	2792
819.481	2842
819.622	2956
819.762	3131
819.903	3058
820.043	2937
820.184	2906
820.324	2910
820.465	3039
820.605	3028
820.746	2990
820.886	2929
821.026	3146
821.167	3169
821.307	3294
821.447	3294
821.588	3294
821.728	3272
821.868	3203
822.008	3093
822.149	3176
822.289	3230
822.429	3127
822.569	3127
822.709	3230
822.849	3070
822.99	3043
823.13	3195
823.27	3203
823.41	3119
823.55	3146
823.69	3180
823.83	3176
823.97	3127
824.11	3077
824.25	2982
824.389	3108
824.529	3142
824.669	3108
824.809	3203
824.949	3260
825.089	3195
825.228	3188
825.368	3020
825.508	2967
825.648	2982
825.787	3043
825.927	3032
826.067	3017
826.206	2979
826.346	3074
826.485	3074
826.625	3116
826.765	3279
826.904	3230
827.044	2979
827.183	2971
827.323	2853
827.462	2990
827.601	2910
827.741	2933
827.88	3005
828.02	2887
828.159	2948
828.298	3066
828.437	3100
828.577	3051
828.716	3233
828.855	3093
828.994	2933
829.134	2910
829.273	2922
829.412	2925
829.551	2857
829.69	2914
829.829	3024
829.968	3127
830.107	2990
830.246	3036
830.385	2922
830.524	2918
830.663	2845
830.802	2758
830.941	2670
831.08	2667
831.219	2754
831.357	2792
831.496	2963
831.635	2720
831.774	2659
831.913	2674
832.051	2537
832.19	2636
832.329	2667
832.467	2541
832.606	2518
832.744	2594
832.883	2598
833.022	2613
833.16	2705
833.299	2701
833.437	2724
833.576	2701
833.714	2743
833.852	2731
833.991	2766
834.129	2834
834.267	2834
834.406	2785
834.544	2849
834.682	2918
834.821	2906
834.959	3070
835.097	2902
835.235	3085
835.373	2986
835.511	3024
835.65	2975
835.788	2941
835.926	2804
836.064	2815
836.202	2838
836.34	3131
836.478	3176
836.615	3043
836.753	3112
836.891	3214
837.029	3161
837.167	3097
837.305	3047
837.443	3017
837.58	2990
837.718	3161
837.856	3100
837.993	3043
838.131	3135
838.269	3093
838.406	3085
838.544	3123
838.681	2960
838.819	2925
838.956	2826
839.094	2815
839.231	2914
839.369	2998
839.506	3393
839.643	3226
839.781	3024
839.918	2956
840.055	3055
840.193	3043
840.33	3062
840.467	3112
840.604	3150
840.742	3428
840.879	3093
841.016	3051
841.153	3123
841.29	3325
841.427	3283
841.564	3268
841.701	3313
841.838	3260
841.975	3207
842.112	3207
842.249	3112
842.385	3062
842.522	3291
842.659	3085
842.796	3036
842.933	3146
843.069	3047
843.206	3051
843.343	3222
843.479	3085
843.616	3142
843.752	2895
843.889	2857
844.025	3077
844.162	2925
844.298	3085
844.435	2979
844.571	2872
844.708	3081
844.844	3192
844.98	3230
845.117	3184
845.253	3047
845.389	2986
845.525	3081
845.661	3131
845.798	2994
845.934	3157
846.07	3077
846.206	3237
846.342	3272
846.478	3207
846.614	3104
846.75	3039
846.886	3043
847.022	3237
847.158	3173
847.294	3211
847.429	3245
847.565	3230
847.701	3477
847.837	3020
847.972	3017
848.108	3138
848.244	3138
848.379	2994
848.515	2895
848.65	2925
848.786	2956
848.921	3024
849.057	3116
849.192	3180
849.328	3066
849.463	3127
849.598	3119
849.734	3058
849.869	2979
850.004	2925
850.14	2986
850.275	2925
850.41	2872
850.545	2910
850.68	2982
850.815	2971
850.95	2979
851.085	3218
851.22	3123
851.355	3036
851.49	3028
851.625	3013
851.76	3077
851.895	2975
852.03	2929
852.165	3047
852.299	3157
852.434	3245
852.569	3207
852.703	3203
852.838	3287
852.973	3367
853.107	3367
853.242	3199
853.376	3135
853.511	2994
853.645	3089
853.78	3272
853.914	3165
854.048	3192
854.183	3112
854.317	3222
854.451	3336
854.585	3157
854.72	3161
854.854	3253
854.988	3070
855.122	3127
855.256	3017
855.39	3176
855.524	3264
855.658	3226
855.792	3214
855.926	3253
856.06	3253
856.194	3279
856.327	3165
856.461	3135
856.595	3135
856.729	3165
856.862	3268
856.996	3188
857.13	3233
857.263	3275
857.397	3291
857.53	3176
857.664	3233
857.797	3241
857.931	3279
858.064	3203
858.197	3260
858.331	3154
858.464	3119
858.597	3028
858.731	3184
858.864	3150
858.997	3135
859.13	3188
859.263	3222
859.396	3230
859.529	3116
859.662	3150
859.795	3077
859.928	3188
860.061	3291
860.194	3332
860.327	3150
860.46	3127
860.592	3283
860.725	3291
860.858	3310
860.99	3123
861.123	3089
861.256	3089
861.388	3176
861.521	3770
861.653	3017
861.786	2986
861.918	3039
862.05	3104
862.183	3138
862.315	3199
862.447	3203
862.58	3157
862.712	2979
862.844	2883
862.976	3085
863.108	3036
863.24	3340
863.372	2910
863.504	2967
863.636	2963
863.768	3070
863.9	3024
864.032	2956
864.164	2979
864.296	3047
864.428	3116
864.559	3135
864.691	3112
864.823	3097
864.954	3062
865.086	3062
865.217	3066
865.349	2990
865.48	3017
865.612	3055
865.743	3180
865.875	3028
866.006	2967
866.137	2979
866.269	2952
866.4	2979
866.531	2929
866.662	2899
866.793	2925
866.924	2941
867.055	3020
867.186	2952
867.317	2895
867.448	2887
867.579	2861
867.71	2914
867.841	2823
867.972	2933
868.103	2925
868.233	2914
868.364	2895
868.495	2933
868.625	3112
868.756	3192
868.886	3039
869.017	3032
869.147	3188
869.278	3184
869.408	3051
869.539	3066
869.669	3135
869.799	3093
869.929	3165
870.06	3184
870.19	3374
870.32	3306
870.45	3332
870.58	3393
870.71	3500
870.84	3485
870.97	3291
871.1	3291
871.23	3519
871.36	3496
871.489	3382
871.619	3435
871.749	3401
871.879	3466
872.008	3511
872.138	3367
872.267	3283
872.397	3169
872.526	3077
872.656	3051
872.785	3154
872.915	3287
873.044	3344
873.173	3260
873.303	3237
873.432	3272
873.561	3253
873.69	3180
873.819	3192
873.948	3188
874.077	3142
874.206	3089
874.335	3154
874.464	3272
874.593	3374
874.722	3306
874.851	3431
874.979	3367
875.108	3359
875.237	3260
875.365	3233
875.494	3214
875.623	3287
875.751	3116
875.88	3123
876.008	3253
876.136	3279
876.265	3405
876.393	3542
876.521	3469
876.65	3447
876.778	3359
876.906	3302
877.034	3253
877.162	3272
877.29	3203
877.418	3283
877.546	3329
877.674	3306
877.802	3233
877.93	3245
878.058	3176
878.185	3127
878.313	3184
878.441	3214
878.568	3058
878.696	3154
878.824	3275
878.951	3344
879.079	3477
879.206	3682
879.333	3485
879.461	3370
879.588	3363
879.715	3481
879.842	3610
879.97	3416
880.097	3211
880.224	3135
880.351	3199
880.478	3249
880.605	3211
880.732	3233
880.859	3511
880.986	3313
881.112	3359
881.239	3203
881.366	3142
881.493	3066
881.619	3039
881.746	3074
881.872	3138
881.999	3135
882.125	3169
882.252	3233
882.378	3336
882.505	3466
882.631	3302
882.757	3165
882.883	3249
883.01	3279
883.136	3169
883.262	3093
883.388	3100
883.514	3355
883.64	3367
883.766	3332
883.892	3218
884.018	3268
884.143	3447
884.269	3534
884.395	3249
884.52	3226
884.646	3199
884.772	3127
884.897	3100
885.023	3207
885.148	3344
885.274	3462
885.399	3374
885.524	3321
885.65	3264
885.775	3329
885.9	3317
886.025	3435
886.15	3397
886.275	3348
886.4	3287
886.525	3313
886.65	3275
886.775	3291
886.9	3523
887.025	3698
887.149	3458
887.274	3241
887.399	3192
887.523	3218
887.648	3222
887.773	3199
887.897	3363
888.021	3424
888.146	3291
888.27	3462
888.395	3576
888.519	3458
888.643	3488
888.767	3428
888.891	3344
889.015	3249
889.139	3310
889.263	3249
889.387	3462
889.511	3530
889.635	3454
889.759	3275
889.883	3310
890.006	3393
890.13	3496
890.254	3302
890.377	3397
890.501	3264
890.624	3165
890.748	3329
890.871	3192
890.995	3070
891.118	3108
891.241	3218
891.364	3253
891.488	3302
891.611	3226
891.734	3256
891.857	3321
891.98	3310
892.103	3370
892.226	3321
892.349	3222
892.471	3150
892.594	3272
892.717	3340
892.839	3306
892.962	3291
893.085	3374
893.207	3336
893.33	3188
893.452	3218
893.575	3386
893.697	3249
893.819	3454
893.941	3519
894.064	3443
894.186	3279
894.308	3306
894.43	3431
894.552	3568
894.674	3526
894.796	3268
894.918	3298
895.04	3325
895.161	3473
895.283	3443
895.405	3332
895.526	3424
895.648	3462
895.769	3485
895.891	3454
896.012	3500
896.134	3492
896.255	3416
896.376	3389
896.498	3412
896.619	3397
896.74	3363
896.861	3454
896.982	3709
897.103	3857
897.224	3603
897.345	3534
897.466	3450
897.587	3504
897.708	3629
897.828	3580
897.949	3450
898.07	3351
898.19	3431
898.311	3603
898.431	3435
898.552	3538
898.672	3614
898.792	3637
898.913	3504
899.033	3443
899.153	3291
899.273	3249
899.393	3272
899.513	3344
899.633	3340
899.753	3382
899.873	3332
899.993	3382
900.113	3336
900.232	3439
900.352	3367
900.472	3317
900.591	3222
900.711	3340
900.83	3291
900.95	3435
901.069	3454
901.189	3409
901.308	3230
901.427	3127
901.546	3192
901.665	3294
901.784	3351
901.904	3245
902.023	3138
902.141	3051
902.26	3032
902.379	3180
902.498	3100
902.617	3089
902.735	3237
902.854	3211
902.973	3203
903.091	3081
903.21	3104
903.328	3169
903.446	3173
903.565	3127
903.683	3176
903.801	3165
903.919	3249
904.038	3310
904.156	3165
904.274	3317
904.392	3230
904.51	3302
904.627	3321
904.745	3447
904.863	3523
904.981	3268
905.098	3169
905.216	3294
905.334	3272
905.451	3298
905.569	3348
905.686	3431
905.803	3473
905.921	3310
906.038	3428
906.155	3405
906.272	3313
906.389	3321
906.506	3264
906.623	3256
906.74	3298
906.857	3192
906.974	3268
907.091	3488
907.208	3587
907.324	3462
907.441	3397
907.557	3237
907.674	3214
907.79	3211
907.907	3272
908.023	3405
908.139	3401
908.256	3306
908.372	3378
908.488	3351
908.604	3233
908.72	3260
908.836	3272
908.952	3279
909.068	3374
909.184	3492
909.3	3439
909.415	3511
909.531	3507
909.647	3268
909.762	3310
909.878	3237
909.993	3359
910.108	3325
910.224	3363
910.339	3409
910.454	3340
910.57	3298
910.685	3245
910.8	3622
910.915	3538
911.03	3454
911.145	3298
911.259	3279
911.374	3351
911.489	3272
911.604	3249
911.718	3097
911.833	3192
911.947	3066
912.062	2986
912.176	3142
912.291	3199
912.405	3222
912.519	3454
912.633	3477
912.748	3382
912.862	3294
912.976	3138
913.09	3074
913.204	3180
913.318	3222
913.431	3340
913.545	3340
913.659	3409
913.772	3332
913.886	3226
914	3237
914.113	3397
914.226	3412
914.34	3393
914.453	3249
914.566	3420
914.68	3321
914.793	3298
914.906	3150
915.019	3119
915.132	3104
915.245	3157
915.358	3218
915.47	3199
915.583	3275
915.696	3332
915.809	3389
915.921	3412
916.034	3294
916.146	3264
916.259	3211
916.371	3386
916.483	3374
916.595	3241
916.708	3370
916.82	3370
916.932	3351
917.044	3340
917.156	3374
917.268	3260
917.38	3355
917.491	3291
917.603	3374
917.715	3420
917.826	3439
917.938	3420
918.049	3325
918.161	3412
918.272	3572
918.384	3576
918.495	3477
918.606	3389
918.717	3294
918.828	3363
918.939	3412
919.05	3260
919.161	3332
919.272	3199
919.383	3294
919.494	3496
919.604	3690
919.715	3538
919.826	3382
919.936	3481
920.047	3580
920.157	3580
920.267	3785
920.378	3599
920.488	3553
920.598	3789
920.708	3991
920.818	3835
920.928	3831
921.038	4036
921.148	4002
921.258	3698
921.368	3667
921.477	3584
921.587	3561
921.697	3466
921.806	3606
921.916	3534
922.025	3382
922.134	3378
922.244	3306
922.353	3435
922.462	3298
922.571	3253
922.68	3108
922.789	3108
922.898	3176
923.007	3097
923.116	3192
923.224	3165
923.333	3195
923.442	3093
923.55	3097
923.659	3146
923.767	3222
923.876	3131
923.984	3237
924.092	3112
924.201	3237
924.309	3222
924.417	3279
924.525	3199
924.633	3214
924.741	4048
924.849	3070
924.956	3256
925.064	3157
925.172	3104
925.279	3116
925.387	3199
925.494	3207
925.602	3348
925.709	3317
925.816	3203
925.924	3310
926.031	3435
926.138	3348
926.245	3389
926.352	3287
926.459	3401
926.566	3496
926.673	3332
926.779	3226
926.886	3264
926.993	3173
927.099	3123
927.206	3161
927.312	3104
927.419	3253
927.525	3237
927.631	3268
927.737	3131
927.843	3127
927.95	2990
928.056	3157
928.162	3214
928.267	3272
928.373	3880
928.479	3329
928.585	3104
928.69	3233
928.796	3260
928.901	3157
929.007	3043
929.112	3249
929.218	3180
929.323	3165
929.428	3192
929.533	3325
929.638	3138
929.743	3188
929.848	3294
929.953	3256
930.058	3150
930.163	3017
930.267	3066
930.372	3203
930.477	3051
930.581	3344
930.685	3173
930.79	3055
930.894	3112
930.998	3093
931.103	3272
931.207	2963
931.311	2929
931.415	2975
931.519	2788
931.623	2845
