Data from test_V78500241_1824.txt Node
Date: Fri Mar 25 16:27:50 CST 2022
User: usil
Spectrometer: V785-0024
Trigger mode: 0
Integration Time (sec): 4.000000E-1
Scans to average: 1
Nonlinearity correction enabled: false
Boxcar width: 0
Storing dark spectrum: false
XAxis mode: Wavelengths
Number of Pixels in Spectrum: 1024
>>>>>Begin Spectral Data<<<<<
801.071	2914
801.214	2937
801.356	2895
801.499	2880
801.641	2868
801.783	2967
801.926	3051
802.068	2967
802.211	3005
802.353	2982
802.496	2933
802.638	3020
802.78	3074
802.923	3108
803.065	2998
803.208	2883
803.35	2918
803.492	2944
803.635	2952
803.777	2746
803.919	2880
804.061	3207
804.204	2929
804.346	2891
804.488	2830
804.63	2998
804.773	2864
804.915	2910
805.057	3081
805.199	2986
805.341	2963
805.483	3028
805.626	3017
805.768	2933
805.91	3077
806.052	3066
806.194	3009
806.336	3222
806.478	3017
806.62	2975
806.762	2971
806.904	3024
807.046	3192
807.188	2986
807.33	2922
807.472	2994
807.614	2914
807.756	2986
807.898	2868
808.04	2887
808.182	2956
808.324	2944
808.465	2891
808.607	2861
808.749	2807
808.891	2861
809.033	2967
809.174	2967
809.316	2918
809.458	2891
809.6	2743
809.741	2773
809.883	2804
810.025	2807
810.166	2834
810.308	2826
810.45	2845
810.591	2743
810.733	2788
810.875	2800
811.016	2758
811.158	2746
811.299	2807
811.441	2899
811.582	2883
811.724	2853
811.865	2815
812.007	2906
812.148	2838
812.29	2826
812.431	2872
812.573	2979
812.714	2971
812.855	3020
812.997	3043
813.138	3108
813.279	3001
813.421	2963
813.562	2948
813.703	2868
813.845	2925
813.986	2781
814.127	2712
814.268	2830
814.41	2830
814.551	2819
814.692	2868
814.833	2773
814.974	2902
815.115	2918
815.256	2830
815.397	2815
815.539	2872
815.68	2781
815.821	2769
815.962	2910
816.103	2933
816.244	2887
816.385	2845
816.526	2963
816.666	2914
816.807	2762
816.948	2891
817.089	2906
817.23	2823
817.371	2758
817.512	2785
817.653	2807
817.793	2834
817.934	2849
818.075	2975
818.216	2963
818.356	3051
818.497	2868
818.638	2762
818.778	2819
818.919	2773
819.06	2754
819.2	2914
819.341	2807
819.481	2785
819.622	2880
819.762	3100
819.903	3024
820.043	2910
820.184	2899
820.324	2880
820.465	2990
820.605	3001
820.746	3001
820.886	2902
821.026	3138
821.167	3142
821.307	3253
821.447	3279
821.588	3176
821.728	3165
821.868	3192
822.008	3066
822.149	3169
822.289	3218
822.429	3104
822.569	3100
822.709	3154
822.849	2998
822.99	3039
823.13	3161
823.27	3195
823.41	3112
823.55	3135
823.69	3119
823.83	3199
823.97	3077
824.11	2982
824.25	2982
824.389	3036
824.529	3142
824.669	3093
824.809	3184
824.949	3245
825.089	3157
825.228	3169
825.368	2971
825.508	2952
825.648	2941
825.787	2990
825.927	2979
826.067	2963
826.206	2994
826.346	3036
826.485	3024
826.625	3112
826.765	3283
826.904	3207
827.044	3028
827.183	2937
827.323	2872
827.462	2971
827.601	2906
827.741	2937
827.88	2963
828.02	2849
828.159	2982
828.298	3055
828.437	3055
828.577	2998
828.716	3214
828.855	3097
828.994	2929
829.134	2849
829.273	2929
829.412	2876
829.551	2861
829.69	2891
829.829	3005
829.968	3100
830.107	2998
830.246	3013
830.385	2918
830.524	2857
830.663	2781
830.802	2746
830.941	2659
831.08	2632
831.219	2739
831.357	2746
831.496	2944
831.635	2724
831.774	2606
831.913	2659
832.051	2541
832.19	2560
832.329	2655
832.467	2579
832.606	2484
832.744	2533
832.883	2598
833.022	2598
833.16	2636
833.299	2651
833.437	2678
833.576	2674
833.714	2701
833.852	2758
833.991	2705
834.129	2842
834.267	2811
834.406	2811
834.544	2868
834.682	2842
834.821	2883
834.959	3058
835.097	2887
835.235	3005
835.373	3001
835.511	2998
835.65	2918
835.788	2937
835.926	2834
836.064	2796
836.202	2842
836.34	3085
836.478	3123
836.615	3039
836.753	3108
836.891	3218
837.029	3131
837.167	3112
837.305	3066
837.443	3032
837.58	2948
837.718	3142
837.856	3055
837.993	3043
838.131	3093
838.269	3100
838.406	3085
838.544	3070
838.681	2967
838.819	2887
838.956	2785
839.094	2830
839.231	2941
839.369	3017
839.506	3370
839.643	3203
839.781	3032
839.918	2952
840.055	3058
840.193	3020
840.33	3070
840.467	3062
840.604	3154
840.742	3367
840.879	3055
841.016	3039
841.153	3093
841.29	3298
841.427	3294
841.564	3287
841.701	3329
841.838	3173
841.975	3188
842.112	3245
842.249	3104
842.385	3066
842.522	3249
842.659	3104
842.796	3032
842.933	3093
843.069	3036
843.206	3001
843.343	3157
843.479	3081
843.616	3146
843.752	2891
843.889	2872
844.025	3077
844.162	2864
844.298	3070
844.435	2963
844.571	2948
844.708	3062
844.844	3150
844.98	3237
845.117	3165
845.253	3074
845.389	3009
845.525	3062
845.661	3097
845.798	3017
845.934	3127
846.07	3024
846.206	3218
846.342	3272
846.478	3199
846.614	3093
846.75	3032
846.886	2990
847.022	3264
847.158	3154
847.294	3188
847.429	3199
847.565	3218
847.701	3454
847.837	3009
847.972	2990
848.108	3157
848.244	3112
848.379	2986
848.515	2906
848.65	2948
848.786	2941
848.921	3032
849.057	3081
849.192	3131
849.328	3066
849.463	3131
849.598	3074
849.734	2994
849.869	2963
850.004	2887
850.14	2952
850.275	2872
850.41	2861
850.545	2876
850.68	2925
850.815	2952
850.95	2941
851.085	3226
851.22	3108
851.355	3043
851.49	2994
851.625	2979
851.76	2994
851.895	2910
852.03	2906
852.165	3028
852.299	3077
852.434	3184
852.569	3176
852.703	3165
852.838	3245
852.973	3294
853.107	3279
853.242	3135
853.376	3108
853.511	3028
853.645	3032
853.78	3203
853.914	3116
854.048	3169
854.183	3077
854.317	3146
854.451	3302
854.585	3131
854.72	3047
854.854	3188
854.988	3043
855.122	3058
855.256	2998
855.39	3108
855.524	3241
855.658	3169
855.792	3119
855.926	3188
856.06	3226
856.194	3222
856.327	3184
856.461	3051
856.595	3104
856.729	3077
856.862	3233
856.996	3180
857.13	3211
857.263	3218
857.397	3275
857.53	3119
857.664	3180
857.797	3260
857.931	3230
858.064	3138
858.197	3165
858.331	3123
858.464	3081
858.597	3013
858.731	3142
858.864	3116
858.997	3089
859.13	3142
859.263	3135
859.396	3192
859.529	3097
859.662	3043
859.795	3028
859.928	3112
860.061	3287
860.194	3287
860.327	3104
860.46	3055
860.592	3203
860.725	3214
860.858	3264
860.99	3100
861.123	3051
861.256	3062
861.388	3135
861.521	3800
861.653	2998
861.786	2960
861.918	2990
862.05	3047
862.183	3058
862.315	3180
862.447	3180
862.58	3074
862.712	2925
862.844	2868
862.976	3024
863.108	3009
863.24	3386
863.372	2895
863.504	2963
863.636	2963
863.768	3032
863.9	2982
864.032	2899
864.164	2944
864.296	2979
864.428	3097
864.559	3100
864.691	3051
864.823	3032
864.954	3020
865.086	3013
865.217	2982
865.349	2929
865.48	2979
865.612	3005
865.743	3142
865.875	2982
866.006	2902
866.137	2956
866.269	2922
866.4	2922
866.531	2864
866.662	2895
866.793	2880
866.924	2880
867.055	2944
867.186	2933
867.317	2849
867.448	2792
867.579	2826
867.71	2800
867.841	2800
867.972	2910
868.103	2922
868.233	2891
868.364	2868
868.495	2929
868.625	3074
868.756	3165
868.886	2971
869.017	2998
869.147	3169
869.278	3138
869.408	3062
869.539	2994
869.669	3089
869.799	3028
869.929	3127
870.06	3077
870.19	3344
870.32	3245
870.45	3302
870.58	3348
870.71	3458
870.84	3466
870.97	3302
871.1	3237
871.23	3477
871.36	3424
871.489	3344
871.619	3389
871.749	3359
871.879	3420
872.008	3469
872.138	3370
872.267	3245
872.397	3154
872.526	3089
872.656	3013
872.785	3062
872.915	3230
873.044	3279
873.173	3218
873.303	3233
873.432	3218
873.561	3230
873.69	3165
873.819	3108
873.948	3199
874.077	3104
874.206	3013
874.335	3085
874.464	3192
874.593	3359
874.722	3249
874.851	3359
874.979	3313
875.108	3279
875.237	3192
875.365	3169
875.494	3165
875.623	3241
875.751	3070
875.88	3123
876.008	3184
876.136	3214
876.265	3340
876.393	3496
876.521	3409
876.65	3363
876.778	3336
876.906	3256
877.034	3169
877.162	3226
877.29	3184
877.418	3233
877.546	3245
877.674	3256
877.802	3249
877.93	3245
878.058	3150
878.185	3100
878.313	3180
878.441	3192
878.568	3093
878.696	3131
878.824	3218
878.951	3287
879.079	3431
879.206	3652
879.333	3439
879.461	3332
879.588	3363
879.715	3488
879.842	3587
879.97	3348
880.097	3165
880.224	3119
880.351	3203
880.478	3233
880.605	3222
880.732	3195
880.859	3466
880.986	3329
881.112	3313
881.239	3211
881.366	3058
881.493	3001
881.619	3001
881.746	3089
881.872	3081
881.999	3089
882.125	3116
882.252	3180
882.378	3275
882.505	3401
882.631	3256
882.757	3165
882.883	3195
883.01	3237
883.136	3176
883.262	3100
883.388	3146
883.514	3340
883.64	3340
883.766	3321
883.892	3173
884.018	3226
884.143	3409
884.269	3507
884.395	3188
884.52	3169
884.646	3173
884.772	3131
884.897	3097
885.023	3214
885.148	3340
885.274	3386
885.399	3348
885.524	3291
885.65	3302
885.775	3306
885.9	3287
886.025	3473
886.15	3329
886.275	3279
886.4	3245
886.525	3275
886.65	3279
886.775	3264
886.9	3511
887.025	3614
887.149	3401
887.274	3245
887.399	3207
887.523	3211
887.648	3237
887.773	3195
887.897	3374
888.021	3363
888.146	3294
888.27	3378
888.395	3530
888.519	3431
888.643	3454
888.767	3462
888.891	3310
889.015	3214
889.139	3313
889.263	3214
889.387	3431
889.511	3515
889.635	3428
889.759	3260
889.883	3302
890.006	3344
890.13	3477
890.254	3272
890.377	3329
890.501	3199
890.624	3188
890.748	3306
890.871	3180
890.995	3123
891.118	3070
891.241	3157
891.364	3195
891.488	3336
891.611	3184
891.734	3211
891.857	3249
891.98	3283
892.103	3340
892.226	3272
892.349	3188
892.471	3104
892.594	3226
892.717	3302
892.839	3260
892.962	3245
893.085	3355
893.207	3287
893.33	3142
893.452	3176
893.575	3294
893.697	3268
893.819	3454
893.941	3462
894.064	3454
894.186	3279
894.308	3287
894.43	3447
894.552	3534
894.674	3485
894.796	3264
894.918	3306
895.04	3260
895.161	3420
895.283	3416
895.405	3291
895.526	3351
895.648	3393
895.769	3450
895.891	3481
896.012	3485
896.134	3466
896.255	3363
896.376	3370
896.498	3332
896.619	3420
896.74	3382
896.861	3370
896.982	3644
897.103	3823
897.224	3584
897.345	3481
897.466	3428
897.587	3507
897.708	3610
897.828	3557
897.949	3439
898.07	3374
898.19	3416
898.311	3591
898.431	3443
898.552	3504
898.672	3553
898.792	3587
898.913	3481
899.033	3393
899.153	3306
899.273	3230
899.393	3279
899.513	3310
899.633	3306
899.753	3332
899.873	3272
899.993	3401
900.113	3370
900.232	3351
900.352	3310
900.472	3268
900.591	3203
900.711	3287
900.83	3226
900.95	3389
901.069	3492
901.189	3302
901.308	3192
901.427	3135
901.546	3176
901.665	3302
901.784	3363
901.904	3188
902.023	3150
902.141	3017
902.26	2982
902.379	3138
902.498	3028
902.617	3085
902.735	3207
902.854	3222
902.973	3203
903.091	3020
903.21	3051
903.328	3123
903.446	3108
903.565	3127
903.683	3180
903.801	3123
903.919	3195
904.038	3287
904.156	3176
904.274	3283
904.392	3253
904.51	3260
904.627	3321
904.745	3428
904.863	3496
904.981	3268
905.098	3173
905.216	3226
905.334	3302
905.451	3298
905.569	3291
905.686	3443
905.803	3424
905.921	3294
906.038	3405
906.155	3378
906.272	3245
906.389	3325
906.506	3211
906.623	3256
906.74	3275
906.857	3184
906.974	3226
907.091	3454
907.208	3545
907.324	3439
907.441	3332
907.557	3241
907.674	3222
907.79	3222
907.907	3279
908.023	3336
908.139	3374
908.256	3302
908.372	3351
908.488	3374
908.604	3256
908.72	3230
908.836	3294
908.952	3256
909.068	3313
909.184	3458
909.3	3420
909.415	3515
909.531	3443
909.647	3264
909.762	3302
909.878	3253
909.993	3355
910.108	3363
910.224	3355
910.339	3386
910.454	3287
910.57	3291
910.685	3233
910.8	3576
910.915	3515
911.03	3431
911.145	3253
911.259	3291
911.374	3306
911.489	3233
911.604	3214
911.718	3112
911.833	3173
911.947	3032
912.062	2986
912.176	3135
912.291	3180
912.405	3199
912.519	3409
912.633	3443
912.748	3351
912.862	3287
912.976	3146
913.09	3055
913.204	3146
913.318	3195
913.431	3332
913.545	3332
913.659	3348
913.772	3321
913.886	3218
914	3195
914.113	3363
914.226	3397
914.34	3409
914.453	3241
914.566	3409
914.68	3268
914.793	3325
914.906	3119
915.019	3077
915.132	3077
915.245	3165
915.358	3199
915.47	3207
915.583	3279
915.696	3298
915.809	3367
915.921	3412
916.034	3241
916.146	3199
916.259	3214
916.371	3393
916.483	3389
916.595	3256
916.708	3351
916.82	3325
916.932	3351
917.044	3401
917.156	3370
917.268	3214
917.38	3287
917.491	3272
917.603	3370
917.715	3431
917.826	3469
917.938	3344
918.049	3256
918.161	3450
918.272	3534
918.384	3523
918.495	3485
918.606	3332
918.717	3260
918.828	3355
918.939	3412
919.05	3241
919.161	3389
919.272	3150
919.383	3287
919.494	3488
919.604	3644
919.715	3500
919.826	3428
919.936	3431
920.047	3584
920.157	3568
920.267	3751
920.378	3587
920.488	3534
920.598	3781
920.708	3979
920.818	3838
920.928	3827
921.038	4032
921.148	3975
921.258	3686
921.368	3625
921.477	3580
921.587	3557
921.697	3477
921.806	3641
921.916	3526
922.025	3374
922.134	3389
922.244	3306
922.353	3416
922.462	3256
922.571	3222
922.68	3138
922.789	3062
922.898	3119
923.007	3081
923.116	3211
923.224	3169
923.333	3192
923.442	3085
923.55	3108
923.659	3142
923.767	3230
923.876	3108
923.984	3226
924.092	3089
924.201	3192
924.309	3192
924.417	3222
924.525	3176
924.633	3230
924.741	4181
924.849	3047
924.956	3275
925.064	3108
925.172	3032
925.279	3138
925.387	3203
925.494	3157
925.602	3310
925.709	3325
925.816	3195
925.924	3253
926.031	3397
926.138	3310
926.245	3367
926.352	3291
926.459	3420
926.566	3435
926.673	3313
926.779	3245
926.886	3207
926.993	3154
927.099	3157
927.206	3112
927.312	3142
927.419	3226
927.525	3199
927.631	3260
927.737	3123
927.843	3123
927.95	3013
928.056	3146
928.162	3142
928.267	3237
928.373	3785
928.479	3253
928.585	3036
928.69	3241
928.796	3256
928.901	3127
929.007	3047
929.112	3233
929.218	3154
929.323	3150
929.428	3154
929.533	3298
929.638	3108
929.743	3169
929.848	3264
929.953	3195
930.058	3146
930.163	3009
930.267	3032
930.372	3157
930.477	3055
930.581	3317
930.685	3154
930.79	3070
930.894	3146
930.998	3051
931.103	3287
931.207	2960
931.311	2952
931.415	2914
931.519	2777
931.623	2811
