Data from test_V78500241_596.txt Node
Date: Fri Mar 25 16:19:19 CST 2022
User: usil
Spectrometer: V785-0024
Trigger mode: 0
Integration Time (sec): 4.000000E-1
Scans to average: 1
Nonlinearity correction enabled: false
Boxcar width: 0
Storing dark spectrum: false
XAxis mode: Wavelengths
Number of Pixels in Spectrum: 1024
>>>>>Begin Spectral Data<<<<<
801.071	2952
801.214	2944
801.356	2895
801.499	2933
801.641	2891
801.783	2956
801.926	3074
802.068	3039
802.211	3028
802.353	3039
802.496	2994
802.638	3047
802.78	3028
802.923	3154
803.065	3066
803.208	2876
803.35	2925
803.492	2937
803.635	2922
803.777	2785
803.919	2895
804.061	3237
804.204	2971
804.346	2933
804.488	2880
804.63	3009
804.773	2887
804.915	2914
805.057	3116
805.199	2925
805.341	2986
805.483	3047
805.626	2998
805.768	2975
805.91	3055
806.052	3127
806.194	3058
806.336	3241
806.478	3055
806.62	2982
806.762	2956
806.904	3085
807.046	3161
807.188	2986
807.33	2914
807.472	3024
807.614	2914
807.756	2986
807.898	2963
808.04	2876
808.182	2975
808.324	2925
808.465	2891
808.607	2880
808.749	2819
808.891	2845
809.033	2971
809.174	2960
809.316	2902
809.458	2891
809.6	2773
809.741	2762
809.883	2796
810.025	2914
810.166	2864
810.308	2823
810.45	2880
810.591	2815
810.733	2800
810.875	2876
811.016	2823
811.158	2762
811.299	2842
811.441	2994
811.582	2922
811.724	2823
811.865	2834
812.007	2952
812.148	2883
812.29	2899
812.431	2899
812.573	2956
812.714	2948
812.855	3028
812.997	3024
813.138	3142
813.279	3024
813.421	2937
813.562	2944
813.703	2891
813.845	2872
813.986	2773
814.127	2743
814.268	2845
814.41	2864
814.551	2823
814.692	2864
814.833	2823
814.974	2895
815.115	2994
815.256	2849
815.397	2834
815.539	2887
815.68	2781
815.821	2815
815.962	2971
816.103	2986
816.244	2902
816.385	2872
816.526	3005
816.666	2910
816.807	2773
816.948	2883
817.089	2895
817.23	2857
817.371	2800
817.512	2792
817.653	2857
817.793	2838
817.934	2914
818.075	2986
818.216	2963
818.356	3047
818.497	2872
818.638	2811
818.778	2834
818.919	2800
819.06	2788
819.2	2910
819.341	2826
819.481	2807
819.622	2925
819.762	3085
819.903	3058
820.043	2963
820.184	2937
820.324	2910
820.465	3055
820.605	3055
820.746	2994
820.886	2952
821.026	3127
821.167	3146
821.307	3253
821.447	3283
821.588	3253
821.728	3199
821.868	3245
822.008	3070
822.149	3207
822.289	3264
822.429	3112
822.569	3066
822.709	3165
822.849	3024
822.99	3074
823.13	3184
823.27	3180
823.41	3097
823.55	3131
823.69	3173
823.83	3188
823.97	3093
824.11	2990
824.25	3005
824.389	3085
824.529	3123
824.669	3051
824.809	3237
824.949	3260
825.089	3233
825.228	3192
825.368	3017
825.508	2982
825.648	2960
825.787	3013
825.927	3032
826.067	2956
826.206	2967
826.346	3047
826.485	3081
826.625	3104
826.765	3294
826.904	3211
827.044	2990
827.183	2956
827.323	2902
827.462	2990
827.601	2960
827.741	2902
827.88	2929
828.02	2876
828.159	2982
828.298	3032
828.437	3138
828.577	3036
828.716	3230
828.855	3074
828.994	2941
829.134	2902
829.273	2925
829.412	2895
829.551	2887
829.69	2914
829.829	2998
829.968	3112
830.107	3055
830.246	3017
830.385	2944
830.524	2872
830.663	2826
830.802	2731
830.941	2632
831.08	2670
831.219	2743
831.357	2777
831.496	2899
831.635	2735
831.774	2667
831.913	2693
832.051	2568
832.19	2564
832.329	2720
832.467	2522
832.606	2499
832.744	2625
832.883	2602
833.022	2606
833.16	2667
833.299	2697
833.437	2678
833.576	2712
833.714	2701
833.852	2766
833.991	2777
834.129	2849
834.267	2838
834.406	2762
834.544	2906
834.682	2918
834.821	2880
834.959	3081
835.097	2929
835.235	3085
835.373	3009
835.511	3017
835.65	2967
835.788	2971
835.926	2834
836.064	2807
836.202	2845
836.34	3070
836.478	3123
836.615	3036
836.753	3142
836.891	3222
837.029	3165
837.167	3157
837.305	3062
837.443	3055
837.58	3001
837.718	3135
837.856	3051
837.993	2990
838.131	3119
838.269	3100
838.406	3116
838.544	3039
838.681	2948
838.819	2948
838.956	2815
839.094	2845
839.231	2933
839.369	3020
839.506	3374
839.643	3192
839.781	3013
839.918	2994
840.055	3043
840.193	3047
840.33	3081
840.467	3097
840.604	3161
840.742	3397
840.879	3051
841.016	3039
841.153	3127
841.29	3359
841.427	3302
841.564	3298
841.701	3329
841.838	3245
841.975	3188
842.112	3203
842.249	3066
842.385	3032
842.522	3256
842.659	3089
842.796	3097
842.933	3104
843.069	3013
843.206	3028
843.343	3173
843.479	3077
843.616	3116
843.752	2899
843.889	2853
844.025	3085
844.162	2895
844.298	3077
844.435	2922
844.571	2918
844.708	3089
844.844	3173
844.98	3279
845.117	3195
845.253	3062
845.389	2990
845.525	3085
845.661	3081
845.798	3036
845.934	3127
846.07	3112
846.206	3180
846.342	3355
846.478	3222
846.614	3070
846.75	3062
846.886	3017
847.022	3230
847.158	3146
847.294	3222
847.429	3283
847.565	3222
847.701	3500
847.837	3013
847.972	3013
848.108	3165
848.244	3146
848.379	2975
848.515	2948
848.65	2895
848.786	2986
848.921	3024
849.057	3135
849.192	3169
849.328	3062
849.463	3131
849.598	3081
849.734	3055
849.869	2975
850.004	2925
850.14	3009
850.275	2895
850.41	2868
850.545	2872
850.68	2944
850.815	2941
850.95	2982
851.085	3192
851.22	3051
851.355	3051
851.49	2986
851.625	2975
851.76	3036
851.895	2941
852.03	2971
852.165	3017
852.299	3100
852.434	3176
852.569	3169
852.703	3161
852.838	3260
852.973	3367
853.107	3332
853.242	3138
853.376	3081
853.511	3009
853.645	3032
853.78	3192
853.914	3123
854.048	3131
854.183	3085
854.317	3154
854.451	3275
854.585	3127
854.72	3089
854.854	3249
854.988	3043
855.122	3081
855.256	2933
855.39	3104
855.524	3222
855.658	3150
855.792	3142
855.926	3184
856.06	3230
856.194	3245
856.327	3135
856.461	3062
856.595	3100
856.729	3062
856.862	3226
856.996	3138
857.13	3214
857.263	3218
857.397	3233
857.53	3100
857.664	3173
857.797	3245
857.931	3249
858.064	3131
858.197	3218
858.331	3146
858.464	3089
858.597	2998
858.731	3112
858.864	3138
858.997	3089
859.13	3123
859.263	3222
859.396	3199
859.529	3081
859.662	3081
859.795	3070
859.928	3112
860.061	3310
860.194	3260
860.327	3138
860.46	3085
860.592	3241
860.725	3275
860.858	3249
860.99	3112
861.123	3020
861.256	3043
861.388	3119
861.521	3682
861.653	3001
861.786	2975
861.918	2971
862.05	3028
862.183	3081
862.315	3176
862.447	3157
862.58	3108
862.712	2952
862.844	2853
862.976	3013
863.108	3036
863.24	3405
863.372	2883
863.504	2956
863.636	2944
863.768	2986
863.9	2967
864.032	2910
864.164	2929
864.296	3020
864.428	3062
864.559	3074
864.691	3085
864.823	3066
864.954	3020
865.086	3055
865.217	3039
865.349	2944
865.48	2979
865.612	3001
865.743	3165
865.875	2975
866.006	2925
866.137	2975
866.269	2944
866.4	2918
866.531	2902
866.662	2891
866.793	2872
866.924	2880
867.055	2975
867.186	2960
867.317	2872
867.448	2834
867.579	2857
867.71	2861
867.841	2807
867.972	2891
868.103	2933
868.233	2876
868.364	2887
868.495	2899
868.625	3097
868.756	3165
868.886	2979
869.017	3028
869.147	3142
869.278	3157
869.408	3077
869.539	3055
869.669	3089
869.799	3032
869.929	3116
870.06	3093
870.19	3332
870.32	3302
870.45	3306
870.58	3378
870.71	3393
870.84	3477
870.97	3317
871.1	3237
871.23	3500
871.36	3447
871.489	3386
871.619	3382
871.749	3401
871.879	3435
872.008	3473
872.138	3351
872.267	3287
872.397	3112
872.526	3081
872.656	3005
872.785	3089
872.915	3211
873.044	3298
873.173	3203
873.303	3211
873.432	3260
873.561	3211
873.69	3176
873.819	3154
873.948	3135
874.077	3104
874.206	3089
874.335	3070
874.464	3230
874.593	3370
874.722	3218
874.851	3416
874.979	3325
875.108	3329
875.237	3169
875.365	3173
875.494	3165
875.623	3211
875.751	3055
875.88	3135
876.008	3176
876.136	3207
876.265	3363
876.393	3500
876.521	3420
876.65	3397
876.778	3317
876.906	3256
877.034	3184
877.162	3222
877.29	3180
877.418	3233
877.546	3222
877.674	3237
877.802	3203
877.93	3203
878.058	3184
878.185	3112
878.313	3218
878.441	3222
878.568	3062
878.696	3157
878.824	3279
878.951	3279
879.079	3389
879.206	3576
879.333	3420
879.461	3287
879.588	3374
879.715	3477
879.842	3618
879.97	3382
880.097	3173
880.224	3138
880.351	3211
880.478	3253
880.605	3180
880.732	3207
880.859	3492
880.986	3317
881.112	3336
881.239	3180
881.366	3055
881.493	3043
881.619	3013
881.746	3077
881.872	3104
881.999	3077
882.125	3131
882.252	3241
882.378	3256
882.505	3443
882.631	3275
882.757	3142
882.883	3192
883.01	3192
883.136	3173
883.262	3081
883.388	3157
883.514	3321
883.64	3389
883.766	3344
883.892	3214
884.018	3241
884.143	3416
884.269	3568
884.395	3195
884.52	3169
884.646	3173
884.772	3131
884.897	3097
885.023	3218
885.148	3336
885.274	3428
885.399	3348
885.524	3272
885.65	3249
885.775	3313
885.9	3275
886.025	3428
886.15	3382
886.275	3298
886.4	3226
886.525	3291
886.65	3291
886.775	3275
886.9	3466
887.025	3656
887.149	3397
887.274	3241
887.399	3157
887.523	3226
887.648	3199
887.773	3176
887.897	3351
888.021	3412
888.146	3279
888.27	3439
888.395	3580
888.519	3431
888.643	3428
888.767	3477
888.891	3321
889.015	3256
889.139	3287
889.263	3249
889.387	3374
889.511	3500
889.635	3428
889.759	3272
889.883	3283
890.006	3321
890.13	3481
890.254	3291
890.377	3332
890.501	3214
890.624	3146
890.748	3317
890.871	3157
890.995	3097
891.118	3062
891.241	3154
891.364	3233
891.488	3287
891.611	3173
891.734	3218
891.857	3344
891.98	3245
892.103	3325
892.226	3260
892.349	3188
892.471	3150
892.594	3230
892.717	3298
892.839	3260
892.962	3279
893.085	3359
893.207	3291
893.33	3154
893.452	3275
893.575	3332
893.697	3241
893.819	3477
893.941	3462
894.064	3397
894.186	3294
894.308	3275
894.43	3416
894.552	3526
894.674	3447
894.796	3253
894.918	3291
895.04	3272
895.161	3435
895.283	3374
895.405	3340
895.526	3340
895.648	3416
895.769	3424
895.891	3443
896.012	3481
896.134	3428
896.255	3389
896.376	3378
896.498	3359
896.619	3393
896.74	3336
896.861	3412
896.982	3633
897.103	3812
897.224	3584
897.345	3500
897.466	3454
897.587	3435
897.708	3618
897.828	3557
897.949	3401
898.07	3310
898.19	3409
898.311	3656
898.431	3428
898.552	3511
898.672	3656
898.792	3564
898.913	3519
899.033	3416
899.153	3336
899.273	3211
899.393	3302
899.513	3306
899.633	3313
899.753	3336
899.873	3329
899.993	3382
900.113	3374
900.232	3416
900.352	3306
900.472	3291
900.591	3173
900.711	3313
900.83	3268
900.95	3409
901.069	3492
901.189	3386
901.308	3146
901.427	3135
901.546	3207
901.665	3298
901.784	3359
901.904	3176
902.023	3142
902.141	3028
902.26	3001
902.379	3161
902.498	3062
902.617	3036
902.735	3184
902.854	3245
902.973	3184
903.091	3032
903.21	3039
903.328	3131
903.446	3123
903.565	3104
903.683	3211
903.801	3100
903.919	3268
904.038	3260
904.156	3161
904.274	3268
904.392	3218
904.51	3260
904.627	3321
904.745	3401
904.863	3504
904.981	3302
905.098	3154
905.216	3260
905.334	3302
905.451	3294
905.569	3294
905.686	3431
905.803	3458
905.921	3310
906.038	3378
906.155	3340
906.272	3256
906.389	3313
906.506	3237
906.623	3256
906.74	3275
906.857	3169
906.974	3287
907.091	3447
907.208	3595
907.324	3466
907.441	3359
907.557	3199
907.674	3218
907.79	3218
907.907	3268
908.023	3348
908.139	3382
908.256	3313
908.372	3344
908.488	3329
908.604	3226
908.72	3264
908.836	3268
908.952	3230
909.068	3340
909.184	3477
909.3	3420
909.415	3473
909.531	3492
909.647	3283
909.762	3313
909.878	3245
909.993	3336
910.108	3313
910.224	3317
910.339	3389
910.454	3351
910.57	3298
910.685	3207
910.8	3606
910.915	3523
911.03	3424
911.145	3291
911.259	3310
911.374	3310
911.489	3260
911.604	3253
911.718	3157
911.833	3150
911.947	3020
912.062	2971
912.176	3173
912.291	3192
912.405	3214
912.519	3405
912.633	3477
912.748	3359
912.862	3249
912.976	3165
913.09	3074
913.204	3142
913.318	3203
913.431	3313
913.545	3336
913.659	3405
913.772	3355
913.886	3218
914	3180
914.113	3355
914.226	3374
914.34	3393
914.453	3180
914.566	3431
914.68	3317
914.793	3306
914.906	3146
915.019	3077
915.132	3062
915.245	3123
915.358	3150
915.47	3230
915.583	3306
915.696	3317
915.809	3374
915.921	3466
916.034	3233
916.146	3249
916.259	3218
916.371	3378
916.483	3359
916.595	3230
916.708	3374
916.82	3359
916.932	3306
917.044	3329
917.156	3329
917.268	3230
917.38	3264
917.491	3272
917.603	3382
917.715	3420
917.826	3416
917.938	3340
918.049	3268
918.161	3389
918.272	3530
918.384	3545
918.495	3488
918.606	3351
918.717	3256
918.828	3359
918.939	3386
919.05	3344
919.161	3370
919.272	3180
919.383	3256
919.494	3466
919.604	3671
919.715	3488
919.826	3424
919.936	3462
920.047	3587
920.157	3564
920.267	3740
920.378	3591
920.488	3561
920.598	3785
920.708	3907
920.818	3831
920.928	3873
921.038	3998
921.148	3998
921.258	3709
921.368	3667
921.477	3564
921.587	3530
921.697	3458
921.806	3614
921.916	3523
922.025	3321
922.134	3382
922.244	3317
922.353	3439
922.462	3268
922.571	3230
922.68	3070
922.789	3024
922.898	3138
923.007	3081
923.116	3211
923.224	3169
923.333	3165
923.442	3100
923.55	3097
923.659	3157
923.767	3199
923.876	3085
923.984	3241
924.092	3066
924.201	3195
924.309	3211
924.417	3207
924.525	3207
924.633	3203
924.741	4025
924.849	3055
924.956	3268
925.064	3070
925.172	3051
925.279	3066
925.387	3173
925.494	3207
925.602	3325
925.709	3321
925.816	3184
925.924	3294
926.031	3393
926.138	3317
926.245	3370
926.352	3279
926.459	3397
926.566	3462
926.673	3313
926.779	3249
926.886	3218
926.993	3154
927.099	3123
927.206	3097
927.312	3127
927.419	3241
927.525	3195
927.631	3279
927.737	3116
927.843	3135
927.95	3062
928.056	3146
928.162	3176
928.267	3237
928.373	3789
928.479	3317
928.585	3062
928.69	3176
928.796	3279
928.901	3161
929.007	3055
929.112	3211
929.218	3169
929.323	3161
929.428	3116
929.533	3283
929.638	3169
929.743	3146
929.848	3245
929.953	3241
930.058	3127
930.163	2982
930.267	3058
930.372	3180
930.477	3043
930.581	3313
930.685	3188
930.79	3058
930.894	3100
930.998	3077
931.103	3253
931.207	3005
931.311	2925
931.415	2887
931.519	2792
931.623	2823
