Data from test_V78500241_1100.txt Node
Date: Fri Mar 25 16:22:49 CST 2022
User: usil
Spectrometer: V785-0024
Trigger mode: 0
Integration Time (sec): 4.000000E-1
Scans to average: 1
Nonlinearity correction enabled: false
Boxcar width: 0
Storing dark spectrum: false
XAxis mode: Wavelengths
Number of Pixels in Spectrum: 1024
>>>>>Begin Spectral Data<<<<<
801.071	2918
801.214	2937
801.356	2864
801.499	2902
801.641	2849
801.783	2902
801.926	3047
802.068	2986
802.211	2963
802.353	3051
802.496	2944
802.638	2990
802.78	3028
802.923	3043
803.065	3013
803.208	2883
803.35	2906
803.492	2910
803.635	2891
803.777	2769
803.919	2876
804.061	3176
804.204	2925
804.346	2906
804.488	2838
804.63	2998
804.773	2868
804.915	2914
805.057	3043
805.199	2906
805.341	2956
805.483	3043
805.626	2975
805.768	2967
805.91	3097
806.052	3104
806.194	3058
806.336	3233
806.478	3062
806.62	2979
806.762	2960
806.904	3066
807.046	3150
807.188	3013
807.33	2910
807.472	3001
807.614	2910
807.756	2982
807.898	2906
808.04	2906
808.182	2944
808.324	2933
808.465	2868
808.607	2906
808.749	2781
808.891	2864
809.033	2922
809.174	2986
809.316	2880
809.458	2895
809.6	2739
809.741	2773
809.883	2781
810.025	2845
810.166	2830
810.308	2887
810.45	2838
810.591	2750
810.733	2773
810.875	2838
811.016	2750
811.158	2766
811.299	2800
811.441	2929
811.582	2883
811.724	2834
811.865	2823
812.007	2906
812.148	2883
812.29	2823
812.431	2880
812.573	2941
812.714	2960
812.855	3036
812.997	3028
813.138	3108
813.279	3024
813.421	2963
813.562	2971
813.703	2880
813.845	2876
813.986	2804
814.127	2735
814.268	2819
814.41	2838
814.551	2788
814.692	2838
814.833	2830
814.974	2861
815.115	2948
815.256	2796
815.397	2815
815.539	2906
815.68	2777
815.821	2796
815.962	2944
816.103	2933
816.244	2883
816.385	2838
816.526	2952
816.666	2910
816.807	2724
816.948	2895
817.089	2914
817.23	2845
817.371	2823
817.512	2743
817.653	2804
817.793	2823
817.934	2899
818.075	2967
818.216	3036
818.356	3017
818.497	2891
818.638	2796
818.778	2815
818.919	2792
819.06	2777
819.2	2899
819.341	2785
819.481	2773
819.622	2933
819.762	3074
819.903	3017
820.043	2937
820.184	2925
820.324	2918
820.465	3005
820.605	3036
820.746	3017
820.886	2883
821.026	3077
821.167	3173
821.307	3283
821.447	3291
821.588	3214
821.728	3211
821.868	3157
822.008	3066
822.149	3165
822.289	3230
822.429	3093
822.569	3081
822.709	3154
822.849	3055
822.99	3074
823.13	3116
823.27	3199
823.41	3108
823.55	3119
823.69	3127
823.83	3192
823.97	3093
824.11	2990
824.25	2982
824.389	3089
824.529	3131
824.669	3077
824.809	3192
824.949	3264
825.089	3211
825.228	3165
825.368	3009
825.508	2948
825.648	2941
825.787	2960
825.927	3013
826.067	2948
826.206	2982
826.346	3036
826.485	3058
826.625	3074
826.765	3226
826.904	3188
827.044	2963
827.183	2933
827.323	2899
827.462	2975
827.601	2872
827.741	2906
827.88	2944
828.02	2857
828.159	2922
828.298	3005
828.437	3119
828.577	3024
828.716	3226
828.855	3093
828.994	2944
829.134	2864
829.273	2925
829.412	2887
829.551	2883
829.69	2895
829.829	2998
829.968	3108
830.107	2994
830.246	3032
830.385	2937
830.524	2910
830.663	2796
830.802	2705
830.941	2667
831.08	2648
831.219	2762
831.357	2739
831.496	2944
831.635	2697
831.774	2655
831.913	2659
832.051	2549
832.19	2610
832.329	2655
832.467	2526
832.606	2473
832.744	2560
832.883	2560
833.022	2560
833.16	2644
833.299	2655
833.437	2689
833.576	2720
833.714	2712
833.852	2712
833.991	2762
834.129	2880
834.267	2823
834.406	2792
834.544	2902
834.682	2872
834.821	2845
834.959	3051
835.097	2910
835.235	3077
835.373	2944
835.511	3024
835.65	2944
835.788	2952
835.926	2845
836.064	2815
836.202	2849
836.34	3093
836.478	3180
836.615	3055
836.753	3138
836.891	3154
837.029	3108
837.167	3112
837.305	3043
837.443	3032
837.58	2971
837.718	3119
837.856	3043
837.993	3043
838.131	3127
838.269	3123
838.406	3112
838.544	3055
838.681	2967
838.819	2956
838.956	2811
839.094	2834
839.231	2918
839.369	2998
839.506	3351
839.643	3184
839.781	3017
839.918	2956
840.055	3081
840.193	3047
840.33	3093
840.467	3070
840.604	3097
840.742	3389
840.879	3036
841.016	3051
841.153	3104
841.29	3306
841.427	3272
841.564	3279
841.701	3294
841.838	3192
841.975	3154
842.112	3218
842.249	3085
842.385	3001
842.522	3249
842.659	3077
842.796	3051
842.933	3039
843.069	3036
843.206	3062
843.343	3184
843.479	3104
843.616	3131
843.752	2933
843.889	2804
844.025	3093
844.162	2895
844.298	3100
844.435	2925
844.571	2906
844.708	3081
844.844	3161
844.98	3188
845.117	3203
845.253	3039
845.389	2979
845.525	3081
845.661	3055
845.798	3028
845.934	3119
846.07	3020
846.206	3211
846.342	3294
846.478	3207
846.614	3093
846.75	3051
846.886	2998
847.022	3199
847.158	3108
847.294	3173
847.429	3230
847.565	3226
847.701	3519
847.837	2994
847.972	2975
848.108	3131
848.244	3138
848.379	2982
848.515	2941
848.65	2918
848.786	2952
848.921	3017
849.057	3062
849.192	3108
849.328	3043
849.463	3119
849.598	3039
849.734	3001
849.869	2967
850.004	2899
850.14	2982
850.275	2933
850.41	2857
850.545	2845
850.68	2880
850.815	2914
850.95	2971
851.085	3188
851.22	3123
851.355	3028
851.49	3005
851.625	2994
851.76	2994
851.895	2922
852.03	2880
852.165	3013
852.299	3097
852.434	3138
852.569	3142
852.703	3188
852.838	3237
852.973	3317
853.107	3306
853.242	3119
853.376	3089
853.511	2967
853.645	3024
853.78	3226
853.914	3104
854.048	3112
854.183	3074
854.317	3150
854.451	3332
854.585	3104
854.72	3085
854.854	3218
854.988	3100
855.122	3085
855.256	2956
855.39	3058
855.524	3195
855.658	3169
855.792	3142
855.926	3207
856.06	3211
856.194	3291
856.327	3169
856.461	3074
856.595	3074
856.729	3100
856.862	3195
856.996	3154
857.13	3192
857.263	3188
857.397	3233
857.53	3154
857.664	3173
857.797	3230
857.931	3253
858.064	3154
858.197	3211
858.331	3150
858.464	3085
858.597	3005
858.731	3089
858.864	3131
858.997	3089
859.13	3135
859.263	3176
859.396	3199
859.529	3047
859.662	3070
859.795	3055
859.928	3180
860.061	3294
860.194	3298
860.327	3150
860.46	3100
860.592	3249
860.725	3249
860.858	3233
860.99	3074
861.123	3039
861.256	3047
861.388	3142
861.521	3667
861.653	3005
861.786	2971
861.918	2994
862.05	3032
862.183	3070
862.315	3146
862.447	3230
862.58	3108
862.712	2975
862.844	2872
862.976	2986
863.108	3001
863.24	3431
863.372	2864
863.504	2960
863.636	2952
863.768	3032
863.9	2960
864.032	2895
864.164	2922
864.296	3028
864.428	3108
864.559	3123
864.691	3062
864.823	3055
864.954	3039
865.086	3055
865.217	2967
865.349	2929
865.48	2960
865.612	3043
865.743	3127
865.875	2971
866.006	2963
866.137	3020
866.269	2929
866.4	2922
866.531	2918
866.662	2849
866.793	2880
866.924	2891
867.055	2971
867.186	2929
867.317	2849
867.448	2849
867.579	2834
867.71	2849
867.841	2796
867.972	2891
868.103	2906
868.233	2861
868.364	2883
868.495	2872
868.625	3058
868.756	3195
868.886	2941
869.017	2960
869.147	3169
869.278	3135
869.408	3032
869.539	3043
869.669	3116
869.799	3036
869.929	3142
870.06	3081
870.19	3336
870.32	3294
870.45	3298
870.58	3367
870.71	3447
870.84	3481
870.97	3275
871.1	3249
871.23	3443
871.36	3439
871.489	3359
871.619	3332
871.749	3363
871.879	3466
872.008	3485
872.138	3355
872.267	3329
872.397	3119
872.526	3104
872.656	2982
872.785	3058
872.915	3222
873.044	3298
873.173	3279
873.303	3253
873.432	3222
873.561	3233
873.69	3142
873.819	3154
873.948	3165
874.077	3093
874.206	3043
874.335	3062
874.464	3214
874.593	3344
874.722	3211
874.851	3424
874.979	3351
875.108	3310
875.237	3184
875.365	3157
875.494	3169
875.623	3230
875.751	3077
875.88	3135
876.008	3199
876.136	3226
876.265	3329
876.393	3530
876.521	3447
876.65	3393
876.778	3321
876.906	3256
877.034	3192
877.162	3195
877.29	3180
877.418	3203
877.546	3241
877.674	3249
877.802	3214
877.93	3192
878.058	3165
878.185	3131
878.313	3192
878.441	3195
878.568	3085
878.696	3165
878.824	3211
878.951	3283
879.079	3477
879.206	3603
879.333	3435
879.461	3348
879.588	3310
879.715	3481
879.842	3591
879.97	3367
880.097	3157
880.224	3142
880.351	3214
880.478	3195
880.605	3176
880.732	3199
880.859	3466
880.986	3306
881.112	3336
881.239	3180
881.366	3119
881.493	3055
881.619	3013
881.746	3047
881.872	3055
881.999	3089
882.125	3176
882.252	3237
882.378	3268
882.505	3450
882.631	3283
882.757	3127
882.883	3214
883.01	3211
883.136	3081
883.262	3108
883.388	3112
883.514	3321
883.64	3393
883.766	3310
883.892	3180
884.018	3249
884.143	3435
884.269	3507
884.395	3195
884.52	3188
884.646	3169
884.772	3112
884.897	3123
885.023	3199
885.148	3321
885.274	3435
885.399	3336
885.524	3237
885.65	3237
885.775	3298
885.9	3294
886.025	3397
886.15	3386
886.275	3302
886.4	3218
886.525	3313
886.65	3230
886.775	3256
886.9	3466
887.025	3656
887.149	3450
887.274	3268
887.399	3195
887.523	3218
887.648	3161
887.773	3222
887.897	3348
888.021	3386
888.146	3321
888.27	3378
888.395	3519
888.519	3393
888.643	3458
888.767	3443
888.891	3325
889.015	3241
889.139	3310
889.263	3241
889.387	3416
889.511	3477
889.635	3431
889.759	3245
889.883	3287
890.006	3363
890.13	3469
890.254	3260
890.377	3321
890.501	3203
890.624	3184
890.748	3321
890.871	3192
890.995	3112
891.118	3058
891.241	3195
891.364	3226
891.488	3332
891.611	3188
891.734	3222
891.857	3291
891.98	3222
892.103	3332
892.226	3310
892.349	3211
892.471	3085
892.594	3195
892.717	3325
892.839	3279
892.962	3253
893.085	3310
893.207	3268
893.33	3150
893.452	3203
893.575	3321
893.697	3256
893.819	3462
893.941	3492
894.064	3450
894.186	3268
894.308	3218
894.43	3428
894.552	3549
894.674	3485
894.796	3294
894.918	3302
895.04	3260
895.161	3431
895.283	3378
895.405	3329
895.526	3321
895.648	3428
895.769	3431
895.891	3496
896.012	3435
896.134	3450
896.255	3386
896.376	3386
896.498	3359
896.619	3424
896.74	3367
896.861	3405
896.982	3671
897.103	3869
897.224	3564
897.345	3515
897.466	3454
897.587	3523
897.708	3606
897.828	3523
897.949	3458
898.07	3321
898.19	3386
898.311	3648
898.431	3454
898.552	3530
898.672	3580
898.792	3595
898.913	3542
899.033	3386
899.153	3249
899.273	3226
899.393	3291
899.513	3256
899.633	3317
899.753	3306
899.873	3340
899.993	3370
900.113	3351
900.232	3367
900.352	3321
900.472	3294
900.591	3180
900.711	3275
900.83	3264
900.95	3420
901.069	3473
901.189	3344
901.308	3161
901.427	3146
901.546	3176
901.665	3310
901.784	3329
901.904	3199
902.023	3165
902.141	3009
902.26	3009
902.379	3142
902.498	3085
902.617	3036
902.735	3180
902.854	3214
902.973	3199
903.091	3028
903.21	3066
903.328	3123
903.446	3142
903.565	3066
903.683	3195
903.801	3135
903.919	3230
904.038	3294
904.156	3146
904.274	3275
904.392	3241
904.51	3268
904.627	3317
904.745	3435
904.863	3469
904.981	3249
905.098	3169
905.216	3237
905.334	3306
905.451	3253
905.569	3283
905.686	3431
905.803	3443
905.921	3264
906.038	3424
906.155	3351
906.272	3245
906.389	3325
906.506	3222
906.623	3302
906.74	3268
906.857	3188
906.974	3264
907.091	3439
907.208	3519
907.324	3485
907.441	3401
907.557	3241
907.674	3241
907.79	3203
907.907	3260
908.023	3401
908.139	3393
908.256	3340
908.372	3370
908.488	3374
908.604	3279
908.72	3253
908.836	3268
908.952	3268
909.068	3378
909.184	3477
909.3	3420
909.415	3466
909.531	3447
909.647	3275
909.762	3268
909.878	3272
909.993	3359
910.108	3313
910.224	3351
910.339	3447
910.454	3291
910.57	3306
910.685	3211
910.8	3591
910.915	3534
911.03	3477
911.145	3256
911.259	3256
911.374	3287
911.489	3222
911.604	3222
911.718	3077
911.833	3154
911.947	3032
912.062	2994
912.176	3169
912.291	3176
912.405	3207
912.519	3389
912.633	3466
912.748	3344
912.862	3287
912.976	3173
913.09	3039
913.204	3161
913.318	3180
913.431	3336
913.545	3325
913.659	3443
913.772	3321
913.886	3211
914	3180
914.113	3363
914.226	3435
914.34	3367
914.453	3222
914.566	3393
914.68	3249
914.793	3306
914.906	3127
915.019	3123
915.132	3066
915.245	3173
915.358	3218
915.47	3211
915.583	3253
915.696	3279
915.809	3409
915.921	3412
916.034	3260
916.146	3253
916.259	3230
916.371	3340
916.483	3370
916.595	3233
916.708	3374
916.82	3329
916.932	3313
917.044	3351
917.156	3348
917.268	3268
917.38	3302
917.491	3344
917.603	3340
917.715	3431
917.826	3485
917.938	3378
918.049	3222
918.161	3397
918.272	3572
918.384	3606
918.495	3424
918.606	3378
918.717	3294
918.828	3374
918.939	3409
919.05	3287
919.161	3336
919.272	3157
919.383	3275
919.494	3511
919.604	3656
919.715	3485
919.826	3409
919.936	3447
920.047	3568
920.157	3564
920.267	3747
920.378	3625
920.488	3542
920.598	3770
920.708	3926
920.818	3857
920.928	3816
921.038	4021
921.148	4013
921.258	3720
921.368	3580
921.477	3580
921.587	3538
921.697	3466
921.806	3610
921.916	3534
922.025	3344
922.134	3370
922.244	3302
922.353	3428
922.462	3256
922.571	3226
922.68	3100
922.789	3039
922.898	3108
923.007	3108
923.116	3214
923.224	3150
923.333	3192
923.442	3100
923.55	3100
923.659	3157
923.767	3203
923.876	3097
923.984	3218
924.092	3112
924.201	3176
924.309	3195
924.417	3249
924.525	3176
924.633	3237
924.741	4021
924.849	3077
924.956	3253
925.064	3097
925.172	3066
925.279	3123
925.387	3173
925.494	3195
925.602	3367
925.709	3306
925.816	3180
925.924	3264
926.031	3374
926.138	3325
926.245	3367
926.352	3237
926.459	3389
926.566	3469
926.673	3306
926.779	3268
926.886	3245
926.993	3157
927.099	3112
927.206	3070
927.312	3135
927.419	3249
927.525	3214
927.631	3256
927.737	3127
927.843	3138
927.95	3013
928.056	3135
928.162	3123
928.267	3256
928.373	3869
928.479	3306
928.585	3062
928.69	3226
928.796	3287
928.901	3142
929.007	3058
929.112	3203
929.218	3199
929.323	3104
929.428	3138
929.533	3317
929.638	3119
929.743	3169
929.848	3211
929.953	3226
930.058	3150
930.163	3009
930.267	3032
930.372	3195
930.477	3055
930.581	3313
930.685	3188
930.79	3074
930.894	3150
930.998	3093
931.103	3298
931.207	2944
931.311	2906
931.415	2914
931.519	2773
931.623	2807
