Data from test_V78500241_218.txt Node
Date: Fri Mar 25 16:16:42 CST 2022
User: usil
Spectrometer: V785-0024
Trigger mode: 0
Integration Time (sec): 4.000000E-1
Scans to average: 1
Nonlinearity correction enabled: false
Boxcar width: 0
Storing dark spectrum: false
XAxis mode: Wavelengths
Number of Pixels in Spectrum: 1024
>>>>>Begin Spectral Data<<<<<
801.071	2929
801.214	2948
801.356	2887
801.499	2902
801.641	2823
801.783	2918
801.926	3058
802.068	2998
802.211	3039
802.353	3039
802.496	2956
802.638	3028
802.78	3051
802.923	3062
803.065	3013
803.208	2925
803.35	2891
803.492	2944
803.635	2952
803.777	2750
803.919	2857
804.061	3222
804.204	2952
804.346	2887
804.488	2902
804.63	2994
804.773	2880
804.915	2929
805.057	3116
805.199	2887
805.341	2975
805.483	3032
805.626	2994
805.768	2979
805.91	3070
806.052	3097
806.194	3036
806.336	3249
806.478	3024
806.62	2948
806.762	2975
806.904	3036
807.046	3173
807.188	2982
807.33	2933
807.472	2986
807.614	2880
807.756	3024
807.898	2937
808.04	2925
808.182	2979
808.324	2971
808.465	2895
808.607	2864
808.749	2785
808.891	2815
809.033	2944
809.174	3001
809.316	2887
809.458	2895
809.6	2731
809.741	2781
809.883	2788
810.025	2845
810.166	2838
810.308	2849
810.45	2864
810.591	2800
810.733	2743
810.875	2823
811.016	2781
811.158	2788
811.299	2811
811.441	2998
811.582	2895
811.724	2823
811.865	2823
812.007	2910
812.148	2845
812.29	2868
812.431	2929
812.573	2952
812.714	2971
812.855	3028
812.997	3043
813.138	3123
813.279	2986
813.421	2971
813.562	2941
813.703	2849
813.845	2880
813.986	2746
814.127	2727
814.268	2826
814.41	2842
814.551	2804
814.692	2895
814.833	2838
814.974	2914
815.115	2933
815.256	2830
815.397	2785
815.539	2876
815.68	2777
815.821	2762
815.962	2967
816.103	2929
816.244	2922
816.385	2864
816.526	2975
816.666	2937
816.807	2720
816.948	2895
817.089	2918
817.23	2842
817.371	2815
817.512	2838
817.653	2849
817.793	2819
817.934	2883
818.075	2956
818.216	3024
818.356	3039
818.497	2944
818.638	2792
818.778	2807
818.919	2811
819.06	2735
819.2	2883
819.341	2830
819.481	2796
819.622	2952
819.762	3077
819.903	3055
820.043	2899
820.184	2925
820.324	2872
820.465	2975
820.605	3005
820.746	3005
820.886	2941
821.026	3108
821.167	3123
821.307	3260
821.447	3218
821.588	3214
821.728	3222
821.868	3173
822.008	3116
822.149	3211
822.289	3214
822.429	3085
822.569	3093
822.709	3188
822.849	3017
822.99	3085
823.13	3146
823.27	3207
823.41	3127
823.55	3127
823.69	3123
823.83	3154
823.97	3074
824.11	2994
824.25	2963
824.389	3085
824.529	3154
824.669	3097
824.809	3184
824.949	3253
825.089	3230
825.228	3169
825.368	2994
825.508	2952
825.648	2963
825.787	2986
825.927	3017
826.067	2960
826.206	2994
826.346	3032
826.485	3055
826.625	3157
826.765	3279
826.904	3214
827.044	3009
827.183	2929
827.323	2815
827.462	2994
827.601	2929
827.741	2944
827.88	2967
828.02	2872
828.159	3009
828.298	3039
828.437	3116
828.577	3051
828.716	3260
828.855	3077
828.994	2914
829.134	2872
829.273	2914
829.412	2887
829.551	2861
829.69	2868
829.829	3005
829.968	3119
830.107	3024
830.246	3020
830.385	2895
830.524	2872
830.663	2781
830.802	2750
830.941	2632
831.08	2636
831.219	2739
831.357	2746
831.496	2948
831.635	2750
831.774	2629
831.913	2655
832.051	2530
832.19	2541
832.329	2682
832.467	2533
832.606	2476
832.744	2579
832.883	2552
833.022	2590
833.16	2640
833.299	2689
833.437	2731
833.576	2712
833.714	2750
833.852	2705
833.991	2766
834.129	2845
834.267	2819
834.406	2773
834.544	2872
834.682	2883
834.821	2842
834.959	3093
835.097	2880
835.235	3062
835.373	2967
835.511	3032
835.65	2937
835.788	2963
835.926	2830
836.064	2800
836.202	2819
836.34	3081
836.478	3142
836.615	3039
836.753	3184
836.891	3214
837.029	3173
837.167	3097
837.305	3085
837.443	3074
837.58	3009
837.718	3184
837.856	3123
837.993	3036
838.131	3169
838.269	3154
838.406	3154
838.544	3123
838.681	2963
838.819	2963
838.956	2853
839.094	2857
839.231	2952
839.369	3047
839.506	3393
839.643	3264
839.781	3055
839.918	3028
840.055	3100
840.193	3104
840.33	3093
840.467	3116
840.604	3176
840.742	3458
840.879	3097
841.016	3116
841.153	3184
841.29	3363
841.427	3378
841.564	3275
841.701	3340
841.838	3260
841.975	3218
842.112	3294
842.249	3131
842.385	3077
842.522	3310
842.659	3157
842.796	3085
842.933	3097
843.069	3089
843.206	3104
843.343	3253
843.479	3146
843.616	3207
843.752	2971
843.889	2933
844.025	3123
844.162	2891
844.298	3100
844.435	2979
844.571	2948
844.708	3135
844.844	3283
844.98	3283
845.117	3249
845.253	3100
845.389	3047
845.525	3142
845.661	3123
845.798	3081
845.934	3184
846.07	3123
846.206	3287
846.342	3363
846.478	3302
846.614	3138
846.75	3085
846.886	3062
847.022	3291
847.158	3195
847.294	3226
847.429	3298
847.565	3287
847.701	3557
847.837	3066
847.972	3036
848.108	3218
848.244	3138
848.379	3051
848.515	3005
848.65	2998
848.786	2998
848.921	3051
849.057	3184
849.192	3222
849.328	3104
849.463	3135
849.598	3100
849.734	3089
849.869	3017
850.004	2944
850.14	2986
850.275	2963
850.41	2880
850.545	2941
850.68	2990
850.815	2990
850.95	3005
851.085	3188
851.22	3165
851.355	3070
851.49	3066
851.625	3055
851.76	3024
851.895	3013
852.03	2956
852.165	3047
852.299	3161
852.434	3287
852.569	3157
852.703	3211
852.838	3253
852.973	3374
853.107	3359
853.242	3218
853.376	3169
853.511	3013
853.645	3081
853.78	3287
853.914	3161
854.048	3161
854.183	3127
854.317	3161
854.451	3340
854.585	3192
854.72	3135
854.854	3264
854.988	3089
855.122	3150
855.256	3028
855.39	3135
855.524	3298
855.658	3192
855.792	3222
855.926	3203
856.06	3272
856.194	3279
856.327	3188
856.461	3135
856.595	3116
856.729	3138
856.862	3249
856.996	3176
857.13	3214
857.263	3275
857.397	3321
857.53	3188
857.664	3245
857.797	3275
857.931	3279
858.064	3195
858.197	3264
858.331	3184
858.464	3116
858.597	3055
858.731	3176
858.864	3150
858.997	3116
859.13	3249
859.263	3253
859.396	3241
859.529	3173
859.662	3108
859.795	3062
859.928	3157
860.061	3294
860.194	3332
860.327	3154
860.46	3173
860.592	3298
860.725	3283
860.858	3294
860.99	3146
861.123	3070
861.256	3085
861.388	3161
861.521	3888
861.653	3047
861.786	3020
861.918	2998
862.05	3142
862.183	3097
862.315	3184
862.447	3207
862.58	3161
862.712	2975
862.844	2895
862.976	3062
863.108	3047
863.24	3382
863.372	2891
863.504	3013
863.636	2986
863.768	3039
863.9	3032
864.032	2948
864.164	2986
864.296	3062
864.428	3116
864.559	3104
864.691	3116
864.823	3108
864.954	3043
865.086	3036
865.217	3047
865.349	2982
865.48	3005
865.612	3036
865.743	3173
865.875	2998
866.006	2994
866.137	2990
866.269	2990
866.4	2967
866.531	2906
866.662	2937
866.793	2956
866.924	2956
867.055	3028
867.186	2929
867.317	2910
867.448	2872
867.579	2910
867.71	2872
867.841	2861
867.972	2937
868.103	2922
868.233	2941
868.364	2925
868.495	2933
868.625	3138
868.756	3222
868.886	2948
869.017	3047
869.147	3203
869.278	3195
869.408	3066
869.539	3043
869.669	3154
869.799	3089
869.929	3154
870.06	3142
870.19	3348
870.32	3302
870.45	3348
870.58	3401
870.71	3496
870.84	3496
870.97	3329
871.1	3275
871.23	3523
871.36	3507
871.489	3412
871.619	3462
871.749	3435
871.879	3466
872.008	3511
872.138	3378
872.267	3332
872.397	3157
872.526	3131
872.656	3043
872.785	3127
872.915	3275
873.044	3336
873.173	3249
873.303	3291
873.432	3279
873.561	3264
873.69	3173
873.819	3184
873.948	3218
874.077	3123
874.206	3070
874.335	3135
874.464	3272
874.593	3397
874.722	3253
874.851	3393
874.979	3424
875.108	3336
875.237	3226
875.365	3180
875.494	3184
875.623	3287
875.751	3116
875.88	3119
876.008	3241
876.136	3268
876.265	3435
876.393	3557
876.521	3473
876.65	3393
876.778	3378
876.906	3275
877.034	3226
877.162	3256
877.29	3245
877.418	3279
877.546	3260
877.674	3310
877.802	3268
877.93	3287
878.058	3214
878.185	3135
878.313	3207
878.441	3230
878.568	3135
878.696	3146
878.824	3306
878.951	3340
879.079	3469
879.206	3644
879.333	3469
879.461	3378
879.588	3393
879.715	3496
879.842	3633
879.97	3409
880.097	3222
880.224	3188
880.351	3230
880.478	3245
880.605	3230
880.732	3241
880.859	3576
880.986	3317
881.112	3336
881.239	3233
881.366	3119
881.493	3039
881.619	3089
881.746	3119
881.872	3135
881.999	3157
882.125	3176
882.252	3298
882.378	3302
882.505	3458
882.631	3310
882.757	3154
882.883	3245
883.01	3237
883.136	3188
883.262	3135
883.388	3116
883.514	3367
883.64	3386
883.766	3325
883.892	3253
884.018	3264
884.143	3458
884.269	3568
884.395	3253
884.52	3165
884.646	3264
884.772	3150
884.897	3108
885.023	3226
885.148	3306
885.274	3477
885.399	3386
885.524	3329
885.65	3298
885.775	3336
885.9	3317
886.025	3469
886.15	3435
886.275	3348
886.4	3287
886.525	3336
886.65	3253
886.775	3291
886.9	3515
887.025	3667
887.149	3458
887.274	3298
887.399	3192
887.523	3249
887.648	3207
887.773	3230
887.897	3382
888.021	3443
888.146	3351
888.27	3488
888.395	3584
888.519	3458
888.643	3443
888.767	3523
888.891	3351
889.015	3283
889.139	3302
889.263	3279
889.387	3405
889.511	3523
889.635	3507
889.759	3359
889.883	3340
890.006	3382
890.13	3511
890.254	3287
890.377	3378
890.501	3245
890.624	3241
890.748	3359
890.871	3233
890.995	3108
891.118	3112
891.241	3195
891.364	3233
891.488	3351
891.611	3222
891.734	3283
891.857	3294
891.98	3268
892.103	3367
892.226	3283
892.349	3226
892.471	3150
892.594	3302
892.717	3302
892.839	3283
892.962	3370
893.085	3435
893.207	3325
893.33	3207
893.452	3230
893.575	3420
893.697	3264
893.819	3485
893.941	3545
894.064	3462
894.186	3325
894.308	3317
894.43	3469
894.552	3519
894.674	3500
894.796	3287
894.918	3355
895.04	3313
895.161	3439
895.283	3412
895.405	3329
895.526	3401
895.648	3450
895.769	3431
895.891	3469
896.012	3500
896.134	3500
896.255	3469
896.376	3401
896.498	3389
896.619	3458
896.74	3378
896.861	3477
896.982	3743
897.103	3892
897.224	3606
897.345	3519
897.466	3435
897.587	3515
897.708	3652
897.828	3606
897.949	3462
898.07	3382
898.19	3428
898.311	3595
898.431	3469
898.552	3511
898.672	3614
898.792	3599
898.913	3595
899.033	3458
899.153	3272
899.273	3245
899.393	3317
899.513	3329
899.633	3344
899.753	3397
899.873	3317
899.993	3409
900.113	3332
900.232	3424
900.352	3336
900.472	3279
900.591	3287
900.711	3306
900.83	3256
900.95	3424
901.069	3538
901.189	3336
901.308	3176
901.427	3138
901.546	3253
901.665	3321
901.784	3378
901.904	3233
902.023	3192
902.141	3032
902.26	3032
902.379	3161
902.498	3131
902.617	3085
902.735	3226
902.854	3241
902.973	3184
903.091	3100
903.21	3093
903.328	3157
903.446	3150
903.565	3112
903.683	3249
903.801	3112
903.919	3264
904.038	3302
904.156	3192
904.274	3351
904.392	3275
904.51	3325
904.627	3348
904.745	3477
904.863	3515
904.981	3264
905.098	3199
905.216	3214
905.334	3310
905.451	3298
905.569	3332
905.686	3488
905.803	3443
905.921	3321
906.038	3458
906.155	3348
906.272	3310
906.389	3389
906.506	3275
906.623	3310
906.74	3287
906.857	3218
906.974	3256
907.091	3447
907.208	3606
907.324	3488
907.441	3389
907.557	3233
907.674	3233
907.79	3233
907.907	3279
908.023	3393
908.139	3428
908.256	3332
908.372	3374
908.488	3378
908.604	3313
908.72	3222
908.836	3310
908.952	3325
909.068	3321
909.184	3511
909.3	3412
909.415	3557
909.531	3496
909.647	3287
909.762	3279
909.878	3283
909.993	3386
910.108	3378
910.224	3378
910.339	3428
910.454	3344
910.57	3329
910.685	3275
910.8	3595
910.915	3549
911.03	3458
911.145	3306
911.259	3298
911.374	3332
911.489	3260
911.604	3249
911.718	3154
911.833	3135
911.947	3028
912.062	3013
912.176	3165
912.291	3203
912.405	3230
912.519	3466
912.633	3500
912.748	3351
912.862	3332
912.976	3176
913.09	3058
913.204	3188
913.318	3245
913.431	3310
913.545	3313
913.659	3447
913.772	3409
913.886	3226
914	3192
914.113	3412
914.226	3397
914.34	3435
914.453	3245
914.566	3458
914.68	3294
914.793	3313
914.906	3165
915.019	3146
915.132	3081
915.245	3195
915.358	3222
915.47	3253
915.583	3272
915.696	3340
915.809	3389
915.921	3431
916.034	3275
916.146	3256
916.259	3283
916.371	3409
916.483	3374
916.595	3291
916.708	3325
916.82	3378
916.932	3355
917.044	3378
917.156	3359
917.268	3317
917.38	3317
917.491	3336
917.603	3393
917.715	3466
917.826	3519
917.938	3374
918.049	3264
918.161	3466
918.272	3584
918.384	3595
918.495	3507
918.606	3351
918.717	3321
918.828	3374
918.939	3435
919.05	3332
919.161	3367
919.272	3237
919.383	3291
919.494	3481
919.604	3690
919.715	3496
919.826	3458
919.936	3454
920.047	3610
920.157	3553
920.267	3778
920.378	3652
920.488	3584
920.598	3812
920.708	3964
920.818	3812
920.928	3892
921.038	4078
921.148	4040
921.258	3720
921.368	3622
921.477	3595
921.587	3576
921.697	3431
921.806	3629
921.916	3553
922.025	3348
922.134	3416
922.244	3359
922.353	3431
922.462	3302
922.571	3226
922.68	3123
922.789	3070
922.898	3138
923.007	3123
923.116	3214
923.224	3161
923.333	3218
923.442	3131
923.55	3066
923.659	3169
923.767	3241
923.876	3119
923.984	3279
924.092	3100
924.201	3207
924.309	3218
924.417	3253
924.525	3157
924.633	3237
924.741	4215
924.849	3051
924.956	3302
925.064	3127
925.172	3093
925.279	3135
925.387	3192
925.494	3211
925.602	3351
925.709	3348
925.816	3180
925.924	3317
926.031	3367
926.138	3374
926.245	3329
926.352	3279
926.459	3428
926.566	3492
926.673	3321
926.779	3275
926.886	3226
926.993	3123
927.099	3173
927.206	3165
927.312	3131
927.419	3272
927.525	3245
927.631	3310
927.737	3180
927.843	3119
927.95	3020
928.056	3127
928.162	3214
928.267	3245
928.373	3876
928.479	3313
928.585	3070
928.69	3207
928.796	3283
928.901	3207
929.007	3062
929.112	3241
929.218	3188
929.323	3131
929.428	3184
929.533	3332
929.638	3108
929.743	3165
929.848	3283
929.953	3222
930.058	3127
930.163	3009
930.267	3047
930.372	3226
930.477	3047
930.581	3317
930.685	3214
930.79	3112
930.894	3116
930.998	3085
931.103	3306
931.207	2986
931.311	2948
931.415	2929
931.519	2796
931.623	2826
