Data from test_V78500241_1136.txt Node
Date: Fri Mar 25 16:23:04 CST 2022
User: usil
Spectrometer: V785-0024
Trigger mode: 0
Integration Time (sec): 4.000000E-1
Scans to average: 1
Nonlinearity correction enabled: false
Boxcar width: 0
Storing dark spectrum: false
XAxis mode: Wavelengths
Number of Pixels in Spectrum: 1024
>>>>>Begin Spectral Data<<<<<
801.071	2918
801.214	2967
801.356	2891
801.499	2887
801.641	2902
801.783	2918
801.926	3024
802.068	2960
802.211	2982
802.353	3039
802.496	2971
802.638	3032
802.78	3039
802.923	3104
803.065	3009
803.208	2922
803.35	2918
803.492	2883
803.635	2948
803.777	2769
803.919	2857
804.061	3195
804.204	2948
804.346	2887
804.488	2864
804.63	3039
804.773	2895
804.915	2902
805.057	3062
805.199	2941
805.341	2922
805.483	3013
805.626	3001
805.768	2971
805.91	3066
806.052	3135
806.194	3009
806.336	3272
806.478	3032
806.62	2929
806.762	2986
806.904	3051
807.046	3116
807.188	2975
807.33	2891
807.472	2967
807.614	2925
807.756	2975
807.898	2895
808.04	2857
808.182	2952
808.324	2922
808.465	2872
808.607	2902
808.749	2792
808.891	2826
809.033	2963
809.174	2998
809.316	2880
809.458	2895
809.6	2754
809.741	2773
809.883	2746
810.025	2857
810.166	2857
810.308	2823
810.45	2815
810.591	2754
810.733	2731
810.875	2864
811.016	2792
811.158	2739
811.299	2807
811.441	2937
811.582	2880
811.724	2842
811.865	2819
812.007	2876
812.148	2864
812.29	2834
812.431	2864
812.573	2941
812.714	2956
812.855	3055
812.997	3020
813.138	3116
813.279	2979
813.421	3001
813.562	2937
813.703	2880
813.845	2868
813.986	2769
814.127	2781
814.268	2800
814.41	2811
814.551	2823
814.692	2880
814.833	2788
814.974	2914
815.115	2933
815.256	2842
815.397	2785
815.539	2868
815.68	2762
815.821	2781
815.962	2914
816.103	2922
816.244	2876
816.385	2823
816.526	2952
816.666	2929
816.807	2758
816.948	2857
817.089	2918
817.23	2819
817.371	2750
817.512	2792
817.653	2842
817.793	2823
817.934	2857
818.075	2952
818.216	2986
818.356	3009
818.497	2853
818.638	2796
818.778	2804
818.919	2788
819.06	2735
819.2	2864
819.341	2804
819.481	2819
819.622	2925
819.762	3116
819.903	3036
820.043	2887
820.184	2914
820.324	2910
820.465	3036
820.605	3020
820.746	3058
820.886	2952
821.026	3108
821.167	3192
821.307	3233
821.447	3302
821.588	3241
821.728	3233
821.868	3154
822.008	3112
822.149	3203
822.289	3253
822.429	3081
822.569	3108
822.709	3176
822.849	3062
822.99	3116
823.13	3169
823.27	3233
823.41	3150
823.55	3161
823.69	3180
823.83	3256
823.97	3123
824.11	3043
824.25	3039
824.389	3047
824.529	3135
824.669	3093
824.809	3233
824.949	3287
825.089	3287
825.228	3218
825.368	3036
825.508	2975
825.648	3001
825.787	3032
825.927	3077
826.067	3039
826.206	2979
826.346	3085
826.485	3142
826.625	3116
826.765	3287
826.904	3256
827.044	3036
827.183	2986
827.323	2922
827.462	3043
827.601	2941
827.741	2971
827.88	2998
828.02	2906
828.159	3009
828.298	3036
828.437	3112
828.577	3070
828.716	3279
828.855	3146
828.994	2975
829.134	2922
829.273	2963
829.412	2880
829.551	2906
829.69	2910
829.829	3036
829.968	3169
830.107	3047
830.246	3085
830.385	2925
830.524	2887
830.663	2849
830.802	2766
830.941	2659
831.08	2689
831.219	2769
831.357	2788
831.496	3009
831.635	2743
831.774	2682
831.913	2678
832.051	2568
832.19	2621
832.329	2739
832.467	2575
832.606	2537
832.744	2617
832.883	2602
833.022	2594
833.16	2705
833.299	2697
833.437	2701
833.576	2735
833.714	2766
833.852	2769
833.991	2796
834.129	2857
834.267	2891
834.406	2838
834.544	2895
834.682	2941
834.821	2937
834.959	3135
835.097	2952
835.235	3100
835.373	3020
835.511	3039
835.65	2986
835.788	2967
835.926	2857
836.064	2845
836.202	2899
836.34	3112
836.478	3184
836.615	3062
836.753	3161
836.891	3233
837.029	3180
837.167	3127
837.305	3097
837.443	3062
837.58	2986
837.718	3214
837.856	3074
837.993	3036
838.131	3161
838.269	3135
838.406	3100
838.544	3123
838.681	2941
838.819	2956
838.956	2883
839.094	2849
839.231	2937
839.369	3074
839.506	3393
839.643	3233
839.781	3032
839.918	2994
840.055	3100
840.193	3032
840.33	3097
840.467	3138
840.604	3142
840.742	3424
840.879	3047
841.016	3104
841.153	3131
841.29	3325
841.427	3298
841.564	3294
841.701	3367
841.838	3226
841.975	3192
842.112	3245
842.249	3077
842.385	3051
842.522	3310
842.659	3112
842.796	3089
842.933	3150
843.069	3062
843.206	3043
843.343	3199
843.479	3123
843.616	3195
843.752	2910
843.889	2868
844.025	3119
844.162	2902
844.298	3116
844.435	3001
844.571	2906
844.708	3093
844.844	3176
844.98	3264
845.117	3253
845.253	3074
845.389	3028
845.525	3123
845.661	3135
845.798	3024
845.934	3176
846.07	3077
846.206	3253
846.342	3344
846.478	3253
846.614	3100
846.75	3081
846.886	3043
847.022	3302
847.158	3176
847.294	3214
847.429	3241
847.565	3233
847.701	3530
847.837	3043
847.972	3055
848.108	3169
848.244	3097
848.379	3017
848.515	2944
848.65	2960
848.786	3009
848.921	3001
849.057	3108
849.192	3150
849.328	3085
849.463	3146
849.598	3089
849.734	3058
849.869	2979
850.004	2948
850.14	3017
850.275	2952
850.41	2868
850.545	2906
850.68	2967
850.815	2975
850.95	3058
851.085	3218
851.22	3135
851.355	3055
851.49	2967
851.625	3043
851.76	3036
851.895	2960
852.03	2967
852.165	3051
852.299	3123
852.434	3218
852.569	3146
852.703	3211
852.838	3253
852.973	3344
853.107	3348
853.242	3138
853.376	3146
853.511	2998
853.645	3051
853.78	3268
853.914	3184
854.048	3157
854.183	3123
854.317	3165
854.451	3313
854.585	3135
854.72	3081
854.854	3249
854.988	3093
855.122	3123
855.256	3001
855.39	3150
855.524	3302
855.658	3199
855.792	3203
855.926	3203
856.06	3241
856.194	3275
856.327	3203
856.461	3085
856.595	3081
856.729	3089
856.862	3245
856.996	3199
857.13	3226
857.263	3253
857.397	3298
857.53	3123
857.664	3214
857.797	3268
857.931	3245
858.064	3157
858.197	3272
858.331	3169
858.464	3123
858.597	3020
858.731	3119
858.864	3146
858.997	3097
859.13	3192
859.263	3195
859.396	3203
859.529	3123
859.662	3116
859.795	3074
859.928	3135
860.061	3256
860.194	3283
860.327	3142
860.46	3131
860.592	3245
860.725	3253
860.858	3226
860.99	3119
861.123	3047
861.256	3051
861.388	3146
861.521	3770
861.653	3058
861.786	2994
861.918	3039
862.05	3058
862.183	3119
862.315	3176
862.447	3226
862.58	3142
862.712	2967
862.844	2891
862.976	3036
863.108	3009
863.24	3344
863.372	2910
863.504	3024
863.636	2971
863.768	3062
863.9	2952
864.032	2899
864.164	2979
864.296	3043
864.428	3097
864.559	3123
864.691	3093
864.823	3093
864.954	3066
865.086	3058
865.217	3051
865.349	2963
865.48	2990
865.612	3001
865.743	3173
865.875	3009
866.006	2994
866.137	3005
866.269	2948
866.4	2910
866.531	2902
866.662	2937
866.793	2887
866.924	2925
867.055	2956
867.186	2922
867.317	2899
867.448	2887
867.579	2849
867.71	2891
867.841	2853
867.972	2933
868.103	2937
868.233	2883
868.364	2868
868.495	2914
868.625	3081
868.756	3173
868.886	2986
869.017	3001
869.147	3211
869.278	3188
869.408	3085
869.539	3036
869.669	3093
869.799	3036
869.929	3161
870.06	3146
870.19	3363
870.32	3336
870.45	3313
870.58	3344
870.71	3439
870.84	3435
870.97	3287
871.1	3249
871.23	3481
871.36	3447
871.489	3344
871.619	3454
871.749	3428
871.879	3412
872.008	3488
872.138	3382
872.267	3245
872.397	3161
872.526	3108
872.656	3020
872.785	3100
872.915	3283
873.044	3344
873.173	3264
873.303	3275
873.432	3264
873.561	3264
873.69	3180
873.819	3169
873.948	3188
874.077	3119
874.206	3085
874.335	3112
874.464	3211
874.593	3355
874.722	3287
874.851	3405
874.979	3397
875.108	3317
875.237	3222
875.365	3195
875.494	3157
875.623	3249
875.751	3104
875.88	3142
876.008	3249
876.136	3249
876.265	3370
876.393	3515
876.521	3428
876.65	3428
876.778	3386
876.906	3287
877.034	3211
877.162	3233
877.29	3180
877.418	3253
877.546	3241
877.674	3279
877.802	3272
877.93	3207
878.058	3169
878.185	3112
878.313	3253
878.441	3207
878.568	3108
878.696	3154
878.824	3222
878.951	3313
879.079	3485
879.206	3633
879.333	3458
879.461	3332
879.588	3382
879.715	3477
879.842	3591
879.97	3393
880.097	3169
880.224	3146
880.351	3237
880.478	3233
880.605	3180
880.732	3169
880.859	3488
880.986	3329
881.112	3332
881.239	3260
881.366	3108
881.493	3024
881.619	3032
881.746	3039
881.872	3135
881.999	3112
882.125	3165
882.252	3245
882.378	3306
882.505	3431
882.631	3329
882.757	3169
882.883	3256
883.01	3245
883.136	3214
883.262	3104
883.388	3146
883.514	3344
883.64	3401
883.766	3336
883.892	3165
884.018	3256
884.143	3389
884.269	3530
884.395	3222
884.52	3154
884.646	3192
884.772	3127
884.897	3100
885.023	3237
885.148	3348
885.274	3405
885.399	3389
885.524	3306
885.65	3256
885.775	3363
885.9	3275
886.025	3450
886.15	3386
886.275	3321
886.4	3249
886.525	3283
886.65	3272
886.775	3313
886.9	3477
887.025	3622
887.149	3367
887.274	3260
887.399	3199
887.523	3192
887.648	3218
887.773	3195
887.897	3412
888.021	3397
888.146	3291
888.27	3450
888.395	3488
888.519	3439
888.643	3450
888.767	3435
888.891	3340
889.015	3241
889.139	3302
889.263	3256
889.387	3424
889.511	3492
889.635	3481
889.759	3340
889.883	3298
890.006	3435
890.13	3469
890.254	3294
890.377	3291
890.501	3195
890.624	3214
890.748	3279
890.871	3173
890.995	3112
891.118	3062
891.241	3188
891.364	3207
891.488	3310
891.611	3249
891.734	3237
891.857	3317
891.98	3218
892.103	3367
892.226	3306
892.349	3218
892.471	3108
892.594	3279
892.717	3317
892.839	3253
892.962	3313
893.085	3393
893.207	3291
893.33	3154
893.452	3214
893.575	3351
893.697	3253
893.819	3485
893.941	3519
894.064	3420
894.186	3256
894.308	3253
894.43	3492
894.552	3553
894.674	3466
894.796	3291
894.918	3329
895.04	3283
895.161	3450
895.283	3401
895.405	3306
895.526	3370
895.648	3420
895.769	3424
895.891	3431
896.012	3496
896.134	3504
896.255	3386
896.376	3378
896.498	3351
896.619	3416
896.74	3344
896.861	3386
896.982	3690
897.103	3857
897.224	3534
897.345	3488
897.466	3435
897.587	3469
897.708	3625
897.828	3523
897.949	3492
898.07	3310
898.19	3447
898.311	3633
898.431	3466
898.552	3504
898.672	3580
898.792	3595
898.913	3530
899.033	3439
899.153	3317
899.273	3264
899.393	3279
899.513	3310
899.633	3355
899.753	3332
899.873	3321
899.993	3382
900.113	3321
900.232	3393
900.352	3298
900.472	3321
900.591	3188
900.711	3348
900.83	3287
900.95	3428
901.069	3485
901.189	3359
901.308	3192
901.427	3123
901.546	3230
901.665	3302
901.784	3325
901.904	3207
902.023	3195
902.141	3028
902.26	2998
902.379	3123
902.498	3043
902.617	3066
902.735	3192
902.854	3241
902.973	3195
903.091	3062
903.21	3089
903.328	3150
903.446	3108
903.565	3089
903.683	3203
903.801	3154
903.919	3237
904.038	3317
904.156	3157
904.274	3283
904.392	3272
904.51	3279
904.627	3359
904.745	3416
904.863	3519
904.981	3272
905.098	3161
905.216	3253
905.334	3294
905.451	3260
905.569	3317
905.686	3424
905.803	3458
905.921	3268
906.038	3450
906.155	3317
906.272	3272
906.389	3321
906.506	3260
906.623	3237
906.74	3264
906.857	3188
906.974	3230
907.091	3477
907.208	3564
907.324	3462
907.441	3416
907.557	3241
907.674	3226
907.79	3199
907.907	3294
908.023	3397
908.139	3370
908.256	3348
908.372	3351
908.488	3340
908.604	3230
908.72	3218
908.836	3272
908.952	3279
909.068	3340
909.184	3507
909.3	3378
909.415	3481
909.531	3439
909.647	3230
909.762	3279
909.878	3264
909.993	3363
910.108	3336
910.224	3340
910.339	3431
910.454	3302
910.57	3279
910.685	3222
910.8	3549
910.915	3515
911.03	3447
911.145	3279
911.259	3272
911.374	3294
911.489	3241
911.604	3207
911.718	3119
911.833	3154
911.947	3047
912.062	3001
912.176	3203
912.291	3214
912.405	3207
912.519	3435
912.633	3477
912.748	3329
912.862	3268
912.976	3180
913.09	3100
913.204	3154
913.318	3211
913.431	3332
913.545	3321
913.659	3424
913.772	3355
913.886	3211
914	3207
914.113	3374
914.226	3424
914.34	3348
914.453	3184
914.566	3412
914.68	3298
914.793	3302
914.906	3146
915.019	3093
915.132	3085
915.245	3199
915.358	3169
915.47	3230
915.583	3272
915.696	3302
915.809	3393
915.921	3405
916.034	3264
916.146	3268
916.259	3165
916.371	3348
916.483	3351
916.595	3256
916.708	3332
916.82	3317
916.932	3351
917.044	3332
917.156	3351
917.268	3291
917.38	3302
917.491	3294
917.603	3329
917.715	3447
917.826	3477
917.938	3401
918.049	3268
918.161	3435
918.272	3553
918.384	3576
918.495	3488
918.606	3348
918.717	3306
918.828	3367
918.939	3435
919.05	3298
919.161	3332
919.272	3146
919.383	3272
919.494	3515
919.604	3698
919.715	3454
919.826	3409
919.936	3435
920.047	3549
920.157	3595
920.267	3766
920.378	3599
920.488	3542
920.598	3819
920.708	3956
920.818	3800
920.928	3819
921.038	3956
921.148	4002
921.258	3717
921.368	3652
921.477	3526
921.587	3523
921.697	3458
921.806	3603
921.916	3492
922.025	3378
922.134	3393
922.244	3310
922.353	3397
922.462	3253
922.571	3180
922.68	3119
922.789	3051
922.898	3138
923.007	3058
923.116	3165
923.224	3154
923.333	3203
923.442	3104
923.55	3074
923.659	3173
923.767	3218
923.876	3089
923.984	3195
924.092	3131
924.201	3192
924.309	3218
924.417	3233
924.525	3195
924.633	3268
924.741	4055
924.849	3036
924.956	3241
925.064	3100
925.172	3024
925.279	3135
925.387	3161
925.494	3188
925.602	3386
925.709	3329
925.816	3199
925.924	3298
926.031	3386
926.138	3329
926.245	3355
926.352	3272
926.459	3386
926.566	3447
926.673	3260
926.779	3207
926.886	3237
926.993	3119
927.099	3116
927.206	3138
927.312	3112
927.419	3260
927.525	3199
927.631	3294
927.737	3131
927.843	3116
927.95	3043
928.056	3104
928.162	3207
928.267	3241
928.373	3888
928.479	3310
928.585	3074
928.69	3192
928.796	3222
928.901	3173
929.007	3058
929.112	3207
929.218	3150
929.323	3165
929.428	3116
929.533	3332
929.638	3123
929.743	3165
929.848	3245
929.953	3203
930.058	3157
930.163	2979
930.267	3043
930.372	3214
930.477	3043
930.581	3279
930.685	3169
930.79	3039
930.894	3116
930.998	3085
931.103	3302
931.207	2971
931.311	2918
931.415	2891
931.519	2777
931.623	2807
