Data from test_V78500241_1066.txt Node
Date: Fri Mar 25 16:22:35 CST 2022
User: usil
Spectrometer: V785-0024
Trigger mode: 0
Integration Time (sec): 4.000000E-1
Scans to average: 1
Nonlinearity correction enabled: false
Boxcar width: 0
Storing dark spectrum: false
XAxis mode: Wavelengths
Number of Pixels in Spectrum: 1024
>>>>>Begin Spectral Data<<<<<
801.071	2902
801.214	2922
801.356	2857
801.499	2899
801.641	2883
801.783	2880
801.926	3043
802.068	2937
802.211	3020
802.353	3005
802.496	2948
802.638	2979
802.78	3028
802.923	3055
803.065	3009
803.208	2876
803.35	2925
803.492	2948
803.635	2895
803.777	2743
803.919	2857
804.061	3214
804.204	2956
804.346	2883
804.488	2830
804.63	2952
804.773	2872
804.915	2902
805.057	3081
805.199	2925
805.341	2956
805.483	3024
805.626	2967
805.768	2925
805.91	3062
806.052	3097
806.194	3047
806.336	3230
806.478	3024
806.62	2956
806.762	2998
806.904	3070
807.046	3135
807.188	2994
807.33	2963
807.472	2990
807.614	2937
807.756	3032
807.898	2899
808.04	2861
808.182	2994
808.324	2929
808.465	2880
808.607	2883
808.749	2815
808.891	2796
809.033	2929
809.174	2952
809.316	2933
809.458	2902
809.6	2746
809.741	2766
809.883	2777
810.025	2868
810.166	2826
810.308	2887
810.45	2830
810.591	2766
810.733	2785
810.875	2823
811.016	2777
811.158	2773
811.299	2807
811.441	2910
811.582	2872
811.724	2838
811.865	2811
812.007	2906
812.148	2838
812.29	2842
812.431	2895
812.573	2960
812.714	2971
812.855	3017
812.997	3070
813.138	3112
813.279	2998
813.421	2967
813.562	2929
813.703	2891
813.845	2891
813.986	2811
814.127	2701
814.268	2819
814.41	2834
814.551	2853
814.692	2895
814.833	2804
814.974	2880
815.115	2975
815.256	2842
815.397	2811
815.539	2842
815.68	2788
815.821	2807
815.962	2937
816.103	2918
816.244	2902
816.385	2880
816.526	2960
816.666	2899
816.807	2750
816.948	2842
817.089	2918
817.23	2872
817.371	2766
817.512	2792
817.653	2811
817.793	2807
817.934	2883
818.075	2948
818.216	3020
818.356	3013
818.497	2887
818.638	2807
818.778	2830
818.919	2777
819.06	2727
819.2	2891
819.341	2826
819.481	2815
819.622	2941
819.762	3089
819.903	3058
820.043	2906
820.184	2891
820.324	2883
820.465	3028
820.605	3017
820.746	3009
820.886	2922
821.026	3112
821.167	3169
821.307	3256
821.447	3306
821.588	3195
821.728	3195
821.868	3184
822.008	3066
822.149	3161
822.289	3237
822.429	3074
822.569	3116
822.709	3161
822.849	3043
822.99	3066
823.13	3165
823.27	3169
823.41	3100
823.55	3184
823.69	3157
823.83	3146
823.97	3089
824.11	3055
824.25	2982
824.389	3051
824.529	3108
824.669	3051
824.809	3188
824.949	3256
825.089	3203
825.228	3157
825.368	3001
825.508	3001
825.648	2960
825.787	2975
825.927	3013
826.067	2982
826.206	2960
826.346	3058
826.485	3077
826.625	3104
826.765	3241
826.904	3195
827.044	2990
827.183	2929
827.323	2868
827.462	2990
827.601	2906
827.741	2929
827.88	2963
828.02	2861
828.159	2960
828.298	3055
828.437	3135
828.577	3005
828.716	3237
828.855	3116
828.994	2933
829.134	2872
829.273	2922
829.412	2864
829.551	2849
829.69	2876
829.829	2982
829.968	3154
830.107	2971
830.246	3028
830.385	2929
830.524	2872
830.663	2792
830.802	2716
830.941	2648
831.08	2632
831.219	2731
831.357	2758
831.496	2963
831.635	2731
831.774	2636
831.913	2640
832.051	2560
832.19	2583
832.329	2686
832.467	2552
832.606	2503
832.744	2560
832.883	2598
833.022	2575
833.16	2621
833.299	2708
833.437	2693
833.576	2705
833.714	2746
833.852	2766
833.991	2750
834.129	2804
834.267	2838
834.406	2815
834.544	2861
834.682	2891
834.821	2883
834.959	3036
835.097	2906
835.235	3032
835.373	2960
835.511	3032
835.65	2971
835.788	2941
835.926	2807
836.064	2815
836.202	2834
836.34	3089
836.478	3146
836.615	3013
836.753	3116
836.891	3233
837.029	3138
837.167	3100
837.305	3047
837.443	3047
837.58	2956
837.718	3142
837.856	3055
837.993	3009
838.131	3119
838.269	3112
838.406	3085
838.544	3093
838.681	2880
838.819	2929
838.956	2819
839.094	2788
839.231	2914
839.369	3039
839.506	3370
839.643	3230
839.781	3020
839.918	2960
840.055	3043
840.193	3020
840.33	3100
840.467	3100
840.604	3165
840.742	3389
840.879	3058
841.016	3009
841.153	3100
841.29	3355
841.427	3325
841.564	3302
841.701	3313
841.838	3199
841.975	3192
842.112	3222
842.249	3066
842.385	3066
842.522	3218
842.659	3097
842.796	3028
842.933	3100
843.069	3055
843.206	3001
843.343	3211
843.479	3112
843.616	3123
843.752	2910
843.889	2842
844.025	3058
844.162	2880
844.298	3108
844.435	3005
844.571	2937
844.708	3077
844.844	3161
844.98	3192
845.117	3195
845.253	3043
845.389	3009
845.525	3108
845.661	3081
845.798	3020
845.934	3112
846.07	3036
846.206	3207
846.342	3272
846.478	3188
846.614	3058
846.75	3070
846.886	3017
847.022	3272
847.158	3131
847.294	3184
847.429	3233
847.565	3230
847.701	3492
847.837	3055
847.972	3043
848.108	3165
848.244	3127
848.379	2982
848.515	2929
848.65	2910
848.786	2960
848.921	3024
849.057	3108
849.192	3150
849.328	3036
849.463	3116
849.598	3047
849.734	2994
849.869	2990
850.004	2910
850.14	2941
850.275	2929
850.41	2864
850.545	2868
850.68	2941
850.815	2944
850.95	2971
851.085	3176
851.22	3077
851.355	3047
851.49	2994
851.625	2971
851.76	3032
851.895	2944
852.03	2914
852.165	3043
852.299	3112
852.434	3173
852.569	3146
852.703	3138
852.838	3268
852.973	3359
853.107	3317
853.242	3150
853.376	3097
853.511	2971
853.645	3024
853.78	3230
853.914	3074
854.048	3081
854.183	3055
854.317	3157
854.451	3291
854.585	3089
854.72	3100
854.854	3176
854.988	3036
855.122	3112
855.256	2979
855.39	3093
855.524	3245
855.658	3195
855.792	3116
855.926	3188
856.06	3199
856.194	3241
856.327	3154
856.461	3051
856.595	3066
856.729	3089
856.862	3214
856.996	3203
857.13	3157
857.263	3203
857.397	3272
857.53	3123
857.664	3214
857.797	3241
857.931	3256
858.064	3142
858.197	3195
858.331	3085
858.464	3047
858.597	2998
858.731	3100
858.864	3123
858.997	3070
859.13	3146
859.263	3138
859.396	3218
859.529	3074
859.662	3070
859.795	3032
859.928	3127
860.061	3268
860.194	3241
860.327	3123
860.46	3066
860.592	3233
860.725	3241
860.858	3218
860.99	3116
861.123	3066
861.256	3047
861.388	3161
861.521	3850
861.653	3028
861.786	2971
861.918	2971
862.05	3043
862.183	3089
862.315	3127
862.447	3241
862.58	3116
862.712	2948
862.844	2853
862.976	3017
863.108	2998
863.24	3382
863.372	2826
863.504	2952
863.636	2906
863.768	3028
863.9	2963
864.032	2872
864.164	2956
864.296	3009
864.428	3077
864.559	3100
864.691	3066
864.823	3062
864.954	3043
865.086	3055
865.217	2990
865.349	2967
865.48	3009
865.612	3020
865.743	3176
865.875	2948
866.006	2922
866.137	2986
866.269	2956
866.4	2933
866.531	2933
866.662	2868
866.793	2880
866.924	2914
867.055	2937
867.186	2887
867.317	2872
867.448	2834
867.579	2845
867.71	2842
867.841	2788
867.972	2891
868.103	2933
868.233	2891
868.364	2883
868.495	2891
868.625	3062
868.756	3180
868.886	2982
869.017	3032
869.147	3142
869.278	3146
869.408	3089
869.539	3051
869.669	3070
869.799	3051
869.929	3169
870.06	3089
870.19	3310
870.32	3302
870.45	3294
870.58	3351
870.71	3424
870.84	3466
870.97	3298
871.1	3256
871.23	3439
871.36	3443
871.489	3317
871.619	3409
871.749	3389
871.879	3409
872.008	3473
872.138	3351
872.267	3233
872.397	3146
872.526	3150
872.656	3032
872.785	3074
872.915	3230
873.044	3275
873.173	3165
873.303	3241
873.432	3214
873.561	3218
873.69	3165
873.819	3184
873.948	3157
874.077	3097
874.206	3024
874.335	3058
874.464	3176
874.593	3329
874.722	3203
874.851	3416
874.979	3367
875.108	3287
875.237	3180
875.365	3173
875.494	3157
875.623	3230
875.751	3062
875.88	3097
876.008	3146
876.136	3233
876.265	3370
876.393	3488
876.521	3428
876.65	3409
876.778	3340
876.906	3241
877.034	3214
877.162	3249
877.29	3199
877.418	3241
877.546	3211
877.674	3241
877.802	3222
877.93	3211
878.058	3138
878.185	3135
878.313	3192
878.441	3222
878.568	3032
878.696	3150
878.824	3237
878.951	3283
879.079	3462
879.206	3584
879.333	3431
879.461	3325
879.588	3378
879.715	3526
879.842	3606
879.97	3382
880.097	3161
880.224	3116
880.351	3176
880.478	3222
880.605	3184
880.732	3154
880.859	3500
880.986	3294
881.112	3336
881.239	3233
881.366	3127
881.493	3039
881.619	3005
881.746	3028
881.872	3097
881.999	3104
882.125	3127
882.252	3264
882.378	3283
882.505	3428
882.631	3272
882.757	3169
882.883	3222
883.01	3199
883.136	3142
883.262	3116
883.388	3116
883.514	3321
883.64	3412
883.766	3287
883.892	3180
884.018	3233
884.143	3443
884.269	3580
884.395	3154
884.52	3199
884.646	3188
884.772	3138
884.897	3089
885.023	3207
885.148	3348
885.274	3431
885.399	3351
885.524	3287
885.65	3222
885.775	3351
885.9	3298
886.025	3386
886.15	3382
886.275	3294
886.4	3253
886.525	3329
886.65	3264
886.775	3253
886.9	3485
887.025	3644
887.149	3431
887.274	3245
887.399	3173
887.523	3184
887.648	3214
887.773	3214
887.897	3389
888.021	3409
888.146	3264
888.27	3409
888.395	3526
888.519	3405
888.643	3424
888.767	3420
888.891	3294
889.015	3230
889.139	3287
889.263	3253
889.387	3458
889.511	3496
889.635	3420
889.759	3275
889.883	3298
890.006	3397
890.13	3496
890.254	3260
890.377	3310
890.501	3222
890.624	3184
890.748	3298
890.871	3146
890.995	3123
891.118	3081
891.241	3180
891.364	3195
891.488	3291
891.611	3180
891.734	3211
891.857	3264
891.98	3260
892.103	3348
892.226	3260
892.349	3203
892.471	3127
892.594	3195
892.717	3268
892.839	3287
892.962	3298
893.085	3351
893.207	3287
893.33	3180
893.452	3195
893.575	3412
893.697	3237
893.819	3462
893.941	3492
894.064	3439
894.186	3272
894.308	3245
894.43	3428
894.552	3496
894.674	3447
894.796	3268
894.918	3317
895.04	3306
895.161	3405
895.283	3401
895.405	3325
895.526	3351
895.648	3450
895.769	3447
895.891	3462
896.012	3447
896.134	3477
896.255	3389
896.376	3397
896.498	3340
896.619	3454
896.74	3363
896.861	3405
896.982	3682
897.103	3857
897.224	3580
897.345	3519
897.466	3416
897.587	3458
897.708	3606
897.828	3561
897.949	3412
898.07	3283
898.19	3401
898.311	3606
898.431	3447
898.552	3481
898.672	3587
898.792	3591
898.913	3500
899.033	3435
899.153	3275
899.273	3264
899.393	3268
899.513	3336
899.633	3264
899.753	3340
899.873	3332
899.993	3363
900.113	3336
900.232	3363
900.352	3310
900.472	3291
900.591	3214
900.711	3291
900.83	3245
900.95	3412
901.069	3462
901.189	3355
901.308	3142
901.427	3173
901.546	3207
901.665	3291
901.784	3287
901.904	3180
902.023	3150
902.141	2990
902.26	3024
902.379	3097
902.498	3085
902.617	3055
902.735	3249
902.854	3195
902.973	3188
903.091	3047
903.21	3112
903.328	3131
903.446	3112
903.565	3085
903.683	3192
903.801	3104
903.919	3233
904.038	3283
904.156	3131
904.274	3287
904.392	3268
904.51	3291
904.627	3313
904.745	3424
904.863	3519
904.981	3233
905.098	3157
905.216	3226
905.334	3329
905.451	3313
905.569	3287
905.686	3428
905.803	3382
905.921	3268
906.038	3401
906.155	3348
906.272	3260
906.389	3367
906.506	3218
906.623	3253
906.74	3233
906.857	3173
906.974	3253
907.091	3439
907.208	3542
907.324	3485
907.441	3439
907.557	3233
907.674	3203
907.79	3180
907.907	3283
908.023	3401
908.139	3378
908.256	3302
908.372	3332
908.488	3348
908.604	3249
908.72	3233
908.836	3275
908.952	3283
909.068	3348
909.184	3458
909.3	3374
909.415	3477
909.531	3450
909.647	3249
909.762	3268
909.878	3302
909.993	3370
910.108	3332
910.224	3348
910.339	3405
910.454	3348
910.57	3325
910.685	3260
910.8	3587
910.915	3526
911.03	3431
911.145	3237
911.259	3283
911.374	3306
911.489	3218
911.604	3237
911.718	3116
911.833	3142
911.947	3024
912.062	2982
912.176	3195
912.291	3226
912.405	3245
912.519	3431
912.633	3431
912.748	3336
912.862	3264
912.976	3214
913.09	3032
913.204	3146
913.318	3241
913.431	3313
913.545	3344
913.659	3389
913.772	3321
913.886	3214
914	3214
914.113	3340
914.226	3416
914.34	3382
914.453	3245
914.566	3370
914.68	3325
914.793	3332
914.906	3123
915.019	3116
915.132	3077
915.245	3157
915.358	3203
915.47	3207
915.583	3275
915.696	3302
915.809	3397
915.921	3401
916.034	3268
916.146	3249
916.259	3222
916.371	3374
916.483	3317
916.595	3268
916.708	3332
916.82	3313
916.932	3344
917.044	3389
917.156	3348
917.268	3253
917.38	3313
917.491	3287
917.603	3382
917.715	3439
917.826	3469
917.938	3401
918.049	3260
918.161	3428
918.272	3553
918.384	3542
918.495	3504
918.606	3317
918.717	3287
918.828	3389
918.939	3409
919.05	3329
919.161	3435
919.272	3188
919.383	3306
919.494	3504
919.604	3660
919.715	3500
919.826	3397
919.936	3466
920.047	3580
920.157	3549
920.267	3732
920.378	3618
920.488	3595
920.598	3778
920.708	3968
920.818	3835
920.928	3804
921.038	4021
921.148	4021
921.258	3682
921.368	3648
921.477	3587
921.587	3538
921.697	3450
921.806	3656
921.916	3515
922.025	3351
922.134	3355
922.244	3355
922.353	3450
922.462	3253
922.571	3218
922.68	3070
922.789	3097
922.898	3142
923.007	3089
923.116	3161
923.224	3150
923.333	3176
923.442	3077
923.55	3104
923.659	3135
923.767	3222
923.876	3135
923.984	3233
924.092	3123
924.201	3214
924.309	3169
924.417	3237
924.525	3165
924.633	3241
924.741	4147
924.849	3028
924.956	3253
925.064	3104
925.172	3051
925.279	3070
925.387	3180
925.494	3195
925.602	3359
925.709	3310
925.816	3203
925.924	3283
926.031	3355
926.138	3313
926.245	3367
926.352	3226
926.459	3424
926.566	3477
926.673	3329
926.779	3264
926.886	3245
926.993	3165
927.099	3085
927.206	3116
927.312	3074
927.419	3230
927.525	3222
927.631	3302
927.737	3093
927.843	3138
927.95	3009
928.056	3161
928.162	3157
928.267	3237
928.373	3880
928.479	3302
928.585	3077
928.69	3260
928.796	3264
928.901	3173
929.007	3058
929.112	3184
929.218	3165
929.323	3127
929.428	3146
929.533	3283
929.638	3081
929.743	3154
929.848	3237
929.953	3199
930.058	3123
930.163	3024
930.267	3039
930.372	3218
930.477	3036
930.581	3287
930.685	3184
930.79	3077
930.894	3150
930.998	3097
931.103	3291
931.207	2975
931.311	2937
931.415	2914
931.519	2773
931.623	2804
