Data from test_V78500241_618.txt Node
Date: Fri Mar 25 16:19:29 CST 2022
User: usil
Spectrometer: V785-0024
Trigger mode: 0
Integration Time (sec): 4.000000E-1
Scans to average: 1
Nonlinearity correction enabled: false
Boxcar width: 0
Storing dark spectrum: false
XAxis mode: Wavelengths
Number of Pixels in Spectrum: 1024
>>>>>Begin Spectral Data<<<<<
801.071	2956
801.214	2963
801.356	2899
801.499	2944
801.641	2891
801.783	2979
801.926	3070
802.068	3005
802.211	3043
802.353	3081
802.496	2982
802.638	3009
802.78	3043
802.923	3104
803.065	3032
803.208	2937
803.35	2929
803.492	2944
803.635	2944
803.777	2781
803.919	2876
804.061	3226
804.204	2971
804.346	2906
804.488	2849
804.63	3009
804.773	2906
804.915	2967
805.057	3085
805.199	2971
805.341	3017
805.483	3039
805.626	3009
805.768	2990
805.91	3093
806.052	3119
806.194	3051
806.336	3226
806.478	3051
806.62	2960
806.762	3009
806.904	3085
807.046	3180
807.188	2963
807.33	2952
807.472	2967
807.614	2914
807.756	2994
807.898	2922
808.04	2914
808.182	2952
808.324	2971
808.465	2910
808.607	2864
808.749	2811
808.891	2830
809.033	3013
809.174	2967
809.316	2906
809.458	2880
809.6	2762
809.741	2781
809.883	2796
810.025	2868
810.166	2887
810.308	2823
810.45	2872
810.591	2788
810.733	2800
810.875	2868
811.016	2777
811.158	2769
811.299	2785
811.441	2952
811.582	2895
811.724	2834
811.865	2819
812.007	2880
812.148	2876
812.29	2830
812.431	2838
812.573	2952
812.714	2982
812.855	3043
812.997	3039
813.138	3116
813.279	3013
813.421	2937
813.562	2944
813.703	2857
813.845	2925
813.986	2777
814.127	2739
814.268	2804
814.41	2861
814.551	2811
814.692	2899
814.833	2811
814.974	2880
815.115	2925
815.256	2853
815.397	2842
815.539	2857
815.68	2777
815.821	2811
815.962	2944
816.103	2922
816.244	2910
816.385	2895
816.526	2979
816.666	2929
816.807	2769
816.948	2906
817.089	2914
817.23	2853
817.371	2807
817.512	2781
817.653	2838
817.793	2838
817.934	2914
818.075	2990
818.216	2994
818.356	3020
818.497	2876
818.638	2788
818.778	2830
818.919	2864
819.06	2777
819.2	2864
819.341	2807
819.481	2857
819.622	2929
819.762	3127
819.903	3055
820.043	2929
820.184	2914
820.324	2922
820.465	3043
820.605	3032
820.746	3013
820.886	2979
821.026	3116
821.167	3184
821.307	3272
821.447	3291
821.588	3275
821.728	3245
821.868	3188
822.008	3089
822.149	3214
822.289	3226
822.429	3112
822.569	3074
822.709	3188
822.849	3020
822.99	3108
823.13	3165
823.27	3199
823.41	3108
823.55	3176
823.69	3180
823.83	3157
823.97	3089
824.11	3009
824.25	3009
824.389	3051
824.529	3116
824.669	3085
824.809	3218
824.949	3249
825.089	3306
825.228	3119
825.368	2998
825.508	2994
825.648	2960
825.787	3001
825.927	3020
826.067	2941
826.206	3001
826.346	3058
826.485	3051
826.625	3112
826.765	3256
826.904	3226
827.044	2998
827.183	2929
827.323	2868
827.462	2975
827.601	2929
827.741	2944
827.88	2982
828.02	2857
828.159	2960
828.298	3039
828.437	3123
828.577	3039
828.716	3237
828.855	3093
828.994	2902
829.134	2914
829.273	2933
829.412	2861
829.551	2842
829.69	2887
829.829	2952
829.968	3093
830.107	3028
830.246	3001
830.385	2937
830.524	2868
830.663	2826
830.802	2743
830.941	2663
831.08	2625
831.219	2758
831.357	2773
831.496	2982
831.635	2735
831.774	2629
831.913	2674
832.051	2533
832.19	2579
832.329	2674
832.467	2564
832.606	2499
832.744	2610
832.883	2594
833.022	2575
833.16	2667
833.299	2689
833.437	2686
833.576	2708
833.714	2705
833.852	2769
833.991	2762
834.129	2842
834.267	2807
834.406	2807
834.544	2902
834.682	2845
834.821	2906
834.959	3081
835.097	2880
835.235	3089
835.373	3017
835.511	3043
835.65	2982
835.788	2975
835.926	2811
836.064	2819
836.202	2830
836.34	3070
836.478	3161
836.615	3020
836.753	3131
836.891	3199
837.029	3199
837.167	3157
837.305	3051
837.443	3089
837.58	2952
837.718	3123
837.856	3043
837.993	3024
838.131	3093
838.269	3097
838.406	3093
838.544	3097
838.681	2910
838.819	2922
838.956	2796
839.094	2842
839.231	2883
839.369	3028
839.506	3355
839.643	3203
839.781	2967
839.918	2948
840.055	3047
840.193	3066
840.33	3062
840.467	3097
840.604	3127
840.742	3409
840.879	3032
841.016	3051
841.153	3116
841.29	3310
841.427	3336
841.564	3253
841.701	3291
841.838	3199
841.975	3150
842.112	3241
842.249	3077
842.385	3077
842.522	3245
842.659	3055
842.796	3036
842.933	3089
843.069	3070
843.206	3032
843.343	3165
843.479	3104
843.616	3135
843.752	2910
843.889	2883
844.025	3077
844.162	2883
844.298	3089
844.435	2914
844.571	2922
844.708	3070
844.844	3203
844.98	3233
845.117	3192
845.253	3055
845.389	2998
845.525	3123
845.661	3062
845.798	3013
845.934	3142
846.07	3032
846.206	3226
846.342	3329
846.478	3230
846.614	3081
846.75	3047
846.886	3020
847.022	3260
847.158	3138
847.294	3203
847.429	3249
847.565	3230
847.701	3450
847.837	3043
847.972	3013
848.108	3154
848.244	3135
848.379	2998
848.515	2925
848.65	2948
848.786	2944
848.921	3036
849.057	3116
849.192	3157
849.328	3066
849.463	3097
849.598	3043
849.734	3020
849.869	2994
850.004	2880
850.14	2975
850.275	2902
850.41	2845
850.545	2876
850.68	2914
850.815	2948
850.95	2982
851.085	3207
851.22	3093
851.355	3032
851.49	2948
851.625	3005
851.76	3039
851.895	2922
852.03	2902
852.165	3017
852.299	3112
852.434	3180
852.569	3176
852.703	3154
852.838	3241
852.973	3317
853.107	3359
853.242	3135
853.376	3097
853.511	2975
853.645	3009
853.78	3245
853.914	3081
854.048	3119
854.183	3104
854.317	3131
854.451	3279
854.585	3097
854.72	3123
854.854	3192
854.988	3036
855.122	3081
855.256	2956
855.39	3093
855.524	3226
855.658	3123
855.792	3165
855.926	3192
856.06	3195
856.194	3264
856.327	3142
856.461	3074
856.595	3123
856.729	3074
856.862	3188
856.996	3169
857.13	3180
857.263	3245
857.397	3317
857.53	3127
857.664	3150
857.797	3199
857.931	3283
858.064	3165
858.197	3211
858.331	3104
858.464	3093
858.597	2982
858.731	3112
858.864	3112
858.997	3085
859.13	3157
859.263	3165
859.396	3180
859.529	3097
859.662	3062
859.795	3051
859.928	3176
860.061	3253
860.194	3268
860.327	3093
860.46	3047
860.592	3207
860.725	3256
860.858	3226
860.99	3097
861.123	3055
861.256	3070
861.388	3154
861.521	3709
861.653	3024
861.786	2982
861.918	3013
862.05	3062
862.183	3085
862.315	3142
862.447	3180
862.58	3081
862.712	2956
862.844	2864
862.976	2998
863.108	3017
863.24	3405
863.372	2849
863.504	2952
863.636	2956
863.768	3001
863.9	2982
864.032	2918
864.164	2918
864.296	3028
864.428	3070
864.559	3142
864.691	3047
864.823	3066
864.954	3047
865.086	3047
865.217	3020
865.349	2925
865.48	2994
865.612	3039
865.743	3142
865.875	2986
866.006	2914
866.137	3009
866.269	2967
866.4	2922
866.531	2902
866.662	2853
866.793	2899
866.924	2895
867.055	2971
867.186	2887
867.317	2895
867.448	2819
867.579	2845
867.71	2857
867.841	2804
867.972	2937
868.103	2872
868.233	2880
868.364	2876
868.495	2876
868.625	3077
868.756	3165
868.886	2963
869.017	3028
869.147	3180
869.278	3154
869.408	3055
869.539	3005
869.669	3093
869.799	3039
869.929	3108
870.06	3081
870.19	3306
870.32	3321
870.45	3275
870.58	3351
870.71	3443
870.84	3488
870.97	3275
871.1	3249
871.23	3473
871.36	3401
871.489	3344
871.619	3389
871.749	3370
871.879	3428
872.008	3447
872.138	3367
872.267	3249
872.397	3127
872.526	3070
872.656	2990
872.785	3104
872.915	3237
873.044	3325
873.173	3214
873.303	3214
873.432	3218
873.561	3233
873.69	3165
873.819	3154
873.948	3241
874.077	3135
874.206	2998
874.335	3089
874.464	3214
874.593	3321
874.722	3249
874.851	3378
874.979	3325
875.108	3298
875.237	3211
875.365	3142
875.494	3192
875.623	3214
875.751	3070
875.88	3127
876.008	3180
876.136	3211
876.265	3344
876.393	3462
876.521	3401
876.65	3355
876.778	3264
876.906	3256
877.034	3184
877.162	3203
877.29	3161
877.418	3287
877.546	3218
877.674	3237
877.802	3264
877.93	3207
878.058	3116
878.185	3154
878.313	3199
878.441	3203
878.568	3051
878.696	3146
878.824	3287
878.951	3264
879.079	3443
879.206	3614
879.333	3447
879.461	3306
879.588	3351
879.715	3466
879.842	3618
879.97	3386
880.097	3157
880.224	3131
880.351	3188
880.478	3188
880.605	3192
880.732	3195
880.859	3469
880.986	3287
881.112	3298
881.239	3161
881.366	3077
881.493	2990
881.619	3013
881.746	3077
881.872	3085
881.999	3104
882.125	3154
882.252	3237
882.378	3294
882.505	3431
882.631	3275
882.757	3138
882.883	3218
883.01	3245
883.136	3184
883.262	3089
883.388	3131
883.514	3310
883.64	3363
883.766	3306
883.892	3192
884.018	3237
884.143	3412
884.269	3526
884.395	3195
884.52	3146
884.646	3226
884.772	3108
884.897	3089
885.023	3214
885.148	3374
885.274	3424
885.399	3382
885.524	3302
885.65	3302
885.775	3279
885.9	3253
886.025	3435
886.15	3359
886.275	3294
886.4	3256
886.525	3275
886.65	3268
886.775	3313
886.9	3477
887.025	3610
887.149	3367
887.274	3256
887.399	3192
887.523	3218
887.648	3211
887.773	3230
887.897	3386
888.021	3382
888.146	3287
888.27	3439
888.395	3507
888.519	3393
888.643	3420
888.767	3450
888.891	3302
889.015	3226
889.139	3317
889.263	3241
889.387	3401
889.511	3504
889.635	3409
889.759	3294
889.883	3272
890.006	3386
890.13	3416
890.254	3268
890.377	3340
890.501	3207
890.624	3135
890.748	3275
890.871	3195
890.995	3123
891.118	3081
891.241	3218
891.364	3211
891.488	3298
891.611	3180
891.734	3207
891.857	3241
891.98	3253
892.103	3325
892.226	3302
892.349	3195
892.471	3089
892.594	3218
892.717	3325
892.839	3249
892.962	3272
893.085	3336
893.207	3287
893.33	3138
893.452	3192
893.575	3310
893.697	3268
893.819	3435
893.941	3504
894.064	3439
894.186	3268
894.308	3294
894.43	3458
894.552	3523
894.674	3424
894.796	3268
894.918	3336
895.04	3287
895.161	3435
895.283	3344
895.405	3313
895.526	3359
895.648	3348
895.769	3416
895.891	3492
896.012	3473
896.134	3481
896.255	3405
896.376	3405
896.498	3317
896.619	3378
896.74	3340
896.861	3393
896.982	3682
897.103	3819
897.224	3629
897.345	3507
897.466	3439
897.587	3538
897.708	3599
897.828	3553
897.949	3439
898.07	3325
898.19	3450
898.311	3625
898.431	3469
898.552	3481
898.672	3542
898.792	3553
898.913	3523
899.033	3344
899.153	3302
899.273	3214
899.393	3283
899.513	3298
899.633	3302
899.753	3336
899.873	3325
899.993	3355
900.113	3340
900.232	3363
900.352	3382
900.472	3298
900.591	3135
900.711	3348
900.83	3222
900.95	3401
901.069	3492
901.189	3294
901.308	3169
901.427	3135
901.546	3195
901.665	3275
901.784	3374
901.904	3226
902.023	3135
902.141	3024
902.26	2975
902.379	3142
902.498	3070
902.617	3036
902.735	3214
902.854	3233
902.973	3192
903.091	3055
903.21	3074
903.328	3154
903.446	3127
903.565	3089
903.683	3195
903.801	3138
903.919	3176
904.038	3291
904.156	3214
904.274	3294
904.392	3256
904.51	3313
904.627	3325
904.745	3447
904.863	3488
904.981	3283
905.098	3165
905.216	3214
905.334	3302
905.451	3336
905.569	3283
905.686	3397
905.803	3416
905.921	3275
906.038	3420
906.155	3332
906.272	3268
906.389	3306
906.506	3222
906.623	3260
906.74	3249
906.857	3260
906.974	3260
907.091	3447
907.208	3549
907.324	3450
907.441	3386
907.557	3222
907.674	3245
907.79	3180
907.907	3272
908.023	3370
908.139	3374
908.256	3344
908.372	3351
908.488	3351
908.604	3253
908.72	3237
908.836	3291
908.952	3230
909.068	3336
909.184	3496
909.3	3397
909.415	3519
909.531	3439
909.647	3313
909.762	3302
909.878	3260
909.993	3332
910.108	3329
910.224	3340
910.339	3367
910.454	3336
910.57	3256
910.685	3203
910.8	3599
910.915	3530
911.03	3447
911.145	3279
911.259	3260
911.374	3298
911.489	3237
911.604	3211
911.718	3127
911.833	3176
911.947	3062
912.062	3005
912.176	3131
912.291	3195
912.405	3203
912.519	3401
912.633	3507
912.748	3336
912.862	3245
912.976	3169
913.09	3089
913.204	3146
913.318	3192
913.431	3317
913.545	3344
913.659	3401
913.772	3321
913.886	3203
914	3184
914.113	3344
914.226	3405
914.34	3355
914.453	3214
914.566	3409
914.68	3272
914.793	3298
914.906	3176
915.019	3108
915.132	3081
915.245	3161
915.358	3173
915.47	3256
915.583	3222
915.696	3310
915.809	3370
915.921	3409
916.034	3272
916.146	3249
916.259	3199
916.371	3348
916.483	3340
916.595	3249
916.708	3298
916.82	3325
916.932	3329
917.044	3302
917.156	3340
917.268	3298
917.38	3298
917.491	3321
917.603	3351
917.715	3466
917.826	3428
917.938	3405
918.049	3253
918.161	3409
918.272	3549
918.384	3553
918.495	3485
918.606	3367
918.717	3241
918.828	3359
918.939	3397
919.05	3298
919.161	3367
919.272	3173
919.383	3260
919.494	3507
919.604	3720
919.715	3477
919.826	3401
919.936	3462
920.047	3606
920.157	3553
920.267	3762
920.378	3633
920.488	3549
920.598	3789
920.708	3884
920.818	3781
920.928	3854
921.038	4040
921.148	4002
921.258	3682
921.368	3641
921.477	3576
921.587	3538
921.697	3450
921.806	3587
921.916	3515
922.025	3325
922.134	3405
922.244	3306
922.353	3466
922.462	3256
922.571	3241
922.68	3119
922.789	3058
922.898	3119
923.007	3112
923.116	3188
923.224	3154
923.333	3192
923.442	3074
923.55	3108
923.659	3142
923.767	3214
923.876	3123
923.984	3241
924.092	3123
924.201	3222
924.309	3207
924.417	3283
924.525	3165
924.633	3203
924.741	4002
924.849	3043
924.956	3260
925.064	3108
925.172	3039
925.279	3123
925.387	3195
925.494	3233
925.602	3355
925.709	3332
925.816	3180
925.924	3313
926.031	3359
926.138	3302
926.245	3370
926.352	3245
926.459	3393
926.566	3488
926.673	3294
926.779	3222
926.886	3249
926.993	3138
927.099	3161
927.206	3146
927.312	3104
927.419	3264
927.525	3226
927.631	3298
927.737	3146
927.843	3150
927.95	3043
928.056	3131
928.162	3146
928.267	3237
928.373	3747
928.479	3283
928.585	3104
928.69	3207
928.796	3260
928.901	3142
929.007	3036
929.112	3226
929.218	3180
929.323	3154
929.428	3135
929.533	3348
929.638	3097
929.743	3180
929.848	3256
929.953	3184
930.058	3165
930.163	3009
930.267	3032
930.372	3199
930.477	2998
930.581	3317
930.685	3165
930.79	3070
930.894	3138
930.998	3081
931.103	3272
931.207	2941
931.311	2948
931.415	2895
931.519	2800
931.623	2800
