Data from test_V78500241_234.txt Node
Date: Fri Mar 25 16:16:49 CST 2022
User: usil
Spectrometer: V785-0024
Trigger mode: 0
Integration Time (sec): 4.000000E-1
Scans to average: 1
Nonlinearity correction enabled: false
Boxcar width: 0
Storing dark spectrum: false
XAxis mode: Wavelengths
Number of Pixels in Spectrum: 1024
>>>>>Begin Spectral Data<<<<<
801.071	2891
801.214	2948
801.356	2883
801.499	2899
801.641	2883
801.783	2933
801.926	3028
802.068	2963
802.211	3020
802.353	3039
802.496	2956
802.638	2986
802.78	2990
802.923	3089
803.065	3020
803.208	2899
803.35	2864
803.492	2952
803.635	2929
803.777	2785
803.919	2861
804.061	3188
804.204	2960
804.346	2906
804.488	2826
804.63	3001
804.773	2880
804.915	2948
805.057	3051
805.199	2914
805.341	2986
805.483	3043
805.626	3005
805.768	2929
805.91	3085
806.052	3104
806.194	3043
806.336	3241
806.478	3062
806.62	2929
806.762	2956
806.904	3070
807.046	3127
807.188	2990
807.33	2910
807.472	3001
807.614	2910
807.756	3005
807.898	2929
808.04	2925
808.182	2967
808.324	2941
808.465	2883
808.607	2906
808.749	2788
808.891	2868
809.033	2979
809.174	2979
809.316	2883
809.458	2925
809.6	2769
809.741	2773
809.883	2754
810.025	2830
810.166	2815
810.308	2826
810.45	2861
810.591	2773
810.733	2750
810.875	2796
811.016	2769
811.158	2750
811.299	2788
811.441	2922
811.582	2922
811.724	2811
811.865	2826
812.007	2902
812.148	2853
812.29	2880
812.431	2853
812.573	2944
812.714	2960
812.855	3051
812.997	3055
813.138	3074
813.279	2971
813.421	2960
813.562	2990
813.703	2899
813.845	2910
813.986	2769
814.127	2731
814.268	2804
814.41	2876
814.551	2792
814.692	2899
814.833	2830
814.974	2887
815.115	2948
815.256	2872
815.397	2823
815.539	2895
815.68	2758
815.821	2807
815.962	2922
816.103	2887
816.244	2887
816.385	2887
816.526	2963
816.666	2899
816.807	2777
816.948	2899
817.089	2887
817.23	2872
817.371	2781
817.512	2811
817.653	2830
817.793	2815
817.934	2887
818.075	2971
818.216	3036
818.356	2998
818.497	2891
818.638	2788
818.778	2838
818.919	2743
819.06	2750
819.2	2868
819.341	2815
819.481	2811
819.622	2902
819.762	3100
819.903	3058
820.043	2929
820.184	2918
820.324	2902
820.465	3009
820.605	3017
820.746	3020
820.886	2956
821.026	3062
821.167	3161
821.307	3245
821.447	3310
821.588	3207
821.728	3214
821.868	3199
822.008	3085
822.149	3161
822.289	3218
822.429	3116
822.569	3112
822.709	3173
822.849	3043
822.99	3074
823.13	3165
823.27	3211
823.41	3097
823.55	3161
823.69	3138
823.83	3230
823.97	3058
824.11	2998
824.25	2986
824.389	3066
824.529	3154
824.669	3100
824.809	3226
824.949	3249
825.089	3199
825.228	3199
825.368	2994
825.508	2971
825.648	2990
825.787	3013
825.927	3024
826.067	2963
826.206	2971
826.346	3047
826.485	3077
826.625	3127
826.765	3272
826.904	3203
827.044	2960
827.183	2956
827.323	2899
827.462	2986
827.601	2883
827.741	2941
827.88	2944
828.02	2842
828.159	2956
828.298	3051
828.437	3135
828.577	3062
828.716	3222
828.855	3051
828.994	2948
829.134	2891
829.273	2918
829.412	2868
829.551	2868
829.69	2857
829.829	2963
829.968	3100
830.107	3039
830.246	3039
830.385	2918
830.524	2857
830.663	2811
830.802	2754
830.941	2644
831.08	2625
831.219	2754
831.357	2750
831.496	2994
831.635	2731
831.774	2625
831.913	2663
832.051	2530
832.19	2598
832.329	2712
832.467	2522
832.606	2446
832.744	2583
832.883	2549
833.022	2556
833.16	2640
833.299	2697
833.437	2708
833.576	2686
833.714	2708
833.852	2716
833.991	2746
834.129	2853
834.267	2804
834.406	2807
834.544	2872
834.682	2876
834.821	2861
834.959	3077
835.097	2910
835.235	3081
835.373	3001
835.511	3028
835.65	2944
835.788	2982
835.926	2815
836.064	2819
836.202	2864
836.34	3104
836.478	3142
836.615	3043
836.753	3123
836.891	3165
837.029	3154
837.167	3093
837.305	3077
837.443	3062
837.58	2963
837.718	3146
837.856	3089
837.993	3020
838.131	3150
838.269	3074
838.406	3150
838.544	3077
838.681	2922
838.819	2895
838.956	2785
839.094	2857
839.231	2948
839.369	3009
839.506	3370
839.643	3226
839.781	3017
839.918	2967
840.055	3028
840.193	3039
840.33	3089
840.467	3081
840.604	3108
840.742	3409
840.879	3024
841.016	3055
841.153	3085
841.29	3393
841.427	3287
841.564	3291
841.701	3291
841.838	3226
841.975	3138
842.112	3233
842.249	3093
842.385	3036
842.522	3249
842.659	3074
842.796	3058
842.933	3097
843.069	3066
843.206	3036
843.343	3192
843.479	3104
843.616	3123
843.752	2899
843.889	2902
844.025	3058
844.162	2902
844.298	3055
844.435	2944
844.571	2906
844.708	3058
844.844	3161
844.98	3230
845.117	3169
845.253	3024
845.389	3001
845.525	3085
845.661	3119
845.798	3028
845.934	3097
846.07	3009
846.206	3214
846.342	3298
846.478	3207
846.614	3058
846.75	3051
846.886	3020
847.022	3272
847.158	3146
847.294	3203
847.429	3260
847.565	3218
847.701	3454
847.837	3020
847.972	3017
848.108	3165
848.244	3157
848.379	2948
848.515	2979
848.65	2963
848.786	2975
848.921	2990
849.057	3081
849.192	3176
849.328	3077
849.463	3119
849.598	3051
849.734	3074
849.869	3001
850.004	2925
850.14	2979
850.275	2937
850.41	2861
850.545	2857
850.68	2918
850.815	3043
850.95	2998
851.085	3226
851.22	3112
851.355	3039
851.49	3017
851.625	3005
851.76	3051
851.895	2967
852.03	2933
852.165	3058
852.299	3157
852.434	3245
852.569	3146
852.703	3199
852.838	3279
852.973	3386
853.107	3351
853.242	3195
853.376	3108
853.511	3001
853.645	3051
853.78	3283
853.914	3154
854.048	3150
854.183	3157
854.317	3211
854.451	3355
854.585	3180
854.72	3161
854.854	3230
854.988	3097
855.122	3161
855.256	2994
855.39	3169
855.524	3233
855.658	3222
855.792	3173
855.926	3233
856.06	3237
856.194	3306
856.327	3188
856.461	3112
856.595	3135
856.729	3097
856.862	3268
856.996	3214
857.13	3279
857.263	3241
857.397	3287
857.53	3176
857.664	3233
857.797	3275
857.931	3268
858.064	3218
858.197	3294
858.331	3154
858.464	3135
858.597	3039
858.731	3157
858.864	3161
858.997	3135
859.13	3188
859.263	3222
859.396	3237
859.529	3146
859.662	3085
859.795	3119
859.928	3173
860.061	3340
860.194	3310
860.327	3188
860.46	3127
860.592	3272
860.725	3268
860.858	3317
860.99	3119
861.123	3146
861.256	3116
861.388	3195
861.521	3922
861.653	3028
861.786	3009
861.918	3020
862.05	3066
862.183	3165
862.315	3203
862.447	3256
862.58	3112
862.712	2967
862.844	2910
862.976	3062
863.108	3093
863.24	3336
863.372	2922
863.504	3017
863.636	2960
863.768	3085
863.9	3020
864.032	2922
864.164	2952
864.296	3055
864.428	3127
864.559	3089
864.691	3127
864.823	3116
864.954	3051
865.086	3074
865.217	3043
865.349	2986
865.48	3043
865.612	3100
865.743	3169
865.875	3005
866.006	2990
866.137	2998
866.269	2986
866.4	3013
866.531	2982
866.662	2925
866.793	2941
866.924	2914
867.055	3028
867.186	2982
867.317	2922
867.448	2887
867.579	2883
867.71	2887
867.841	2819
867.972	2922
868.103	2922
868.233	2952
868.364	2963
868.495	2933
868.625	3104
868.756	3169
868.886	3017
869.017	3058
869.147	3180
869.278	3188
869.408	3051
869.539	3051
869.669	3123
869.799	3112
869.929	3214
870.06	3127
870.19	3351
870.32	3275
870.45	3332
870.58	3382
870.71	3458
870.84	3515
870.97	3306
871.1	3291
871.23	3504
871.36	3477
871.489	3374
871.619	3447
871.749	3420
871.879	3488
872.008	3564
872.138	3393
872.267	3313
872.397	3180
872.526	3150
872.656	3070
872.785	3195
872.915	3294
873.044	3355
873.173	3287
873.303	3329
873.432	3268
873.561	3253
873.69	3184
873.819	3218
873.948	3241
874.077	3138
874.206	3119
874.335	3108
874.464	3272
874.593	3359
874.722	3291
874.851	3416
874.979	3359
875.108	3367
875.237	3260
875.365	3180
875.494	3203
875.623	3302
875.751	3112
875.88	3146
876.008	3245
876.136	3253
876.265	3454
876.393	3523
876.521	3469
876.65	3450
876.778	3378
876.906	3291
877.034	3253
877.162	3264
877.29	3230
877.418	3287
877.546	3306
877.674	3291
877.802	3253
877.93	3275
878.058	3192
878.185	3176
878.313	3226
878.441	3230
878.568	3150
878.696	3195
878.824	3302
878.951	3340
879.079	3469
879.206	3698
879.333	3485
879.461	3351
879.588	3447
879.715	3504
879.842	3625
879.97	3412
880.097	3207
880.224	3150
880.351	3211
880.478	3256
880.605	3180
880.732	3233
880.859	3519
880.986	3348
881.112	3351
881.239	3222
881.366	3131
881.493	3055
881.619	3036
881.746	3123
881.872	3100
881.999	3135
882.125	3211
882.252	3264
882.378	3310
882.505	3439
882.631	3321
882.757	3199
882.883	3256
883.01	3253
883.136	3214
883.262	3135
883.388	3165
883.514	3351
883.64	3382
883.766	3348
883.892	3218
884.018	3298
884.143	3481
884.269	3549
884.395	3249
884.52	3211
884.646	3173
884.772	3157
884.897	3157
885.023	3237
885.148	3340
885.274	3424
885.399	3397
885.524	3302
885.65	3313
885.775	3313
885.9	3336
886.025	3473
886.15	3409
886.275	3321
886.4	3279
886.525	3310
886.65	3275
886.775	3294
886.9	3553
887.025	3675
887.149	3405
887.274	3298
887.399	3192
887.523	3233
887.648	3241
887.773	3256
887.897	3412
888.021	3397
888.146	3294
888.27	3473
888.395	3549
888.519	3454
888.643	3447
888.767	3488
888.891	3325
889.015	3287
889.139	3329
889.263	3264
889.387	3469
889.511	3549
889.635	3450
889.759	3275
889.883	3351
890.006	3424
890.13	3530
890.254	3332
890.377	3420
890.501	3256
890.624	3184
890.748	3336
890.871	3230
890.995	3142
891.118	3104
891.241	3192
891.364	3279
891.488	3321
891.611	3207
891.734	3256
891.857	3291
891.98	3268
892.103	3370
892.226	3317
892.349	3268
892.471	3142
892.594	3249
892.717	3302
892.839	3302
892.962	3287
893.085	3386
893.207	3336
893.33	3203
893.452	3226
893.575	3378
893.697	3279
893.819	3504
893.941	3561
894.064	3488
894.186	3332
894.308	3325
894.43	3504
894.552	3572
894.674	3549
894.796	3287
894.918	3336
895.04	3340
895.161	3454
895.283	3431
895.405	3336
895.526	3382
895.648	3492
895.769	3439
895.891	3477
896.012	3504
896.134	3496
896.255	3431
896.376	3507
896.498	3405
896.619	3466
896.74	3367
896.861	3424
896.982	3698
897.103	3888
897.224	3633
897.345	3553
897.466	3469
897.587	3526
897.708	3656
897.828	3587
897.949	3477
898.07	3393
898.19	3458
898.311	3599
898.431	3447
898.552	3549
898.672	3614
898.792	3587
898.913	3561
899.033	3435
899.153	3329
899.273	3237
899.393	3317
899.513	3367
899.633	3367
899.753	3378
899.873	3370
899.993	3458
900.113	3378
900.232	3458
900.352	3389
900.472	3325
900.591	3260
900.711	3332
900.83	3241
900.95	3450
901.069	3549
901.189	3340
901.308	3226
901.427	3138
901.546	3184
901.665	3325
901.784	3359
901.904	3230
902.023	3195
902.141	3028
902.26	3024
902.379	3142
902.498	3119
902.617	3081
902.735	3245
902.854	3264
902.973	3226
903.091	3051
903.21	3066
903.328	3188
903.446	3135
903.565	3165
903.683	3245
903.801	3165
903.919	3279
904.038	3302
904.156	3169
904.274	3317
904.392	3268
904.51	3306
904.627	3329
904.745	3450
904.863	3561
904.981	3279
905.098	3203
905.216	3253
905.334	3313
905.451	3317
905.569	3325
905.686	3488
905.803	3462
905.921	3302
906.038	3450
906.155	3386
906.272	3260
906.389	3405
906.506	3260
906.623	3287
906.74	3253
906.857	3188
906.974	3291
907.091	3473
907.208	3591
907.324	3485
907.441	3435
907.557	3253
907.674	3294
907.79	3237
907.907	3275
908.023	3389
908.139	3431
908.256	3393
908.372	3420
908.488	3397
908.604	3260
908.72	3218
908.836	3298
908.952	3264
909.068	3378
909.184	3557
909.3	3393
909.415	3549
909.531	3511
909.647	3298
909.762	3310
909.878	3283
909.993	3332
910.108	3374
910.224	3336
910.339	3386
910.454	3367
910.57	3355
910.685	3230
910.8	3610
910.915	3553
911.03	3450
911.145	3291
911.259	3313
911.374	3340
911.489	3272
911.604	3272
911.718	3150
911.833	3180
911.947	3055
912.062	2956
912.176	3207
912.291	3199
912.405	3237
912.519	3469
912.633	3492
912.748	3378
912.862	3310
912.976	3199
913.09	3093
913.204	3180
913.318	3253
913.431	3378
913.545	3348
913.659	3424
913.772	3363
913.886	3211
914	3264
914.113	3397
914.226	3435
914.34	3370
914.453	3233
914.566	3454
914.68	3298
914.793	3325
914.906	3173
915.019	3108
915.132	3097
915.245	3154
915.358	3237
915.47	3211
915.583	3279
915.696	3291
915.809	3424
915.921	3447
916.034	3317
916.146	3245
916.259	3230
916.371	3370
916.483	3424
916.595	3294
916.708	3359
916.82	3325
916.932	3351
917.044	3363
917.156	3348
917.268	3275
917.38	3313
917.491	3310
917.603	3389
917.715	3504
917.826	3492
917.938	3389
918.049	3260
918.161	3435
918.272	3625
918.384	3641
918.495	3519
918.606	3348
918.717	3298
918.828	3412
918.939	3435
919.05	3367
919.161	3416
919.272	3195
919.383	3313
919.494	3561
919.604	3740
919.715	3515
919.826	3431
919.936	3473
920.047	3618
920.157	3553
920.267	3823
920.378	3667
920.488	3679
920.598	3827
920.708	4021
920.818	3865
920.928	3922
921.038	4097
921.148	4017
921.258	3804
921.368	3660
921.477	3625
921.587	3603
921.697	3500
921.806	3690
921.916	3595
922.025	3416
922.134	3435
922.244	3389
922.353	3473
922.462	3329
922.571	3264
922.68	3138
922.789	3173
922.898	3207
923.007	3093
923.116	3287
923.224	3279
923.333	3272
923.442	3138
923.55	3146
923.659	3192
923.767	3283
923.876	3169
923.984	3275
924.092	3169
924.201	3199
924.309	3283
924.417	3325
924.525	3245
924.633	3302
924.741	4188
924.849	3089
924.956	3329
925.064	3176
925.172	3070
925.279	3165
925.387	3245
925.494	3214
925.602	3424
925.709	3405
925.816	3218
925.924	3287
926.031	3412
926.138	3351
926.245	3412
926.352	3264
926.459	3500
926.566	3561
926.673	3378
926.779	3317
926.886	3294
926.993	3211
927.099	3142
927.206	3188
927.312	3211
927.419	3291
927.525	3233
927.631	3325
927.737	3180
927.843	3165
927.95	3074
928.056	3188
928.162	3241
928.267	3310
928.373	3876
928.479	3424
928.585	3100
928.69	3325
928.796	3367
928.901	3192
929.007	3157
929.112	3249
929.218	3245
929.323	3165
929.428	3211
929.533	3374
929.638	3176
929.743	3211
929.848	3321
929.953	3241
930.058	3195
930.163	3047
930.267	3119
930.372	3294
930.477	3081
930.581	3370
930.685	3249
930.79	3081
930.894	3150
930.998	3180
931.103	3325
931.207	2990
931.311	2979
931.415	2986
931.519	2811
931.623	2880
