Data from test_V78500241_1867.txt Node
Date: Fri Mar 25 16:28:08 CST 2022
User: usil
Spectrometer: V785-0024
Trigger mode: 0
Integration Time (sec): 4.000000E-1
Scans to average: 1
Nonlinearity correction enabled: false
Boxcar width: 0
Storing dark spectrum: false
XAxis mode: Wavelengths
Number of Pixels in Spectrum: 1024
>>>>>Begin Spectral Data<<<<<
801.071	2910
801.214	2922
801.356	2864
801.499	2876
801.641	2883
801.783	2906
801.926	3055
802.068	2990
802.211	3017
802.353	3032
802.496	2986
802.638	3013
802.78	3020
802.923	3081
803.065	3013
803.208	2899
803.35	2918
803.492	2922
803.635	2922
803.777	2750
803.919	2899
804.061	3176
804.204	2944
804.346	2941
804.488	2872
804.63	3001
804.773	2891
804.915	2899
805.057	3104
805.199	2948
805.341	2967
805.483	3055
805.626	3017
805.768	2982
805.91	3093
806.052	3100
806.194	3051
806.336	3237
806.478	3055
806.62	2956
806.762	2990
806.904	3032
807.046	3154
807.188	2986
807.33	2906
807.472	2986
807.614	2929
807.756	2986
807.898	2929
808.04	2918
808.182	2967
808.324	2956
808.465	2883
808.607	2876
808.749	2800
808.891	2872
809.033	2963
809.174	2960
809.316	2895
809.458	2880
809.6	2746
809.741	2811
809.883	2781
810.025	2842
810.166	2849
810.308	2849
810.45	2845
810.591	2792
810.733	2800
810.875	2823
811.016	2762
811.158	2743
811.299	2819
811.441	2918
811.582	2880
811.724	2834
811.865	2853
812.007	2891
812.148	2883
812.29	2861
812.431	2899
812.573	2956
812.714	2971
812.855	3070
812.997	3051
813.138	3138
813.279	3017
813.421	2990
813.562	2963
813.703	2899
813.845	2914
813.986	2807
814.127	2731
814.268	2804
814.41	2895
814.551	2807
814.692	2887
814.833	2849
814.974	2876
815.115	2979
815.256	2819
815.397	2823
815.539	2895
815.68	2788
815.821	2800
815.962	2986
816.103	2933
816.244	2872
816.385	2872
816.526	2971
816.666	2891
816.807	2777
816.948	2891
817.089	2918
817.23	2887
817.371	2750
817.512	2796
817.653	2815
817.793	2807
817.934	2899
818.075	2914
818.216	2998
818.356	3009
818.497	2910
818.638	2781
818.778	2838
818.919	2777
819.06	2769
819.2	2902
819.341	2807
819.481	2811
819.622	2914
819.762	3085
819.903	3058
820.043	2899
820.184	2933
820.324	2902
820.465	3001
820.605	3017
820.746	3028
820.886	2922
821.026	3116
821.167	3173
821.307	3283
821.447	3268
821.588	3218
821.728	3214
821.868	3146
822.008	3039
822.149	3230
822.289	3233
822.429	3112
822.569	3070
822.709	3207
822.849	3009
822.99	3051
823.13	3142
823.27	3214
823.41	3131
823.55	3138
823.69	3180
823.83	3180
823.97	3112
824.11	3013
824.25	2960
824.389	3024
824.529	3089
824.669	3028
824.809	3188
824.949	3253
825.089	3214
825.228	3176
825.368	3009
825.508	2948
825.648	2982
825.787	3028
825.927	2982
826.067	2975
826.206	2963
826.346	3043
826.485	3058
826.625	3154
826.765	3287
826.904	3184
827.044	2990
827.183	2948
827.323	2887
827.462	3028
827.601	2876
827.741	2937
827.88	2986
828.02	2895
828.159	2975
828.298	3036
828.437	3127
828.577	3047
828.716	3199
828.855	3089
828.994	2933
829.134	2914
829.273	2910
829.412	2838
829.551	2861
829.69	2902
829.829	2986
829.968	3089
830.107	3047
830.246	3005
830.385	2902
830.524	2880
830.663	2785
830.802	2727
830.941	2655
831.08	2648
831.219	2762
831.357	2735
831.496	2975
831.635	2743
831.774	2644
831.913	2655
832.051	2564
832.19	2560
832.329	2693
832.467	2530
832.606	2514
832.744	2587
832.883	2587
833.022	2606
833.16	2602
833.299	2674
833.437	2682
833.576	2697
833.714	2720
833.852	2716
833.991	2766
834.129	2849
834.267	2815
834.406	2792
834.544	2891
834.682	2853
834.821	2842
834.959	3047
835.097	2918
835.235	3066
835.373	2990
835.511	3013
835.65	2956
835.788	2929
835.926	2842
836.064	2823
836.202	2891
836.34	3089
836.478	3142
836.615	3051
836.753	3119
836.891	3180
837.029	3173
837.167	3074
837.305	3051
837.443	3047
837.58	2960
837.718	3131
837.856	3081
837.993	3017
838.131	3135
838.269	3093
838.406	3074
838.544	3089
838.681	2929
838.819	2937
838.956	2804
839.094	2830
839.231	2910
839.369	3013
839.506	3389
839.643	3195
839.781	3032
839.918	2956
840.055	3039
840.193	3020
840.33	3055
840.467	3074
840.604	3150
840.742	3355
840.879	3024
841.016	3077
841.153	3097
841.29	3313
841.427	3275
841.564	3264
841.701	3317
841.838	3203
841.975	3188
842.112	3192
842.249	3055
842.385	3028
842.522	3226
842.659	3093
842.796	3020
842.933	3112
843.069	2994
843.206	3020
843.343	3173
843.479	3077
843.616	3100
843.752	2887
843.889	2861
844.025	3028
844.162	2876
844.298	3070
844.435	2925
844.571	2948
844.708	3077
844.844	3176
844.98	3230
845.117	3218
845.253	3074
845.389	3017
845.525	3074
845.661	3093
845.798	2975
845.934	3093
846.07	3058
846.206	3207
846.342	3306
846.478	3195
846.614	3093
846.75	3009
846.886	3028
847.022	3237
847.158	3135
847.294	3192
847.429	3249
847.565	3180
847.701	3511
847.837	3058
847.972	3005
848.108	3146
848.244	3127
848.379	2994
848.515	2967
848.65	2925
848.786	2967
848.921	3024
849.057	3112
849.192	3116
849.328	3070
849.463	3104
849.598	3039
849.734	3039
849.869	2948
850.004	2918
850.14	2994
850.275	2929
850.41	2823
850.545	2872
850.68	2918
850.815	2941
850.95	2960
851.085	3203
851.22	3085
851.355	3020
851.49	2952
851.625	2994
851.76	3028
851.895	2933
852.03	2967
852.165	3013
852.299	3066
852.434	3180
852.569	3142
852.703	3165
852.838	3188
852.973	3359
853.107	3325
853.242	3154
853.376	3085
853.511	3009
853.645	3017
853.78	3245
853.914	3116
854.048	3085
854.183	3077
854.317	3104
854.451	3302
854.585	3150
854.72	3089
854.854	3180
854.988	3070
855.122	3047
855.256	3036
855.39	3123
855.524	3222
855.658	3180
855.792	3188
855.926	3146
856.06	3199
856.194	3260
856.327	3157
856.461	3055
856.595	3093
856.729	3093
856.862	3138
856.996	3176
857.13	3222
857.263	3218
857.397	3241
857.53	3131
857.664	3173
857.797	3256
857.931	3264
858.064	3138
858.197	3233
858.331	3116
858.464	3066
858.597	3024
858.731	3135
858.864	3131
858.997	3100
859.13	3131
859.263	3161
859.396	3188
859.529	3051
859.662	3066
859.795	3036
859.928	3123
860.061	3245
860.194	3249
860.327	3131
860.46	3089
860.592	3275
860.725	3279
860.858	3226
860.99	3123
861.123	3058
861.256	3066
861.388	3116
861.521	3827
861.653	3028
861.786	2952
861.918	3017
862.05	3085
862.183	3089
862.315	3123
862.447	3180
862.58	3077
862.712	2963
862.844	2891
862.976	2990
863.108	2994
863.24	3401
863.372	2868
863.504	2994
863.636	2975
863.768	3036
863.9	2986
864.032	2937
864.164	2944
864.296	2998
864.428	3062
864.559	3062
864.691	3070
864.823	3051
864.954	3066
865.086	3028
865.217	2982
865.349	2952
865.48	2963
865.612	3001
865.743	3157
865.875	2971
866.006	2922
866.137	2971
866.269	2929
866.4	2914
866.531	2925
866.662	2876
866.793	2887
866.924	2910
867.055	2986
867.186	2910
867.317	2883
867.448	2826
867.579	2834
867.71	2853
867.841	2811
867.972	2925
868.103	2899
868.233	2868
868.364	2883
868.495	2899
868.625	3039
868.756	3154
868.886	2967
869.017	3009
869.147	3207
869.278	3154
869.408	3043
869.539	3013
869.669	3081
869.799	3058
869.929	3138
870.06	3089
870.19	3340
870.32	3256
870.45	3283
870.58	3374
870.71	3450
870.84	3428
870.97	3279
871.1	3237
871.23	3439
871.36	3450
871.489	3401
871.619	3416
871.749	3367
871.879	3409
872.008	3477
872.138	3367
872.267	3302
872.397	3146
872.526	3089
872.656	3051
872.785	3074
872.915	3180
873.044	3313
873.173	3214
873.303	3222
873.432	3226
873.561	3214
873.69	3135
873.819	3142
873.948	3176
874.077	3123
874.206	3028
874.335	3077
874.464	3207
874.593	3363
874.722	3222
874.851	3412
874.979	3336
875.108	3351
875.237	3214
875.365	3097
875.494	3127
875.623	3260
875.751	3100
875.88	3119
876.008	3199
876.136	3222
876.265	3317
876.393	3485
876.521	3416
876.65	3386
876.778	3329
876.906	3298
877.034	3165
877.162	3218
877.29	3169
877.418	3218
877.546	3233
877.674	3233
877.802	3245
877.93	3222
878.058	3165
878.185	3116
878.313	3199
878.441	3184
878.568	3058
878.696	3146
878.824	3211
878.951	3317
879.079	3412
879.206	3614
879.333	3447
879.461	3363
879.588	3367
879.715	3477
879.842	3606
879.97	3382
880.097	3180
880.224	3108
880.351	3180
880.478	3195
880.605	3199
880.732	3176
880.859	3485
880.986	3313
881.112	3325
881.239	3192
881.366	3085
881.493	3055
881.619	3005
881.746	3032
881.872	3051
881.999	3116
882.125	3150
882.252	3245
882.378	3264
882.505	3454
882.631	3298
882.757	3127
882.883	3211
883.01	3192
883.136	3119
883.262	3074
883.388	3077
883.514	3302
883.64	3393
883.766	3302
883.892	3146
884.018	3264
884.143	3458
884.269	3572
884.395	3203
884.52	3169
884.646	3211
884.772	3077
884.897	3108
885.023	3203
885.148	3317
885.274	3420
885.399	3367
885.524	3245
885.65	3264
885.775	3317
885.9	3272
886.025	3428
886.15	3325
886.275	3306
886.4	3211
886.525	3294
886.65	3253
886.775	3253
886.9	3523
887.025	3629
887.149	3443
887.274	3260
887.399	3184
887.523	3211
887.648	3207
887.773	3199
887.897	3420
888.021	3397
888.146	3275
888.27	3450
888.395	3515
888.519	3389
888.643	3431
888.767	3481
888.891	3313
889.015	3233
889.139	3272
889.263	3260
889.387	3401
889.511	3504
889.635	3485
889.759	3279
889.883	3275
890.006	3389
890.13	3481
890.254	3272
890.377	3340
890.501	3176
890.624	3146
890.748	3291
890.871	3157
890.995	3116
891.118	3039
891.241	3180
891.364	3222
891.488	3325
891.611	3154
891.734	3226
891.857	3310
891.98	3195
892.103	3359
892.226	3264
892.349	3211
892.471	3089
892.594	3161
892.717	3253
892.839	3233
892.962	3272
893.085	3351
893.207	3287
893.33	3131
893.452	3188
893.575	3351
893.697	3207
893.819	3458
893.941	3511
894.064	3420
894.186	3176
894.308	3253
894.43	3443
894.552	3542
894.674	3469
894.796	3226
894.918	3268
895.04	3268
895.161	3447
895.283	3363
895.405	3321
895.526	3359
895.648	3412
895.769	3401
895.891	3477
896.012	3424
896.134	3477
896.255	3420
896.376	3363
896.498	3386
896.619	3397
896.74	3340
896.861	3386
896.982	3656
897.103	3850
897.224	3572
897.345	3477
897.466	3443
897.587	3481
897.708	3599
897.828	3568
897.949	3447
898.07	3329
898.19	3386
898.311	3603
898.431	3428
898.552	3530
898.672	3580
898.792	3538
898.913	3519
899.033	3420
899.153	3272
899.273	3211
899.393	3264
899.513	3329
899.633	3344
899.753	3344
899.873	3283
899.993	3374
900.113	3363
900.232	3367
900.352	3355
900.472	3283
900.591	3233
900.711	3317
900.83	3272
900.95	3412
901.069	3477
901.189	3370
901.308	3173
901.427	3112
901.546	3192
901.665	3260
901.784	3279
901.904	3199
902.023	3119
902.141	3032
902.26	2971
902.379	3093
902.498	3043
902.617	3043
902.735	3203
902.854	3249
902.973	3169
903.091	3020
903.21	3062
903.328	3146
903.446	3074
903.565	3123
903.683	3211
903.801	3135
903.919	3264
904.038	3253
904.156	3146
904.274	3256
904.392	3272
904.51	3344
904.627	3294
904.745	3439
904.863	3485
904.981	3253
905.098	3184
905.216	3264
905.334	3294
905.451	3260
905.569	3325
905.686	3412
905.803	3409
905.921	3279
906.038	3443
906.155	3336
906.272	3241
906.389	3348
906.506	3256
906.623	3214
906.74	3279
906.857	3195
906.974	3249
907.091	3450
907.208	3549
907.324	3454
907.441	3386
907.557	3245
907.674	3226
907.79	3241
907.907	3306
908.023	3393
908.139	3386
908.256	3351
908.372	3348
908.488	3317
908.604	3268
908.72	3222
908.836	3268
908.952	3306
909.068	3363
909.184	3481
909.3	3382
909.415	3507
909.531	3477
909.647	3245
909.762	3249
909.878	3245
909.993	3332
910.108	3351
910.224	3329
910.339	3382
910.454	3287
910.57	3291
910.685	3264
910.8	3606
910.915	3511
911.03	3428
911.145	3241
911.259	3272
911.374	3317
911.489	3237
911.604	3211
911.718	3146
911.833	3150
911.947	3051
912.062	2990
912.176	3199
912.291	3184
912.405	3241
912.519	3401
912.633	3454
912.748	3321
912.862	3222
912.976	3180
913.09	3093
913.204	3119
913.318	3222
913.431	3317
913.545	3336
913.659	3397
913.772	3310
913.886	3218
914	3199
914.113	3317
914.226	3435
914.34	3298
914.453	3222
914.566	3370
914.68	3241
914.793	3317
914.906	3161
915.019	3104
915.132	3089
915.245	3165
915.358	3211
915.47	3226
915.583	3264
915.696	3306
915.809	3416
915.921	3462
916.034	3291
916.146	3287
916.259	3222
916.371	3351
916.483	3348
916.595	3275
916.708	3313
916.82	3374
916.932	3336
917.044	3336
917.156	3355
917.268	3264
917.38	3275
917.491	3298
917.603	3370
917.715	3462
917.826	3488
917.938	3340
918.049	3256
918.161	3416
918.272	3591
918.384	3572
918.495	3466
918.606	3355
918.717	3249
918.828	3336
918.939	3431
919.05	3283
919.161	3359
919.272	3184
919.383	3272
919.494	3466
919.604	3682
919.715	3500
919.826	3355
919.936	3428
920.047	3561
920.157	3584
920.267	3743
920.378	3599
920.488	3603
920.598	3785
920.708	3979
920.818	3838
920.928	3888
921.038	4002
921.148	3998
921.258	3698
921.368	3682
921.477	3572
921.587	3549
921.697	3462
921.806	3644
921.916	3526
922.025	3317
922.134	3382
922.244	3306
922.353	3428
922.462	3283
922.571	3237
922.68	3093
922.789	3077
922.898	3146
923.007	3108
923.116	3226
923.224	3165
923.333	3199
923.442	3077
923.55	3104
923.659	3195
923.767	3192
923.876	3104
923.984	3256
924.092	3077
924.201	3180
924.309	3237
924.417	3268
924.525	3165
924.633	3260
924.741	4002
924.849	3074
924.956	3241
925.064	3097
925.172	3039
925.279	3085
925.387	3214
925.494	3188
925.602	3370
925.709	3294
925.816	3154
925.924	3310
926.031	3416
926.138	3321
926.245	3367
926.352	3272
926.459	3393
926.566	3466
926.673	3317
926.779	3253
926.886	3195
926.993	3161
927.099	3157
927.206	3161
927.312	3085
927.419	3233
927.525	3211
927.631	3291
927.737	3108
927.843	3135
927.95	3043
928.056	3119
928.162	3165
928.267	3195
928.373	3800
928.479	3298
928.585	3077
928.69	3146
928.796	3275
928.901	3161
929.007	3051
929.112	3218
929.218	3146
929.323	3154
929.428	3184
929.533	3294
929.638	3127
929.743	3157
929.848	3264
929.953	3218
930.058	3169
930.163	2994
930.267	3028
930.372	3241
930.477	3009
930.581	3294
930.685	3154
930.79	3039
930.894	3100
930.998	3112
931.103	3287
931.207	2960
931.311	2937
931.415	2914
931.519	2785
931.623	2823
