Data from test_V78500241_740.txt Node
Date: Fri Mar 25 16:20:19 CST 2022
User: usil
Spectrometer: V785-0024
Trigger mode: 0
Integration Time (sec): 4.000000E-1
Scans to average: 1
Nonlinearity correction enabled: false
Boxcar width: 0
Storing dark spectrum: false
XAxis mode: Wavelengths
Number of Pixels in Spectrum: 1024
>>>>>Begin Spectral Data<<<<<
801.071	2944
801.214	2929
801.356	2880
801.499	2918
801.641	2895
801.783	2925
801.926	3089
802.068	2982
802.211	2998
802.353	3051
802.496	2998
802.638	3024
802.78	3055
802.923	3039
803.065	3051
803.208	2941
803.35	2941
803.492	2971
803.635	2990
803.777	2792
803.919	2902
804.061	3233
804.204	2986
804.346	3005
804.488	2876
804.63	3001
804.773	2883
804.915	2941
805.057	3093
805.199	3001
805.341	2990
805.483	3028
805.626	3032
805.768	2990
805.91	3077
806.052	3123
806.194	3013
806.336	3256
806.478	3085
806.62	2956
806.762	2960
806.904	3089
807.046	3195
807.188	3028
807.33	2937
807.472	3001
807.614	2948
807.756	2994
807.898	2956
808.04	2948
808.182	3005
808.324	2963
808.465	2914
808.607	2925
808.749	2838
808.891	2902
809.033	2986
809.174	2986
809.316	2929
809.458	2937
809.6	2785
809.741	2773
809.883	2777
810.025	2815
810.166	2868
810.308	2891
810.45	2861
810.591	2804
810.733	2754
810.875	2861
811.016	2811
811.158	2788
811.299	2838
811.441	2906
811.582	2929
811.724	2853
811.865	2861
812.007	2986
812.148	2922
812.29	2880
812.431	2895
812.573	2979
812.714	2982
812.855	3032
812.997	3043
813.138	3150
813.279	3028
813.421	3009
813.562	2975
813.703	2929
813.845	2914
813.986	2792
814.127	2781
814.268	2826
814.41	2853
814.551	2811
814.692	2842
814.833	2891
814.974	2910
815.115	2990
815.256	2811
815.397	2861
815.539	2861
815.68	2792
815.821	2834
815.962	2941
816.103	2967
816.244	2861
816.385	2891
816.526	2994
816.666	2944
816.807	2788
816.948	2914
817.089	2944
817.23	2864
817.371	2823
817.512	2823
817.653	2864
817.793	2823
817.934	2910
818.075	2948
818.216	2998
818.356	3039
818.497	2906
818.638	2819
818.778	2830
818.919	2811
819.06	2785
819.2	2910
819.341	2823
819.481	2826
819.622	2937
819.762	3100
819.903	3074
820.043	2948
820.184	2925
820.324	2922
820.465	3055
820.605	3051
820.746	3028
820.886	2937
821.026	3154
821.167	3192
821.307	3279
821.447	3298
821.588	3260
821.728	3192
821.868	3195
822.008	3077
822.149	3226
822.289	3260
822.429	3135
822.569	3108
822.709	3214
822.849	3039
822.99	3062
823.13	3199
823.27	3253
823.41	3089
823.55	3203
823.69	3161
823.83	3214
823.97	3138
824.11	2994
824.25	3017
824.389	3039
824.529	3127
824.669	3051
824.809	3188
824.949	3272
825.089	3272
825.228	3211
825.368	2994
825.508	2986
825.648	2994
825.787	2986
825.927	3055
826.067	3001
826.206	2925
826.346	3039
826.485	3104
826.625	3131
826.765	3245
826.904	3218
827.044	3013
827.183	2910
827.323	2861
827.462	3017
827.601	2982
827.741	2937
827.88	2956
828.02	2891
828.159	2994
828.298	3066
828.437	3104
828.577	3074
828.716	3237
828.855	3081
828.994	2937
829.134	2883
829.273	2944
829.412	2891
829.551	2868
829.69	2895
829.829	2994
829.968	3108
830.107	2990
830.246	3043
830.385	2929
830.524	2925
830.663	2838
830.802	2754
830.941	2655
831.08	2655
831.219	2773
831.357	2785
831.496	2982
831.635	2735
831.774	2659
831.913	2670
832.051	2571
832.19	2590
832.329	2682
832.467	2537
832.606	2488
832.744	2594
832.883	2606
833.022	2590
833.16	2648
833.299	2716
833.437	2693
833.576	2720
833.714	2724
833.852	2746
833.991	2766
834.129	2857
834.267	2876
834.406	2792
834.544	2880
834.682	2887
834.821	2880
834.959	3077
835.097	2887
835.235	3036
835.373	3039
835.511	3020
835.65	2952
835.788	2971
835.926	2853
836.064	2811
836.202	2868
836.34	3093
836.478	3116
836.615	3058
836.753	3135
836.891	3207
837.029	3199
837.167	3085
837.305	3055
837.443	3055
837.58	2971
837.718	3146
837.856	3077
837.993	3039
838.131	3123
838.269	3100
838.406	3097
838.544	3097
838.681	2929
838.819	2925
838.956	2842
839.094	2857
839.231	2944
839.369	3020
839.506	3397
839.643	3214
839.781	3047
839.918	2963
840.055	3047
840.193	3077
840.33	3097
840.467	3119
840.604	3169
840.742	3416
840.879	3028
841.016	3066
841.153	3108
841.29	3382
841.427	3336
841.564	3329
841.701	3332
841.838	3195
841.975	3222
842.112	3188
842.249	3089
842.385	3032
842.522	3253
842.659	3123
842.796	3100
842.933	3127
843.069	3028
843.206	3013
843.343	3173
843.479	3085
843.616	3093
843.752	2849
843.889	2868
844.025	3093
844.162	2887
844.298	3062
844.435	2960
844.571	2914
844.708	3093
844.844	3173
844.98	3230
845.117	3207
845.253	3062
845.389	3009
845.525	3066
845.661	3127
845.798	2975
845.934	3123
846.07	3055
846.206	3226
846.342	3321
846.478	3211
846.614	3081
846.75	3036
846.886	3047
847.022	3214
847.158	3123
847.294	3207
847.429	3233
847.565	3203
847.701	3515
847.837	3058
847.972	2998
848.108	3184
848.244	3127
848.379	3009
848.515	2937
848.65	2963
848.786	2982
848.921	2998
849.057	3119
849.192	3146
849.328	3058
849.463	3123
849.598	3127
849.734	3047
849.869	2986
850.004	2891
850.14	2998
850.275	2963
850.41	2880
850.545	2906
850.68	2933
850.815	3017
850.95	3009
851.085	3214
851.22	3123
851.355	3039
851.49	2986
851.625	3020
851.76	3066
851.895	2944
852.03	2933
852.165	3081
852.299	3169
852.434	3199
852.569	3146
852.703	3203
852.838	3283
852.973	3374
853.107	3378
853.242	3138
853.376	3100
853.511	2975
853.645	3077
853.78	3275
853.914	3203
854.048	3138
854.183	3154
854.317	3165
854.451	3329
854.585	3188
854.72	3142
854.854	3241
854.988	3100
855.122	3119
855.256	3020
855.39	3165
855.524	3256
855.658	3230
855.792	3176
855.926	3233
856.06	3272
856.194	3321
856.327	3173
856.461	3157
856.595	3169
856.729	3127
856.862	3237
856.996	3203
857.13	3237
857.263	3256
857.397	3283
857.53	3176
857.664	3226
857.797	3306
857.931	3283
858.064	3207
858.197	3253
858.331	3180
858.464	3142
858.597	3032
858.731	3169
858.864	3180
858.997	3161
859.13	3218
859.263	3226
859.396	3256
859.529	3119
859.662	3093
859.795	3108
859.928	3154
860.061	3306
860.194	3313
860.327	3180
860.46	3150
860.592	3249
860.725	3294
860.858	3294
860.99	3119
861.123	3047
861.256	3085
861.388	3195
861.521	3812
861.653	3066
861.786	3024
861.918	3062
862.05	3055
862.183	3142
862.315	3142
862.447	3268
862.58	3119
862.712	2982
862.844	2933
862.976	3077
863.108	3077
863.24	3485
863.372	2922
863.504	3020
863.636	2982
863.768	3051
863.9	2986
864.032	2918
864.164	2971
864.296	3043
864.428	3135
864.559	3116
864.691	3097
864.823	3127
864.954	3077
865.086	3081
865.217	3017
865.349	2990
865.48	3013
865.612	3047
865.743	3142
865.875	2990
866.006	2975
866.137	2979
866.269	2975
866.4	2971
866.531	2937
866.662	2902
866.793	2933
866.924	2910
867.055	3017
867.186	2971
867.317	2918
867.448	2864
867.579	2880
867.71	2910
867.841	2842
867.972	2914
868.103	2960
868.233	2864
868.364	2902
868.495	2933
868.625	3085
868.756	3188
868.886	3028
869.017	3058
869.147	3173
869.278	3199
869.408	3032
869.539	3074
869.669	3131
869.799	3093
869.929	3195
870.06	3157
870.19	3370
870.32	3325
870.45	3367
870.58	3428
870.71	3496
870.84	3466
870.97	3306
871.1	3294
871.23	3523
871.36	3496
871.489	3420
871.619	3409
871.749	3450
871.879	3447
872.008	3511
872.138	3412
872.267	3313
872.397	3161
872.526	3123
872.656	3028
872.785	3142
872.915	3256
873.044	3374
873.173	3256
873.303	3253
873.432	3253
873.561	3291
873.69	3173
873.819	3176
873.948	3241
874.077	3127
874.206	3093
874.335	3081
874.464	3241
874.593	3351
874.722	3245
874.851	3435
874.979	3378
875.108	3363
875.237	3211
875.365	3230
875.494	3222
875.623	3275
875.751	3104
875.88	3131
876.008	3237
876.136	3264
876.265	3393
876.393	3576
876.521	3435
876.65	3420
876.778	3363
876.906	3249
877.034	3230
877.162	3264
877.29	3192
877.418	3272
877.546	3283
877.674	3256
877.802	3283
877.93	3241
878.058	3199
878.185	3104
878.313	3283
878.441	3260
878.568	3112
878.696	3188
878.824	3283
878.951	3359
879.079	3462
879.206	3660
879.333	3428
879.461	3348
879.588	3370
879.715	3515
879.842	3637
879.97	3428
880.097	3173
880.224	3127
880.351	3218
880.478	3249
880.605	3249
880.732	3218
880.859	3538
880.986	3310
881.112	3340
881.239	3230
881.366	3119
881.493	3058
881.619	3055
881.746	3085
881.872	3135
881.999	3146
882.125	3176
882.252	3260
882.378	3344
882.505	3428
882.631	3310
882.757	3218
882.883	3226
883.01	3256
883.136	3214
883.262	3154
883.388	3180
883.514	3340
883.64	3378
883.766	3344
883.892	3207
884.018	3237
884.143	3496
884.269	3587
884.395	3230
884.52	3207
884.646	3233
884.772	3123
884.897	3123
885.023	3222
885.148	3344
885.274	3431
885.399	3359
885.524	3253
885.65	3291
885.775	3325
885.9	3306
886.025	3454
886.15	3397
886.275	3348
886.4	3237
886.525	3340
886.65	3313
886.775	3310
886.9	3519
887.025	3606
887.149	3454
887.274	3260
887.399	3184
887.523	3245
887.648	3195
887.773	3222
887.897	3401
888.021	3420
888.146	3332
888.27	3447
888.395	3568
888.519	3504
888.643	3462
888.767	3473
888.891	3317
889.015	3275
889.139	3310
889.263	3272
889.387	3409
889.511	3534
889.635	3492
889.759	3332
889.883	3306
890.006	3401
890.13	3500
890.254	3298
890.377	3389
890.501	3245
890.624	3176
890.748	3310
890.871	3188
890.995	3138
891.118	3028
891.241	3222
891.364	3253
891.488	3336
891.611	3188
891.734	3230
891.857	3329
891.98	3272
892.103	3382
892.226	3268
892.349	3253
892.471	3051
892.594	3237
892.717	3298
892.839	3268
892.962	3359
893.085	3416
893.207	3306
893.33	3165
893.452	3237
893.575	3393
893.697	3279
893.819	3469
893.941	3568
894.064	3458
894.186	3294
894.308	3317
894.43	3473
894.552	3534
894.674	3496
894.796	3287
894.918	3332
895.04	3298
895.161	3473
895.283	3389
895.405	3329
895.526	3416
895.648	3409
895.769	3450
895.891	3458
896.012	3526
896.134	3519
896.255	3435
896.376	3393
896.498	3374
896.619	3443
896.74	3355
896.861	3424
896.982	3705
897.103	3876
897.224	3614
897.345	3530
897.466	3485
897.587	3534
897.708	3633
897.828	3549
897.949	3454
898.07	3374
898.19	3428
898.311	3576
898.431	3485
898.552	3519
898.672	3625
898.792	3584
898.913	3568
899.033	3458
899.153	3325
899.273	3291
899.393	3287
899.513	3332
899.633	3325
899.753	3332
899.873	3313
899.993	3382
900.113	3321
900.232	3405
900.352	3310
900.472	3287
900.591	3211
900.711	3302
900.83	3279
900.95	3477
901.069	3523
901.189	3363
901.308	3195
901.427	3146
901.546	3218
901.665	3317
901.784	3355
901.904	3253
902.023	3176
902.141	3017
902.26	3020
902.379	3142
902.498	3104
902.617	3077
902.735	3222
902.854	3253
902.973	3222
903.091	3047
903.21	3093
903.328	3154
903.446	3146
903.565	3123
903.683	3222
903.801	3104
903.919	3249
904.038	3298
904.156	3199
904.274	3321
904.392	3298
904.51	3317
904.627	3332
904.745	3435
904.863	3515
904.981	3283
905.098	3195
905.216	3249
905.334	3310
905.451	3317
905.569	3317
905.686	3454
905.803	3473
905.921	3332
906.038	3416
906.155	3370
906.272	3256
906.389	3363
906.506	3226
906.623	3279
906.74	3260
906.857	3268
906.974	3237
907.091	3454
907.208	3542
907.324	3504
907.441	3370
907.557	3275
907.674	3264
907.79	3218
907.907	3253
908.023	3382
908.139	3359
908.256	3332
908.372	3386
908.488	3340
908.604	3302
908.72	3241
908.836	3294
908.952	3313
909.068	3332
909.184	3515
909.3	3409
909.415	3526
909.531	3488
909.647	3283
909.762	3355
909.878	3275
909.993	3374
910.108	3367
910.224	3367
910.339	3401
910.454	3340
910.57	3294
910.685	3222
910.8	3610
910.915	3519
911.03	3416
911.145	3283
911.259	3313
911.374	3348
911.489	3256
911.604	3272
911.718	3150
911.833	3188
911.947	3047
912.062	2998
912.176	3180
912.291	3199
912.405	3214
912.519	3447
912.633	3496
912.748	3363
912.862	3332
912.976	3218
913.09	3066
913.204	3173
913.318	3245
913.431	3325
913.545	3348
913.659	3450
913.772	3325
913.886	3260
914	3237
914.113	3374
914.226	3424
914.34	3355
914.453	3253
914.566	3447
914.68	3294
914.793	3298
914.906	3127
915.019	3093
915.132	3097
915.245	3188
915.358	3226
915.47	3283
915.583	3245
915.696	3302
915.809	3367
915.921	3447
916.034	3283
916.146	3249
916.259	3230
916.371	3393
916.483	3374
916.595	3283
916.708	3363
916.82	3340
916.932	3378
917.044	3351
917.156	3370
917.268	3291
917.38	3317
917.491	3355
917.603	3363
917.715	3485
917.826	3450
917.938	3412
918.049	3260
918.161	3435
918.272	3591
918.384	3572
918.495	3496
918.606	3336
918.717	3249
918.828	3374
918.939	3435
919.05	3336
919.161	3405
919.272	3146
919.383	3283
919.494	3485
919.604	3701
919.715	3507
919.826	3431
919.936	3469
920.047	3584
920.157	3523
920.267	3751
920.378	3629
920.488	3591
920.598	3816
920.708	4002
920.818	3838
920.928	3812
921.038	3991
921.148	4051
921.258	3755
921.368	3625
921.477	3568
921.587	3572
921.697	3488
921.806	3622
921.916	3530
922.025	3329
922.134	3332
922.244	3348
922.353	3420
922.462	3321
922.571	3214
922.68	3093
922.789	3112
922.898	3154
923.007	3085
923.116	3214
923.224	3207
923.333	3188
923.442	3104
923.55	3104
923.659	3154
923.767	3222
923.876	3157
923.984	3203
924.092	3100
924.201	3199
924.309	3268
924.417	3264
924.525	3169
924.633	3260
924.741	4158
924.849	3047
924.956	3260
925.064	3081
925.172	3062
925.279	3093
925.387	3230
925.494	3211
925.602	3374
925.709	3382
925.816	3233
925.924	3279
926.031	3397
926.138	3302
926.245	3367
926.352	3279
926.459	3443
926.566	3473
926.673	3344
926.779	3237
926.886	3272
926.993	3131
927.099	3157
927.206	3093
927.312	3081
927.419	3214
927.525	3237
927.631	3306
927.737	3135
927.843	3150
927.95	3020
928.056	3135
928.162	3176
928.267	3230
928.373	3880
928.479	3344
928.585	3077
928.69	3207
928.796	3260
928.901	3108
929.007	3051
929.112	3192
929.218	3157
929.323	3150
929.428	3169
929.533	3317
929.638	3131
929.743	3203
929.848	3260
929.953	3195
930.058	3127
930.163	2994
930.267	3058
930.372	3207
930.477	2998
930.581	3321
930.685	3173
930.79	3093
930.894	3127
930.998	3097
931.103	3298
931.207	2925
931.311	2922
931.415	2929
931.519	2788
931.623	2842
