Data from test_V78500241_1976.txt Node
Date: Fri Mar 25 16:28:53 CST 2022
User: usil
Spectrometer: V785-0024
Trigger mode: 0
Integration Time (sec): 4.000000E-1
Scans to average: 1
Nonlinearity correction enabled: false
Boxcar width: 0
Storing dark spectrum: false
XAxis mode: Wavelengths
Number of Pixels in Spectrum: 1024
>>>>>Begin Spectral Data<<<<<
801.071	2918
801.214	2902
801.356	2861
801.499	2857
801.641	2842
801.783	2899
801.926	3024
802.068	2948
802.211	2925
802.353	3043
802.496	2937
802.638	2998
802.78	3047
802.923	3116
803.065	2971
803.208	2910
803.35	2895
803.492	2933
803.635	2941
803.777	2743
803.919	2861
804.061	3226
804.204	2948
804.346	2906
804.488	2811
804.63	2979
804.773	2891
804.915	2937
805.057	3104
805.199	2944
805.341	2941
805.483	3055
805.626	2967
805.768	2933
805.91	3100
806.052	3097
806.194	3055
806.336	3256
806.478	3005
806.62	2944
806.762	2975
806.904	3043
807.046	3131
807.188	2979
807.33	2876
807.472	2971
807.614	2929
807.756	2971
807.898	2914
808.04	2902
808.182	2960
808.324	2910
808.465	2872
808.607	2887
808.749	2758
808.891	2849
809.033	2960
809.174	2967
809.316	2899
809.458	2883
809.6	2781
809.741	2785
809.883	2800
810.025	2838
810.166	2880
810.308	2838
810.45	2849
810.591	2754
810.733	2754
810.875	2819
811.016	2788
811.158	2727
811.299	2811
811.441	2929
811.582	2929
811.724	2815
811.865	2826
812.007	2902
812.148	2861
812.29	2845
812.431	2887
812.573	2944
812.714	2986
812.855	3024
812.997	3043
813.138	3104
813.279	2994
813.421	2982
813.562	2941
813.703	2864
813.845	2914
813.986	2811
814.127	2716
814.268	2815
814.41	2868
814.551	2830
814.692	2895
814.833	2838
814.974	2895
815.115	2956
815.256	2804
815.397	2807
815.539	2853
815.68	2785
815.821	2804
815.962	2944
816.103	2922
816.244	2861
816.385	2864
816.526	3009
816.666	2910
816.807	2758
816.948	2819
817.089	2887
817.23	2807
817.371	2773
817.512	2804
817.653	2849
817.793	2819
817.934	2895
818.075	2956
818.216	2982
818.356	3024
818.497	2868
818.638	2788
818.778	2834
818.919	2769
819.06	2724
819.2	2891
819.341	2792
819.481	2792
819.622	2922
819.762	3085
819.903	3043
820.043	2899
820.184	2914
820.324	2910
820.465	3036
820.605	3013
820.746	3028
820.886	2914
821.026	3097
821.167	3146
821.307	3275
821.447	3313
821.588	3237
821.728	3165
821.868	3192
822.008	3077
822.149	3173
822.289	3237
822.429	3112
822.569	3100
822.709	3131
822.849	3028
822.99	3081
823.13	3165
823.27	3169
823.41	3074
823.55	3150
823.69	3093
823.83	3199
823.97	3081
824.11	2963
824.25	2998
824.389	3089
824.529	3116
824.669	3036
824.809	3176
824.949	3268
825.089	3241
825.228	3165
825.368	3009
825.508	2929
825.648	2956
825.787	3047
825.927	2998
826.067	2982
826.206	2975
826.346	3043
826.485	3104
826.625	3077
826.765	3245
826.904	3249
827.044	3024
827.183	2914
827.323	2864
827.462	2979
827.601	2910
827.741	2925
827.88	2963
828.02	2849
828.159	3001
828.298	2982
828.437	3104
828.577	3047
828.716	3230
828.855	3104
828.994	2922
829.134	2899
829.273	2944
829.412	2868
829.551	2807
829.69	2895
829.829	3001
829.968	3081
830.107	3013
830.246	3005
830.385	2944
830.524	2899
830.663	2785
830.802	2720
830.941	2708
831.08	2632
831.219	2766
831.357	2746
831.496	2956
831.635	2701
831.774	2640
831.913	2689
832.051	2522
832.19	2587
832.329	2659
832.467	2556
832.606	2492
832.744	2583
832.883	2541
833.022	2598
833.16	2632
833.299	2678
833.437	2667
833.576	2701
833.714	2731
833.852	2693
833.991	2712
834.129	2811
834.267	2819
834.406	2788
834.544	2891
834.682	2838
834.821	2880
834.959	3066
835.097	2868
835.235	3089
835.373	3001
835.511	2975
835.65	2948
835.788	2944
835.926	2811
836.064	2792
836.202	2842
836.34	3085
836.478	3142
836.615	2990
836.753	3093
836.891	3199
837.029	3180
837.167	3070
837.305	3017
837.443	3039
837.58	2967
837.718	3112
837.856	3077
837.993	3028
838.131	3116
838.269	3116
838.406	3093
838.544	3066
838.681	2948
838.819	2914
838.956	2796
839.094	2800
839.231	2937
839.369	3017
839.506	3405
839.643	3237
839.781	2982
839.918	2975
840.055	3055
840.193	3043
840.33	3081
840.467	3085
840.604	3131
840.742	3348
840.879	3047
841.016	3005
841.153	3085
841.29	3340
841.427	3272
841.564	3275
841.701	3359
841.838	3211
841.975	3150
842.112	3199
842.249	3062
842.385	3062
842.522	3264
842.659	3081
842.796	3070
842.933	3108
843.069	3005
843.206	3036
843.343	3176
843.479	3119
843.616	3119
843.752	2895
843.889	2838
844.025	3085
844.162	2880
844.298	3100
844.435	2929
844.571	2891
844.708	3108
844.844	3203
844.98	3211
845.117	3203
845.253	3039
845.389	2994
845.525	3108
845.661	3062
845.798	3039
845.934	3100
846.07	3058
846.206	3203
846.342	3291
846.478	3226
846.614	3093
846.75	3024
846.886	3024
847.022	3230
847.158	3135
847.294	3192
847.429	3249
847.565	3195
847.701	3447
847.837	3066
847.972	2986
848.108	3165
848.244	3123
848.379	3020
848.515	2944
848.65	2922
848.786	2971
848.921	2994
849.057	3085
849.192	3173
849.328	3058
849.463	3112
849.598	3039
849.734	3009
849.869	2979
850.004	2910
850.14	2948
850.275	2883
850.41	2838
850.545	2887
850.68	2914
850.815	2918
850.95	2944
851.085	3199
851.22	3097
851.355	3020
851.49	2967
851.625	3028
851.76	2994
851.895	2895
852.03	2891
852.165	3017
852.299	3112
852.434	3203
852.569	3180
852.703	3180
852.838	3199
852.973	3317
853.107	3306
853.242	3161
853.376	3066
853.511	2914
853.645	3001
853.78	3203
853.914	3085
854.048	3131
854.183	3066
854.317	3123
854.451	3279
854.585	3119
854.72	3089
854.854	3188
854.988	3055
855.122	3074
855.256	2963
855.39	3108
855.524	3230
855.658	3157
855.792	3127
855.926	3165
856.06	3203
856.194	3241
856.327	3146
856.461	3047
856.595	3119
856.729	3116
856.862	3192
856.996	3146
857.13	3173
857.263	3222
857.397	3249
857.53	3100
857.664	3169
857.797	3253
857.931	3253
858.064	3142
858.197	3188
858.331	3116
858.464	3100
858.597	2994
858.731	3161
858.864	3157
858.997	3077
859.13	3192
859.263	3173
859.396	3188
859.529	3066
859.662	3074
859.795	3036
859.928	3161
860.061	3253
860.194	3310
860.327	3093
860.46	3085
860.592	3253
860.725	3237
860.858	3233
860.99	3081
861.123	3039
861.256	3055
861.388	3112
861.521	3869
861.653	3055
861.786	2979
861.918	2963
862.05	3062
862.183	3104
862.315	3150
862.447	3180
862.58	3112
862.712	2941
862.844	2906
862.976	3028
863.108	3013
863.24	3481
863.372	2853
863.504	2960
863.636	2918
863.768	2979
863.9	2960
864.032	2914
864.164	2952
864.296	3017
864.428	3070
864.559	3135
864.691	3066
864.823	3077
864.954	3020
865.086	3001
865.217	3005
865.349	2929
865.48	2990
865.612	2998
865.743	3127
865.875	2956
866.006	2925
866.137	2971
866.269	2937
866.4	2922
866.531	2948
866.662	2876
866.793	2876
866.924	2899
867.055	2956
867.186	2922
867.317	2906
867.448	2830
867.579	2853
867.71	2826
867.841	2811
867.972	2887
868.103	2902
868.233	2910
868.364	2891
868.495	2895
868.625	3116
868.756	3119
868.886	2963
869.017	3024
869.147	3157
869.278	3157
869.408	3039
869.539	3001
869.669	3116
869.799	3028
869.929	3146
870.06	3097
870.19	3291
870.32	3279
870.45	3313
870.58	3351
870.71	3428
870.84	3454
870.97	3298
871.1	3253
871.23	3469
871.36	3439
871.489	3355
871.619	3424
871.749	3424
871.879	3447
872.008	3473
872.138	3332
872.267	3279
872.397	3085
872.526	3127
872.656	3013
872.785	3127
872.915	3233
873.044	3298
873.173	3230
873.303	3211
873.432	3275
873.561	3275
873.69	3116
873.819	3169
873.948	3237
874.077	3085
874.206	3028
874.335	3097
874.464	3184
874.593	3340
874.722	3233
874.851	3351
874.979	3336
875.108	3291
875.237	3218
875.365	3169
875.494	3161
875.623	3268
875.751	3066
875.88	3123
876.008	3173
876.136	3211
876.265	3351
876.393	3488
876.521	3401
876.65	3382
876.778	3332
876.906	3264
877.034	3169
877.162	3188
877.29	3173
877.418	3260
877.546	3241
877.674	3287
877.802	3272
877.93	3199
878.058	3150
878.185	3119
878.313	3192
878.441	3169
878.568	3058
878.696	3127
878.824	3268
878.951	3298
879.079	3420
879.206	3652
879.333	3458
879.461	3382
879.588	3374
879.715	3466
879.842	3584
879.97	3374
880.097	3138
880.224	3123
880.351	3176
880.478	3230
880.605	3192
880.732	3154
880.859	3473
880.986	3329
881.112	3325
881.239	3173
881.366	3085
881.493	3055
881.619	2994
881.746	3074
881.872	3074
881.999	3077
882.125	3150
882.252	3237
882.378	3321
882.505	3424
882.631	3310
882.757	3127
882.883	3233
883.01	3222
883.136	3146
883.262	3085
883.388	3100
883.514	3348
883.64	3340
883.766	3291
883.892	3184
884.018	3241
884.143	3363
884.269	3534
884.395	3180
884.52	3150
884.646	3180
884.772	3100
884.897	3146
885.023	3211
885.148	3332
885.274	3397
885.399	3363
885.524	3287
885.65	3256
885.775	3306
885.9	3245
886.025	3409
886.15	3378
886.275	3256
886.4	3245
886.525	3298
886.65	3291
886.775	3249
886.9	3496
887.025	3648
887.149	3405
887.274	3230
887.399	3184
887.523	3199
887.648	3199
887.773	3203
887.897	3355
888.021	3382
888.146	3279
888.27	3428
888.395	3488
888.519	3389
888.643	3462
888.767	3409
888.891	3279
889.015	3233
889.139	3302
889.263	3203
889.387	3420
889.511	3511
889.635	3428
889.759	3287
889.883	3291
890.006	3355
890.13	3496
890.254	3241
890.377	3325
890.501	3195
890.624	3165
890.748	3287
890.871	3150
890.995	3104
891.118	3047
891.241	3169
891.364	3207
891.488	3321
891.611	3188
891.734	3222
891.857	3283
891.98	3241
892.103	3340
892.226	3306
892.349	3203
892.471	3043
892.594	3249
892.717	3283
892.839	3275
892.962	3272
893.085	3374
893.207	3275
893.33	3165
893.452	3176
893.575	3363
893.697	3230
893.819	3435
893.941	3435
894.064	3454
894.186	3279
894.308	3241
894.43	3454
894.552	3515
894.674	3401
894.796	3253
894.918	3283
895.04	3260
895.161	3439
895.283	3412
895.405	3325
895.526	3329
895.648	3416
895.769	3416
895.891	3469
896.012	3447
896.134	3409
896.255	3428
896.376	3367
896.498	3336
896.619	3428
896.74	3363
896.861	3439
896.982	3679
897.103	3854
897.224	3606
897.345	3496
897.466	3439
897.587	3511
897.708	3606
897.828	3534
897.949	3435
898.07	3332
898.19	3397
898.311	3557
898.431	3450
898.552	3511
898.672	3633
898.792	3587
898.913	3515
899.033	3420
899.153	3287
899.273	3230
899.393	3310
899.513	3310
899.633	3310
899.753	3355
899.873	3317
899.993	3351
900.113	3348
900.232	3382
900.352	3329
900.472	3275
900.591	3195
900.711	3306
900.83	3241
900.95	3386
901.069	3481
901.189	3329
901.308	3184
901.427	3142
901.546	3233
901.665	3230
901.784	3325
901.904	3218
902.023	3150
902.141	3009
902.26	3001
902.379	3146
902.498	3085
902.617	3032
902.735	3195
902.854	3195
902.973	3222
903.091	3051
903.21	3066
903.328	3150
903.446	3138
903.565	3119
903.683	3184
903.801	3104
903.919	3230
904.038	3275
904.156	3161
904.274	3253
904.392	3226
904.51	3306
904.627	3291
904.745	3473
904.863	3488
904.981	3253
905.098	3154
905.216	3249
905.334	3313
905.451	3279
905.569	3302
905.686	3401
905.803	3454
905.921	3291
906.038	3382
906.155	3344
906.272	3249
906.389	3355
906.506	3199
906.623	3230
906.74	3287
906.857	3222
906.974	3275
907.091	3428
907.208	3553
907.324	3469
907.441	3389
907.557	3199
907.674	3226
907.79	3241
907.907	3279
908.023	3386
908.139	3351
908.256	3359
908.372	3363
908.488	3359
908.604	3253
908.72	3233
908.836	3272
908.952	3268
909.068	3344
909.184	3450
909.3	3389
909.415	3507
909.531	3450
909.647	3260
909.762	3241
909.878	3279
909.993	3340
910.108	3340
910.224	3321
910.339	3374
910.454	3344
910.57	3321
910.685	3207
910.8	3580
910.915	3538
911.03	3443
911.145	3256
911.259	3260
911.374	3291
911.489	3249
911.604	3237
911.718	3138
911.833	3161
911.947	3020
912.062	2990
912.176	3127
912.291	3169
912.405	3211
912.519	3439
912.633	3454
912.748	3310
912.862	3291
912.976	3161
913.09	3036
913.204	3146
913.318	3218
913.431	3313
913.545	3310
913.659	3397
913.772	3310
913.886	3260
914	3169
914.113	3374
914.226	3409
914.34	3370
914.453	3195
914.566	3439
914.68	3306
914.793	3302
914.906	3146
915.019	3123
915.132	3043
915.245	3161
915.358	3218
915.47	3233
915.583	3256
915.696	3275
915.809	3397
915.921	3424
916.034	3226
916.146	3214
916.259	3226
916.371	3378
916.483	3363
916.595	3283
916.708	3351
916.82	3310
916.932	3302
917.044	3317
917.156	3313
917.268	3218
917.38	3348
917.491	3275
917.603	3340
917.715	3439
917.826	3469
917.938	3401
918.049	3317
918.161	3435
918.272	3629
918.384	3576
918.495	3526
918.606	3310
918.717	3313
918.828	3332
918.939	3393
919.05	3279
919.161	3355
919.272	3195
919.383	3279
919.494	3511
919.604	3675
919.715	3488
919.826	3405
919.936	3431
920.047	3568
920.157	3534
920.267	3774
920.378	3587
920.488	3557
920.598	3785
920.708	3926
920.818	3842
920.928	3869
921.038	3998
921.148	3960
921.258	3717
921.368	3644
921.477	3587
921.587	3580
921.697	3443
921.806	3648
921.916	3576
922.025	3336
922.134	3367
922.244	3310
922.353	3435
922.462	3233
922.571	3222
922.68	3108
922.789	3077
922.898	3108
923.007	3097
923.116	3211
923.224	3161
923.333	3203
923.442	3119
923.55	3138
923.659	3157
923.767	3241
923.876	3089
923.984	3211
924.092	3089
924.201	3192
924.309	3222
924.417	3268
924.525	3222
924.633	3245
924.741	4162
924.849	3074
924.956	3317
925.064	3089
925.172	3013
925.279	3081
925.387	3199
925.494	3203
925.602	3355
925.709	3355
925.816	3173
925.924	3268
926.031	3378
926.138	3317
926.245	3389
926.352	3253
926.459	3420
926.566	3481
926.673	3287
926.779	3256
926.886	3233
926.993	3157
927.099	3127
927.206	3074
927.312	3127
927.419	3237
927.525	3203
927.631	3237
927.737	3150
927.843	3104
927.95	2990
928.056	3142
928.162	3161
928.267	3237
928.373	3861
928.479	3272
928.585	3028
928.69	3165
928.796	3241
928.901	3207
929.007	3077
929.112	3207
929.218	3157
929.323	3138
929.428	3146
929.533	3321
929.638	3116
929.743	3176
929.848	3237
929.953	3218
930.058	3169
930.163	3017
930.267	3043
930.372	3180
930.477	3036
930.581	3329
930.685	3180
930.79	3074
930.894	3108
930.998	3093
931.103	3260
931.207	2960
931.311	2922
931.415	2937
931.519	2804
931.623	2811
