Data from test_V78500241_1938.txt Node
Date: Fri Mar 25 16:28:37 CST 2022
User: usil
Spectrometer: V785-0024
Trigger mode: 0
Integration Time (sec): 4.000000E-1
Scans to average: 1
Nonlinearity correction enabled: false
Boxcar width: 0
Storing dark spectrum: false
XAxis mode: Wavelengths
Number of Pixels in Spectrum: 1024
>>>>>Begin Spectral Data<<<<<
801.071	2918
801.214	2960
801.356	2868
801.499	2914
801.641	2868
801.783	2872
801.926	3089
802.068	2994
802.211	2990
802.353	3058
802.496	2960
802.638	3001
802.78	3039
802.923	3085
803.065	3013
803.208	2925
803.35	2876
803.492	2922
803.635	2944
803.777	2735
803.919	2857
804.061	3180
804.204	2933
804.346	2887
804.488	2811
804.63	2994
804.773	2895
804.915	2918
805.057	3043
805.199	2929
805.341	2963
805.483	3024
805.626	2982
805.768	2979
805.91	3039
806.052	3104
806.194	3017
806.336	3199
806.478	3047
806.62	2914
806.762	2963
806.904	3017
807.046	3135
807.188	3009
807.33	2906
807.472	2994
807.614	2902
807.756	2998
807.898	2925
808.04	2887
808.182	2979
808.324	2952
808.465	2876
808.607	2868
808.749	2792
808.891	2845
809.033	2982
809.174	2963
809.316	2864
809.458	2918
809.6	2792
809.741	2716
809.883	2746
810.025	2868
810.166	2872
810.308	2834
810.45	2849
810.591	2769
810.733	2731
810.875	2807
811.016	2781
811.158	2716
811.299	2796
811.441	2982
811.582	2887
811.724	2834
811.865	2819
812.007	2906
812.148	2887
812.29	2842
812.431	2906
812.573	2925
812.714	2990
812.855	3062
812.997	3024
813.138	3112
813.279	3028
813.421	2975
813.562	2956
813.703	2849
813.845	2883
813.986	2754
814.127	2716
814.268	2811
814.41	2826
814.551	2830
814.692	2883
814.833	2830
814.974	2883
815.115	2925
815.256	2823
815.397	2781
815.539	2857
815.68	2777
815.821	2785
815.962	2925
816.103	2906
816.244	2906
816.385	2895
816.526	2971
816.666	2902
816.807	2777
816.948	2857
817.089	2933
817.23	2842
817.371	2777
817.512	2800
817.653	2804
817.793	2815
817.934	2887
818.075	2986
818.216	2971
818.356	3005
818.497	2853
818.638	2769
818.778	2819
818.919	2754
819.06	2743
819.2	2853
819.341	2796
819.481	2826
819.622	2895
819.762	3116
819.903	3020
820.043	2933
820.184	2933
820.324	2902
820.465	3005
820.605	3036
820.746	3024
820.886	2956
821.026	3112
821.167	3180
821.307	3203
821.447	3313
821.588	3218
821.728	3188
821.868	3184
822.008	3081
822.149	3199
822.289	3230
822.429	3116
822.569	3108
822.709	3138
822.849	3017
822.99	3100
823.13	3161
823.27	3173
823.41	3104
823.55	3138
823.69	3123
823.83	3192
823.97	3116
824.11	2979
824.25	3020
824.389	3081
824.529	3097
824.669	3089
824.809	3195
824.949	3188
825.089	3230
825.228	3150
825.368	2979
825.508	2929
825.648	2967
825.787	2986
825.927	2994
826.067	2956
826.206	2963
826.346	3017
826.485	3058
826.625	3100
826.765	3275
826.904	3218
827.044	3005
827.183	2914
827.323	2872
827.462	2975
827.601	2899
827.741	2933
827.88	2948
828.02	2845
828.159	3005
828.298	3036
828.437	3123
828.577	3039
828.716	3230
828.855	3066
828.994	2902
829.134	2857
829.273	2944
829.412	2899
829.551	2868
829.69	2880
829.829	2979
829.968	3127
830.107	3020
830.246	2994
830.385	2891
830.524	2853
830.663	2819
830.802	2697
830.941	2655
831.08	2648
831.219	2766
831.357	2792
831.496	2967
831.635	2712
831.774	2644
831.913	2629
832.051	2560
832.19	2579
832.329	2674
832.467	2552
832.606	2469
832.744	2575
832.883	2533
833.022	2579
833.16	2663
833.299	2670
833.437	2689
833.576	2697
833.714	2716
833.852	2724
833.991	2746
834.129	2819
834.267	2838
834.406	2758
834.544	2845
834.682	2864
834.821	2845
834.959	3055
835.097	2857
835.235	3001
835.373	3005
835.511	2998
835.65	2941
835.788	2929
835.926	2823
836.064	2845
836.202	2834
836.34	3051
836.478	3112
836.615	3036
836.753	3123
836.891	3188
837.029	3161
837.167	3116
837.305	3070
837.443	3032
837.58	2906
837.718	3142
837.856	3089
837.993	3013
838.131	3085
838.269	3089
838.406	3081
838.544	3097
838.681	2941
838.819	2899
838.956	2800
839.094	2823
839.231	2941
839.369	3024
839.506	3363
839.643	3173
839.781	2979
839.918	2948
840.055	3047
840.193	3024
840.33	3097
840.467	3077
840.604	3127
840.742	3393
840.879	3070
841.016	3013
841.153	3089
841.29	3374
841.427	3313
841.564	3264
841.701	3298
841.838	3237
841.975	3184
842.112	3180
842.249	3112
842.385	3039
842.522	3249
842.659	3070
842.796	3043
842.933	3108
843.069	3028
843.206	3013
843.343	3176
843.479	3108
843.616	3135
843.752	2887
843.889	2861
844.025	3047
844.162	2887
844.298	3066
844.435	2922
844.571	2914
844.708	3066
844.844	3203
844.98	3260
845.117	3195
845.253	3047
845.389	2975
845.525	3165
845.661	3097
845.798	3005
845.934	3173
846.07	3047
846.206	3184
846.342	3283
846.478	3264
846.614	3089
846.75	3104
846.886	3047
847.022	3207
847.158	3104
847.294	3203
847.429	3241
847.565	3173
847.701	3458
847.837	3028
847.972	3028
848.108	3184
848.244	3150
848.379	2982
848.515	2933
848.65	2956
848.786	2960
848.921	3020
849.057	3066
849.192	3150
849.328	3058
849.463	3116
849.598	3055
849.734	3020
849.869	2960
850.004	2864
850.14	2925
850.275	2895
850.41	2811
850.545	2838
850.68	2933
850.815	2899
850.95	2975
851.085	3188
851.22	3100
851.355	3009
851.49	2971
851.625	2994
851.76	3005
851.895	2914
852.03	2929
852.165	3013
852.299	3127
852.434	3165
852.569	3131
852.703	3135
852.838	3230
852.973	3336
853.107	3321
853.242	3138
853.376	3089
853.511	3013
853.645	3055
853.78	3245
853.914	3116
854.048	3074
854.183	3024
854.317	3150
854.451	3294
854.585	3119
854.72	3039
854.854	3173
854.988	3020
855.122	3055
855.256	2998
855.39	3112
855.524	3253
855.658	3154
855.792	3150
855.926	3233
856.06	3226
856.194	3260
856.327	3173
856.461	3070
856.595	3081
856.729	3055
856.862	3203
856.996	3169
857.13	3184
857.263	3207
857.397	3260
857.53	3127
857.664	3249
857.797	3214
857.931	3237
858.064	3169
858.197	3195
858.331	3127
858.464	3070
858.597	3005
858.731	3135
858.864	3127
858.997	3043
859.13	3146
859.263	3188
859.396	3199
859.529	3066
859.662	3089
859.795	3032
859.928	3138
860.061	3241
860.194	3268
860.327	3112
860.46	3089
860.592	3184
860.725	3233
860.858	3249
860.99	3138
861.123	3085
861.256	3020
861.388	3108
861.521	3854
861.653	2998
861.786	2963
861.918	2994
862.05	3062
862.183	3108
862.315	3112
862.447	3199
862.58	3055
862.712	2944
862.844	2887
862.976	3001
863.108	2994
863.24	3302
863.372	2853
863.504	2994
863.636	2914
863.768	2998
863.9	2994
864.032	2891
864.164	2914
864.296	3005
864.428	3085
864.559	3104
864.691	3074
864.823	3028
864.954	3043
865.086	3077
865.217	2982
865.349	2922
865.48	3013
865.612	3055
865.743	3112
865.875	2971
866.006	2963
866.137	3013
866.269	2952
866.4	2929
866.531	2906
866.662	2883
866.793	2864
866.924	2918
867.055	2944
867.186	2914
867.317	2845
867.448	2834
867.579	2819
867.71	2830
867.841	2838
867.972	2906
868.103	2914
868.233	2887
868.364	2883
868.495	2853
868.625	3100
868.756	3138
868.886	2994
869.017	2986
869.147	3138
869.278	3142
869.408	3032
869.539	3017
869.669	3119
869.799	3020
869.929	3154
870.06	3058
870.19	3310
870.32	3310
870.45	3275
870.58	3355
870.71	3435
870.84	3477
870.97	3310
871.1	3218
871.23	3481
871.36	3447
871.489	3336
871.619	3401
871.749	3374
871.879	3431
872.008	3458
872.138	3348
872.267	3275
872.397	3104
872.526	3085
872.656	2975
872.785	3066
872.915	3249
873.044	3321
873.173	3211
873.303	3222
873.432	3253
873.561	3226
873.69	3154
873.819	3142
873.948	3169
874.077	3097
874.206	3013
874.335	3081
874.464	3176
874.593	3397
874.722	3256
874.851	3409
874.979	3294
875.108	3310
875.237	3146
875.365	3161
875.494	3131
875.623	3233
875.751	3051
875.88	3093
876.008	3192
876.136	3226
876.265	3351
876.393	3526
876.521	3378
876.65	3412
876.778	3359
876.906	3207
877.034	3192
877.162	3218
877.29	3165
877.418	3256
877.546	3218
877.674	3233
877.802	3237
877.93	3184
878.058	3146
878.185	3104
878.313	3199
878.441	3161
878.568	3047
878.696	3176
878.824	3233
878.951	3298
879.079	3447
879.206	3591
879.333	3462
879.461	3291
879.588	3370
879.715	3473
879.842	3595
879.97	3409
880.097	3199
880.224	3097
880.351	3176
880.478	3233
880.605	3184
880.732	3176
880.859	3496
880.986	3291
881.112	3313
881.239	3188
881.366	3077
881.493	3039
881.619	3039
881.746	3097
881.872	3066
881.999	3119
882.125	3104
882.252	3207
882.378	3272
882.505	3431
882.631	3253
882.757	3142
882.883	3176
883.01	3195
883.136	3138
883.262	3074
883.388	3150
883.514	3302
883.64	3389
883.766	3306
883.892	3154
884.018	3256
884.143	3435
884.269	3519
884.395	3188
884.52	3135
884.646	3203
884.772	3131
884.897	3085
885.023	3199
885.148	3336
885.274	3420
885.399	3340
885.524	3253
885.65	3253
885.775	3291
885.9	3249
886.025	3401
886.15	3348
886.275	3268
886.4	3226
886.525	3283
886.65	3245
886.775	3272
886.9	3458
887.025	3606
887.149	3405
887.274	3237
887.399	3173
887.523	3199
887.648	3138
887.773	3169
887.897	3351
888.021	3355
888.146	3313
888.27	3428
888.395	3519
888.519	3416
888.643	3450
888.767	3431
888.891	3344
889.015	3245
889.139	3260
889.263	3233
889.387	3374
889.511	3488
889.635	3454
889.759	3302
889.883	3264
890.006	3386
890.13	3488
890.254	3253
890.377	3317
890.501	3188
890.624	3169
890.748	3325
890.871	3180
890.995	3066
891.118	3074
891.241	3211
891.364	3195
891.488	3344
891.611	3119
891.734	3203
891.857	3294
891.98	3233
892.103	3325
892.226	3291
892.349	3161
892.471	3161
892.594	3230
892.717	3283
892.839	3211
892.962	3268
893.085	3367
893.207	3268
893.33	3169
893.452	3169
893.575	3317
893.697	3272
893.819	3454
893.941	3507
894.064	3416
894.186	3237
894.308	3260
894.43	3389
894.552	3515
894.674	3420
894.796	3253
894.918	3321
895.04	3264
895.161	3420
895.283	3393
895.405	3294
895.526	3370
895.648	3428
895.769	3431
895.891	3473
896.012	3492
896.134	3431
896.255	3397
896.376	3367
896.498	3336
896.619	3412
896.74	3351
896.861	3431
896.982	3679
897.103	3797
897.224	3564
897.345	3507
897.466	3420
897.587	3500
897.708	3625
897.828	3553
897.949	3428
898.07	3325
898.19	3431
898.311	3595
898.431	3435
898.552	3534
898.672	3568
898.792	3599
898.913	3507
899.033	3389
899.153	3287
899.273	3203
899.393	3226
899.513	3291
899.633	3272
899.753	3310
899.873	3336
899.993	3397
900.113	3332
900.232	3370
900.352	3287
900.472	3268
900.591	3169
900.711	3287
900.83	3230
900.95	3386
901.069	3466
901.189	3340
901.308	3157
901.427	3081
901.546	3173
901.665	3268
901.784	3332
901.904	3203
902.023	3165
902.141	2975
902.26	2963
902.379	3142
902.498	3066
902.617	3051
902.735	3195
902.854	3222
902.973	3211
903.091	3036
903.21	3055
903.328	3116
903.446	3097
903.565	3062
903.683	3188
903.801	3108
903.919	3211
904.038	3291
904.156	3165
904.274	3279
904.392	3268
904.51	3283
904.627	3340
904.745	3424
904.863	3473
904.981	3241
905.098	3157
905.216	3226
905.334	3325
905.451	3272
905.569	3275
905.686	3412
905.803	3431
905.921	3325
906.038	3405
906.155	3370
906.272	3245
906.389	3321
906.506	3268
906.623	3245
906.74	3302
906.857	3199
906.974	3272
907.091	3447
907.208	3580
907.324	3500
907.441	3401
907.557	3222
907.674	3264
907.79	3272
907.907	3279
908.023	3370
908.139	3367
908.256	3359
908.372	3389
908.488	3374
908.604	3272
908.72	3313
908.836	3310
908.952	3294
909.068	3378
909.184	3492
909.3	3458
909.415	3507
909.531	3477
909.647	3298
909.762	3287
909.878	3348
909.993	3382
910.108	3344
910.224	3355
910.339	3435
910.454	3378
910.57	3294
910.685	3291
910.8	3599
910.915	3606
911.03	3504
911.145	3348
911.259	3317
911.374	3351
911.489	3253
911.604	3306
911.718	3165
911.833	3214
911.947	3055
912.062	2986
912.176	3192
912.291	3268
912.405	3211
912.519	3462
912.633	3519
912.748	3397
912.862	3370
912.976	3188
913.09	3055
913.204	3161
913.318	3253
913.431	3340
913.545	3367
913.659	3420
913.772	3344
913.886	3249
914	3237
914.113	3386
914.226	3424
914.34	3405
914.453	3222
914.566	3469
914.68	3317
914.793	3332
914.906	3203
915.019	3169
915.132	3116
915.245	3176
915.358	3237
915.47	3268
915.583	3306
915.696	3340
915.809	3458
915.921	3477
916.034	3294
916.146	3336
916.259	3279
916.371	3481
916.483	3355
916.595	3321
916.708	3344
916.82	3382
916.932	3378
917.044	3405
917.156	3348
917.268	3279
917.38	3344
917.491	3340
917.603	3435
917.715	3534
917.826	3515
917.938	3435
918.049	3310
918.161	3492
918.272	3610
918.384	3584
918.495	3511
918.606	3355
918.717	3325
918.828	3409
918.939	3420
919.05	3302
919.161	3405
919.272	3222
919.383	3302
919.494	3545
919.604	3762
919.715	3523
919.826	3439
919.936	3515
920.047	3572
920.157	3614
920.267	3785
920.378	3641
920.488	3595
920.598	3808
920.708	3972
920.818	3873
920.928	3835
921.038	4063
921.148	3983
921.258	3774
921.368	3637
921.477	3614
921.587	3591
921.697	3496
921.806	3694
921.916	3542
922.025	3386
922.134	3386
922.244	3306
922.353	3458
922.462	3283
922.571	3275
922.68	3131
922.789	3131
922.898	3188
923.007	3112
923.116	3218
923.224	3214
923.333	3218
923.442	3089
923.55	3119
923.659	3207
923.767	3256
923.876	3169
923.984	3260
924.092	3116
924.201	3272
924.309	3249
924.417	3291
924.525	3195
924.633	3260
924.741	4215
924.849	3070
924.956	3313
925.064	3157
925.172	3077
925.279	3127
925.387	3249
925.494	3283
925.602	3416
925.709	3393
925.816	3233
925.924	3272
926.031	3378
926.138	3378
926.245	3397
926.352	3245
926.459	3439
926.566	3477
926.673	3325
926.779	3283
926.886	3279
926.993	3195
927.099	3199
927.206	3104
927.312	3157
927.419	3294
927.525	3249
927.631	3268
927.737	3199
927.843	3176
927.95	3058
928.056	3157
928.162	3218
928.267	3260
928.373	3899
928.479	3351
928.585	3055
928.69	3256
928.796	3302
928.901	3161
929.007	3104
929.112	3245
929.218	3214
929.323	3165
929.428	3218
929.533	3367
929.638	3169
929.743	3180
929.848	3294
929.953	3233
930.058	3203
930.163	3024
930.267	3062
930.372	3218
930.477	3043
930.581	3340
930.685	3188
930.79	3108
930.894	3150
930.998	3112
931.103	3329
931.207	2986
931.311	2952
931.415	3005
931.519	2830
931.623	2842
