Data from test_V78500241_328.txt Node
Date: Fri Mar 25 16:17:28 CST 2022
User: usil
Spectrometer: V785-0024
Trigger mode: 0
Integration Time (sec): 4.000000E-1
Scans to average: 1
Nonlinearity correction enabled: false
Boxcar width: 0
Storing dark spectrum: false
XAxis mode: Wavelengths
Number of Pixels in Spectrum: 1024
>>>>>Begin Spectral Data<<<<<
801.071	2864
801.214	2952
801.356	2891
801.499	2883
801.641	2887
801.783	2937
801.926	3074
802.068	2975
802.211	3001
802.353	3039
802.496	2986
802.638	3028
802.78	3020
802.923	3047
803.065	3051
803.208	2899
803.35	2906
803.492	2910
803.635	2941
803.777	2762
803.919	2872
804.061	3203
804.204	2952
804.346	2883
804.488	2845
804.63	3039
804.773	2918
804.915	2925
805.057	3074
805.199	2914
805.341	2952
805.483	3047
805.626	3036
805.768	2986
805.91	3070
806.052	3146
806.194	3028
806.336	3253
806.478	3024
806.62	2990
806.762	2975
806.904	3051
807.046	3199
807.188	3017
807.33	2922
807.472	2998
807.614	2941
807.756	2986
807.898	2925
808.04	2902
808.182	3005
808.324	2948
808.465	2899
808.607	2899
808.749	2769
808.891	2872
809.033	3017
809.174	3024
809.316	2872
809.458	2902
809.6	2800
809.741	2785
809.883	2796
810.025	2861
810.166	2906
810.308	2830
810.45	2880
810.591	2769
810.733	2773
810.875	2823
811.016	2792
811.158	2754
811.299	2826
811.441	2941
811.582	2895
811.724	2845
811.865	2842
812.007	2895
812.148	2838
812.29	2845
812.431	2887
812.573	2956
812.714	3005
812.855	3028
812.997	3070
813.138	3108
813.279	3013
813.421	2994
813.562	2975
813.703	2880
813.845	2899
813.986	2777
814.127	2724
814.268	2819
814.41	2861
814.551	2796
814.692	2876
814.833	2804
814.974	2861
815.115	2986
815.256	2830
815.397	2823
815.539	2887
815.68	2800
815.821	2769
815.962	2963
816.103	2925
816.244	2872
816.385	2906
816.526	2937
816.666	2887
816.807	2766
816.948	2918
817.089	2929
817.23	2857
817.371	2807
817.512	2769
817.653	2876
817.793	2842
817.934	2922
818.075	2979
818.216	3013
818.356	3039
818.497	2902
818.638	2807
818.778	2834
818.919	2777
819.06	2788
819.2	2876
819.341	2823
819.481	2823
819.622	2899
819.762	3081
819.903	3028
820.043	2922
820.184	2922
820.324	2895
820.465	3020
820.605	3028
820.746	3047
820.886	2941
821.026	3058
821.167	3150
821.307	3241
821.447	3279
821.588	3218
821.728	3226
821.868	3180
822.008	3066
822.149	3180
822.289	3230
822.429	3127
822.569	3119
822.709	3154
822.849	2994
822.99	3081
823.13	3138
823.27	3188
823.41	3165
823.55	3157
823.69	3127
823.83	3188
823.97	3108
824.11	3013
824.25	2986
824.389	3039
824.529	3123
824.669	3062
824.809	3218
824.949	3253
825.089	3241
825.228	3169
825.368	3017
825.508	2963
825.648	2979
825.787	3032
825.927	3036
826.067	2941
826.206	2956
826.346	3032
826.485	3066
826.625	3112
826.765	3256
826.904	3214
827.044	3013
827.183	2975
827.323	2880
827.462	3009
827.601	2914
827.741	2902
827.88	3005
828.02	2823
828.159	3005
828.298	3055
828.437	3131
828.577	3058
828.716	3218
828.855	3074
828.994	2922
829.134	2918
829.273	2910
829.412	2868
829.551	2849
829.69	2899
829.829	3036
829.968	3150
830.107	3032
830.246	3039
830.385	2952
830.524	2876
830.663	2819
830.802	2750
830.941	2667
831.08	2648
831.219	2766
831.357	2750
831.496	2948
831.635	2754
831.774	2659
831.913	2670
832.051	2552
832.19	2598
832.329	2724
832.467	2522
832.606	2454
832.744	2598
832.883	2575
833.022	2583
833.16	2644
833.299	2674
833.437	2724
833.576	2682
833.714	2712
833.852	2727
833.991	2762
834.129	2826
834.267	2819
834.406	2773
834.544	2895
834.682	2849
834.821	2876
834.959	3051
835.097	2899
835.235	3051
835.373	2994
835.511	3028
835.65	2975
835.788	2941
835.926	2861
836.064	2807
836.202	2887
836.34	3089
836.478	3173
836.615	3100
836.753	3157
836.891	3192
837.029	3135
837.167	3146
837.305	3062
837.443	3062
837.58	2975
837.718	3123
837.856	3081
837.993	3024
838.131	3135
838.269	3058
838.406	3119
838.544	3108
838.681	2948
838.819	2910
838.956	2777
839.094	2838
839.231	2899
839.369	3043
839.506	3389
839.643	3233
839.781	3009
839.918	2986
840.055	3066
840.193	3070
840.33	3058
840.467	3089
840.604	3142
840.742	3370
840.879	3062
841.016	3070
841.153	3108
841.29	3325
841.427	3249
841.564	3264
841.701	3302
841.838	3184
841.975	3199
842.112	3211
842.249	3077
842.385	3055
842.522	3260
842.659	3112
842.796	3074
842.933	3131
843.069	3036
843.206	3047
843.343	3176
843.479	3119
843.616	3157
843.752	2876
843.889	2880
844.025	3062
844.162	2868
844.298	3085
844.435	2910
844.571	2944
844.708	3108
844.844	3184
844.98	3222
845.117	3192
845.253	3051
845.389	3036
845.525	3100
845.661	3093
845.798	3028
845.934	3127
846.07	3032
846.206	3233
846.342	3306
846.478	3222
846.614	3077
846.75	3047
846.886	3036
847.022	3226
847.158	3119
847.294	3150
847.429	3226
847.565	3203
847.701	3466
847.837	3036
847.972	2979
848.108	3112
848.244	3157
848.379	2986
848.515	2956
848.65	2922
848.786	2967
848.921	2982
849.057	3116
849.192	3131
849.328	3081
849.463	3138
849.598	3047
849.734	3043
849.869	2963
850.004	2876
850.14	2956
850.275	2887
850.41	2880
850.545	2876
850.68	2952
850.815	2975
850.95	2975
851.085	3207
851.22	3077
851.355	3036
851.49	2967
851.625	3001
851.76	3013
851.895	2925
852.03	2918
852.165	3032
852.299	3112
852.434	3199
852.569	3131
852.703	3161
852.838	3253
852.973	3359
853.107	3310
853.242	3154
853.376	3081
853.511	3001
853.645	3020
853.78	3207
853.914	3112
854.048	3116
854.183	3093
854.317	3165
854.451	3329
854.585	3135
854.72	3108
854.854	3214
854.988	3036
855.122	3123
855.256	2944
855.39	3081
855.524	3256
855.658	3207
855.792	3165
855.926	3184
856.06	3214
856.194	3268
856.327	3165
856.461	3070
856.595	3100
856.729	3089
856.862	3253
856.996	3112
857.13	3184
857.263	3195
857.397	3268
857.53	3097
857.664	3192
857.797	3226
857.931	3241
858.064	3150
858.197	3188
858.331	3157
858.464	3108
858.597	2986
858.731	3093
858.864	3112
858.997	3055
859.13	3192
859.263	3195
859.396	3180
859.529	3085
859.662	3066
859.795	3066
859.928	3161
860.061	3294
860.194	3253
860.327	3146
860.46	3089
860.592	3256
860.725	3279
860.858	3199
860.99	3119
861.123	3047
861.256	3039
861.388	3119
861.521	3857
861.653	3039
861.786	2990
861.918	2990
862.05	3074
862.183	3077
862.315	3127
862.447	3199
862.58	3104
862.712	2929
862.844	2861
862.976	3001
863.108	3028
863.24	3310
863.372	2853
863.504	2963
863.636	2952
863.768	3039
863.9	3005
864.032	2944
864.164	2948
864.296	3001
864.428	3066
864.559	3089
864.691	3032
864.823	3097
864.954	3051
865.086	3062
865.217	3009
865.349	2967
865.48	2941
865.612	3058
865.743	3135
865.875	2967
866.006	2948
866.137	2967
866.269	2944
866.4	2941
866.531	2944
866.662	2883
866.793	2880
866.924	2861
867.055	2982
867.186	2914
867.317	2864
867.448	2861
867.579	2864
867.71	2853
867.841	2823
867.972	2918
868.103	2929
868.233	2899
868.364	2857
868.495	2910
868.625	3089
868.756	3214
868.886	2967
869.017	3013
869.147	3161
869.278	3192
869.408	3081
869.539	3055
869.669	3100
869.799	3058
869.929	3127
870.06	3085
870.19	3325
870.32	3279
870.45	3279
870.58	3378
870.71	3428
870.84	3431
870.97	3317
871.1	3272
871.23	3488
871.36	3424
871.489	3367
871.619	3412
871.749	3428
871.879	3439
872.008	3511
872.138	3370
872.267	3260
872.397	3112
872.526	3093
872.656	3009
872.785	3062
872.915	3226
873.044	3363
873.173	3264
873.303	3245
873.432	3256
873.561	3237
873.69	3157
873.819	3146
873.948	3195
874.077	3100
874.206	3070
874.335	3081
874.464	3211
874.593	3359
874.722	3268
874.851	3363
874.979	3329
875.108	3317
875.237	3207
875.365	3192
875.494	3192
875.623	3245
875.751	3062
875.88	3097
876.008	3195
876.136	3260
876.265	3344
876.393	3481
876.521	3428
876.65	3416
876.778	3321
876.906	3268
877.034	3176
877.162	3195
877.29	3176
877.418	3253
877.546	3260
877.674	3256
877.802	3245
877.93	3233
878.058	3146
878.185	3093
878.313	3195
878.441	3256
878.568	3093
878.696	3131
878.824	3264
878.951	3294
879.079	3439
879.206	3652
879.333	3420
879.461	3298
879.588	3340
879.715	3481
879.842	3591
879.97	3370
880.097	3154
880.224	3135
880.351	3203
880.478	3214
880.605	3218
880.732	3192
880.859	3477
880.986	3298
881.112	3332
881.239	3173
881.366	3093
881.493	3017
881.619	3051
881.746	3085
881.872	3089
881.999	3089
882.125	3176
882.252	3237
882.378	3294
882.505	3401
882.631	3260
882.757	3157
882.883	3211
883.01	3260
883.136	3127
883.262	3089
883.388	3100
883.514	3313
883.64	3397
883.766	3283
883.892	3222
884.018	3249
884.143	3439
884.269	3545
884.395	3195
884.52	3173
884.646	3184
884.772	3100
884.897	3104
885.023	3249
885.148	3291
885.274	3397
885.399	3363
885.524	3245
885.65	3253
885.775	3325
885.9	3264
886.025	3431
886.15	3382
886.275	3283
886.4	3230
886.525	3279
886.65	3241
886.775	3260
886.9	3511
887.025	3629
887.149	3382
887.274	3275
887.399	3199
887.523	3207
887.648	3203
887.773	3211
887.897	3367
888.021	3416
888.146	3325
888.27	3393
888.395	3515
888.519	3435
888.643	3428
888.767	3477
888.891	3291
889.015	3245
889.139	3264
889.263	3249
889.387	3428
889.511	3507
889.635	3416
889.759	3313
889.883	3249
890.006	3359
890.13	3469
890.254	3279
890.377	3298
890.501	3195
890.624	3176
890.748	3279
890.871	3211
890.995	3116
891.118	3028
891.241	3150
891.364	3226
891.488	3287
891.611	3195
891.734	3192
891.857	3313
891.98	3211
892.103	3340
892.226	3306
892.349	3199
892.471	3089
892.594	3237
892.717	3294
892.839	3260
892.962	3283
893.085	3367
893.207	3279
893.33	3165
893.452	3188
893.575	3344
893.697	3241
893.819	3477
893.941	3523
894.064	3473
894.186	3260
894.308	3294
894.43	3439
894.552	3511
894.674	3462
894.796	3275
894.918	3279
895.04	3291
895.161	3424
895.283	3397
895.405	3344
895.526	3340
895.648	3431
895.769	3435
895.891	3447
896.012	3462
896.134	3485
896.255	3443
896.376	3374
896.498	3367
896.619	3447
896.74	3344
896.861	3412
896.982	3652
897.103	3831
897.224	3584
897.345	3496
897.466	3447
897.587	3519
897.708	3599
897.828	3564
897.949	3458
898.07	3351
898.19	3401
898.311	3618
898.431	3485
898.552	3488
898.672	3576
898.792	3580
898.913	3485
899.033	3443
899.153	3313
899.273	3230
899.393	3313
899.513	3283
899.633	3313
899.753	3351
899.873	3291
899.993	3367
900.113	3332
900.232	3397
900.352	3359
900.472	3294
900.591	3207
900.711	3332
900.83	3199
900.95	3374
901.069	3504
901.189	3317
901.308	3184
901.427	3108
901.546	3218
901.665	3279
901.784	3310
901.904	3253
902.023	3154
902.141	3039
902.26	2967
902.379	3138
902.498	3077
902.617	3043
902.735	3195
902.854	3241
902.973	3211
903.091	3058
903.21	3039
903.328	3142
903.446	3074
903.565	3150
903.683	3195
903.801	3154
903.919	3245
904.038	3264
904.156	3169
904.274	3310
904.392	3237
904.51	3264
904.627	3279
904.745	3439
904.863	3477
904.981	3279
905.098	3169
905.216	3211
905.334	3279
905.451	3325
905.569	3336
905.686	3428
905.803	3447
905.921	3283
906.038	3431
906.155	3397
906.272	3264
906.389	3329
906.506	3195
906.623	3260
906.74	3336
906.857	3192
906.974	3237
907.091	3450
907.208	3572
907.324	3477
907.441	3382
907.557	3237
907.674	3241
907.79	3222
907.907	3313
908.023	3355
908.139	3401
908.256	3325
908.372	3359
908.488	3332
908.604	3264
908.72	3230
908.836	3272
908.952	3287
909.068	3329
909.184	3454
909.3	3386
909.415	3500
909.531	3458
909.647	3287
909.762	3306
909.878	3230
909.993	3332
910.108	3329
910.224	3321
910.339	3428
910.454	3359
910.57	3279
910.685	3272
910.8	3564
910.915	3488
911.03	3454
911.145	3245
911.259	3275
911.374	3336
911.489	3253
911.604	3203
911.718	3100
911.833	3142
911.947	3043
912.062	2975
912.176	3157
912.291	3192
912.405	3180
912.519	3443
912.633	3450
912.748	3340
912.862	3298
912.976	3184
913.09	3070
913.204	3123
913.318	3211
913.431	3348
913.545	3332
913.659	3412
913.772	3321
913.886	3207
914	3245
914.113	3367
914.226	3374
914.34	3378
914.453	3233
914.566	3447
914.68	3325
914.793	3332
914.906	3173
915.019	3138
915.132	3085
915.245	3180
915.358	3211
915.47	3253
915.583	3226
915.696	3302
915.809	3428
915.921	3405
916.034	3294
916.146	3245
916.259	3199
916.371	3367
916.483	3313
916.595	3291
916.708	3351
916.82	3329
916.932	3348
917.044	3336
917.156	3367
917.268	3264
917.38	3298
917.491	3325
917.603	3393
917.715	3477
917.826	3466
917.938	3378
918.049	3260
918.161	3458
918.272	3572
918.384	3568
918.495	3477
918.606	3355
918.717	3268
918.828	3374
918.939	3435
919.05	3329
919.161	3374
919.272	3214
919.383	3272
919.494	3511
919.604	3644
919.715	3477
919.826	3409
919.936	3500
920.047	3557
920.157	3538
920.267	3743
920.378	3599
920.488	3561
920.598	3797
920.708	3972
920.818	3800
920.928	3846
921.038	4032
921.148	3987
921.258	3671
921.368	3625
921.477	3614
921.587	3545
921.697	3450
921.806	3599
921.916	3538
922.025	3344
922.134	3340
922.244	3348
922.353	3439
922.462	3283
922.571	3199
922.68	3100
922.789	3058
922.898	3127
923.007	3089
923.116	3218
923.224	3169
923.333	3192
923.442	3112
923.55	3074
923.659	3116
923.767	3211
923.876	3135
923.984	3233
924.092	3104
924.201	3173
924.309	3199
924.417	3268
924.525	3195
924.633	3241
924.741	4185
924.849	3043
924.956	3249
925.064	3085
925.172	3009
925.279	3131
925.387	3203
925.494	3226
925.602	3363
925.709	3325
925.816	3199
925.924	3268
926.031	3329
926.138	3310
926.245	3348
926.352	3241
926.459	3424
926.566	3458
926.673	3313
926.779	3249
926.886	3226
926.993	3165
927.099	3150
927.206	3127
927.312	3116
927.419	3264
927.525	3157
927.631	3310
927.737	3146
927.843	3161
927.95	3047
928.056	3116
928.162	3192
928.267	3241
928.373	3873
928.479	3359
928.585	3047
928.69	3233
928.796	3264
928.901	3116
929.007	3043
929.112	3211
929.218	3195
929.323	3119
929.428	3138
929.533	3317
929.638	3097
929.743	3180
929.848	3283
929.953	3199
930.058	3154
930.163	2994
930.267	3058
930.372	3222
930.477	3058
930.581	3313
930.685	3184
930.79	3066
930.894	3131
930.998	3097
931.103	3279
931.207	2982
931.311	2960
931.415	2937
931.519	2777
931.623	2800
