Data from test_V78500241_787.txt Node
Date: Fri Mar 25 16:20:39 CST 2022
User: usil
Spectrometer: V785-0024
Trigger mode: 0
Integration Time (sec): 4.000000E-1
Scans to average: 1
Nonlinearity correction enabled: false
Boxcar width: 0
Storing dark spectrum: false
XAxis mode: Wavelengths
Number of Pixels in Spectrum: 1024
>>>>>Begin Spectral Data<<<<<
801.071	2891
801.214	2922
801.356	2864
801.499	2864
801.641	2845
801.783	2918
801.926	3028
802.068	2944
802.211	3036
802.353	3020
802.496	2944
802.638	3017
802.78	3039
802.923	3066
803.065	2994
803.208	2902
803.35	2883
803.492	2929
803.635	2922
803.777	2754
803.919	2845
804.061	3199
804.204	2933
804.346	2906
804.488	2834
804.63	3009
804.773	2861
804.915	2925
805.057	3077
805.199	2914
805.341	2963
805.483	3028
805.626	2998
805.768	2937
805.91	3081
806.052	3062
806.194	3036
806.336	3264
806.478	3032
806.62	2922
806.762	2963
806.904	3024
807.046	3146
807.188	2963
807.33	2899
807.472	2975
807.614	2883
807.756	2990
807.898	2922
808.04	2876
808.182	2952
808.324	2925
808.465	2853
808.607	2872
808.749	2769
808.891	2849
809.033	2979
809.174	3001
809.316	2883
809.458	2902
809.6	2735
809.741	2735
809.883	2785
810.025	2788
810.166	2807
810.308	2845
810.45	2830
810.591	2754
810.733	2769
810.875	2830
811.016	2800
811.158	2769
811.299	2826
811.441	2918
811.582	2895
811.724	2800
811.865	2838
812.007	2883
812.148	2902
812.29	2861
812.431	2883
812.573	2933
812.714	2960
812.855	3036
812.997	3013
813.138	3119
813.279	3005
813.421	2971
813.562	2952
813.703	2880
813.845	2857
813.986	2762
814.127	2686
814.268	2830
814.41	2811
814.551	2800
814.692	2899
814.833	2807
814.974	2849
815.115	2960
815.256	2811
815.397	2807
815.539	2861
815.68	2777
815.821	2796
815.962	2922
816.103	2918
816.244	2864
816.385	2823
816.526	2982
816.666	2922
816.807	2769
816.948	2864
817.089	2910
817.23	2853
817.371	2800
817.512	2804
817.653	2853
817.793	2826
817.934	2880
818.075	2952
818.216	2975
818.356	3009
818.497	2887
818.638	2781
818.778	2819
818.919	2781
819.06	2739
819.2	2861
819.341	2781
819.481	2800
819.622	2899
819.762	3066
819.903	3036
820.043	2925
820.184	2891
820.324	2899
820.465	3013
820.605	3013
820.746	2998
820.886	2922
821.026	3081
821.167	3131
821.307	3260
821.447	3272
821.588	3226
821.728	3188
821.868	3211
822.008	3024
822.149	3165
822.289	3199
822.429	3070
822.569	3085
822.709	3135
822.849	3001
822.99	3047
823.13	3176
823.27	3214
823.41	3089
823.55	3127
823.69	3165
823.83	3199
823.97	3077
824.11	2971
824.25	2990
824.389	3032
824.529	3089
824.669	3009
824.809	3184
824.949	3249
825.089	3214
825.228	3188
825.368	3013
825.508	2982
825.648	2990
825.787	2971
825.927	3020
826.067	3001
826.206	2918
826.346	3024
826.485	3066
826.625	3104
826.765	3226
826.904	3214
827.044	2956
827.183	2922
827.323	2864
827.462	3001
827.601	2895
827.741	2914
827.88	2906
828.02	2826
828.159	2952
828.298	3001
828.437	3135
828.577	2960
828.716	3249
828.855	3047
828.994	2902
829.134	2876
829.273	2925
829.412	2845
829.551	2826
829.69	2899
829.829	2990
829.968	3077
830.107	3020
830.246	2975
830.385	2925
830.524	2861
830.663	2785
830.802	2724
830.941	2636
831.08	2644
831.219	2739
831.357	2739
831.496	2929
831.635	2724
831.774	2651
831.913	2644
832.051	2518
832.19	2556
832.329	2689
832.467	2545
832.606	2465
832.744	2571
832.883	2556
833.022	2541
833.16	2636
833.299	2697
833.437	2693
833.576	2701
833.714	2724
833.852	2701
833.991	2769
834.129	2830
834.267	2872
834.406	2834
834.544	2868
834.682	2910
834.821	2849
834.959	3066
835.097	2895
835.235	3055
835.373	2986
835.511	2994
835.65	2986
835.788	2998
835.926	2834
836.064	2826
836.202	2800
836.34	3081
836.478	3150
836.615	3032
836.753	3131
836.891	3157
837.029	3138
837.167	3081
837.305	3039
837.443	3020
837.58	2979
837.718	3112
837.856	3051
837.993	3032
838.131	3119
838.269	3074
838.406	3066
838.544	3089
838.681	2918
838.819	2872
838.956	2800
839.094	2868
839.231	2929
839.369	3001
839.506	3336
839.643	3188
839.781	3009
839.918	2925
840.055	3036
840.193	3070
840.33	3036
840.467	3074
840.604	3104
840.742	3389
840.879	3013
841.016	3055
841.153	3093
841.29	3348
841.427	3294
841.564	3245
841.701	3332
841.838	3214
841.975	3195
842.112	3192
842.249	3036
842.385	3017
842.522	3253
842.659	3116
842.796	3047
842.933	3074
843.069	3043
843.206	3009
843.343	3199
843.479	3112
843.616	3131
843.752	2914
843.889	2849
844.025	3051
844.162	2845
844.298	3070
844.435	2922
844.571	2880
844.708	3047
844.844	3173
844.98	3195
845.117	3165
845.253	3009
845.389	2994
845.525	3108
845.661	3066
845.798	3009
845.934	3108
846.07	3081
846.206	3214
846.342	3275
846.478	3233
846.614	3081
846.75	3097
846.886	3036
847.022	3218
847.158	3184
847.294	3203
847.429	3264
847.565	3195
847.701	3492
847.837	3024
847.972	2979
848.108	3119
848.244	3138
848.379	2944
848.515	2952
848.65	2929
848.786	2956
848.921	2971
849.057	3081
849.192	3123
849.328	3028
849.463	3093
849.598	3062
849.734	2990
849.869	2929
850.004	2902
850.14	2960
850.275	2910
850.41	2800
850.545	2868
850.68	2929
850.815	2967
850.95	2941
851.085	3142
851.22	3097
851.355	3009
851.49	2975
851.625	2975
851.76	3005
851.895	2925
852.03	2906
852.165	3009
852.299	3097
852.434	3184
852.569	3112
852.703	3150
852.838	3260
852.973	3336
853.107	3283
853.242	3135
853.376	3097
853.511	2941
853.645	3024
853.78	3230
853.914	3135
854.048	3100
854.183	3047
854.317	3100
854.451	3310
854.585	3127
854.72	3043
854.854	3184
854.988	3055
855.122	3100
855.256	2998
855.39	3100
855.524	3226
855.658	3173
855.792	3150
855.926	3165
856.06	3203
856.194	3226
856.327	3127
856.461	3077
856.595	3036
856.729	3077
856.862	3165
856.996	3142
857.13	3192
857.263	3233
857.397	3260
857.53	3112
857.664	3150
857.797	3188
857.931	3222
858.064	3161
858.197	3176
858.331	3112
858.464	3093
858.597	2956
858.731	3100
858.864	3085
858.997	3066
859.13	3131
859.263	3150
859.396	3207
859.529	3074
859.662	3039
859.795	3005
859.928	3112
860.061	3260
860.194	3302
860.327	3100
860.46	3058
860.592	3203
860.725	3226
860.858	3214
860.99	3081
861.123	3020
861.256	3020
861.388	3112
861.521	3896
861.653	3020
861.786	2925
861.918	2933
862.05	2990
862.183	3077
862.315	3154
862.447	3199
862.58	3100
862.712	2944
862.844	2891
862.976	3036
863.108	2975
863.24	3401
863.372	2880
863.504	3005
863.636	2986
863.768	3051
863.9	2979
864.032	2922
864.164	2948
864.296	3036
864.428	3127
864.559	3081
864.691	3089
864.823	3055
864.954	3051
865.086	3077
865.217	2986
865.349	2979
865.48	3036
865.612	3043
865.743	3180
865.875	3066
866.006	2967
866.137	3013
866.269	2994
866.4	2956
866.531	2948
866.662	2918
866.793	2941
866.924	2922
867.055	2979
867.186	2956
867.317	2876
867.448	2872
867.579	2952
867.71	2891
867.841	2804
867.972	2922
868.103	2963
868.233	2929
868.364	2910
868.495	2956
868.625	3112
868.756	3176
868.886	2975
869.017	3077
869.147	3214
869.278	3195
869.408	3070
869.539	3070
869.669	3116
869.799	3062
869.929	3188
870.06	3157
870.19	3374
870.32	3344
870.45	3317
870.58	3378
870.71	3492
870.84	3462
870.97	3306
871.1	3287
871.23	3481
871.36	3485
871.489	3397
871.619	3431
871.749	3443
871.879	3466
872.008	3523
872.138	3382
872.267	3260
872.397	3173
872.526	3127
872.656	3024
872.785	3116
872.915	3245
873.044	3325
873.173	3272
873.303	3279
873.432	3264
873.561	3298
873.69	3176
873.819	3169
873.948	3245
874.077	3146
874.206	3104
874.335	3104
874.464	3233
874.593	3340
874.722	3264
874.851	3450
874.979	3405
875.108	3355
875.237	3241
875.365	3207
875.494	3226
875.623	3279
875.751	3108
875.88	3127
876.008	3245
876.136	3264
876.265	3424
876.393	3549
876.521	3424
876.65	3424
876.778	3294
876.906	3272
877.034	3226
877.162	3268
877.29	3211
877.418	3245
877.546	3260
877.674	3268
877.802	3260
877.93	3253
878.058	3176
878.185	3142
878.313	3207
878.441	3253
878.568	3104
878.696	3176
878.824	3291
878.951	3344
879.079	3454
879.206	3652
879.333	3428
879.461	3374
879.588	3378
879.715	3481
879.842	3614
879.97	3435
880.097	3195
880.224	3146
880.351	3222
880.478	3214
880.605	3237
880.732	3192
880.859	3507
880.986	3367
881.112	3336
881.239	3226
881.366	3138
881.493	3051
881.619	3047
881.746	3100
881.872	3077
881.999	3138
882.125	3173
882.252	3268
882.378	3272
882.505	3466
882.631	3275
882.757	3199
882.883	3256
883.01	3249
883.136	3176
883.262	3127
883.388	3165
883.514	3367
883.64	3348
883.766	3344
883.892	3203
884.018	3302
884.143	3435
884.269	3576
884.395	3245
884.52	3222
884.646	3207
884.772	3142
884.897	3116
885.023	3249
885.148	3367
885.274	3469
885.399	3435
885.524	3317
885.65	3264
885.775	3355
885.9	3302
886.025	3485
886.15	3447
886.275	3367
886.4	3272
886.525	3310
886.65	3279
886.775	3310
886.9	3576
887.025	3648
887.149	3428
887.274	3287
887.399	3207
887.523	3245
887.648	3226
887.773	3237
887.897	3416
888.021	3435
888.146	3283
888.27	3477
888.395	3606
888.519	3458
888.643	3477
888.767	3511
888.891	3313
889.015	3321
889.139	3321
889.263	3256
889.387	3481
889.511	3584
889.635	3488
889.759	3298
889.883	3313
890.006	3435
890.13	3526
890.254	3302
890.377	3370
890.501	3218
890.624	3214
890.748	3336
890.871	3195
890.995	3154
891.118	3108
891.241	3218
891.364	3256
891.488	3348
891.611	3207
891.734	3256
891.857	3302
891.98	3222
892.103	3332
892.226	3321
892.349	3173
892.471	3154
892.594	3260
892.717	3332
892.839	3291
892.962	3313
893.085	3397
893.207	3329
893.33	3188
893.452	3245
893.575	3393
893.697	3253
893.819	3526
893.941	3477
894.064	3496
894.186	3287
894.308	3256
894.43	3469
894.552	3519
894.674	3504
894.796	3302
894.918	3363
895.04	3329
895.161	3473
895.283	3405
895.405	3332
895.526	3401
895.648	3469
895.769	3431
895.891	3488
896.012	3492
896.134	3481
896.255	3409
896.376	3401
896.498	3382
896.619	3435
896.74	3393
896.861	3469
896.982	3686
897.103	3846
897.224	3595
897.345	3568
897.466	3447
897.587	3534
897.708	3629
897.828	3561
897.949	3492
898.07	3363
898.19	3397
898.311	3595
898.431	3473
898.552	3519
898.672	3606
898.792	3618
898.913	3530
899.033	3469
899.153	3313
899.273	3253
899.393	3279
899.513	3378
899.633	3340
899.753	3367
899.873	3329
899.993	3462
900.113	3329
900.232	3450
900.352	3382
900.472	3302
900.591	3233
900.711	3279
900.83	3302
900.95	3443
901.069	3530
901.189	3294
901.308	3154
901.427	3150
901.546	3211
901.665	3332
901.784	3313
901.904	3253
902.023	3157
902.141	3036
902.26	2998
902.379	3173
902.498	3119
902.617	3093
902.735	3230
902.854	3256
902.973	3165
903.091	3043
903.21	3093
903.328	3161
903.446	3165
903.565	3127
903.683	3256
903.801	3150
903.919	3256
904.038	3325
904.156	3146
904.274	3351
904.392	3317
904.51	3291
904.627	3336
904.745	3473
904.863	3485
904.981	3298
905.098	3199
905.216	3245
905.334	3321
905.451	3329
905.569	3298
905.686	3450
905.803	3447
905.921	3302
906.038	3466
906.155	3370
906.272	3268
906.389	3363
906.506	3211
906.623	3310
906.74	3313
906.857	3207
906.974	3268
907.091	3469
907.208	3564
907.324	3519
907.441	3416
907.557	3283
907.674	3256
907.79	3237
907.907	3294
908.023	3382
908.139	3340
908.256	3325
908.372	3397
908.488	3393
908.604	3283
908.72	3249
908.836	3287
908.952	3321
909.068	3351
909.184	3481
909.3	3439
909.415	3523
909.531	3515
909.647	3283
909.762	3336
909.878	3245
909.993	3382
910.108	3386
910.224	3325
910.339	3439
910.454	3370
910.57	3317
910.685	3260
910.8	3591
910.915	3530
911.03	3439
911.145	3275
911.259	3272
911.374	3340
911.489	3268
911.604	3256
911.718	3123
911.833	3195
911.947	3036
912.062	3024
912.176	3184
912.291	3226
912.405	3218
912.519	3416
912.633	3477
912.748	3321
912.862	3256
912.976	3188
913.09	3058
913.204	3157
913.318	3230
913.431	3336
913.545	3336
913.659	3424
913.772	3321
913.886	3249
914	3203
914.113	3389
914.226	3435
914.34	3428
914.453	3218
914.566	3439
914.68	3321
914.793	3336
914.906	3176
915.019	3135
915.132	3131
915.245	3203
915.358	3222
915.47	3256
915.583	3321
915.696	3329
915.809	3443
915.921	3401
916.034	3287
916.146	3294
916.259	3226
916.371	3397
916.483	3397
916.595	3321
916.708	3344
916.82	3355
916.932	3344
917.044	3348
917.156	3363
917.268	3279
917.38	3298
917.491	3329
917.603	3405
917.715	3496
917.826	3473
917.938	3412
918.049	3287
918.161	3450
918.272	3591
918.384	3561
918.495	3542
918.606	3329
918.717	3302
918.828	3428
918.939	3393
919.05	3332
919.161	3416
919.272	3195
919.383	3313
919.494	3462
919.604	3686
919.715	3504
919.826	3416
919.936	3466
920.047	3591
920.157	3561
920.267	3751
920.378	3614
920.488	3610
920.598	3823
920.708	3956
920.818	3808
920.928	3892
921.038	4067
921.148	4036
921.258	3713
921.368	3667
921.477	3603
921.587	3515
921.697	3523
921.806	3648
921.916	3549
922.025	3340
922.134	3340
922.244	3344
922.353	3469
922.462	3298
922.571	3256
922.68	3157
922.789	3097
922.898	3131
923.007	3100
923.116	3233
923.224	3176
923.333	3211
923.442	3104
923.55	3104
923.659	3173
923.767	3218
923.876	3138
923.984	3279
924.092	3123
924.201	3184
924.309	3256
924.417	3275
924.525	3211
924.633	3241
924.741	4173
924.849	3055
924.956	3283
925.064	3100
925.172	3039
925.279	3100
925.387	3188
925.494	3203
925.602	3374
925.709	3306
925.816	3203
925.924	3294
926.031	3401
926.138	3325
926.245	3378
926.352	3279
926.459	3405
926.566	3473
926.673	3310
926.779	3317
926.886	3306
926.993	3150
927.099	3165
927.206	3116
927.312	3112
927.419	3192
927.525	3218
927.631	3279
927.737	3173
927.843	3077
927.95	3032
928.056	3154
928.162	3138
928.267	3275
928.373	3759
928.479	3332
928.585	3085
928.69	3207
928.796	3237
928.901	3135
929.007	3062
929.112	3233
929.218	3203
929.323	3154
929.428	3157
929.533	3340
929.638	3157
929.743	3188
929.848	3268
929.953	3245
930.058	3112
930.163	3020
930.267	3070
930.372	3211
930.477	3066
930.581	3317
930.685	3230
930.79	3058
930.894	3146
930.998	3089
931.103	3275
931.207	2979
931.311	2948
931.415	2933
931.519	2796
931.623	2842
