Data from test_V78500241_803.txt Node
Date: Fri Mar 25 16:20:45 CST 2022
User: usil
Spectrometer: V785-0024
Trigger mode: 0
Integration Time (sec): 4.000000E-1
Scans to average: 1
Nonlinearity correction enabled: false
Boxcar width: 0
Storing dark spectrum: false
XAxis mode: Wavelengths
Number of Pixels in Spectrum: 1024
>>>>>Begin Spectral Data<<<<<
801.071	2929
801.214	2941
801.356	2849
801.499	2864
801.641	2834
801.783	2933
801.926	3062
802.068	2967
802.211	3013
802.353	3009
802.496	2925
802.638	2990
802.78	3036
802.923	3051
803.065	2994
803.208	2899
803.35	2929
803.492	2944
803.635	2906
803.777	2754
803.919	2868
804.061	3192
804.204	2994
804.346	2922
804.488	2807
804.63	2979
804.773	2842
804.915	2880
805.057	3104
805.199	2914
805.341	3005
805.483	3062
805.626	3005
805.768	2925
805.91	3077
806.052	3108
806.194	3028
806.336	3226
806.478	3036
806.62	2914
806.762	2971
806.904	3047
807.046	3207
807.188	2994
807.33	2922
807.472	2956
807.614	2925
807.756	2975
807.898	2944
808.04	2922
808.182	2975
808.324	2982
808.465	2876
808.607	2857
808.749	2788
808.891	2792
809.033	2975
809.174	2902
809.316	2914
809.458	2895
809.6	2773
809.741	2773
809.883	2796
810.025	2845
810.166	2853
810.308	2826
810.45	2868
810.591	2792
810.733	2746
810.875	2830
811.016	2762
811.158	2720
811.299	2807
811.441	2914
811.582	2895
811.724	2800
811.865	2849
812.007	2906
812.148	2899
812.29	2849
812.431	2891
812.573	2925
812.714	2982
812.855	3058
812.997	3051
813.138	3085
813.279	3028
813.421	2963
813.562	2941
813.703	2891
813.845	2883
813.986	2762
814.127	2735
814.268	2849
814.41	2861
814.551	2807
814.692	2868
814.833	2853
814.974	2849
815.115	2960
815.256	2815
815.397	2842
815.539	2834
815.68	2777
815.821	2800
815.962	2910
816.103	2895
816.244	2887
816.385	2891
816.526	2986
816.666	2895
816.807	2731
816.948	2899
817.089	2910
817.23	2906
817.371	2781
817.512	2785
817.653	2811
817.793	2826
817.934	2880
818.075	2960
818.216	2990
818.356	3043
818.497	2876
818.638	2804
818.778	2804
818.919	2777
819.06	2781
819.2	2876
819.341	2796
819.481	2800
819.622	2906
819.762	3047
819.903	3055
820.043	2944
820.184	2902
820.324	2902
820.465	3013
820.605	3047
820.746	3032
820.886	2944
821.026	3070
821.167	3138
821.307	3226
821.447	3260
821.588	3218
821.728	3157
821.868	3199
822.008	3097
822.149	3195
822.289	3203
822.429	3085
822.569	3089
822.709	3161
822.849	3062
822.99	3074
823.13	3135
823.27	3211
823.41	3062
823.55	3146
823.69	3138
823.83	3169
823.97	3070
824.11	3009
824.25	3028
824.389	3043
824.529	3142
824.669	3104
824.809	3176
824.949	3233
825.089	3230
825.228	3218
825.368	2982
825.508	2963
825.648	2979
825.787	2998
825.927	2998
826.067	2963
826.206	2979
826.346	3066
826.485	3062
826.625	3055
826.765	3283
826.904	3180
827.044	2986
827.183	2929
827.323	2864
827.462	2937
827.601	2914
827.741	2906
827.88	2952
828.02	2819
828.159	2975
828.298	3043
828.437	3131
828.577	3024
828.716	3222
828.855	3055
828.994	2914
829.134	2880
829.273	2914
829.412	2876
829.551	2883
829.69	2883
829.829	2990
829.968	3116
830.107	3005
830.246	3005
830.385	2941
830.524	2895
830.663	2754
830.802	2708
830.941	2644
831.08	2648
831.219	2739
831.357	2739
831.496	2918
831.635	2739
831.774	2621
831.913	2678
832.051	2564
832.19	2549
832.329	2678
832.467	2511
832.606	2492
832.744	2583
832.883	2564
833.022	2560
833.16	2644
833.299	2686
833.437	2689
833.576	2682
833.714	2708
833.852	2727
833.991	2735
834.129	2807
834.267	2815
834.406	2785
834.544	2857
834.682	2861
834.821	2861
834.959	3047
835.097	2845
835.235	3039
835.373	2963
835.511	3017
835.65	2963
835.788	2937
835.926	2819
836.064	2804
836.202	2845
836.34	3093
836.478	3138
836.615	3043
836.753	3150
836.891	3184
837.029	3119
837.167	3116
837.305	3062
837.443	3039
837.58	2960
837.718	3100
837.856	3039
837.993	3024
838.131	3127
838.269	3100
838.406	3039
838.544	3066
838.681	2929
838.819	2895
838.956	2804
839.094	2796
839.231	2937
839.369	3028
839.506	3370
839.643	3241
839.781	3028
839.918	2979
840.055	3043
840.193	3051
840.33	3051
840.467	3097
840.604	3116
840.742	3393
840.879	3047
841.016	2990
841.153	3074
841.29	3306
841.427	3298
841.564	3275
841.701	3268
841.838	3203
841.975	3192
842.112	3199
842.249	3097
842.385	3047
842.522	3195
842.659	3058
842.796	3028
842.933	3104
843.069	3024
843.206	3009
843.343	3157
843.479	3119
843.616	3119
843.752	2861
843.889	2842
844.025	3066
844.162	2849
844.298	3085
844.435	2990
844.571	2922
844.708	3036
844.844	3214
844.98	3226
845.117	3203
845.253	3039
845.389	3013
845.525	3097
845.661	3081
845.798	3005
845.934	3119
846.07	3039
846.206	3192
846.342	3332
846.478	3199
846.614	3089
846.75	3024
846.886	3020
847.022	3287
847.158	3119
847.294	3157
847.429	3283
847.565	3207
847.701	3500
847.837	3024
847.972	3001
848.108	3165
848.244	3142
848.379	2948
848.515	2922
848.65	2910
848.786	2929
848.921	3024
849.057	3093
849.192	3123
849.328	3055
849.463	3131
849.598	3077
849.734	3070
849.869	2914
850.004	2910
850.14	2960
850.275	2933
850.41	2891
850.545	2861
850.68	2914
850.815	2963
850.95	2925
851.085	3176
851.22	3100
851.355	3020
851.49	2956
851.625	2975
851.76	2975
851.895	2963
852.03	2906
852.165	3024
852.299	3047
852.434	3154
852.569	3112
852.703	3165
852.838	3241
852.973	3351
853.107	3332
853.242	3142
853.376	3100
853.511	2967
853.645	3001
853.78	3222
853.914	3116
854.048	3127
854.183	3108
854.317	3169
854.451	3291
854.585	3112
854.72	3047
854.854	3165
854.988	3039
855.122	3081
855.256	2960
855.39	3074
855.524	3214
855.658	3142
855.792	3138
855.926	3169
856.06	3218
856.194	3245
856.327	3150
856.461	3066
856.595	3039
856.729	3062
856.862	3226
856.996	3131
857.13	3203
857.263	3199
857.397	3279
857.53	3146
857.664	3150
857.797	3226
857.931	3283
858.064	3127
858.197	3218
858.331	3127
858.464	3112
858.597	3032
858.731	3108
858.864	3154
858.997	3062
859.13	3150
859.263	3165
859.396	3188
859.529	3081
859.662	3039
859.795	3017
859.928	3154
860.061	3268
860.194	3272
860.327	3127
860.46	3089
860.592	3245
860.725	3237
860.858	3237
860.99	3112
861.123	3085
861.256	3047
861.388	3142
861.521	3979
861.653	2990
861.786	2998
861.918	2982
862.05	3066
862.183	3074
862.315	3127
862.447	3180
862.58	3116
862.712	2933
862.844	2891
862.976	2990
863.108	2986
863.24	3287
863.372	2872
863.504	2922
863.636	2956
863.768	3024
863.9	2971
864.032	2925
864.164	2975
864.296	2998
864.428	3081
864.559	3077
864.691	3081
864.823	3093
864.954	2998
865.086	3005
865.217	2967
865.349	2948
865.48	2986
865.612	3058
865.743	3150
865.875	3005
866.006	2952
866.137	2944
866.269	2979
866.4	2933
866.531	2922
866.662	2899
866.793	2906
866.924	2883
867.055	2994
867.186	2880
867.317	2914
867.448	2857
867.579	2819
867.71	2853
867.841	2815
867.972	2918
868.103	2914
868.233	2872
868.364	2838
868.495	2883
868.625	3047
868.756	3157
868.886	2979
869.017	2990
869.147	3142
869.278	3192
869.408	3024
869.539	3001
869.669	3089
869.799	3058
869.929	3104
870.06	3070
870.19	3313
870.32	3306
870.45	3294
870.58	3374
870.71	3424
870.84	3450
870.97	3233
871.1	3253
871.23	3477
871.36	3504
871.489	3340
871.619	3409
871.749	3405
871.879	3409
872.008	3545
872.138	3367
872.267	3275
872.397	3112
872.526	3077
872.656	3013
872.785	3074
872.915	3226
873.044	3317
873.173	3226
873.303	3226
873.432	3222
873.561	3230
873.69	3123
873.819	3123
873.948	3184
874.077	3135
874.206	3036
874.335	3097
874.464	3180
874.593	3329
874.722	3230
874.851	3397
874.979	3329
875.108	3306
875.237	3195
875.365	3150
875.494	3146
875.623	3230
875.751	3074
875.88	3085
876.008	3195
876.136	3264
876.265	3393
876.393	3507
876.521	3420
876.65	3355
876.778	3348
876.906	3241
877.034	3211
877.162	3188
877.29	3161
877.418	3291
877.546	3241
877.674	3253
877.802	3184
877.93	3195
878.058	3097
878.185	3108
878.313	3180
878.441	3192
878.568	3058
878.696	3150
878.824	3233
878.951	3287
879.079	3431
879.206	3603
879.333	3435
879.461	3348
879.588	3344
879.715	3454
879.842	3561
879.97	3355
880.097	3184
880.224	3116
880.351	3192
880.478	3245
880.605	3146
880.732	3226
880.859	3458
880.986	3283
881.112	3351
881.239	3256
881.366	3081
881.493	3043
881.619	3020
881.746	3085
881.872	3062
881.999	3112
882.125	3123
882.252	3207
882.378	3272
882.505	3435
882.631	3275
882.757	3138
882.883	3249
883.01	3226
883.136	3150
883.262	3077
883.388	3100
883.514	3329
883.64	3363
883.766	3321
883.892	3169
884.018	3268
884.143	3382
884.269	3564
884.395	3173
884.52	3150
884.646	3184
884.772	3123
884.897	3085
885.023	3199
885.148	3329
885.274	3393
885.399	3393
885.524	3275
885.65	3264
885.775	3283
885.9	3272
886.025	3416
886.15	3374
886.275	3268
886.4	3260
886.525	3306
886.65	3294
886.775	3241
886.9	3488
887.025	3603
887.149	3389
887.274	3226
887.399	3169
887.523	3195
887.648	3195
887.773	3161
887.897	3367
888.021	3363
888.146	3272
888.27	3416
888.395	3511
888.519	3450
888.643	3420
888.767	3481
888.891	3310
889.015	3218
889.139	3294
889.263	3283
889.387	3435
889.511	3504
889.635	3428
889.759	3287
889.883	3310
890.006	3389
890.13	3481
890.254	3268
890.377	3351
890.501	3199
890.624	3184
890.748	3313
890.871	3146
890.995	3066
891.118	3062
891.241	3188
891.364	3222
891.488	3336
891.611	3214
891.734	3256
891.857	3275
891.98	3241
892.103	3348
892.226	3291
892.349	3199
892.471	3112
892.594	3226
892.717	3287
892.839	3249
892.962	3302
893.085	3393
893.207	3237
893.33	3142
893.452	3222
893.575	3351
893.697	3268
893.819	3469
893.941	3469
894.064	3454
894.186	3245
894.308	3291
894.43	3450
894.552	3530
894.674	3485
894.796	3253
894.918	3332
895.04	3264
895.161	3420
895.283	3443
895.405	3306
895.526	3359
895.648	3416
895.769	3431
895.891	3428
896.012	3466
896.134	3450
896.255	3420
896.376	3420
896.498	3355
896.619	3428
896.74	3359
896.861	3420
896.982	3682
897.103	3804
897.224	3580
897.345	3507
897.466	3454
897.587	3447
897.708	3633
897.828	3576
897.949	3416
898.07	3313
898.19	3409
898.311	3549
898.431	3477
898.552	3526
898.672	3599
898.792	3545
898.913	3542
899.033	3397
899.153	3313
899.273	3199
899.393	3294
899.513	3306
899.633	3287
899.753	3336
899.873	3283
899.993	3382
900.113	3298
900.232	3382
900.352	3321
900.472	3272
900.591	3184
900.711	3294
900.83	3245
900.95	3405
901.069	3481
901.189	3317
901.308	3138
901.427	3154
901.546	3195
901.665	3283
901.784	3359
901.904	3233
902.023	3104
902.141	3028
902.26	2990
902.379	3157
902.498	3089
902.617	3077
902.735	3226
902.854	3211
902.973	3195
903.091	3013
903.21	3077
903.328	3131
903.446	3077
903.565	3127
903.683	3207
903.801	3104
903.919	3218
904.038	3279
904.156	3180
904.274	3310
904.392	3245
904.51	3256
904.627	3332
904.745	3416
904.863	3485
904.981	3245
905.098	3199
905.216	3241
905.334	3256
905.451	3306
905.569	3283
905.686	3431
905.803	3416
905.921	3321
906.038	3424
906.155	3359
906.272	3256
906.389	3321
906.506	3237
906.623	3260
906.74	3275
906.857	3199
906.974	3218
907.091	3454
907.208	3538
907.324	3481
907.441	3370
907.557	3203
907.674	3245
907.79	3253
907.907	3283
908.023	3367
908.139	3401
908.256	3332
908.372	3355
908.488	3340
908.604	3253
908.72	3218
908.836	3310
908.952	3275
909.068	3329
909.184	3443
909.3	3378
909.415	3492
909.531	3458
909.647	3275
909.762	3237
909.878	3241
909.993	3370
910.108	3317
910.224	3340
910.339	3424
910.454	3313
910.57	3272
910.685	3222
910.8	3622
910.915	3523
911.03	3447
911.145	3245
911.259	3306
911.374	3283
911.489	3214
911.604	3233
911.718	3119
911.833	3142
911.947	3013
912.062	2963
912.176	3211
912.291	3184
912.405	3180
912.519	3428
912.633	3458
912.748	3321
912.862	3283
912.976	3138
913.09	3051
913.204	3131
913.318	3203
913.431	3340
913.545	3336
913.659	3416
913.772	3351
913.886	3233
914	3184
914.113	3325
914.226	3435
914.34	3401
914.453	3188
914.566	3431
914.68	3340
914.793	3325
914.906	3135
915.019	3116
915.132	3108
915.245	3169
915.358	3211
915.47	3203
915.583	3245
915.696	3275
915.809	3382
915.921	3443
916.034	3237
916.146	3275
916.259	3253
916.371	3363
916.483	3340
916.595	3264
916.708	3378
916.82	3340
916.932	3340
917.044	3340
917.156	3329
917.268	3253
917.38	3294
917.491	3313
917.603	3367
917.715	3458
917.826	3447
917.938	3405
918.049	3260
918.161	3416
918.272	3564
918.384	3572
918.495	3477
918.606	3348
918.717	3298
918.828	3389
918.939	3386
919.05	3291
919.161	3351
919.272	3169
919.383	3260
919.494	3481
919.604	3686
919.715	3466
919.826	3416
919.936	3458
920.047	3542
920.157	3549
920.267	3732
920.378	3622
920.488	3534
920.598	3797
920.708	3911
920.818	3785
920.928	3831
921.038	4044
921.148	3991
921.258	3732
921.368	3656
921.477	3568
921.587	3545
921.697	3462
921.806	3625
921.916	3564
922.025	3370
922.134	3367
922.244	3313
922.353	3374
922.462	3279
922.571	3207
922.68	3077
922.789	3100
922.898	3119
923.007	3100
923.116	3176
923.224	3169
923.333	3150
923.442	3100
923.55	3070
923.659	3146
923.767	3222
923.876	3116
923.984	3222
924.092	3112
924.201	3184
924.309	3195
924.417	3226
924.525	3176
924.633	3199
924.741	4169
924.849	3066
924.956	3260
925.064	3112
925.172	3066
925.279	3097
925.387	3195
925.494	3173
925.602	3355
925.709	3329
925.816	3195
925.924	3260
926.031	3336
926.138	3348
926.245	3359
926.352	3253
926.459	3447
926.566	3477
926.673	3313
926.779	3222
926.886	3184
926.993	3142
927.099	3119
927.206	3100
927.312	3104
927.419	3188
927.525	3173
927.631	3272
927.737	3135
927.843	3097
927.95	3043
928.056	3104
928.162	3188
928.267	3203
928.373	3759
928.479	3256
928.585	3077
928.69	3184
928.796	3237
928.901	3165
929.007	3017
929.112	3173
929.218	3135
929.323	3146
929.428	3180
929.533	3279
929.638	3116
929.743	3157
929.848	3253
929.953	3188
930.058	3138
930.163	3009
930.267	3081
930.372	3214
930.477	3001
930.581	3279
930.685	3180
930.79	3017
930.894	3127
930.998	3051
931.103	3264
931.207	2967
931.311	2956
931.415	2925
931.519	2773
931.623	2788
