Data from test_V78500241_205.txt Node
Date: Fri Mar 25 16:16:37 CST 2022
User: usil
Spectrometer: V785-0024
Trigger mode: 0
Integration Time (sec): 4.000000E-1
Scans to average: 1
Nonlinearity correction enabled: false
Boxcar width: 0
Storing dark spectrum: false
XAxis mode: Wavelengths
Number of Pixels in Spectrum: 1024
>>>>>Begin Spectral Data<<<<<
801.071	2925
801.214	2952
801.356	2906
801.499	2925
801.641	2910
801.783	2937
801.926	3081
802.068	2956
802.211	2998
802.353	3013
802.496	2994
802.638	3013
802.78	3062
802.923	3077
803.065	2998
803.208	2948
803.35	2933
803.492	2944
803.635	2918
803.777	2769
803.919	2849
804.061	3241
804.204	2960
804.346	2933
804.488	2876
804.63	3013
804.773	2853
804.915	2914
805.057	3100
805.199	2956
805.341	2982
805.483	3081
805.626	3047
805.768	2975
805.91	3081
806.052	3135
806.194	3036
806.336	3245
806.478	3028
806.62	2986
806.762	3009
806.904	3100
807.046	3127
807.188	2971
807.33	2906
807.472	3009
807.614	2918
807.756	3017
807.898	2914
808.04	2906
808.182	3009
808.324	2971
808.465	2922
808.607	2914
808.749	2788
808.891	2849
809.033	3017
809.174	3017
809.316	2910
809.458	2937
809.6	2777
809.741	2819
809.883	2826
810.025	2883
810.166	2872
810.308	2830
810.45	2895
810.591	2785
810.733	2807
810.875	2876
811.016	2823
811.158	2804
811.299	2853
811.441	2944
811.582	2891
811.724	2853
811.865	2868
812.007	2960
812.148	2914
812.29	2883
812.431	2891
812.573	2944
812.714	2986
812.855	3051
812.997	3077
813.138	3157
813.279	3028
813.421	3005
813.562	2963
813.703	2918
813.845	2925
813.986	2785
814.127	2769
814.268	2845
814.41	2899
814.551	2823
814.692	2887
814.833	2838
814.974	2941
815.115	2982
815.256	2838
815.397	2872
815.539	2872
815.68	2781
815.821	2823
815.962	2986
816.103	2925
816.244	2925
816.385	2891
816.526	2963
816.666	2986
816.807	2754
816.948	2891
817.089	2906
817.23	2868
817.371	2823
817.512	2830
817.653	2880
817.793	2838
817.934	2914
818.075	2998
818.216	2967
818.356	3009
818.497	2857
818.638	2823
818.778	2845
818.919	2819
819.06	2769
819.2	2880
819.341	2842
819.481	2792
819.622	2960
819.762	3100
819.903	3074
820.043	2891
820.184	2906
820.324	2941
820.465	3051
820.605	3020
820.746	3108
820.886	2994
821.026	3074
821.167	3192
821.307	3253
821.447	3291
821.588	3268
821.728	3207
821.868	3222
822.008	3043
822.149	3241
822.289	3272
822.429	3112
822.569	3100
822.709	3180
822.849	3058
822.99	3074
823.13	3195
823.27	3226
823.41	3093
823.55	3192
823.69	3180
823.83	3195
823.97	3108
824.11	2971
824.25	3009
824.389	3062
824.529	3142
824.669	3089
824.809	3237
824.949	3268
825.089	3260
825.228	3165
825.368	2994
825.508	2982
825.648	3009
825.787	3028
825.927	3055
826.067	2975
826.206	2982
826.346	3051
826.485	3074
826.625	3127
826.765	3260
826.904	3211
827.044	3005
827.183	2925
827.323	2864
827.462	2982
827.601	2956
827.741	2956
827.88	2971
828.02	2876
828.159	2998
828.298	3039
828.437	3165
828.577	3043
828.716	3306
828.855	3119
828.994	2925
829.134	2895
829.273	2956
829.412	2880
829.551	2891
829.69	2876
829.829	3009
829.968	3157
830.107	3009
830.246	3051
830.385	2914
830.524	2918
830.663	2857
830.802	2750
830.941	2651
831.08	2636
831.219	2800
831.357	2750
831.496	2990
831.635	2716
831.774	2689
831.913	2640
832.051	2568
832.19	2579
832.329	2701
832.467	2549
832.606	2495
832.744	2549
832.883	2579
833.022	2617
833.16	2648
833.299	2701
833.437	2720
833.576	2712
833.714	2769
833.852	2743
833.991	2766
834.129	2880
834.267	2857
834.406	2785
834.544	2883
834.682	2910
834.821	2876
834.959	3058
835.097	2895
835.235	3097
835.373	3005
835.511	2998
835.65	2963
835.788	2979
835.926	2826
836.064	2819
836.202	2853
836.34	3104
836.478	3184
836.615	3039
836.753	3146
836.891	3211
837.029	3184
837.167	3116
837.305	3077
837.443	3047
837.58	2937
837.718	3165
837.856	3104
837.993	3032
838.131	3131
838.269	3146
838.406	3081
838.544	3074
838.681	2929
838.819	2910
838.956	2819
839.094	2819
839.231	2952
839.369	3009
839.506	3325
839.643	3226
839.781	3039
839.918	2960
840.055	3058
840.193	3043
840.33	3066
840.467	3081
840.604	3150
840.742	3401
840.879	3047
841.016	3058
841.153	3100
841.29	3306
841.427	3298
841.564	3306
841.701	3344
841.838	3256
841.975	3188
842.112	3211
842.249	3070
842.385	3093
842.522	3283
842.659	3112
842.796	3070
842.933	3112
843.069	3062
843.206	3058
843.343	3192
843.479	3112
843.616	3161
843.752	2899
843.889	2861
844.025	3108
844.162	2899
844.298	3085
844.435	2941
844.571	2902
844.708	3062
844.844	3199
844.98	3249
845.117	3214
845.253	3085
845.389	3036
845.525	3093
845.661	3081
845.798	3001
845.934	3150
846.07	3074
846.206	3241
846.342	3317
846.478	3272
846.614	3100
846.75	3043
846.886	3009
847.022	3230
847.158	3131
847.294	3230
847.429	3264
847.565	3188
847.701	3496
847.837	3024
847.972	2971
848.108	3154
848.244	3135
848.379	2994
848.515	2975
848.65	2963
848.786	2982
848.921	2994
849.057	3142
849.192	3157
849.328	3081
849.463	3123
849.598	3077
849.734	3047
849.869	2994
850.004	2914
850.14	2979
850.275	2918
850.41	2845
850.545	2925
850.68	2929
850.815	2960
850.95	2986
851.085	3222
851.22	3116
851.355	3066
851.49	3032
851.625	3028
851.76	3036
851.895	2963
852.03	2891
852.165	3070
852.299	3116
852.434	3214
852.569	3146
852.703	3207
852.838	3237
852.973	3351
853.107	3325
853.242	3150
853.376	3108
853.511	2979
853.645	3020
853.78	3230
853.914	3089
854.048	3131
854.183	3127
854.317	3180
854.451	3272
854.585	3131
854.72	3104
854.854	3253
854.988	3039
855.122	3077
855.256	2986
855.39	3112
855.524	3230
855.658	3195
855.792	3157
855.926	3195
856.06	3230
856.194	3283
856.327	3157
856.461	3081
856.595	3097
856.729	3077
856.862	3230
856.996	3184
857.13	3230
857.263	3226
857.397	3329
857.53	3119
857.664	3173
857.797	3233
857.931	3222
858.064	3184
858.197	3218
858.331	3157
858.464	3131
858.597	3001
858.731	3112
858.864	3150
858.997	3108
859.13	3184
859.263	3131
859.396	3203
859.529	3074
859.662	3077
859.795	3032
859.928	3142
860.061	3279
860.194	3298
860.327	3150
860.46	3123
860.592	3237
860.725	3272
860.858	3237
860.99	3119
861.123	3074
861.256	3066
861.388	3161
861.521	3838
861.653	3017
861.786	2994
861.918	3013
862.05	3062
862.183	3127
862.315	3150
862.447	3180
862.58	3127
862.712	2979
862.844	2906
862.976	3009
863.108	3017
863.24	3313
863.372	2887
863.504	3001
863.636	2948
863.768	3089
863.9	2944
864.032	2906
864.164	2929
864.296	3020
864.428	3085
864.559	3104
864.691	3123
864.823	3100
864.954	3028
865.086	3062
865.217	3005
865.349	2956
865.48	2998
865.612	3013
865.743	3161
865.875	3001
866.006	2933
866.137	2986
866.269	2956
866.4	2956
866.531	2899
866.662	2914
866.793	2914
866.924	2925
867.055	2963
867.186	2948
867.317	2891
867.448	2857
867.579	2868
867.71	2849
867.841	2861
867.972	2914
868.103	2929
868.233	2899
868.364	2883
868.495	2937
868.625	3119
868.756	3188
868.886	3009
869.017	3077
869.147	3192
869.278	3154
869.408	3074
869.539	3070
869.669	3093
869.799	3058
869.929	3142
870.06	3100
870.19	3325
870.32	3325
870.45	3310
870.58	3367
870.71	3466
870.84	3458
870.97	3294
871.1	3245
871.23	3500
871.36	3469
871.489	3340
871.619	3374
871.749	3439
871.879	3447
872.008	3481
872.138	3351
872.267	3298
872.397	3157
872.526	3104
872.656	3028
872.785	3097
872.915	3237
873.044	3291
873.173	3218
873.303	3249
873.432	3226
873.561	3230
873.69	3150
873.819	3169
873.948	3188
874.077	3123
874.206	3058
874.335	3104
874.464	3203
874.593	3355
874.722	3245
874.851	3412
874.979	3336
875.108	3336
875.237	3241
875.365	3180
875.494	3165
875.623	3283
875.751	3112
875.88	3116
876.008	3165
876.136	3222
876.265	3367
876.393	3530
876.521	3424
876.65	3397
876.778	3329
876.906	3233
877.034	3264
877.162	3264
877.29	3226
877.418	3260
877.546	3218
877.674	3302
877.802	3272
877.93	3253
878.058	3123
878.185	3135
878.313	3192
878.441	3230
878.568	3093
878.696	3176
878.824	3260
878.951	3294
879.079	3454
879.206	3629
879.333	3435
879.461	3363
879.588	3355
879.715	3519
879.842	3618
879.97	3386
880.097	3195
880.224	3138
880.351	3195
880.478	3264
880.605	3214
880.732	3176
880.859	3507
880.986	3302
881.112	3336
881.239	3226
881.366	3138
881.493	3028
881.619	3036
881.746	3058
881.872	3116
881.999	3108
882.125	3161
882.252	3241
882.378	3317
882.505	3412
882.631	3298
882.757	3146
882.883	3203
883.01	3199
883.136	3161
883.262	3142
883.388	3123
883.514	3351
883.64	3374
883.766	3359
883.892	3188
884.018	3237
884.143	3412
884.269	3534
884.395	3188
884.52	3138
884.646	3192
884.772	3146
884.897	3081
885.023	3226
885.148	3340
885.274	3435
885.399	3363
885.524	3291
885.65	3275
885.775	3351
885.9	3306
886.025	3450
886.15	3374
886.275	3317
886.4	3279
886.525	3298
886.65	3287
886.775	3306
886.9	3523
887.025	3656
887.149	3443
887.274	3253
887.399	3214
887.523	3226
887.648	3195
887.773	3199
887.897	3405
888.021	3389
888.146	3294
888.27	3431
888.395	3534
888.519	3443
888.643	3454
888.767	3462
888.891	3313
889.015	3253
889.139	3294
889.263	3264
889.387	3416
889.511	3564
889.635	3473
889.759	3310
889.883	3264
890.006	3389
890.13	3530
890.254	3279
890.377	3355
890.501	3275
890.624	3203
890.748	3283
890.871	3165
890.995	3127
891.118	3074
891.241	3184
891.364	3218
891.488	3313
891.611	3176
891.734	3218
891.857	3302
891.98	3272
892.103	3287
892.226	3253
892.349	3230
892.471	3112
892.594	3264
892.717	3287
892.839	3268
892.962	3313
893.085	3359
893.207	3310
893.33	3173
893.452	3195
893.575	3363
893.697	3268
893.819	3431
893.941	3519
894.064	3428
894.186	3272
894.308	3256
894.43	3454
894.552	3511
894.674	3485
894.796	3310
894.918	3313
895.04	3306
895.161	3450
895.283	3386
895.405	3325
895.526	3386
895.648	3450
895.769	3420
895.891	3450
896.012	3481
896.134	3469
896.255	3409
896.376	3431
896.498	3367
896.619	3378
896.74	3389
896.861	3439
896.982	3732
897.103	3857
897.224	3606
897.345	3523
897.466	3469
897.587	3507
897.708	3633
897.828	3538
897.949	3466
898.07	3332
898.19	3401
898.311	3606
898.431	3469
898.552	3500
898.672	3648
898.792	3564
898.913	3542
899.033	3424
899.153	3298
899.273	3233
899.393	3306
899.513	3283
899.633	3325
899.753	3374
899.873	3321
899.993	3355
900.113	3370
900.232	3359
900.352	3344
900.472	3283
900.591	3237
900.711	3332
900.83	3268
900.95	3409
901.069	3496
901.189	3378
901.308	3169
901.427	3169
901.546	3199
901.665	3306
901.784	3340
901.904	3245
902.023	3165
902.141	3009
902.26	2990
902.379	3135
902.498	3070
902.617	3051
902.735	3230
902.854	3237
902.973	3180
903.091	3051
903.21	3074
903.328	3131
903.446	3127
903.565	3108
903.683	3214
903.801	3116
903.919	3298
904.038	3260
904.156	3211
904.274	3272
904.392	3241
904.51	3264
904.627	3389
904.745	3450
904.863	3492
904.981	3260
905.098	3214
905.216	3237
905.334	3298
905.451	3310
905.569	3310
905.686	3439
905.803	3481
905.921	3302
906.038	3424
906.155	3351
906.272	3291
906.389	3378
906.506	3272
906.623	3260
906.74	3275
906.857	3188
906.974	3302
907.091	3454
907.208	3591
907.324	3496
907.441	3355
907.557	3260
907.674	3253
907.79	3260
907.907	3287
908.023	3374
908.139	3389
908.256	3321
908.372	3397
908.488	3351
908.604	3298
908.72	3264
908.836	3291
908.952	3241
909.068	3336
909.184	3496
909.3	3397
909.415	3507
909.531	3519
909.647	3279
909.762	3283
909.878	3264
909.993	3351
910.108	3382
910.224	3355
910.339	3431
910.454	3317
910.57	3272
910.685	3253
910.8	3564
910.915	3591
911.03	3477
911.145	3268
911.259	3287
911.374	3329
911.489	3253
911.604	3275
911.718	3116
911.833	3138
911.947	3066
912.062	2994
912.176	3154
912.291	3203
912.405	3199
912.519	3450
912.633	3504
912.748	3332
912.862	3306
912.976	3165
913.09	3058
913.204	3161
913.318	3211
913.431	3351
913.545	3382
913.659	3412
913.772	3363
913.886	3256
914	3184
914.113	3348
914.226	3439
914.34	3351
914.453	3241
914.566	3443
914.68	3332
914.793	3310
914.906	3157
915.019	3116
915.132	3100
915.245	3199
915.358	3207
915.47	3256
915.583	3268
915.696	3313
915.809	3416
915.921	3412
916.034	3249
916.146	3287
916.259	3237
916.371	3370
916.483	3386
916.595	3287
916.708	3370
916.82	3359
916.932	3344
917.044	3340
917.156	3367
917.268	3222
917.38	3313
917.491	3310
917.603	3374
917.715	3435
917.826	3519
917.938	3409
918.049	3268
918.161	3443
918.272	3606
918.384	3591
918.495	3469
918.606	3313
918.717	3294
918.828	3370
918.939	3420
919.05	3317
919.161	3348
919.272	3188
919.383	3302
919.494	3507
919.604	3705
919.715	3515
919.826	3431
919.936	3462
920.047	3599
920.157	3542
920.267	3785
920.378	3648
920.488	3580
920.598	3781
920.708	4010
920.818	3812
920.928	3816
921.038	4044
921.148	3949
921.258	3759
921.368	3660
921.477	3553
921.587	3545
921.697	3450
921.806	3622
921.916	3584
922.025	3363
922.134	3386
922.244	3340
922.353	3435
922.462	3302
922.571	3268
922.68	3112
922.789	3085
922.898	3176
923.007	3077
923.116	3214
923.224	3169
923.333	3192
923.442	3119
923.55	3097
923.659	3157
923.767	3230
923.876	3081
923.984	3283
924.092	3135
924.201	3203
924.309	3226
924.417	3256
924.525	3180
924.633	3233
924.741	4173
924.849	3097
924.956	3256
925.064	3127
925.172	3009
925.279	3100
925.387	3195
925.494	3203
925.602	3374
925.709	3325
925.816	3233
925.924	3306
926.031	3386
926.138	3344
926.245	3363
926.352	3230
926.459	3409
926.566	3504
926.673	3329
926.779	3279
926.886	3256
926.993	3150
927.099	3154
927.206	3146
927.312	3161
927.419	3237
927.525	3195
927.631	3253
927.737	3211
927.843	3116
927.95	3036
928.056	3157
928.162	3165
928.267	3237
928.373	3911
928.479	3306
928.585	3097
928.69	3207
928.796	3279
928.901	3199
929.007	3062
929.112	3230
929.218	3211
929.323	3169
929.428	3157
929.533	3332
929.638	3127
929.743	3176
929.848	3233
929.953	3218
930.058	3161
930.163	3043
930.267	3039
930.372	3226
930.477	3032
930.581	3313
930.685	3211
930.79	3081
930.894	3127
930.998	3085
931.103	3298
931.207	2948
931.311	2986
931.415	2929
931.519	2777
931.623	2781
