Data from test_V78500241_1531.txt Node
Date: Fri Mar 25 16:25:48 CST 2022
User: usil
Spectrometer: V785-0024
Trigger mode: 0
Integration Time (sec): 4.000000E-1
Scans to average: 1
Nonlinearity correction enabled: false
Boxcar width: 0
Storing dark spectrum: false
XAxis mode: Wavelengths
Number of Pixels in Spectrum: 1024
>>>>>Begin Spectral Data<<<<<
801.071	2918
801.214	2933
801.356	2849
801.499	2906
801.641	2849
801.783	2941
801.926	3051
802.068	2982
802.211	2994
802.353	3017
802.496	2933
802.638	2990
802.78	3043
802.923	3058
803.065	2994
803.208	2929
803.35	2941
803.492	2922
803.635	2929
803.777	2762
803.919	2849
804.061	3176
804.204	2918
804.346	2883
804.488	2861
804.63	2982
804.773	2883
804.915	2895
805.057	3062
805.199	2948
805.341	2941
805.483	3024
805.626	2982
805.768	2941
805.91	3055
806.052	3081
806.194	3013
806.336	3233
806.478	3017
806.62	2952
806.762	2922
806.904	3055
807.046	3173
807.188	2990
807.33	2918
807.472	2975
807.614	2899
807.756	3020
807.898	2918
808.04	2880
808.182	2956
808.324	2967
808.465	2849
808.607	2902
808.749	2819
808.891	2849
809.033	2990
809.174	2986
809.316	2883
809.458	2853
809.6	2777
809.741	2743
809.883	2773
810.025	2845
810.166	2861
810.308	2883
810.45	2864
810.591	2769
810.733	2788
810.875	2819
811.016	2743
811.158	2746
811.299	2857
811.441	2956
811.582	2883
811.724	2823
811.865	2804
812.007	2887
812.148	2864
812.29	2868
812.431	2872
812.573	2948
812.714	2967
812.855	3009
812.997	3017
813.138	3081
813.279	3005
813.421	2975
813.562	2948
813.703	2830
813.845	2880
813.986	2746
814.127	2716
814.268	2823
814.41	2823
814.551	2804
814.692	2838
814.833	2864
814.974	2864
815.115	2956
815.256	2777
815.397	2792
815.539	2838
815.68	2762
815.821	2807
815.962	2941
816.103	2933
816.244	2861
816.385	2861
816.526	2979
816.666	2914
816.807	2724
816.948	2925
817.089	2872
817.23	2857
817.371	2804
817.512	2800
817.653	2868
817.793	2834
817.934	2922
818.075	2944
818.216	3028
818.356	3013
818.497	2887
818.638	2754
818.778	2807
818.919	2826
819.06	2727
819.2	2876
819.341	2826
819.481	2815
819.622	2899
819.762	3104
819.903	3062
820.043	2906
820.184	2941
820.324	2880
820.465	2967
820.605	3036
820.746	3001
820.886	2933
821.026	3097
821.167	3135
821.307	3245
821.447	3253
821.588	3226
821.728	3214
821.868	3199
822.008	3051
822.149	3165
822.289	3195
822.429	3089
822.569	3089
822.709	3188
822.849	3032
822.99	3055
823.13	3165
823.27	3184
823.41	3081
823.55	3104
823.69	3127
823.83	3176
823.97	3085
824.11	2967
824.25	3005
824.389	3024
824.529	3104
824.669	3081
824.809	3195
824.949	3241
825.089	3211
825.228	3165
825.368	3017
825.508	2941
825.648	3005
825.787	3036
825.927	3017
826.067	2986
826.206	2971
826.346	3024
826.485	3074
826.625	3070
826.765	3218
826.904	3188
827.044	2979
827.183	2944
827.323	2849
827.462	2967
827.601	2902
827.741	2899
827.88	2956
828.02	2883
828.159	2941
828.298	3013
828.437	3074
828.577	3032
828.716	3256
828.855	3070
828.994	2902
829.134	2864
829.273	2906
829.412	2849
829.551	2895
829.69	2906
829.829	2975
829.968	3108
830.107	3005
830.246	3001
830.385	2891
830.524	2857
830.663	2823
830.802	2758
830.941	2655
831.08	2651
831.219	2766
831.357	2785
831.496	2941
831.635	2724
831.774	2686
831.913	2644
832.051	2537
832.19	2545
832.329	2632
832.467	2541
832.606	2461
832.744	2552
832.883	2571
833.022	2552
833.16	2651
833.299	2705
833.437	2708
833.576	2686
833.714	2720
833.852	2743
833.991	2735
834.129	2826
834.267	2785
834.406	2781
834.544	2842
834.682	2899
834.821	2872
834.959	3081
835.097	2937
835.235	3081
835.373	2986
835.511	3009
835.65	2941
835.788	2971
835.926	2811
836.064	2796
836.202	2819
836.34	3089
836.478	3135
836.615	3028
836.753	3097
836.891	3207
837.029	3119
837.167	3135
837.305	3070
837.443	3058
837.58	2960
837.718	3104
837.856	3074
837.993	2990
838.131	3108
838.269	3074
838.406	3089
838.544	3116
838.681	2941
838.819	2956
838.956	2769
839.094	2823
839.231	2910
839.369	3001
839.506	3409
839.643	3207
839.781	3013
839.918	2941
840.055	3066
840.193	3039
840.33	3055
840.467	3097
840.604	3127
840.742	3386
840.879	3036
841.016	3047
841.153	3100
841.29	3310
841.427	3310
841.564	3268
841.701	3340
841.838	3199
841.975	3131
842.112	3195
842.249	3077
842.385	3024
842.522	3306
842.659	3077
842.796	3043
842.933	3081
843.069	3066
843.206	3036
843.343	3169
843.479	3093
843.616	3108
843.752	2902
843.889	2872
844.025	3066
844.162	2872
844.298	3093
844.435	2952
844.571	2891
844.708	3093
844.844	3207
844.98	3188
845.117	3222
845.253	3058
845.389	3001
845.525	3108
845.661	3100
845.798	3028
845.934	3104
846.07	3047
846.206	3184
846.342	3291
846.478	3245
846.614	3081
846.75	3062
846.886	2971
847.022	3237
847.158	3119
847.294	3211
847.429	3233
847.565	3237
847.701	3473
847.837	3005
847.972	3005
848.108	3150
848.244	3131
848.379	2982
848.515	2925
848.65	2963
848.786	2960
848.921	2998
849.057	3085
849.192	3119
849.328	3058
849.463	3108
849.598	3062
849.734	3028
849.869	2982
850.004	2918
850.14	2933
850.275	2941
850.41	2849
850.545	2910
850.68	2880
850.815	2948
850.95	2979
851.085	3150
851.22	3093
851.355	3032
851.49	2986
851.625	2998
851.76	3051
851.895	2933
852.03	2880
852.165	3005
852.299	3112
852.434	3184
852.569	3100
852.703	3188
852.838	3245
852.973	3382
853.107	3355
853.242	3131
853.376	3108
853.511	3017
853.645	2990
853.78	3214
853.914	3123
854.048	3116
854.183	3093
854.317	3116
854.451	3321
854.585	3097
854.72	3100
854.854	3180
854.988	3020
855.122	3097
855.256	2979
855.39	3097
855.524	3226
855.658	3165
855.792	3138
855.926	3176
856.06	3214
856.194	3218
856.327	3169
856.461	3066
856.595	3039
856.729	3062
856.862	3207
856.996	3180
857.13	3157
857.263	3222
857.397	3245
857.53	3119
857.664	3199
857.797	3230
857.931	3222
858.064	3169
858.197	3195
858.331	3119
858.464	3085
858.597	2986
858.731	3070
858.864	3127
858.997	3081
859.13	3161
859.263	3157
859.396	3222
859.529	3119
859.662	3089
859.795	2994
859.928	3123
860.061	3272
860.194	3260
860.327	3123
860.46	3085
860.592	3249
860.725	3226
860.858	3241
860.99	3119
861.123	2998
861.256	3062
861.388	3135
861.521	3876
861.653	3024
861.786	2994
861.918	2990
862.05	3100
862.183	3062
862.315	3131
862.447	3184
862.58	3074
862.712	2929
862.844	2880
862.976	3013
863.108	2963
863.24	3298
863.372	2868
863.504	2963
863.636	2941
863.768	3047
863.9	2975
864.032	2906
864.164	2918
864.296	3013
864.428	3119
864.559	3112
864.691	3104
864.823	3043
864.954	3024
865.086	3062
865.217	2982
865.349	2975
865.48	2979
865.612	3024
865.743	3123
865.875	2994
866.006	2929
866.137	2963
866.269	2948
866.4	2937
866.531	2925
866.662	2887
866.793	2883
866.924	2861
867.055	2994
867.186	2925
867.317	2861
867.448	2853
867.579	2853
867.71	2853
867.841	2830
867.972	2902
868.103	2872
868.233	2876
868.364	2864
868.495	2918
868.625	3108
868.756	3146
868.886	2967
869.017	3017
869.147	3165
869.278	3138
869.408	3036
869.539	2986
869.669	3131
869.799	3036
869.929	3146
870.06	3089
870.19	3310
870.32	3272
870.45	3321
870.58	3378
870.71	3469
870.84	3447
870.97	3336
871.1	3218
871.23	3450
871.36	3466
871.489	3310
871.619	3405
871.749	3370
871.879	3405
872.008	3473
872.138	3351
872.267	3310
872.397	3116
872.526	3112
872.656	2986
872.785	3089
872.915	3283
873.044	3336
873.173	3184
873.303	3233
873.432	3253
873.561	3253
873.69	3161
873.819	3142
873.948	3146
874.077	3066
874.206	3047
874.335	3112
874.464	3211
874.593	3367
874.722	3218
874.851	3416
874.979	3336
875.108	3272
875.237	3173
875.365	3138
875.494	3146
875.623	3233
875.751	3093
875.88	3108
876.008	3195
876.136	3245
876.265	3344
876.393	3511
876.521	3374
876.65	3397
876.778	3291
876.906	3241
877.034	3180
877.162	3211
877.29	3173
877.418	3283
877.546	3253
877.674	3230
877.802	3230
877.93	3230
878.058	3150
878.185	3066
878.313	3165
878.441	3207
878.568	3062
878.696	3127
878.824	3260
878.951	3283
879.079	3481
879.206	3576
879.333	3409
879.461	3329
879.588	3355
879.715	3488
879.842	3599
879.97	3363
880.097	3131
880.224	3142
880.351	3176
880.478	3222
880.605	3192
880.732	3161
880.859	3488
880.986	3317
881.112	3321
881.239	3199
881.366	3093
881.493	3036
881.619	3032
881.746	3085
881.872	3085
881.999	3066
882.125	3150
882.252	3249
882.378	3298
882.505	3424
882.631	3264
882.757	3131
882.883	3192
883.01	3237
883.136	3150
883.262	3108
883.388	3123
883.514	3336
883.64	3321
883.766	3294
883.892	3184
884.018	3226
884.143	3416
884.269	3542
884.395	3207
884.52	3165
884.646	3165
884.772	3074
884.897	3093
885.023	3192
885.148	3370
885.274	3473
885.399	3348
885.524	3283
885.65	3260
885.775	3313
885.9	3260
886.025	3405
886.15	3370
886.275	3321
886.4	3188
886.525	3268
886.65	3298
886.775	3291
886.9	3443
887.025	3629
887.149	3401
887.274	3275
887.399	3199
887.523	3184
887.648	3214
887.773	3173
887.897	3382
888.021	3409
888.146	3275
888.27	3458
888.395	3572
888.519	3431
888.643	3473
888.767	3443
888.891	3287
889.015	3237
889.139	3302
889.263	3214
889.387	3374
889.511	3507
889.635	3416
889.759	3264
889.883	3268
890.006	3378
890.13	3481
890.254	3245
890.377	3340
890.501	3192
890.624	3184
890.748	3298
890.871	3154
890.995	3131
891.118	3036
891.241	3176
891.364	3222
891.488	3325
891.611	3150
891.734	3207
891.857	3264
891.98	3256
892.103	3336
892.226	3275
892.349	3230
892.471	3104
892.594	3253
892.717	3287
892.839	3249
892.962	3275
893.085	3348
893.207	3294
893.33	3100
893.452	3199
893.575	3325
893.697	3230
893.819	3443
893.941	3500
894.064	3469
894.186	3287
894.308	3287
894.43	3466
894.552	3511
894.674	3431
894.796	3245
894.918	3336
895.04	3302
895.161	3454
895.283	3378
895.405	3260
895.526	3340
895.648	3416
895.769	3458
895.891	3462
896.012	3507
896.134	3447
896.255	3397
896.376	3355
896.498	3363
896.619	3409
896.74	3329
896.861	3412
896.982	3644
897.103	3838
897.224	3610
897.345	3462
897.466	3401
897.587	3466
897.708	3633
897.828	3553
897.949	3389
898.07	3294
898.19	3405
898.311	3610
898.431	3443
898.552	3523
898.672	3637
898.792	3576
898.913	3469
899.033	3416
899.153	3279
899.273	3256
899.393	3275
899.513	3287
899.633	3306
899.753	3359
899.873	3325
899.993	3351
900.113	3359
900.232	3386
900.352	3302
900.472	3287
900.591	3180
900.711	3367
900.83	3230
900.95	3401
901.069	3477
901.189	3359
901.308	3195
901.427	3123
901.546	3123
901.665	3256
901.784	3332
901.904	3199
902.023	3131
902.141	2990
902.26	2975
902.379	3169
902.498	3100
902.617	3085
902.735	3195
902.854	3245
902.973	3211
903.091	3032
903.21	3081
903.328	3108
903.446	3093
903.565	3074
903.683	3146
903.801	3097
903.919	3249
904.038	3268
904.156	3173
904.274	3260
904.392	3287
904.51	3272
904.627	3336
904.745	3416
904.863	3481
904.981	3275
905.098	3135
905.216	3233
905.334	3302
905.451	3279
905.569	3275
905.686	3409
905.803	3420
905.921	3287
906.038	3393
906.155	3340
906.272	3260
906.389	3302
906.506	3199
906.623	3260
906.74	3253
906.857	3142
906.974	3268
907.091	3450
907.208	3545
907.324	3466
907.441	3374
907.557	3207
907.674	3230
907.79	3180
907.907	3279
908.023	3405
908.139	3378
908.256	3332
908.372	3386
908.488	3367
908.604	3222
908.72	3230
908.836	3272
908.952	3256
909.068	3321
909.184	3469
909.3	3378
909.415	3526
909.531	3458
909.647	3249
909.762	3302
909.878	3241
909.993	3355
910.108	3374
910.224	3336
910.339	3389
910.454	3310
910.57	3302
910.685	3272
910.8	3568
910.915	3538
911.03	3458
911.145	3256
911.259	3245
911.374	3332
911.489	3222
911.604	3226
911.718	3123
911.833	3161
911.947	3070
912.062	2963
912.176	3123
912.291	3150
912.405	3203
912.519	3431
912.633	3492
912.748	3329
912.862	3249
912.976	3169
913.09	3051
913.204	3154
913.318	3203
913.431	3344
913.545	3340
913.659	3382
913.772	3359
913.886	3180
914	3207
914.113	3321
914.226	3374
914.34	3378
914.453	3195
914.566	3397
914.68	3298
914.793	3298
914.906	3150
915.019	3112
915.132	3058
915.245	3154
915.358	3192
915.47	3203
915.583	3203
915.696	3272
915.809	3416
915.921	3355
916.034	3233
916.146	3237
916.259	3226
916.371	3332
916.483	3332
916.595	3245
916.708	3272
916.82	3374
916.932	3340
917.044	3355
917.156	3340
917.268	3256
917.38	3272
917.491	3279
917.603	3340
917.715	3450
917.826	3454
917.938	3382
918.049	3268
918.161	3420
918.272	3557
918.384	3542
918.495	3496
918.606	3329
918.717	3283
918.828	3367
918.939	3367
919.05	3291
919.161	3367
919.272	3161
919.383	3268
919.494	3450
919.604	3709
919.715	3481
919.826	3405
919.936	3450
920.047	3538
920.157	3549
920.267	3816
920.378	3610
920.488	3591
920.598	3831
920.708	3968
920.818	3819
920.928	3842
921.038	3994
921.148	3987
921.258	3705
921.368	3625
921.477	3625
921.587	3568
921.697	3469
921.806	3641
921.916	3488
922.025	3386
922.134	3363
922.244	3355
922.353	3431
922.462	3260
922.571	3222
922.68	3123
922.789	3104
922.898	3154
923.007	3108
923.116	3260
923.224	3176
923.333	3199
923.442	3112
923.55	3116
923.659	3203
923.767	3272
923.876	3169
923.984	3241
924.092	3154
924.201	3214
924.309	3222
924.417	3291
924.525	3211
924.633	3321
924.741	4227
924.849	3077
924.956	3310
925.064	3116
925.172	3112
925.279	3097
925.387	3241
925.494	3253
925.602	3370
925.709	3401
925.816	3214
925.924	3332
926.031	3424
926.138	3386
926.245	3389
926.352	3298
926.459	3466
926.566	3534
926.673	3370
926.779	3294
926.886	3302
926.993	3176
927.099	3199
927.206	3165
927.312	3146
927.419	3272
927.525	3253
927.631	3306
927.737	3176
927.843	3127
927.95	3070
928.056	3195
928.162	3192
928.267	3272
928.373	3797
928.479	3340
928.585	3131
928.69	3226
928.796	3336
928.901	3169
929.007	3119
929.112	3279
929.218	3207
929.323	3207
929.428	3169
929.533	3363
929.638	3157
929.743	3218
929.848	3317
929.953	3256
930.058	3169
930.163	3043
930.267	3051
930.372	3233
930.477	3077
930.581	3370
930.685	3195
930.79	3085
930.894	3146
930.998	3154
931.103	3310
931.207	2986
931.311	2982
931.415	2971
931.519	2811
931.623	2838
