Data from test_V78500241_1416.txt Node
Date: Fri Mar 25 16:25:00 CST 2022
User: usil
Spectrometer: V785-0024
Trigger mode: 0
Integration Time (sec): 4.000000E-1
Scans to average: 1
Nonlinearity correction enabled: false
Boxcar width: 0
Storing dark spectrum: false
XAxis mode: Wavelengths
Number of Pixels in Spectrum: 1024
>>>>>Begin Spectral Data<<<<<
801.071	2948
801.214	2952
801.356	2910
801.499	2880
801.641	2872
801.783	2960
801.926	3062
802.068	2986
802.211	2986
802.353	3028
802.496	2982
802.638	3055
802.78	3062
802.923	3131
803.065	3009
803.208	2895
803.35	2925
803.492	2952
803.635	2937
803.777	2781
803.919	2872
804.061	3173
804.204	2975
804.346	2914
804.488	2868
804.63	2994
804.773	2891
804.915	2937
805.057	3116
805.199	2941
805.341	2998
805.483	3047
805.626	2994
805.768	2982
805.91	3077
806.052	3116
806.194	3062
806.336	3241
806.478	3043
806.62	2944
806.762	2982
806.904	3074
807.046	3161
807.188	2971
807.33	2944
807.472	2998
807.614	2918
807.756	2944
807.898	2918
808.04	2880
808.182	2990
808.324	2944
808.465	2891
808.607	2872
808.749	2811
808.891	2857
809.033	2998
809.174	2948
809.316	2902
809.458	2925
809.6	2788
809.741	2777
809.883	2800
810.025	2823
810.166	2864
810.308	2830
810.45	2853
810.591	2773
810.733	2792
810.875	2834
811.016	2746
811.158	2758
811.299	2815
811.441	2944
811.582	2899
811.724	2811
811.865	2823
812.007	2937
812.148	2883
812.29	2849
812.431	2891
812.573	2925
812.714	2971
812.855	3017
812.997	3055
813.138	3108
813.279	2998
813.421	2982
813.562	2952
813.703	2895
813.845	2868
813.986	2785
814.127	2739
814.268	2838
814.41	2804
814.551	2826
814.692	2857
814.833	2815
814.974	2906
815.115	2960
815.256	2876
815.397	2819
815.539	2864
815.68	2800
815.821	2807
815.962	2933
816.103	2925
816.244	2891
816.385	2861
816.526	2948
816.666	2902
816.807	2731
816.948	2864
817.089	2902
817.23	2857
817.371	2788
817.512	2792
817.653	2868
817.793	2834
817.934	2891
818.075	2982
818.216	2994
818.356	3024
818.497	2914
818.638	2796
818.778	2792
818.919	2807
819.06	2785
819.2	2895
819.341	2807
819.481	2758
819.622	2914
819.762	3119
819.903	3028
820.043	2971
820.184	2872
820.324	2891
820.465	3005
820.605	3020
820.746	3043
820.886	2922
821.026	3119
821.167	3169
821.307	3310
821.447	3317
821.588	3260
821.728	3192
821.868	3165
822.008	3116
822.149	3192
822.289	3230
822.429	3085
822.569	3089
822.709	3184
822.849	3017
822.99	3077
823.13	3161
823.27	3203
823.41	3116
823.55	3146
823.69	3131
823.83	3169
823.97	3066
824.11	2986
824.25	3005
824.389	3066
824.529	3100
824.669	3062
824.809	3176
824.949	3237
825.089	3237
825.228	3131
825.368	3005
825.508	2975
825.648	2994
825.787	3032
825.927	3028
826.067	2941
826.206	2971
826.346	3085
826.485	3058
826.625	3077
826.765	3237
826.904	3207
827.044	2982
827.183	2918
827.323	2853
827.462	2975
827.601	2910
827.741	2929
827.88	2948
828.02	2845
828.159	3009
828.298	3039
828.437	3131
828.577	3043
828.716	3260
828.855	3089
828.994	2906
829.134	2883
829.273	2933
829.412	2872
829.551	2838
829.69	2845
829.829	2986
829.968	3074
830.107	2998
830.246	3028
830.385	2963
830.524	2914
830.663	2811
830.802	2731
830.941	2659
831.08	2686
831.219	2792
831.357	2777
831.496	2971
831.635	2701
831.774	2682
831.913	2651
832.051	2552
832.19	2549
832.329	2701
832.467	2549
832.606	2514
832.744	2564
832.883	2571
833.022	2590
833.16	2663
833.299	2644
833.437	2670
833.576	2689
833.714	2731
833.852	2701
833.991	2769
834.129	2819
834.267	2849
834.406	2800
834.544	2887
834.682	2842
834.821	2861
834.959	3051
835.097	2883
835.235	3074
835.373	2982
835.511	3017
835.65	2933
835.788	2960
835.926	2815
836.064	2807
836.202	2845
836.34	3089
836.478	3146
836.615	3058
836.753	3150
836.891	3226
837.029	3138
837.167	3104
837.305	3055
837.443	3055
837.58	2963
837.718	3138
837.856	3077
837.993	3070
838.131	3081
838.269	3108
838.406	3119
838.544	3081
838.681	2902
838.819	2922
838.956	2781
839.094	2819
839.231	2895
839.369	3032
839.506	3370
839.643	3214
839.781	3039
839.918	2960
840.055	3058
840.193	3005
840.33	3047
840.467	3074
840.604	3123
840.742	3363
840.879	3070
841.016	3043
841.153	3146
841.29	3313
841.427	3298
841.564	3291
841.701	3291
841.838	3195
841.975	3199
842.112	3180
842.249	3093
842.385	3081
842.522	3211
842.659	3074
842.796	3055
842.933	3077
843.069	3051
843.206	3020
843.343	3176
843.479	3085
843.616	3100
843.752	2895
843.889	2853
844.025	3081
844.162	2842
844.298	3085
844.435	2941
844.571	2933
844.708	3066
844.844	3169
844.98	3233
845.117	3207
845.253	3020
845.389	3028
845.525	3089
845.661	3119
845.798	3005
845.934	3112
846.07	3024
846.206	3192
846.342	3298
846.478	3218
846.614	3097
846.75	3066
846.886	3001
847.022	3230
847.158	3157
847.294	3180
847.429	3222
847.565	3211
847.701	3477
847.837	3009
847.972	2990
848.108	3169
848.244	3146
848.379	3028
848.515	2967
848.65	2925
848.786	2982
848.921	2998
849.057	3089
849.192	3154
849.328	3043
849.463	3112
849.598	3085
849.734	3013
849.869	2963
850.004	2910
850.14	2956
850.275	2918
850.41	2838
850.545	2891
850.68	2948
850.815	2952
850.95	2944
851.085	3203
851.22	3100
851.355	3017
851.49	2994
851.625	2990
851.76	2994
851.895	2899
852.03	2925
852.165	3024
852.299	3085
852.434	3165
852.569	3188
852.703	3161
852.838	3237
852.973	3378
853.107	3302
853.242	3157
853.376	3066
853.511	2979
853.645	3001
853.78	3230
853.914	3108
854.048	3097
854.183	3100
854.317	3127
854.451	3249
854.585	3112
854.72	3047
854.854	3211
854.988	3051
855.122	3116
855.256	2998
855.39	3066
855.524	3241
855.658	3161
855.792	3146
855.926	3146
856.06	3199
856.194	3283
856.327	3131
856.461	3081
856.595	3085
856.729	3070
856.862	3199
856.996	3146
857.13	3192
857.263	3222
857.397	3268
857.53	3135
857.664	3222
857.797	3218
857.931	3237
858.064	3195
858.197	3218
858.331	3112
858.464	3085
858.597	2975
858.731	3116
858.864	3116
858.997	3097
859.13	3138
859.263	3146
859.396	3214
859.529	3062
859.662	3089
859.795	3058
859.928	3131
860.061	3291
860.194	3287
860.327	3123
860.46	3097
860.592	3237
860.725	3207
860.858	3241
860.99	3138
861.123	3058
861.256	3020
861.388	3146
861.521	3690
861.653	2994
861.786	2933
861.918	3013
862.05	3013
862.183	3062
862.315	3135
862.447	3180
862.58	3116
862.712	2975
862.844	2902
862.976	3032
863.108	3017
863.24	3329
863.372	2876
863.504	2982
863.636	2952
863.768	3043
863.9	2963
864.032	2933
864.164	2937
864.296	3009
864.428	3062
864.559	3085
864.691	3074
864.823	3020
864.954	3013
865.086	3058
865.217	2967
865.349	2925
865.48	3001
865.612	3001
865.743	3146
865.875	2986
866.006	2933
866.137	2975
866.269	2952
866.4	2960
866.531	2922
866.662	2887
866.793	2922
866.924	2883
867.055	2982
867.186	2914
867.317	2891
867.448	2857
867.579	2842
867.71	2845
867.841	2823
867.972	2922
868.103	2887
868.233	2861
868.364	2849
868.495	2872
868.625	3070
868.756	3211
868.886	2986
869.017	2990
869.147	3165
869.278	3161
869.408	3017
869.539	3043
869.669	3062
869.799	3047
869.929	3135
870.06	3119
870.19	3332
870.32	3272
870.45	3291
870.58	3389
870.71	3439
870.84	3450
870.97	3294
871.1	3188
871.23	3530
871.36	3488
871.489	3351
871.619	3409
871.749	3412
871.879	3443
872.008	3439
872.138	3332
872.267	3268
872.397	3161
872.526	3112
872.656	3009
872.785	3077
872.915	3264
873.044	3291
873.173	3260
873.303	3260
873.432	3188
873.561	3253
873.69	3146
873.819	3104
873.948	3222
874.077	3100
874.206	3066
874.335	3089
874.464	3237
874.593	3344
874.722	3211
874.851	3378
874.979	3348
875.108	3332
875.237	3230
875.365	3146
875.494	3184
875.623	3230
875.751	3036
875.88	3066
876.008	3192
876.136	3222
876.265	3370
876.393	3466
876.521	3393
876.65	3409
876.778	3340
876.906	3214
877.034	3188
877.162	3218
877.29	3184
877.418	3214
877.546	3218
877.674	3233
877.802	3268
877.93	3218
878.058	3169
878.185	3116
878.313	3211
878.441	3218
878.568	3058
878.696	3146
878.824	3256
878.951	3275
879.079	3454
879.206	3652
879.333	3424
879.461	3351
879.588	3336
879.715	3511
879.842	3584
879.97	3370
880.097	3176
880.224	3138
880.351	3165
880.478	3226
880.605	3207
880.732	3169
880.859	3466
880.986	3283
881.112	3310
881.239	3165
881.366	3047
881.493	3028
881.619	3017
881.746	3077
881.872	3066
881.999	3085
882.125	3154
882.252	3264
882.378	3294
882.505	3431
882.631	3233
882.757	3142
882.883	3192
883.01	3230
883.136	3169
883.262	3051
883.388	3116
883.514	3283
883.64	3351
883.766	3298
883.892	3211
884.018	3260
884.143	3397
884.269	3523
884.395	3199
884.52	3146
884.646	3138
884.772	3116
884.897	3093
885.023	3184
885.148	3310
885.274	3386
885.399	3355
885.524	3294
885.65	3275
885.775	3298
885.9	3264
886.025	3374
886.15	3340
886.275	3340
886.4	3218
886.525	3283
886.65	3298
886.775	3226
886.9	3450
887.025	3633
887.149	3405
887.274	3249
887.399	3176
887.523	3222
887.648	3161
887.773	3180
887.897	3302
888.021	3401
888.146	3279
888.27	3447
888.395	3564
888.519	3409
888.643	3412
888.767	3458
888.891	3313
889.015	3253
889.139	3268
889.263	3192
889.387	3389
889.511	3515
889.635	3447
889.759	3253
889.883	3291
890.006	3405
890.13	3500
890.254	3268
890.377	3302
890.501	3207
890.624	3199
890.748	3321
890.871	3173
890.995	3074
891.118	3055
891.241	3180
891.364	3222
891.488	3340
891.611	3207
891.734	3161
891.857	3279
891.98	3222
892.103	3344
892.226	3241
892.349	3218
892.471	3066
892.594	3272
892.717	3329
892.839	3302
892.962	3283
893.085	3363
893.207	3313
893.33	3142
893.452	3195
893.575	3329
893.697	3245
893.819	3454
893.941	3492
894.064	3447
894.186	3256
894.308	3260
894.43	3443
894.552	3557
894.674	3473
894.796	3283
894.918	3332
895.04	3249
895.161	3443
895.283	3378
895.405	3283
895.526	3344
895.648	3393
895.769	3416
895.891	3424
896.012	3473
896.134	3435
896.255	3405
896.376	3428
896.498	3363
896.619	3405
896.74	3355
896.861	3374
896.982	3709
897.103	3823
897.224	3587
897.345	3492
897.466	3447
897.587	3530
897.708	3614
897.828	3545
897.949	3409
898.07	3317
898.19	3393
898.311	3564
898.431	3443
898.552	3481
898.672	3595
898.792	3572
898.913	3492
899.033	3386
899.153	3325
899.273	3214
899.393	3325
899.513	3313
899.633	3317
899.753	3317
899.873	3272
899.993	3382
900.113	3321
900.232	3329
900.352	3321
900.472	3283
900.591	3211
900.711	3294
900.83	3249
900.95	3431
901.069	3496
901.189	3355
901.308	3188
901.427	3192
901.546	3184
901.665	3249
901.784	3325
901.904	3241
902.023	3154
902.141	3028
902.26	3005
902.379	3173
902.498	3089
902.617	3070
902.735	3233
902.854	3245
902.973	3188
903.091	3062
903.21	3039
903.328	3142
903.446	3097
903.565	3119
903.683	3192
903.801	3135
903.919	3214
904.038	3317
904.156	3180
904.274	3310
904.392	3253
904.51	3306
904.627	3332
904.745	3466
904.863	3485
904.981	3249
905.098	3176
905.216	3298
905.334	3306
905.451	3283
905.569	3302
905.686	3416
905.803	3431
905.921	3287
906.038	3412
906.155	3351
906.272	3291
906.389	3363
906.506	3211
906.623	3279
906.74	3302
906.857	3203
906.974	3249
907.091	3416
907.208	3576
907.324	3488
907.441	3435
907.557	3249
907.674	3264
907.79	3203
907.907	3294
908.023	3340
908.139	3378
908.256	3348
908.372	3397
908.488	3370
908.604	3249
908.72	3230
908.836	3298
908.952	3275
909.068	3386
909.184	3443
909.3	3367
909.415	3488
909.531	3488
909.647	3275
909.762	3310
909.878	3245
909.993	3336
910.108	3378
910.224	3355
910.339	3359
910.454	3313
910.57	3302
910.685	3245
910.8	3557
910.915	3561
911.03	3428
911.145	3241
911.259	3260
911.374	3313
911.489	3272
911.604	3211
911.718	3142
911.833	3192
911.947	3020
912.062	3001
912.176	3161
912.291	3169
912.405	3222
912.519	3382
912.633	3485
912.748	3344
912.862	3268
912.976	3154
913.09	3077
913.204	3135
913.318	3226
913.431	3325
913.545	3332
913.659	3393
913.772	3275
913.886	3233
914	3180
914.113	3374
914.226	3409
914.34	3374
914.453	3230
914.566	3409
914.68	3245
914.793	3340
914.906	3142
915.019	3085
915.132	3070
915.245	3135
915.358	3226
915.47	3230
915.583	3241
915.696	3264
915.809	3397
915.921	3447
916.034	3260
916.146	3272
916.259	3241
916.371	3389
916.483	3367
916.595	3253
916.708	3317
916.82	3325
916.932	3355
917.044	3317
917.156	3336
917.268	3237
917.38	3279
917.491	3268
917.603	3351
917.715	3450
917.826	3454
917.938	3370
918.049	3279
918.161	3405
918.272	3580
918.384	3553
918.495	3477
918.606	3332
918.717	3264
918.828	3378
918.939	3447
919.05	3287
919.161	3405
919.272	3169
919.383	3279
919.494	3477
919.604	3660
919.715	3462
919.826	3412
919.936	3428
920.047	3572
920.157	3572
920.267	3732
920.378	3614
920.488	3580
920.598	3793
920.708	3941
920.818	3812
920.928	3831
921.038	4044
921.148	3975
921.258	3690
921.368	3618
921.477	3542
921.587	3515
921.697	3462
921.806	3625
921.916	3519
922.025	3370
922.134	3359
922.244	3325
922.353	3416
922.462	3264
922.571	3222
922.68	3081
922.789	3074
922.898	3142
923.007	3097
923.116	3218
923.224	3165
923.333	3154
923.442	3074
923.55	3081
923.659	3116
923.767	3226
923.876	3138
923.984	3230
924.092	3093
924.201	3161
924.309	3214
924.417	3279
924.525	3233
924.633	3203
924.741	4185
924.849	3005
924.956	3260
925.064	3081
925.172	3047
925.279	3089
925.387	3192
925.494	3233
925.602	3329
925.709	3367
925.816	3176
925.924	3268
926.031	3367
926.138	3344
926.245	3348
926.352	3249
926.459	3401
926.566	3466
926.673	3294
926.779	3230
926.886	3260
926.993	3146
927.099	3127
927.206	3165
927.312	3127
927.419	3214
927.525	3222
927.631	3226
927.737	3142
927.843	3135
927.95	3024
928.056	3131
928.162	3169
928.267	3253
928.373	3812
928.479	3302
928.585	3043
928.69	3211
928.796	3279
928.901	3119
929.007	3058
929.112	3169
929.218	3184
929.323	3135
929.428	3146
929.533	3291
929.638	3119
929.743	3199
929.848	3249
929.953	3211
930.058	3142
930.163	2971
930.267	3032
930.372	3211
930.477	3020
930.581	3294
930.685	3188
930.79	3028
930.894	3100
930.998	3089
931.103	3268
931.207	2937
931.311	2929
931.415	2906
931.519	2777
931.623	2807
