Data from test_V78500241_976.txt Node
Date: Fri Mar 25 16:21:57 CST 2022
User: usil
Spectrometer: V785-0024
Trigger mode: 0
Integration Time (sec): 4.000000E-1
Scans to average: 1
Nonlinearity correction enabled: false
Boxcar width: 0
Storing dark spectrum: false
XAxis mode: Wavelengths
Number of Pixels in Spectrum: 1024
>>>>>Begin Spectral Data<<<<<
801.071	2918
801.214	2918
801.356	2887
801.499	2876
801.641	2842
801.783	2960
801.926	3062
802.068	2975
802.211	3005
802.353	3032
802.496	2956
802.638	2986
802.78	3028
802.923	3066
803.065	2975
803.208	2876
803.35	2933
803.492	2922
803.635	2891
803.777	2743
803.919	2842
804.061	3188
804.204	2918
804.346	2864
804.488	2845
804.63	2982
804.773	2868
804.915	2895
805.057	3043
805.199	2941
805.341	2963
805.483	2990
805.626	3009
805.768	2918
805.91	3070
806.052	3097
806.194	3032
806.336	3214
806.478	2990
806.62	2929
806.762	2937
806.904	3028
807.046	3157
807.188	2944
807.33	2952
807.472	2998
807.614	2918
807.756	2971
807.898	2910
808.04	2872
808.182	2956
808.324	2906
808.465	2880
808.607	2872
808.749	2781
808.891	2826
809.033	2914
809.174	2941
809.316	2891
809.458	2864
809.6	2758
809.741	2758
809.883	2766
810.025	2853
810.166	2838
810.308	2842
810.45	2826
810.591	2766
810.733	2746
810.875	2811
811.016	2800
811.158	2758
811.299	2796
811.441	2902
811.582	2925
811.724	2819
811.865	2849
812.007	2902
812.148	2849
812.29	2853
812.431	2914
812.573	2914
812.714	2944
812.855	3024
812.997	3017
813.138	3135
813.279	3013
813.421	2952
813.562	2944
813.703	2891
813.845	2899
813.986	2750
814.127	2712
814.268	2796
814.41	2845
814.551	2819
814.692	2849
814.833	2792
814.974	2887
815.115	2960
815.256	2800
815.397	2804
815.539	2853
815.68	2773
815.821	2807
815.962	2948
816.103	2918
816.244	2883
816.385	2853
816.526	2963
816.666	2925
816.807	2724
816.948	2902
817.089	2883
817.23	2872
817.371	2766
817.512	2781
817.653	2819
817.793	2796
817.934	2796
818.075	2971
818.216	2975
818.356	3024
818.497	2861
818.638	2788
818.778	2823
818.919	2743
819.06	2777
819.2	2868
819.341	2819
819.481	2781
819.622	2914
819.762	3135
819.903	3024
820.043	2933
820.184	2925
820.324	2872
820.465	2998
820.605	3032
820.746	3013
820.886	2948
821.026	3100
821.167	3127
821.307	3275
821.447	3245
821.588	3222
821.728	3203
821.868	3180
822.008	3043
822.149	3176
822.289	3218
822.429	3074
822.569	3074
822.709	3188
822.849	3020
822.99	3108
823.13	3180
823.27	3188
823.41	3062
823.55	3116
823.69	3097
823.83	3161
823.97	3097
824.11	2975
824.25	3001
824.389	3051
824.529	3093
824.669	3062
824.809	3192
824.949	3211
825.089	3207
825.228	3154
825.368	2963
825.508	2971
825.648	2986
825.787	2979
825.927	3020
826.067	2933
826.206	2986
826.346	3055
826.485	3081
826.625	3108
826.765	3226
826.904	3211
827.044	2944
827.183	2914
827.323	2842
827.462	2975
827.601	2902
827.741	2906
827.88	2925
828.02	2838
828.159	2944
828.298	3047
828.437	3116
828.577	3001
828.716	3249
828.855	3062
828.994	2925
829.134	2872
829.273	2929
829.412	2876
829.551	2845
829.69	2838
829.829	2971
829.968	3142
830.107	2982
830.246	2994
830.385	2899
830.524	2868
830.663	2834
830.802	2731
830.941	2640
831.08	2625
831.219	2743
831.357	2754
831.496	2891
831.635	2708
831.774	2648
831.913	2667
832.051	2526
832.19	2568
832.329	2663
832.467	2579
832.606	2518
832.744	2564
832.883	2602
833.022	2571
833.16	2632
833.299	2648
833.437	2686
833.576	2727
833.714	2712
833.852	2743
833.991	2754
834.129	2849
834.267	2815
834.406	2777
834.544	2845
834.682	2845
834.821	2857
834.959	3009
835.097	2887
835.235	3058
835.373	3013
835.511	2963
835.65	2925
835.788	2956
835.926	2811
836.064	2823
836.202	2796
836.34	3043
836.478	3165
836.615	3066
836.753	3097
836.891	3188
837.029	3131
837.167	3070
837.305	3066
837.443	3032
837.58	2952
837.718	3127
837.856	3039
837.993	2998
838.131	3116
838.269	3089
838.406	3047
838.544	3089
838.681	2899
838.819	2883
838.956	2807
839.094	2834
839.231	2906
839.369	3017
839.506	3336
839.643	3195
839.781	2975
839.918	2948
840.055	3028
840.193	3032
840.33	3058
840.467	3093
840.604	3138
840.742	3378
840.879	3062
841.016	3036
841.153	3104
841.29	3313
841.427	3260
841.564	3226
841.701	3294
841.838	3203
841.975	3131
842.112	3173
842.249	3036
842.385	3017
842.522	3214
842.659	3058
842.796	3013
842.933	3097
843.069	3005
843.206	3028
843.343	3146
843.479	3077
843.616	3150
843.752	2845
843.889	2842
844.025	3100
844.162	2857
844.298	3043
844.435	2914
844.571	2941
844.708	3093
844.844	3146
844.98	3195
845.117	3135
845.253	3028
845.389	2982
845.525	3089
845.661	3066
845.798	3036
845.934	3081
846.07	3028
846.206	3180
846.342	3321
846.478	3230
846.614	3097
846.75	3058
846.886	2998
847.022	3218
847.158	3123
847.294	3169
847.429	3233
847.565	3199
847.701	3469
847.837	2986
847.972	3047
848.108	3218
848.244	3169
848.379	2998
848.515	2967
848.65	2929
848.786	2979
848.921	3001
849.057	3119
849.192	3165
849.328	3100
849.463	3112
849.598	3051
849.734	3070
849.869	3001
850.004	2956
850.14	2979
850.275	2960
850.41	2872
850.545	2906
850.68	2982
850.815	3001
850.95	2998
851.085	3237
851.22	3138
851.355	3085
851.49	2963
851.625	3005
851.76	3039
851.895	3005
852.03	2910
852.165	3055
852.299	3108
852.434	3233
852.569	3173
852.703	3222
852.838	3306
852.973	3359
853.107	3359
853.242	3131
853.376	3123
853.511	2998
853.645	3093
853.78	3279
853.914	3180
854.048	3104
854.183	3112
854.317	3173
854.451	3367
854.585	3161
854.72	3165
854.854	3218
854.988	3104
855.122	3123
855.256	3024
855.39	3169
855.524	3253
855.658	3211
855.792	3199
855.926	3226
856.06	3211
856.194	3283
856.327	3157
856.461	3100
856.595	3123
856.729	3108
856.862	3249
856.996	3230
857.13	3214
857.263	3249
857.397	3306
857.53	3138
857.664	3211
857.797	3275
857.931	3302
858.064	3199
858.197	3268
858.331	3199
858.464	3123
858.597	3055
858.731	3161
858.864	3138
858.997	3150
859.13	3165
859.263	3203
859.396	3226
859.529	3104
859.662	3085
859.795	3066
859.928	3127
860.061	3294
860.194	3291
860.327	3161
860.46	3127
860.592	3279
860.725	3256
860.858	3283
860.99	3138
861.123	3085
861.256	3081
861.388	3173
861.521	3861
861.653	3039
861.786	3043
861.918	3043
862.05	3089
862.183	3127
862.315	3199
862.447	3222
862.58	3116
862.712	2956
862.844	2876
862.976	3081
863.108	3039
863.24	3424
863.372	2906
863.504	2990
863.636	2979
863.768	3055
863.9	2982
864.032	2925
864.164	2990
864.296	3024
864.428	3097
864.559	3161
864.691	3085
864.823	3077
864.954	3051
865.086	3043
865.217	3032
865.349	2960
865.48	3009
865.612	3077
865.743	3184
865.875	2982
866.006	2963
866.137	2963
866.269	2975
866.4	2944
866.531	2952
866.662	2925
866.793	2918
866.924	2910
867.055	3020
867.186	2963
867.317	2906
867.448	2868
867.579	2880
867.71	2864
867.841	2880
867.972	2956
868.103	2918
868.233	2902
868.364	2906
868.495	2910
868.625	3089
868.756	3165
868.886	3017
869.017	3043
869.147	3211
869.278	3176
869.408	3047
869.539	3036
869.669	3100
869.799	3066
869.929	3169
870.06	3165
870.19	3344
870.32	3298
870.45	3298
870.58	3412
870.71	3481
870.84	3469
870.97	3332
871.1	3283
871.23	3511
871.36	3511
871.489	3378
871.619	3435
871.749	3431
871.879	3462
872.008	3492
872.138	3393
872.267	3291
872.397	3150
872.526	3089
872.656	3047
872.785	3112
872.915	3268
873.044	3321
873.173	3237
873.303	3291
873.432	3256
873.561	3272
873.69	3169
873.819	3157
873.948	3226
874.077	3108
874.206	3104
874.335	3097
874.464	3256
874.593	3329
874.722	3279
874.851	3447
874.979	3363
875.108	3363
875.237	3237
875.365	3199
875.494	3169
875.623	3287
875.751	3093
875.88	3157
876.008	3222
876.136	3245
876.265	3378
876.393	3549
876.521	3412
876.65	3420
876.778	3363
876.906	3298
877.034	3222
877.162	3264
877.29	3207
877.418	3298
877.546	3275
877.674	3294
877.802	3291
877.93	3233
878.058	3195
878.185	3119
878.313	3256
878.441	3230
878.568	3089
878.696	3150
878.824	3256
878.951	3310
879.079	3431
879.206	3652
879.333	3462
879.461	3306
879.588	3401
879.715	3515
879.842	3603
879.97	3340
880.097	3226
880.224	3131
880.351	3218
880.478	3226
880.605	3218
880.732	3192
880.859	3519
880.986	3344
881.112	3325
881.239	3199
881.366	3157
881.493	3051
881.619	3047
881.746	3123
881.872	3089
881.999	3123
882.125	3157
882.252	3275
882.378	3313
882.505	3450
882.631	3302
882.757	3188
882.883	3245
883.01	3245
883.136	3173
883.262	3116
883.388	3131
883.514	3302
883.64	3382
883.766	3313
883.892	3253
884.018	3275
884.143	3466
884.269	3584
884.395	3237
884.52	3169
884.646	3195
884.772	3150
884.897	3112
885.023	3203
885.148	3351
885.274	3477
885.399	3393
885.524	3287
885.65	3275
885.775	3336
885.9	3268
886.025	3473
886.15	3443
886.275	3298
886.4	3237
886.525	3363
886.65	3260
886.775	3310
886.9	3473
887.025	3660
887.149	3424
887.274	3291
887.399	3195
887.523	3249
887.648	3180
887.773	3192
887.897	3409
888.021	3412
888.146	3313
888.27	3485
888.395	3568
888.519	3458
888.643	3488
888.767	3526
888.891	3367
889.015	3245
889.139	3298
889.263	3268
889.387	3439
889.511	3561
889.635	3420
889.759	3336
889.883	3332
890.006	3374
890.13	3504
890.254	3310
890.377	3344
890.501	3241
890.624	3203
890.748	3306
890.871	3211
890.995	3104
891.118	3062
891.241	3192
891.364	3241
891.488	3321
891.611	3180
891.734	3249
891.857	3291
891.98	3241
892.103	3359
892.226	3310
892.349	3214
892.471	3154
892.594	3260
892.717	3313
892.839	3298
892.962	3348
893.085	3412
893.207	3283
893.33	3199
893.452	3226
893.575	3405
893.697	3253
893.819	3477
893.941	3496
894.064	3504
894.186	3291
894.308	3272
894.43	3416
894.552	3511
894.674	3515
894.796	3287
894.918	3306
895.04	3310
895.161	3454
895.283	3473
895.405	3336
895.526	3374
895.648	3428
895.769	3466
895.891	3473
896.012	3526
896.134	3492
896.255	3405
896.376	3389
896.498	3389
896.619	3439
896.74	3389
896.861	3447
896.982	3717
897.103	3857
897.224	3637
897.345	3500
897.466	3466
897.587	3466
897.708	3618
897.828	3530
897.949	3458
898.07	3355
898.19	3462
898.311	3652
898.431	3450
898.552	3530
898.672	3614
898.792	3587
898.913	3523
899.033	3405
899.153	3283
899.273	3222
899.393	3291
899.513	3355
899.633	3348
899.753	3363
899.873	3325
899.993	3412
900.113	3374
900.232	3382
900.352	3348
900.472	3321
900.591	3188
900.711	3306
900.83	3241
900.95	3477
901.069	3519
901.189	3336
901.308	3169
901.427	3150
901.546	3226
901.665	3268
901.784	3359
901.904	3226
902.023	3165
902.141	3020
902.26	3013
902.379	3150
902.498	3085
902.617	3058
902.735	3218
902.854	3264
902.973	3203
903.091	3043
903.21	3070
903.328	3116
903.446	3112
903.565	3131
903.683	3211
903.801	3161
903.919	3230
904.038	3302
904.156	3211
904.274	3268
904.392	3264
904.51	3294
904.627	3329
904.745	3447
904.863	3507
904.981	3253
905.098	3173
905.216	3176
905.334	3294
905.451	3344
905.569	3336
905.686	3488
905.803	3466
905.921	3313
906.038	3450
906.155	3374
906.272	3321
906.389	3359
906.506	3211
906.623	3287
906.74	3283
906.857	3260
906.974	3256
907.091	3496
907.208	3622
907.324	3488
907.441	3386
907.557	3245
907.674	3287
907.79	3230
907.907	3287
908.023	3393
908.139	3389
908.256	3325
908.372	3374
908.488	3386
908.604	3279
908.72	3268
908.836	3298
908.952	3268
909.068	3367
909.184	3507
909.3	3443
909.415	3500
909.531	3488
909.647	3283
909.762	3298
909.878	3245
909.993	3348
910.108	3321
910.224	3351
910.339	3450
910.454	3321
910.57	3275
910.685	3245
910.8	3591
910.915	3564
911.03	3420
911.145	3272
911.259	3279
911.374	3313
911.489	3279
911.604	3237
911.718	3154
911.833	3146
911.947	3051
912.062	3005
912.176	3176
912.291	3180
912.405	3233
912.519	3412
912.633	3500
912.748	3351
912.862	3272
912.976	3169
913.09	3055
913.204	3165
913.318	3226
913.431	3332
913.545	3344
913.659	3428
913.772	3355
913.886	3226
914	3192
914.113	3363
914.226	3416
914.34	3416
914.453	3222
914.566	3431
914.68	3275
914.793	3306
914.906	3154
915.019	3131
915.132	3028
915.245	3173
915.358	3245
915.47	3253
915.583	3275
915.696	3340
915.809	3443
915.921	3450
916.034	3260
916.146	3279
916.259	3237
916.371	3454
916.483	3374
916.595	3329
916.708	3374
916.82	3344
916.932	3412
917.044	3374
917.156	3359
917.268	3294
917.38	3306
917.491	3340
917.603	3458
917.715	3488
917.826	3519
917.938	3409
918.049	3287
918.161	3450
918.272	3576
918.384	3652
918.495	3557
918.606	3340
918.717	3287
918.828	3424
918.939	3466
919.05	3348
919.161	3412
919.272	3203
919.383	3306
919.494	3526
919.604	3701
919.715	3515
919.826	3488
919.936	3507
920.047	3614
920.157	3637
920.267	3778
920.378	3656
920.488	3644
920.598	3785
920.708	3987
920.818	3892
920.928	3880
921.038	4029
921.148	4051
921.258	3740
921.368	3675
921.477	3629
921.587	3591
921.697	3496
921.806	3663
921.916	3576
922.025	3382
922.134	3370
922.244	3332
922.353	3492
922.462	3306
922.571	3272
922.68	3188
922.789	3108
922.898	3195
923.007	3146
923.116	3253
923.224	3203
923.333	3241
923.442	3165
923.55	3127
923.659	3211
923.767	3268
923.876	3211
923.984	3256
924.092	3138
924.201	3241
924.309	3283
924.417	3241
924.525	3249
924.633	3272
924.741	4238
924.849	3100
924.956	3317
925.064	3154
925.172	3097
925.279	3154
925.387	3245
925.494	3241
925.602	3348
925.709	3351
925.816	3260
925.924	3310
926.031	3431
926.138	3351
926.245	3389
926.352	3283
926.459	3439
926.566	3568
926.673	3351
926.779	3287
926.886	3283
926.993	3180
927.099	3157
927.206	3142
927.312	3157
927.419	3226
927.525	3268
927.631	3302
927.737	3180
927.843	3146
927.95	3055
928.056	3188
928.162	3203
928.267	3272
928.373	3899
928.479	3348
928.585	3100
928.69	3207
928.796	3279
928.901	3226
929.007	3089
929.112	3207
929.218	3226
929.323	3188
929.428	3180
929.533	3359
929.638	3176
929.743	3222
929.848	3302
929.953	3272
930.058	3180
930.163	3043
930.267	3047
930.372	3230
930.477	3047
930.581	3363
930.685	3173
930.79	3104
930.894	3161
930.998	3089
931.103	3298
931.207	3009
931.311	2982
931.415	2990
931.519	2804
931.623	2826
