Data from test_V78500241_1590.txt Node
Date: Fri Mar 25 16:26:13 CST 2022
User: usil
Spectrometer: V785-0024
Trigger mode: 0
Integration Time (sec): 4.000000E-1
Scans to average: 1
Nonlinearity correction enabled: false
Boxcar width: 0
Storing dark spectrum: false
XAxis mode: Wavelengths
Number of Pixels in Spectrum: 1024
>>>>>Begin Spectral Data<<<<<
801.071	2944
801.214	2956
801.356	2857
801.499	2887
801.641	2868
801.783	2918
801.926	3058
802.068	2963
802.211	2986
802.353	3043
802.496	2979
802.638	3009
802.78	3009
802.923	3066
803.065	2967
803.208	2910
803.35	2899
803.492	2933
803.635	2952
803.777	2754
803.919	2815
804.061	3161
804.204	2918
804.346	2925
804.488	2819
804.63	2986
804.773	2876
804.915	2910
805.057	3074
805.199	2937
805.341	2998
805.483	3070
805.626	3032
805.768	2967
805.91	3039
806.052	3127
806.194	3001
806.336	3260
806.478	3017
806.62	2956
806.762	2956
806.904	3032
807.046	3184
807.188	2998
807.33	2925
807.472	2975
807.614	2929
807.756	2956
807.898	2937
808.04	2933
808.182	2971
808.324	2941
808.465	2887
808.607	2880
808.749	2804
808.891	2815
809.033	2986
809.174	2971
809.316	2876
809.458	2899
809.6	2769
809.741	2773
809.883	2785
810.025	2857
810.166	2864
810.308	2834
810.45	2849
810.591	2785
810.733	2769
810.875	2853
811.016	2735
811.158	2739
811.299	2800
811.441	2937
811.582	2906
811.724	2834
811.865	2819
812.007	2929
812.148	2864
812.29	2845
812.431	2891
812.573	2925
812.714	2944
812.855	3032
812.997	3039
813.138	3138
813.279	3032
813.421	2975
813.562	2990
813.703	2853
813.845	2880
813.986	2769
814.127	2724
814.268	2849
814.41	2838
814.551	2785
814.692	2872
814.833	2804
814.974	2899
815.115	2952
815.256	2849
815.397	2804
815.539	2853
815.68	2758
815.821	2807
815.962	2914
816.103	2929
816.244	2880
816.385	2895
816.526	2971
816.666	2925
816.807	2758
816.948	2880
817.089	2891
817.23	2849
817.371	2815
817.512	2804
817.653	2857
817.793	2811
817.934	2861
818.075	2941
818.216	2982
818.356	3051
818.497	2883
818.638	2758
818.778	2807
818.919	2781
819.06	2766
819.2	2880
819.341	2842
819.481	2788
819.622	2944
819.762	3062
819.903	3017
820.043	2956
820.184	2902
820.324	2925
820.465	2990
820.605	3013
820.746	3024
820.886	2925
821.026	3100
821.167	3165
821.307	3283
821.447	3256
821.588	3256
821.728	3173
821.868	3199
822.008	3039
822.149	3192
822.289	3176
822.429	3116
822.569	3070
822.709	3169
822.849	3036
822.99	3047
823.13	3157
823.27	3199
823.41	3104
823.55	3176
823.69	3154
823.83	3180
823.97	3081
824.11	3036
824.25	2994
824.389	3089
824.529	3108
824.669	3043
824.809	3169
824.949	3237
825.089	3214
825.228	3154
825.368	3017
825.508	2944
825.648	2967
825.787	3036
825.927	2998
826.067	2929
826.206	2944
826.346	3051
826.485	3047
826.625	3093
826.765	3241
826.904	3192
827.044	3017
827.183	2933
827.323	2849
827.462	2975
827.601	2914
827.741	2944
827.88	2944
828.02	2838
828.159	2975
828.298	3028
828.437	3081
828.577	3036
828.716	3180
828.855	3062
828.994	2922
829.134	2872
829.273	2922
829.412	2838
829.551	2861
829.69	2902
829.829	2944
829.968	3142
830.107	3009
830.246	3051
830.385	2922
830.524	2895
830.663	2804
830.802	2758
830.941	2659
831.08	2670
831.219	2716
831.357	2762
831.496	2941
831.635	2746
831.774	2655
831.913	2648
832.051	2549
832.19	2556
832.329	2651
832.467	2526
832.606	2473
832.744	2598
832.883	2598
833.022	2560
833.16	2678
833.299	2689
833.437	2693
833.576	2716
833.714	2716
833.852	2735
833.991	2773
834.129	2834
834.267	2815
834.406	2807
834.544	2853
834.682	2838
834.821	2899
834.959	3074
835.097	2849
835.235	3081
835.373	2975
835.511	3001
835.65	2975
835.788	2967
835.926	2819
836.064	2815
836.202	2834
836.34	3070
836.478	3135
836.615	3036
836.753	3135
836.891	3233
837.029	3176
837.167	3112
837.305	3032
837.443	3032
837.58	2960
837.718	3112
837.856	3077
837.993	3055
838.131	3108
838.269	3100
838.406	3119
838.544	3070
838.681	2937
838.819	2944
838.956	2819
839.094	2857
839.231	2891
839.369	2986
839.506	3370
839.643	3173
839.781	3009
839.918	2918
840.055	3009
840.193	3024
840.33	3093
840.467	3097
840.604	3138
840.742	3389
840.879	3039
841.016	3051
841.153	3104
841.29	3351
841.427	3283
841.564	3256
841.701	3321
841.838	3214
841.975	3150
842.112	3176
842.249	3047
842.385	3047
842.522	3256
842.659	3104
842.796	3066
842.933	3112
843.069	3077
843.206	3032
843.343	3146
843.479	3089
843.616	3127
843.752	2902
843.889	2887
844.025	3081
844.162	2880
844.298	3055
844.435	2922
844.571	2910
844.708	3066
844.844	3154
844.98	3218
845.117	3176
845.253	3051
845.389	3009
845.525	3097
845.661	3142
845.798	3001
845.934	3085
846.07	3017
846.206	3222
846.342	3313
846.478	3226
846.614	3070
846.75	3066
846.886	3024
847.022	3245
847.158	3135
847.294	3211
847.429	3222
847.565	3195
847.701	3488
847.837	3020
847.972	2998
848.108	3169
848.244	3112
848.379	2971
848.515	2982
848.65	2906
848.786	2967
848.921	3001
849.057	3085
849.192	3097
849.328	3028
849.463	3138
849.598	3055
849.734	3024
849.869	3036
850.004	2929
850.14	2990
850.275	2914
850.41	2815
850.545	2872
850.68	2918
850.815	2956
850.95	2948
851.085	3169
851.22	3085
851.355	3039
851.49	2982
851.625	2998
851.76	3036
851.895	2948
852.03	2914
852.165	3055
852.299	3062
852.434	3184
852.569	3150
852.703	3169
852.838	3237
852.973	3329
853.107	3317
853.242	3192
853.376	3097
853.511	2971
853.645	3001
853.78	3192
853.914	3131
854.048	3112
854.183	3062
854.317	3127
854.451	3317
854.585	3131
854.72	3032
854.854	3214
854.988	3055
855.122	3062
855.256	2982
855.39	3131
855.524	3249
855.658	3180
855.792	3127
855.926	3188
856.06	3241
856.194	3253
856.327	3150
856.461	3081
856.595	3039
856.729	3097
856.862	3195
856.996	3165
857.13	3195
857.263	3192
857.397	3233
857.53	3127
857.664	3146
857.797	3233
857.931	3260
858.064	3138
858.197	3188
858.331	3142
858.464	3116
858.597	2986
858.731	3093
858.864	3112
858.997	3066
859.13	3173
859.263	3173
859.396	3211
859.529	3138
859.662	3085
859.795	3032
859.928	3116
860.061	3256
860.194	3268
860.327	3131
860.46	3089
860.592	3207
860.725	3218
860.858	3249
860.99	3127
861.123	3051
861.256	3032
861.388	3119
861.521	3842
861.653	3017
861.786	2990
861.918	3001
862.05	3039
862.183	3085
862.315	3173
862.447	3214
862.58	3089
862.712	2941
862.844	2872
862.976	3024
863.108	2982
863.24	3325
863.372	2880
863.504	2979
863.636	2952
863.768	3024
863.9	3009
864.032	2895
864.164	2910
864.296	3024
864.428	3070
864.559	3093
864.691	3043
864.823	3062
864.954	3013
865.086	3032
865.217	2990
865.349	2910
865.48	2960
865.612	2956
865.743	3173
865.875	2971
866.006	2956
866.137	3005
866.269	2952
866.4	2918
866.531	2910
866.662	2910
866.793	2872
866.924	2918
867.055	2948
867.186	2895
867.317	2891
867.448	2845
867.579	2834
867.71	2826
867.841	2804
867.972	2891
868.103	2925
868.233	2899
868.364	2876
868.495	2925
868.625	3066
868.756	3135
868.886	2944
869.017	3009
869.147	3138
869.278	3157
869.408	3051
869.539	3020
869.669	3077
869.799	3001
869.929	3165
870.06	3104
870.19	3294
870.32	3264
870.45	3321
870.58	3363
870.71	3439
870.84	3454
870.97	3291
871.1	3218
871.23	3466
871.36	3454
871.489	3386
871.619	3397
871.749	3420
871.879	3431
872.008	3435
872.138	3374
872.267	3291
872.397	3131
872.526	3074
872.656	3009
872.785	3077
872.915	3264
873.044	3329
873.173	3180
873.303	3211
873.432	3226
873.561	3211
873.69	3169
873.819	3146
873.948	3195
874.077	3150
874.206	3036
874.335	3104
874.464	3207
874.593	3348
874.722	3237
874.851	3382
874.979	3348
875.108	3321
875.237	3199
875.365	3176
875.494	3169
875.623	3211
875.751	3070
875.88	3116
876.008	3165
876.136	3211
876.265	3370
876.393	3481
876.521	3378
876.65	3355
876.778	3325
876.906	3230
877.034	3165
877.162	3237
877.29	3146
877.418	3226
877.546	3268
877.674	3256
877.802	3241
877.93	3211
878.058	3127
878.185	3108
878.313	3203
878.441	3207
878.568	3051
878.696	3142
878.824	3226
878.951	3291
879.079	3458
879.206	3618
879.333	3416
879.461	3329
879.588	3363
879.715	3511
879.842	3595
879.97	3344
880.097	3169
880.224	3135
880.351	3157
880.478	3203
880.605	3192
880.732	3176
880.859	3458
880.986	3302
881.112	3302
881.239	3230
881.366	3097
881.493	3024
881.619	3001
881.746	3085
881.872	3074
881.999	3116
882.125	3180
882.252	3260
882.378	3317
882.505	3420
882.631	3272
882.757	3150
882.883	3203
883.01	3203
883.136	3169
883.262	3047
883.388	3104
883.514	3298
883.64	3344
883.766	3279
883.892	3169
884.018	3211
884.143	3409
884.269	3526
884.395	3230
884.52	3150
884.646	3165
884.772	3123
884.897	3100
885.023	3203
885.148	3313
885.274	3401
885.399	3355
885.524	3283
885.65	3260
885.775	3332
885.9	3302
886.025	3409
886.15	3351
886.275	3298
886.4	3237
886.525	3264
886.65	3264
886.775	3272
886.9	3511
887.025	3595
887.149	3382
887.274	3249
887.399	3192
887.523	3176
887.648	3180
887.773	3203
887.897	3367
888.021	3393
888.146	3291
888.27	3409
888.395	3485
888.519	3450
888.643	3454
888.767	3431
888.891	3313
889.015	3283
889.139	3287
889.263	3260
889.387	3405
889.511	3485
889.635	3428
889.759	3283
889.883	3279
890.006	3378
890.13	3485
890.254	3294
890.377	3325
890.501	3195
890.624	3214
890.748	3325
890.871	3138
890.995	3104
891.118	3047
891.241	3161
891.364	3203
891.488	3317
891.611	3203
891.734	3222
891.857	3275
891.98	3218
892.103	3298
892.226	3268
892.349	3241
892.471	3116
892.594	3253
892.717	3268
892.839	3245
892.962	3310
893.085	3374
893.207	3317
893.33	3184
893.452	3184
893.575	3321
893.697	3268
893.819	3473
893.941	3492
894.064	3416
894.186	3291
894.308	3275
894.43	3428
894.552	3511
894.674	3473
894.796	3226
894.918	3302
895.04	3264
895.161	3401
895.283	3424
895.405	3291
895.526	3325
895.648	3401
895.769	3409
895.891	3454
896.012	3469
896.134	3462
896.255	3454
896.376	3401
896.498	3359
896.619	3405
896.74	3382
896.861	3386
896.982	3701
897.103	3842
897.224	3584
897.345	3488
897.466	3397
897.587	3424
897.708	3610
897.828	3538
897.949	3439
898.07	3374
898.19	3363
898.311	3603
898.431	3443
898.552	3492
898.672	3599
898.792	3587
898.913	3557
899.033	3412
899.153	3249
899.273	3237
899.393	3272
899.513	3306
899.633	3325
899.753	3325
899.873	3321
899.993	3348
900.113	3294
900.232	3401
900.352	3344
900.472	3291
900.591	3207
900.711	3268
900.83	3272
900.95	3458
901.069	3538
901.189	3363
901.308	3176
901.427	3131
901.546	3169
901.665	3298
901.784	3332
901.904	3222
902.023	3100
902.141	3013
902.26	2948
902.379	3116
902.498	3055
902.617	3024
902.735	3218
902.854	3222
902.973	3214
903.091	3009
903.21	3066
903.328	3161
903.446	3116
903.565	3100
903.683	3226
903.801	3116
903.919	3184
904.038	3268
904.156	3173
904.274	3294
904.392	3283
904.51	3256
904.627	3325
904.745	3450
904.863	3450
904.981	3241
905.098	3199
905.216	3241
905.334	3302
905.451	3294
905.569	3298
905.686	3431
905.803	3447
905.921	3313
906.038	3473
906.155	3332
906.272	3256
906.389	3310
906.506	3199
906.623	3233
906.74	3260
906.857	3192
906.974	3214
907.091	3431
907.208	3545
907.324	3458
907.441	3382
907.557	3253
907.674	3218
907.79	3214
907.907	3291
908.023	3401
908.139	3378
908.256	3321
908.372	3355
908.488	3329
908.604	3272
908.72	3237
908.836	3283
908.952	3283
909.068	3355
909.184	3538
909.3	3382
909.415	3485
909.531	3458
909.647	3283
909.762	3294
909.878	3272
909.993	3359
910.108	3344
910.224	3344
910.339	3409
910.454	3317
910.57	3310
910.685	3233
910.8	3633
910.915	3572
911.03	3405
911.145	3237
911.259	3264
911.374	3382
911.489	3241
911.604	3249
911.718	3135
911.833	3138
911.947	3058
912.062	2971
912.176	3188
912.291	3188
912.405	3199
912.519	3412
912.633	3462
912.748	3359
912.862	3264
912.976	3157
913.09	3081
913.204	3142
913.318	3241
913.431	3340
913.545	3336
913.659	3428
913.772	3340
913.886	3245
914	3199
914.113	3363
914.226	3454
914.34	3378
914.453	3207
914.566	3420
914.68	3287
914.793	3355
914.906	3146
915.019	3097
915.132	3081
915.245	3169
915.358	3192
915.47	3226
915.583	3230
915.696	3298
915.809	3409
915.921	3409
916.034	3218
916.146	3214
916.259	3222
916.371	3389
916.483	3405
916.595	3351
916.708	3336
916.82	3336
916.932	3340
917.044	3359
917.156	3359
917.268	3222
917.38	3313
917.491	3306
917.603	3367
917.715	3435
917.826	3439
917.938	3389
918.049	3283
918.161	3450
918.272	3564
918.384	3557
918.495	3519
918.606	3329
918.717	3272
918.828	3370
918.939	3397
919.05	3279
919.161	3416
919.272	3184
919.383	3260
919.494	3469
919.604	3656
919.715	3492
919.826	3363
919.936	3431
920.047	3595
920.157	3564
920.267	3804
920.378	3652
920.488	3572
920.598	3785
920.708	4006
920.818	3823
920.928	3857
921.038	4021
921.148	3998
921.258	3698
921.368	3606
921.477	3572
921.587	3530
921.697	3458
921.806	3633
921.916	3500
922.025	3374
922.134	3355
922.244	3302
922.353	3412
922.462	3245
922.571	3214
922.68	3119
922.789	3066
922.898	3150
923.007	3116
923.116	3165
923.224	3142
923.333	3203
923.442	3108
923.55	3089
923.659	3180
923.767	3218
923.876	3116
923.984	3241
924.092	3093
924.201	3169
924.309	3211
924.417	3287
924.525	3188
924.633	3233
924.741	4162
924.849	3055
924.956	3237
925.064	3081
925.172	3017
925.279	3142
925.387	3192
925.494	3214
925.602	3359
925.709	3287
925.816	3169
925.924	3241
926.031	3382
926.138	3348
926.245	3386
926.352	3245
926.459	3382
926.566	3443
926.673	3336
926.779	3249
926.886	3233
926.993	3150
927.099	3097
927.206	3123
927.312	3112
927.419	3256
927.525	3176
927.631	3275
927.737	3150
927.843	3119
927.95	3013
928.056	3146
928.162	3188
928.267	3226
928.373	3850
928.479	3317
928.585	3066
928.69	3161
928.796	3245
928.901	3157
929.007	2986
929.112	3188
929.218	3157
929.323	3161
929.428	3146
929.533	3294
929.638	3116
929.743	3180
929.848	3256
929.953	3192
930.058	3127
930.163	3005
930.267	3055
930.372	3207
930.477	3055
930.581	3279
930.685	3184
930.79	3085
930.894	3093
930.998	3112
931.103	3287
931.207	2952
931.311	2910
931.415	2910
931.519	2811
931.623	2807
