Data from test_V78500241_1062.txt Node
Date: Fri Mar 25 16:22:33 CST 2022
User: usil
Spectrometer: V785-0024
Trigger mode: 0
Integration Time (sec): 4.000000E-1
Scans to average: 1
Nonlinearity correction enabled: false
Boxcar width: 0
Storing dark spectrum: false
XAxis mode: Wavelengths
Number of Pixels in Spectrum: 1024
>>>>>Begin Spectral Data<<<<<
801.071	2948
801.214	2952
801.356	2899
801.499	2922
801.641	2883
801.783	2948
801.926	3036
802.068	2982
802.211	3039
802.353	3093
802.496	3013
802.638	3013
802.78	3043
802.923	3123
803.065	3036
803.208	2918
803.35	2925
803.492	2941
803.635	2963
803.777	2777
803.919	2823
804.061	3233
804.204	2960
804.346	2895
804.488	2823
804.63	2982
804.773	2906
804.915	2914
805.057	3089
805.199	2963
805.341	2986
805.483	3074
805.626	2986
805.768	2952
805.91	3104
806.052	3146
806.194	3043
806.336	3256
806.478	3039
806.62	2944
806.762	2979
806.904	3085
807.046	3192
807.188	3017
807.33	2910
807.472	3024
807.614	2929
807.756	3036
807.898	2941
808.04	2933
808.182	2982
808.324	2990
808.465	2899
808.607	2895
808.749	2804
808.891	2868
809.033	3005
809.174	2990
809.316	2948
809.458	2933
809.6	2766
809.741	2773
809.883	2754
810.025	2864
810.166	2872
810.308	2842
810.45	2899
810.591	2811
810.733	2769
810.875	2823
811.016	2792
811.158	2762
811.299	2826
811.441	2929
811.582	2895
811.724	2861
811.865	2857
812.007	2906
812.148	2876
812.29	2872
812.431	2910
812.573	2944
812.714	2944
812.855	3085
812.997	3058
813.138	3100
813.279	3051
813.421	3028
813.562	2967
813.703	2887
813.845	2880
813.986	2788
814.127	2727
814.268	2849
814.41	2842
814.551	2842
814.692	2887
814.833	2834
814.974	2891
815.115	3001
815.256	2853
815.397	2834
815.539	2864
815.68	2781
815.821	2826
815.962	2944
816.103	2937
816.244	2857
816.385	2906
816.526	2979
816.666	2941
816.807	2743
816.948	2918
817.089	2948
817.23	2842
817.371	2807
817.512	2811
817.653	2880
817.793	2830
817.934	2887
818.075	2967
818.216	3017
818.356	3009
818.497	2895
818.638	2819
818.778	2853
818.919	2800
819.06	2800
819.2	2883
819.341	2830
819.481	2823
819.622	2925
819.762	3100
819.903	3066
820.043	2922
820.184	2933
820.324	2910
820.465	3017
820.605	3032
820.746	3017
820.886	2887
821.026	3135
821.167	3180
821.307	3291
821.447	3264
821.588	3260
821.728	3176
821.868	3180
822.008	3093
822.149	3199
822.289	3241
822.429	3108
822.569	3104
822.709	3192
822.849	3039
822.99	3081
823.13	3135
823.27	3211
823.41	3131
823.55	3131
823.69	3142
823.83	3157
823.97	3100
824.11	2998
824.25	3013
824.389	3074
824.529	3097
824.669	3055
824.809	3195
824.949	3245
825.089	3211
825.228	3169
825.368	2994
825.508	2971
825.648	2967
825.787	3093
825.927	3028
826.067	3001
826.206	2986
826.346	3051
826.485	3047
826.625	3108
826.765	3313
826.904	3192
827.044	3020
827.183	2960
827.323	2883
827.462	2982
827.601	2922
827.741	2891
827.88	2952
828.02	2868
828.159	2986
828.298	3009
828.437	3131
828.577	3097
828.716	3233
828.855	3089
828.994	2922
829.134	2902
829.273	2937
829.412	2876
829.551	2849
829.69	2918
829.829	2982
829.968	3127
830.107	3036
830.246	3039
830.385	2899
830.524	2872
830.663	2830
830.802	2727
830.941	2632
831.08	2663
831.219	2766
831.357	2758
831.496	2986
831.635	2708
831.774	2663
831.913	2689
832.051	2526
832.19	2579
832.329	2708
832.467	2533
832.606	2499
832.744	2598
832.883	2568
833.022	2594
833.16	2667
833.299	2697
833.437	2689
833.576	2689
833.714	2735
833.852	2697
833.991	2773
834.129	2849
834.267	2857
834.406	2800
834.544	2880
834.682	2883
834.821	2876
834.959	3066
835.097	2891
835.235	3081
835.373	3005
835.511	3036
835.65	2952
835.788	2960
835.926	2864
836.064	2849
836.202	2838
836.34	3100
836.478	3146
836.615	3032
836.753	3135
836.891	3195
837.029	3180
837.167	3116
837.305	3074
837.443	3077
837.58	2979
837.718	3081
837.856	3074
837.993	3039
838.131	3138
838.269	3097
838.406	3104
838.544	3100
838.681	2952
838.819	2960
838.956	2807
839.094	2838
839.231	2922
839.369	3009
839.506	3348
839.643	3253
839.781	2990
839.918	2933
840.055	3058
840.193	3032
840.33	3055
840.467	3116
840.604	3127
840.742	3397
840.879	3070
841.016	3074
841.153	3074
841.29	3321
841.427	3317
841.564	3260
841.701	3272
841.838	3214
841.975	3173
842.112	3199
842.249	3055
842.385	2982
842.522	3256
842.659	3074
842.796	3070
842.933	3123
843.069	3043
843.206	3055
843.343	3146
843.479	3127
843.616	3142
843.752	2906
843.889	2853
844.025	3051
844.162	2891
844.298	3093
844.435	2960
844.571	2941
844.708	3024
844.844	3180
844.98	3237
845.117	3199
845.253	3039
845.389	3017
845.525	3119
845.661	3104
845.798	3005
845.934	3116
846.07	3036
846.206	3226
846.342	3298
846.478	3199
846.614	3085
846.75	3039
846.886	3036
847.022	3264
847.158	3097
847.294	3180
847.429	3249
847.565	3199
847.701	3500
847.837	3047
847.972	2979
848.108	3135
848.244	3154
848.379	2994
848.515	2906
848.65	2929
848.786	2956
848.921	3047
849.057	3100
849.192	3165
849.328	3036
849.463	3127
849.598	3051
849.734	3043
849.869	3017
850.004	2918
850.14	3001
850.275	2960
850.41	2849
850.545	2891
850.68	2922
850.815	2971
850.95	2941
851.085	3207
851.22	3100
851.355	3085
851.49	2998
851.625	3017
851.76	3043
851.895	2948
852.03	2899
852.165	3062
852.299	3146
852.434	3245
852.569	3218
852.703	3222
852.838	3245
852.973	3374
853.107	3393
853.242	3211
853.376	3157
853.511	3020
853.645	3047
853.78	3279
853.914	3157
854.048	3165
854.183	3138
854.317	3199
854.451	3321
854.585	3165
854.72	3165
854.854	3260
854.988	3089
855.122	3127
855.256	3013
855.39	3169
855.524	3279
855.658	3188
855.792	3192
855.926	3233
856.06	3249
856.194	3287
856.327	3214
856.461	3127
856.595	3135
856.729	3100
856.862	3233
856.996	3218
857.13	3253
857.263	3260
857.397	3294
857.53	3154
857.664	3237
857.797	3253
857.931	3329
858.064	3188
858.197	3294
858.331	3169
858.464	3150
858.597	3062
858.731	3146
858.864	3161
858.997	3131
859.13	3207
859.263	3222
859.396	3222
859.529	3108
859.662	3131
859.795	3089
859.928	3173
860.061	3310
860.194	3340
860.327	3157
860.46	3093
860.592	3218
860.725	3268
860.858	3272
860.99	3131
861.123	3089
861.256	3093
861.388	3192
861.521	3873
861.653	3039
861.786	3028
861.918	3032
862.05	3085
862.183	3097
862.315	3161
862.447	3245
862.58	3123
862.712	3009
862.844	2922
862.976	3055
863.108	3047
863.24	3504
863.372	2941
863.504	2990
863.636	2963
863.768	3047
863.9	2979
864.032	2944
864.164	2982
864.296	3043
864.428	3135
864.559	3146
864.691	3100
864.823	3116
864.954	3039
865.086	3062
865.217	3036
865.349	3017
865.48	2998
865.612	3039
865.743	3188
865.875	3024
866.006	2975
866.137	3032
866.269	2998
866.4	2944
866.531	2979
866.662	2910
866.793	2937
866.924	2891
867.055	3032
867.186	2967
867.317	2883
867.448	2906
867.579	2899
867.71	2853
867.841	2838
867.972	2971
868.103	2956
868.233	2933
868.364	2906
868.495	2952
868.625	3116
868.756	3195
868.886	3024
869.017	3036
869.147	3195
869.278	3211
869.408	3089
869.539	3047
869.669	3093
869.799	3074
869.929	3135
870.06	3135
870.19	3363
870.32	3340
870.45	3302
870.58	3420
870.71	3492
870.84	3485
870.97	3325
871.1	3245
871.23	3526
871.36	3481
871.489	3397
871.619	3424
871.749	3462
871.879	3477
872.008	3469
872.138	3386
872.267	3306
872.397	3195
872.526	3112
872.656	3039
872.785	3142
872.915	3283
873.044	3348
873.173	3245
873.303	3264
873.432	3272
873.561	3245
873.69	3214
873.819	3161
873.948	3268
874.077	3127
874.206	3074
874.335	3070
874.464	3253
874.593	3367
874.722	3294
874.851	3397
874.979	3351
875.108	3336
875.237	3226
875.365	3180
875.494	3169
875.623	3222
875.751	3142
875.88	3119
876.008	3195
876.136	3233
876.265	3401
876.393	3488
876.521	3443
876.65	3435
876.778	3344
876.906	3264
877.034	3199
877.162	3253
877.29	3222
877.418	3313
877.546	3245
877.674	3279
877.802	3253
877.93	3233
878.058	3188
878.185	3123
878.313	3245
878.441	3256
878.568	3108
878.696	3195
878.824	3275
878.951	3321
879.079	3500
879.206	3656
879.333	3466
879.461	3367
879.588	3386
879.715	3515
879.842	3595
879.97	3374
880.097	3211
880.224	3127
880.351	3211
880.478	3241
880.605	3226
880.732	3211
880.859	3492
880.986	3321
881.112	3325
881.239	3279
881.366	3108
881.493	3051
881.619	3058
881.746	3112
881.872	3100
881.999	3138
882.125	3203
882.252	3294
882.378	3340
882.505	3431
882.631	3298
882.757	3184
882.883	3268
883.01	3226
883.136	3161
883.262	3100
883.388	3146
883.514	3313
883.64	3405
883.766	3351
883.892	3180
884.018	3283
884.143	3443
884.269	3557
884.395	3230
884.52	3157
884.646	3268
884.772	3165
884.897	3131
885.023	3275
885.148	3351
885.274	3420
885.399	3416
885.524	3310
885.65	3279
885.775	3332
885.9	3287
886.025	3462
886.15	3378
886.275	3302
886.4	3237
886.525	3306
886.65	3291
886.775	3321
886.9	3538
887.025	3663
887.149	3462
887.274	3264
887.399	3226
887.523	3218
887.648	3203
887.773	3249
887.897	3409
888.021	3428
888.146	3321
888.27	3428
888.395	3542
888.519	3462
888.643	3488
888.767	3469
888.891	3374
889.015	3264
889.139	3283
889.263	3298
889.387	3428
889.511	3534
889.635	3447
889.759	3291
889.883	3317
890.006	3420
890.13	3485
890.254	3294
890.377	3355
890.501	3218
890.624	3214
890.748	3359
890.871	3249
890.995	3104
891.118	3062
891.241	3222
891.364	3237
891.488	3367
891.611	3188
891.734	3272
891.857	3306
891.98	3245
892.103	3363
892.226	3298
892.349	3230
892.471	3135
892.594	3211
892.717	3302
892.839	3283
892.962	3359
893.085	3355
893.207	3260
893.33	3165
893.452	3237
893.575	3382
893.697	3268
893.819	3507
893.941	3488
894.064	3492
894.186	3264
894.308	3294
894.43	3469
894.552	3568
894.674	3500
894.796	3287
894.918	3340
895.04	3302
895.161	3447
895.283	3416
895.405	3340
895.526	3378
895.648	3443
895.769	3454
895.891	3477
896.012	3466
896.134	3507
896.255	3443
896.376	3386
896.498	3389
896.619	3439
896.74	3367
896.861	3424
896.982	3728
897.103	3865
897.224	3648
897.345	3542
897.466	3473
897.587	3492
897.708	3656
897.828	3568
897.949	3439
898.07	3332
898.19	3416
898.311	3629
898.431	3469
898.552	3523
898.672	3610
898.792	3584
898.913	3507
899.033	3443
899.153	3302
899.273	3214
899.393	3287
899.513	3329
899.633	3310
899.753	3355
899.873	3325
899.993	3386
900.113	3329
900.232	3428
900.352	3386
900.472	3302
900.591	3218
900.711	3325
900.83	3313
900.95	3420
901.069	3481
901.189	3382
901.308	3150
901.427	3161
901.546	3207
901.665	3317
901.784	3336
901.904	3226
902.023	3173
902.141	3013
902.26	3009
902.379	3157
902.498	3081
902.617	3058
902.735	3214
902.854	3233
902.973	3237
903.091	3051
903.21	3074
903.328	3184
903.446	3142
903.565	3112
903.683	3203
903.801	3131
903.919	3275
904.038	3275
904.156	3195
904.274	3302
904.392	3253
904.51	3279
904.627	3325
904.745	3450
904.863	3496
904.981	3283
905.098	3169
905.216	3226
905.334	3325
905.451	3310
905.569	3321
905.686	3412
905.803	3454
905.921	3279
906.038	3450
906.155	3405
906.272	3260
906.389	3329
906.506	3226
906.623	3260
906.74	3283
906.857	3214
906.974	3272
907.091	3458
907.208	3576
907.324	3492
907.441	3401
907.557	3199
907.674	3207
907.79	3230
907.907	3272
908.023	3428
908.139	3367
908.256	3363
908.372	3405
908.488	3355
908.604	3283
908.72	3241
908.836	3313
908.952	3317
909.068	3359
909.184	3473
909.3	3393
909.415	3500
909.531	3454
909.647	3310
909.762	3279
909.878	3291
909.993	3382
910.108	3351
910.224	3313
910.339	3397
910.454	3359
910.57	3298
910.685	3279
910.8	3595
910.915	3545
911.03	3435
911.145	3294
911.259	3294
911.374	3317
911.489	3253
911.604	3233
911.718	3165
911.833	3199
911.947	3051
912.062	2979
912.176	3192
912.291	3222
912.405	3230
912.519	3439
912.633	3496
912.748	3344
912.862	3264
912.976	3207
913.09	3062
913.204	3173
913.318	3260
913.431	3325
913.545	3325
913.659	3424
913.772	3329
913.886	3218
914	3169
914.113	3393
914.226	3420
914.34	3378
914.453	3207
914.566	3443
914.68	3329
914.793	3325
914.906	3180
915.019	3135
915.132	3058
915.245	3226
915.358	3222
915.47	3253
915.583	3279
915.696	3294
915.809	3454
915.921	3454
916.034	3260
916.146	3291
916.259	3241
916.371	3412
916.483	3344
916.595	3306
916.708	3298
916.82	3332
916.932	3340
917.044	3370
917.156	3382
917.268	3268
917.38	3321
917.491	3291
917.603	3340
917.715	3458
917.826	3458
917.938	3355
918.049	3294
918.161	3424
918.272	3603
918.384	3561
918.495	3523
918.606	3321
918.717	3256
918.828	3336
918.939	3435
919.05	3313
919.161	3420
919.272	3161
919.383	3291
919.494	3530
919.604	3686
919.715	3466
919.826	3409
919.936	3466
920.047	3576
920.157	3553
920.267	3781
920.378	3614
920.488	3572
920.598	3823
920.708	3949
920.818	3884
920.928	3884
921.038	4048
921.148	4002
921.258	3724
921.368	3660
921.477	3545
921.587	3561
921.697	3466
921.806	3671
921.916	3584
922.025	3348
922.134	3359
922.244	3294
922.353	3428
922.462	3287
922.571	3264
922.68	3085
922.789	3089
922.898	3135
923.007	3127
923.116	3207
923.224	3184
923.333	3173
923.442	3066
923.55	3093
923.659	3142
923.767	3268
923.876	3150
923.984	3249
924.092	3100
924.201	3192
924.309	3203
924.417	3287
924.525	3165
924.633	3241
924.741	4185
924.849	3074
924.956	3264
925.064	3116
925.172	3043
925.279	3131
925.387	3211
925.494	3184
925.602	3378
925.709	3298
925.816	3184
925.924	3340
926.031	3374
926.138	3348
926.245	3355
926.352	3275
926.459	3401
926.566	3450
926.673	3340
926.779	3241
926.886	3245
926.993	3157
927.099	3108
927.206	3108
927.312	3104
927.419	3233
927.525	3241
927.631	3283
927.737	3150
927.843	3108
927.95	3039
928.056	3089
928.162	3157
928.267	3222
928.373	3876
928.479	3294
928.585	3081
928.69	3203
928.796	3329
928.901	3169
929.007	3047
929.112	3199
929.218	3173
929.323	3138
929.428	3154
929.533	3298
929.638	3150
929.743	3138
929.848	3310
929.953	3199
930.058	3135
930.163	3024
930.267	3055
930.372	3207
930.477	3039
930.581	3325
930.685	3188
930.79	3074
930.894	3131
930.998	3097
931.103	3287
931.207	2948
931.311	2933
931.415	2971
931.519	2746
931.623	2804
