Data from test_V78500241_463.txt Node
Date: Fri Mar 25 16:18:24 CST 2022
User: usil
Spectrometer: V785-0024
Trigger mode: 0
Integration Time (sec): 4.000000E-1
Scans to average: 1
Nonlinearity correction enabled: false
Boxcar width: 0
Storing dark spectrum: false
XAxis mode: Wavelengths
Number of Pixels in Spectrum: 1024
>>>>>Begin Spectral Data<<<<<
801.071	2979
801.214	2971
801.356	2880
801.499	2948
801.641	2910
801.783	2948
801.926	3081
802.068	2998
802.211	2998
802.353	3074
802.496	2975
802.638	3020
802.78	3024
802.923	3116
803.065	3020
803.208	2918
803.35	2918
803.492	2990
803.635	2971
803.777	2773
803.919	2883
804.061	3211
804.204	2994
804.346	2910
804.488	2864
804.63	2994
804.773	2876
804.915	2929
805.057	3089
805.199	2944
805.341	2990
805.483	3066
805.626	3005
805.768	2944
805.91	3081
806.052	3116
806.194	3024
806.336	3214
806.478	3039
806.62	2956
806.762	2986
806.904	3070
807.046	3192
807.188	3036
807.33	2929
807.472	2975
807.614	2895
807.756	2967
807.898	2929
808.04	2944
808.182	3009
808.324	2944
808.465	2895
808.607	2887
808.749	2815
808.891	2857
809.033	2986
809.174	2994
809.316	2876
809.458	2902
809.6	2773
809.741	2796
809.883	2762
810.025	2842
810.166	2895
810.308	2864
810.45	2880
810.591	2804
810.733	2781
810.875	2834
811.016	2796
811.158	2777
811.299	2872
811.441	2963
811.582	2857
811.724	2845
811.865	2876
812.007	2925
812.148	2880
812.29	2861
812.431	2891
812.573	2994
812.714	2967
812.855	3028
812.997	3047
813.138	3097
813.279	3036
813.421	2998
813.562	2933
813.703	2887
813.845	2876
813.986	2785
814.127	2720
814.268	2849
814.41	2887
814.551	2785
814.692	2918
814.833	2807
814.974	2929
815.115	2925
815.256	2853
815.397	2834
815.539	2883
815.68	2769
815.821	2819
815.962	2971
816.103	2918
816.244	2872
816.385	2883
816.526	2963
816.666	2906
816.807	2766
816.948	2902
817.089	2929
817.23	2880
817.371	2769
817.512	2804
817.653	2830
817.793	2842
817.934	2887
818.075	2948
818.216	3009
818.356	3024
818.497	2899
818.638	2807
818.778	2804
818.919	2796
819.06	2800
819.2	2872
819.341	2823
819.481	2864
819.622	2941
819.762	3104
819.903	3051
820.043	2906
820.184	2906
820.324	2895
820.465	3020
820.605	2994
820.746	3028
820.886	2963
821.026	3100
821.167	3199
821.307	3298
821.447	3287
821.588	3256
821.728	3207
821.868	3207
822.008	3085
822.149	3169
822.289	3241
822.429	3127
822.569	3138
822.709	3176
822.849	3093
822.99	3100
823.13	3169
823.27	3214
823.41	3135
823.55	3146
823.69	3188
823.83	3222
823.97	3104
824.11	3020
824.25	2994
824.389	3039
824.529	3085
824.669	3077
824.809	3173
824.949	3302
825.089	3264
825.228	3146
825.368	3032
825.508	2998
825.648	2982
825.787	3001
825.927	3039
826.067	2967
826.206	3001
826.346	3062
826.485	3097
826.625	3081
826.765	3275
826.904	3214
827.044	2986
827.183	2963
827.323	2864
827.462	3024
827.601	2925
827.741	2941
827.88	2975
828.02	2849
828.159	2982
828.298	3051
828.437	3161
828.577	3062
828.716	3283
828.855	3119
828.994	2914
829.134	2914
829.273	2925
829.412	2849
829.551	2853
829.69	2914
829.829	3001
829.968	3165
830.107	3032
830.246	3032
830.385	2937
830.524	2872
830.663	2834
830.802	2739
830.941	2629
831.08	2640
831.219	2750
831.357	2800
831.496	2994
831.635	2716
831.774	2670
831.913	2663
832.051	2556
832.19	2583
832.329	2705
832.467	2560
832.606	2503
832.744	2602
832.883	2613
833.022	2602
833.16	2678
833.299	2712
833.437	2674
833.576	2697
833.714	2716
833.852	2762
833.991	2792
834.129	2826
834.267	2842
834.406	2830
834.544	2883
834.682	2887
834.821	2891
834.959	3085
835.097	2944
835.235	3039
835.373	2998
835.511	3020
835.65	2963
835.788	2975
835.926	2853
836.064	2819
836.202	2826
836.34	3112
836.478	3180
836.615	3066
836.753	3127
836.891	3207
837.029	3135
837.167	3097
837.305	3074
837.443	3074
837.58	2975
837.718	3146
837.856	3081
837.993	3047
838.131	3097
838.269	3127
838.406	3112
838.544	3085
838.681	2963
838.819	2941
838.956	2804
839.094	2861
839.231	2937
839.369	3055
839.506	3363
839.643	3249
839.781	3001
839.918	2963
840.055	3062
840.193	3070
840.33	3024
840.467	3093
840.604	3161
840.742	3439
840.879	3058
841.016	3074
841.153	3100
841.29	3355
841.427	3317
841.564	3245
841.701	3291
841.838	3230
841.975	3192
842.112	3253
842.249	3097
842.385	3024
842.522	3245
842.659	3097
842.796	3066
842.933	3085
843.069	3036
843.206	3028
843.343	3203
843.479	3112
843.616	3127
843.752	2914
843.889	2887
844.025	3093
844.162	2895
844.298	3093
844.435	2963
844.571	2944
844.708	3081
844.844	3226
844.98	3211
845.117	3192
845.253	3089
845.389	3001
845.525	3112
845.661	3142
845.798	3024
845.934	3097
846.07	3055
846.206	3195
846.342	3359
846.478	3256
846.614	3097
846.75	3066
846.886	3028
847.022	3249
847.158	3173
847.294	3176
847.429	3279
847.565	3211
847.701	3526
847.837	3039
847.972	2994
848.108	3176
848.244	3150
848.379	3024
848.515	2948
848.65	2944
848.786	2998
848.921	3020
849.057	3112
849.192	3184
849.328	3074
849.463	3081
849.598	3066
849.734	3043
849.869	3024
850.004	2899
850.14	2986
850.275	2933
850.41	2872
850.545	2845
850.68	2910
850.815	2982
850.95	2960
851.085	3180
851.22	3097
851.355	3028
851.49	2982
851.625	2994
851.76	3001
851.895	2956
852.03	2906
852.165	3013
852.299	3135
852.434	3199
852.569	3127
852.703	3176
852.838	3264
852.973	3370
853.107	3332
853.242	3119
853.376	3085
853.511	2967
853.645	3043
853.78	3218
853.914	3089
854.048	3127
854.183	3062
854.317	3173
854.451	3294
854.585	3150
854.72	3077
854.854	3233
854.988	3055
855.122	3097
855.256	2975
855.39	3131
855.524	3233
855.658	3203
855.792	3138
855.926	3195
856.06	3233
856.194	3298
856.327	3192
856.461	3032
856.595	3070
856.729	3123
856.862	3233
856.996	3161
857.13	3180
857.263	3233
857.397	3298
857.53	3093
857.664	3176
857.797	3245
857.931	3222
858.064	3138
858.197	3195
858.331	3112
858.464	3085
858.597	3013
858.731	3097
858.864	3077
858.997	3093
859.13	3165
859.263	3176
859.396	3211
859.529	3055
859.662	3097
859.795	3051
859.928	3161
860.061	3279
860.194	3291
860.327	3142
860.46	3077
860.592	3245
860.725	3294
860.858	3245
860.99	3081
861.123	3081
861.256	3032
861.388	3135
861.521	3964
861.653	3032
861.786	2948
861.918	3001
862.05	3047
862.183	3119
862.315	3138
862.447	3169
862.58	3112
862.712	2922
862.844	2849
862.976	3058
863.108	3001
863.24	3317
863.372	2876
863.504	2952
863.636	2975
863.768	3024
863.9	3013
864.032	2948
864.164	2933
864.296	3043
864.428	3089
864.559	3097
864.691	3081
864.823	3020
864.954	3013
865.086	3036
865.217	3001
865.349	2941
865.48	2948
865.612	3020
865.743	3195
865.875	2982
866.006	2960
866.137	2998
866.269	2933
866.4	2952
866.531	2963
866.662	2918
866.793	2906
866.924	2880
867.055	2960
867.186	2906
867.317	2849
867.448	2845
867.579	2845
867.71	2861
867.841	2815
867.972	2956
868.103	2899
868.233	2887
868.364	2895
868.495	2895
868.625	3077
868.756	3161
868.886	2948
869.017	3028
869.147	3176
869.278	3154
869.408	3039
869.539	3047
869.669	3116
869.799	3032
869.929	3138
870.06	3097
870.19	3321
870.32	3272
870.45	3287
870.58	3374
870.71	3443
870.84	3458
870.97	3291
871.1	3275
871.23	3492
871.36	3477
871.489	3374
871.619	3370
871.749	3401
871.879	3466
872.008	3466
872.138	3351
872.267	3241
872.397	3138
872.526	3104
872.656	2998
872.785	3108
872.915	3256
873.044	3336
873.173	3237
873.303	3253
873.432	3256
873.561	3214
873.69	3142
873.819	3154
873.948	3184
874.077	3093
874.206	3028
874.335	3077
874.464	3199
874.593	3340
874.722	3283
874.851	3389
874.979	3344
875.108	3329
875.237	3222
875.365	3184
875.494	3165
875.623	3249
875.751	3104
875.88	3119
876.008	3176
876.136	3218
876.265	3348
876.393	3504
876.521	3450
876.65	3397
876.778	3313
876.906	3237
877.034	3192
877.162	3192
877.29	3192
877.418	3253
877.546	3237
877.674	3245
877.802	3211
877.93	3256
878.058	3135
878.185	3093
878.313	3203
878.441	3249
878.568	3055
878.696	3161
878.824	3256
878.951	3298
879.079	3397
879.206	3629
879.333	3397
879.461	3363
879.588	3344
879.715	3507
879.842	3606
879.97	3382
880.097	3188
880.224	3146
880.351	3161
880.478	3188
880.605	3180
880.732	3199
880.859	3485
880.986	3279
881.112	3317
881.239	3184
881.366	3085
881.493	3051
881.619	3020
881.746	3081
881.872	3081
881.999	3085
882.125	3146
882.252	3222
882.378	3287
882.505	3409
882.631	3264
882.757	3116
882.883	3218
883.01	3184
883.136	3165
883.262	3119
883.388	3100
883.514	3298
883.64	3397
883.766	3302
883.892	3161
884.018	3211
884.143	3405
884.269	3534
884.395	3199
884.52	3131
884.646	3173
884.772	3100
884.897	3089
885.023	3233
885.148	3317
885.274	3447
885.399	3359
885.524	3279
885.65	3268
885.775	3317
885.9	3313
886.025	3374
886.15	3382
886.275	3253
886.4	3218
886.525	3317
886.65	3264
886.775	3275
886.9	3473
887.025	3637
887.149	3424
887.274	3222
887.399	3176
887.523	3203
887.648	3192
887.773	3195
887.897	3344
888.021	3416
888.146	3313
888.27	3439
888.395	3519
888.519	3424
888.643	3450
888.767	3431
888.891	3298
889.015	3237
889.139	3275
889.263	3241
889.387	3424
889.511	3481
889.635	3450
889.759	3291
889.883	3306
890.006	3374
890.13	3500
890.254	3275
890.377	3348
890.501	3192
890.624	3169
890.748	3283
890.871	3138
890.995	3089
891.118	3062
891.241	3192
891.364	3211
891.488	3321
891.611	3176
891.734	3218
891.857	3313
891.98	3249
892.103	3344
892.226	3279
892.349	3192
892.471	3089
892.594	3275
892.717	3283
892.839	3291
892.962	3287
893.085	3351
893.207	3321
893.33	3161
893.452	3237
893.575	3355
893.697	3272
893.819	3454
893.941	3450
894.064	3458
894.186	3279
894.308	3275
894.43	3443
894.552	3542
894.674	3485
894.796	3237
894.918	3325
895.04	3279
895.161	3454
895.283	3370
895.405	3325
895.526	3378
895.648	3435
895.769	3412
895.891	3454
896.012	3477
896.134	3454
896.255	3389
896.376	3348
896.498	3332
896.619	3409
896.74	3374
896.861	3397
896.982	3701
897.103	3819
897.224	3610
897.345	3507
897.466	3450
897.587	3504
897.708	3629
897.828	3526
897.949	3443
898.07	3344
898.19	3439
898.311	3580
898.431	3416
898.552	3523
898.672	3568
898.792	3580
898.913	3447
899.033	3374
899.153	3287
899.273	3226
899.393	3264
899.513	3298
899.633	3329
899.753	3306
899.873	3302
899.993	3359
900.113	3329
900.232	3412
900.352	3351
900.472	3260
900.591	3199
900.711	3306
900.83	3233
900.95	3389
901.069	3500
901.189	3382
901.308	3214
901.427	3112
901.546	3199
901.665	3264
901.784	3310
901.904	3180
902.023	3138
902.141	2998
902.26	2925
902.379	3150
902.498	3070
902.617	3032
902.735	3173
902.854	3226
902.973	3165
903.091	3043
903.21	3036
903.328	3119
903.446	3108
903.565	3116
903.683	3195
903.801	3097
903.919	3241
904.038	3298
904.156	3165
904.274	3310
904.392	3237
904.51	3275
904.627	3317
904.745	3450
904.863	3519
904.981	3283
905.098	3138
905.216	3249
905.334	3336
905.451	3283
905.569	3275
905.686	3428
905.803	3428
905.921	3302
906.038	3485
906.155	3351
906.272	3249
906.389	3329
906.506	3214
906.623	3253
906.74	3287
906.857	3184
906.974	3253
907.091	3458
907.208	3545
907.324	3481
907.441	3405
907.557	3218
907.674	3222
907.79	3207
907.907	3268
908.023	3367
908.139	3378
908.256	3344
908.372	3355
908.488	3363
908.604	3214
908.72	3226
908.836	3249
908.952	3268
909.068	3287
909.184	3462
909.3	3367
909.415	3485
909.531	3507
909.647	3279
909.762	3294
909.878	3260
909.993	3359
910.108	3332
910.224	3355
910.339	3370
910.454	3340
910.57	3279
910.685	3230
910.8	3599
910.915	3568
911.03	3405
911.145	3283
911.259	3253
911.374	3310
911.489	3272
911.604	3199
911.718	3123
911.833	3157
911.947	3055
912.062	2948
912.176	3131
912.291	3180
912.405	3245
912.519	3416
912.633	3435
912.748	3306
912.862	3272
912.976	3123
913.09	3036
913.204	3127
913.318	3214
913.431	3336
913.545	3325
913.659	3405
913.772	3359
913.886	3214
914	3218
914.113	3363
914.226	3367
914.34	3359
914.453	3184
914.566	3412
914.68	3256
914.793	3313
914.906	3116
915.019	3119
915.132	3074
915.245	3165
915.358	3176
915.47	3256
915.583	3287
915.696	3264
915.809	3378
915.921	3431
916.034	3233
916.146	3253
916.259	3203
916.371	3405
916.483	3363
916.595	3264
916.708	3355
916.82	3325
916.932	3317
917.044	3359
917.156	3325
917.268	3279
917.38	3298
917.491	3306
917.603	3401
917.715	3477
917.826	3443
917.938	3363
918.049	3268
918.161	3435
918.272	3584
918.384	3542
918.495	3488
918.606	3351
918.717	3264
918.828	3351
918.939	3424
919.05	3336
919.161	3370
919.272	3203
919.383	3268
919.494	3504
919.604	3705
919.715	3496
919.826	3367
919.936	3450
920.047	3610
920.157	3561
920.267	3747
920.378	3610
920.488	3534
920.598	3778
920.708	3968
920.818	3835
920.928	3835
921.038	4036
921.148	4013
921.258	3663
921.368	3629
921.477	3576
921.587	3549
921.697	3466
921.806	3629
921.916	3488
922.025	3367
922.134	3397
922.244	3287
922.353	3416
922.462	3283
922.571	3241
922.68	3104
922.789	3081
922.898	3150
923.007	3085
923.116	3195
923.224	3150
923.333	3173
923.442	3081
923.55	3066
923.659	3157
923.767	3256
923.876	3119
923.984	3226
924.092	3116
924.201	3176
924.309	3184
924.417	3298
924.525	3165
924.633	3214
924.741	3964
924.849	3051
924.956	3253
925.064	3070
925.172	3047
925.279	3135
925.387	3207
925.494	3165
925.602	3367
925.709	3336
925.816	3169
925.924	3317
926.031	3359
926.138	3321
926.245	3348
926.352	3203
926.459	3424
926.566	3469
926.673	3313
926.779	3203
926.886	3279
926.993	3100
927.099	3093
927.206	3131
927.312	3135
927.419	3237
927.525	3173
927.631	3275
927.737	3135
927.843	3112
927.95	3013
928.056	3142
928.162	3154
928.267	3249
928.373	3755
928.479	3355
928.585	3039
928.69	3230
928.796	3279
928.901	3165
929.007	3062
929.112	3214
929.218	3207
929.323	3150
929.428	3154
929.533	3332
929.638	3097
929.743	3154
929.848	3226
929.953	3184
930.058	3131
930.163	3009
930.267	3013
930.372	3214
930.477	3024
930.581	3294
930.685	3157
930.79	3055
930.894	3176
930.998	3097
931.103	3291
931.207	2971
931.311	2906
931.415	2883
931.519	2777
931.623	2819
