Data from test_V78500241_466.txt Node
Date: Fri Mar 25 16:18:25 CST 2022
User: usil
Spectrometer: V785-0024
Trigger mode: 0
Integration Time (sec): 4.000000E-1
Scans to average: 1
Nonlinearity correction enabled: false
Boxcar width: 0
Storing dark spectrum: false
XAxis mode: Wavelengths
Number of Pixels in Spectrum: 1024
>>>>>Begin Spectral Data<<<<<
801.071	2899
801.214	2979
801.356	2899
801.499	2914
801.641	2880
801.783	2948
801.926	3055
802.068	3005
802.211	2998
802.353	3066
802.496	2990
802.638	3024
802.78	3024
802.923	3093
803.065	3013
803.208	2868
803.35	2933
803.492	2925
803.635	2922
803.777	2743
803.919	2872
804.061	3241
804.204	2944
804.346	2899
804.488	2826
804.63	2967
804.773	2845
804.915	2929
805.057	3081
805.199	2925
805.341	2986
805.483	3047
805.626	3028
805.768	2944
805.91	3085
806.052	3108
806.194	3020
806.336	3256
806.478	3058
806.62	2933
806.762	2967
806.904	3028
807.046	3188
807.188	3001
807.33	2910
807.472	3009
807.614	2918
807.756	3017
807.898	2971
808.04	2922
808.182	2975
808.324	2956
808.465	2895
808.607	2861
808.749	2815
808.891	2838
809.033	2975
809.174	2994
809.316	2876
809.458	2918
809.6	2766
809.741	2804
809.883	2781
810.025	2853
810.166	2872
810.308	2849
810.45	2864
810.591	2788
810.733	2766
810.875	2849
811.016	2785
811.158	2762
811.299	2845
811.441	2933
811.582	2883
811.724	2830
811.865	2853
812.007	2914
812.148	2887
812.29	2819
812.431	2914
812.573	2967
812.714	2952
812.855	3062
812.997	3020
813.138	3131
813.279	3013
813.421	2971
813.562	2967
813.703	2880
813.845	2895
813.986	2792
814.127	2716
814.268	2807
814.41	2830
814.551	2838
814.692	2864
814.833	2800
814.974	2914
815.115	2944
815.256	2853
815.397	2796
815.539	2838
815.68	2762
815.821	2815
815.962	2948
816.103	2914
816.244	2872
816.385	2883
816.526	2975
816.666	2895
816.807	2754
816.948	2845
817.089	2891
817.23	2876
817.371	2804
817.512	2823
817.653	2857
817.793	2811
817.934	2880
818.075	2979
818.216	2967
818.356	3024
818.497	2887
818.638	2766
818.778	2811
818.919	2819
819.06	2792
819.2	2887
819.341	2830
819.481	2830
819.622	2914
819.762	3116
819.903	3066
820.043	2941
820.184	2941
820.324	2933
820.465	3001
820.605	3043
820.746	3051
820.886	2952
821.026	3100
821.167	3161
821.307	3233
821.447	3321
821.588	3275
821.728	3230
821.868	3233
822.008	3093
822.149	3230
822.289	3253
822.429	3123
822.569	3108
822.709	3199
822.849	3001
822.99	3112
823.13	3199
823.27	3214
823.41	3142
823.55	3207
823.69	3176
823.83	3214
823.97	3150
824.11	3036
824.25	3032
824.389	3119
824.529	3138
824.669	3131
824.809	3207
824.949	3283
825.089	3268
825.228	3211
825.368	3074
825.508	2994
825.648	2982
825.787	3062
825.927	3066
826.067	3028
826.206	3024
826.346	3074
826.485	3119
826.625	3161
826.765	3306
826.904	3245
827.044	3039
827.183	2979
827.323	2922
827.462	3036
827.601	2960
827.741	3020
827.88	3013
828.02	2887
828.159	3013
828.298	3043
828.437	3176
828.577	3066
828.716	3302
828.855	3142
828.994	2990
829.134	2895
829.273	2929
829.412	2918
829.551	2902
829.69	2948
829.829	3020
829.968	3180
830.107	3024
830.246	3051
830.385	3005
830.524	2933
830.663	2842
830.802	2800
830.941	2693
831.08	2674
831.219	2766
831.357	2811
831.496	2967
831.635	2769
831.774	2686
831.913	2716
832.051	2606
832.19	2636
832.329	2712
832.467	2594
832.606	2545
832.744	2606
832.883	2629
833.022	2632
833.16	2697
833.299	2746
833.437	2750
833.576	2739
833.714	2762
833.852	2758
833.991	2804
834.129	2838
834.267	2883
834.406	2864
834.544	2883
834.682	2937
834.821	2899
834.959	3062
835.097	2925
835.235	3097
835.373	3062
835.511	3062
835.65	2979
835.788	2986
835.926	2902
836.064	2880
836.202	2842
836.34	3127
836.478	3184
836.615	3097
836.753	3157
836.891	3230
837.029	3211
837.167	3104
837.305	3154
837.443	3058
837.58	2998
837.718	3173
837.856	3081
837.993	3119
838.131	3157
838.269	3131
838.406	3108
838.544	3093
838.681	2979
838.819	2941
838.956	2857
839.094	2868
839.231	2944
839.369	3066
839.506	3431
839.643	3214
839.781	3039
839.918	2982
840.055	3089
840.193	3112
840.33	3127
840.467	3176
840.604	3161
840.742	3401
840.879	3074
841.016	3123
841.153	3142
841.29	3363
841.427	3344
841.564	3253
841.701	3336
841.838	3249
841.975	3195
842.112	3211
842.249	3123
842.385	3081
842.522	3264
842.659	3142
842.796	3077
842.933	3127
843.069	3058
843.206	3043
843.343	3199
843.479	3104
843.616	3165
843.752	2956
843.889	2895
844.025	3116
844.162	2918
844.298	3127
844.435	2941
844.571	2941
844.708	3085
844.844	3184
844.98	3260
845.117	3233
845.253	3074
845.389	3036
845.525	3169
845.661	3100
845.798	3039
845.934	3146
846.07	3100
846.206	3222
846.342	3329
846.478	3260
846.614	3104
846.75	3077
846.886	3062
847.022	3256
847.158	3195
847.294	3237
847.429	3272
847.565	3253
847.701	3549
847.837	3047
847.972	2986
848.108	3180
848.244	3154
848.379	3024
848.515	2982
848.65	2979
848.786	3001
848.921	3020
849.057	3116
849.192	3188
849.328	3028
849.463	3157
849.598	3077
849.734	3047
849.869	2979
850.004	2952
850.14	2982
850.275	2925
850.41	2880
850.545	2891
850.68	2960
850.815	2979
850.95	3032
851.085	3207
851.22	3173
851.355	3077
851.49	3017
851.625	3036
851.76	3039
851.895	2960
852.03	2925
852.165	3108
852.299	3123
852.434	3203
852.569	3169
852.703	3214
852.838	3260
852.973	3363
853.107	3351
853.242	3142
853.376	3097
853.511	3028
853.645	3024
853.78	3245
853.914	3146
854.048	3131
854.183	3119
854.317	3146
854.451	3329
854.585	3157
854.72	3119
854.854	3222
854.988	3089
855.122	3100
855.256	2986
855.39	3131
855.524	3279
855.658	3226
855.792	3184
855.926	3195
856.06	3241
856.194	3306
856.327	3169
856.461	3104
856.595	3116
856.729	3066
856.862	3218
856.996	3222
857.13	3226
857.263	3241
857.397	3233
857.53	3154
857.664	3226
857.797	3268
857.931	3306
858.064	3203
858.197	3199
858.331	3127
858.464	3123
858.597	3055
858.731	3146
858.864	3135
858.997	3123
859.13	3173
859.263	3207
859.396	3184
859.529	3146
859.662	3077
859.795	3058
859.928	3146
860.061	3321
860.194	3348
860.327	3157
860.46	3119
860.592	3268
860.725	3237
860.858	3237
860.99	3116
861.123	3077
861.256	3074
861.388	3161
861.521	3994
861.653	3047
861.786	3005
861.918	3036
862.05	3070
862.183	3142
862.315	3180
862.447	3188
862.58	3169
862.712	2971
862.844	2918
862.976	3089
863.108	3039
863.24	3355
863.372	2918
863.504	2967
863.636	3001
863.768	3089
863.9	3013
864.032	2899
864.164	2990
864.296	3051
864.428	3093
864.559	3138
864.691	3154
864.823	3100
864.954	3032
865.086	3066
865.217	3043
865.349	2975
865.48	2990
865.612	3058
865.743	3180
865.875	3028
866.006	2982
866.137	2998
866.269	2948
866.4	2941
866.531	2948
866.662	2933
866.793	2906
866.924	2891
867.055	2998
867.186	2963
867.317	2880
867.448	2853
867.579	2823
867.71	2883
867.841	2804
867.972	2929
868.103	2906
868.233	2906
868.364	2891
868.495	2948
868.625	3077
868.756	3188
868.886	2994
869.017	3017
869.147	3161
869.278	3176
869.408	3077
869.539	3051
869.669	3066
869.799	3062
869.929	3161
870.06	3119
870.19	3370
870.32	3317
870.45	3340
870.58	3367
870.71	3473
870.84	3447
870.97	3332
871.1	3218
871.23	3523
871.36	3473
871.489	3344
871.619	3382
871.749	3412
871.879	3439
872.008	3500
872.138	3370
872.267	3294
872.397	3123
872.526	3116
872.656	3039
872.785	3104
872.915	3249
873.044	3321
873.173	3226
873.303	3275
873.432	3294
873.561	3283
873.69	3195
873.819	3146
873.948	3207
874.077	3154
874.206	3051
874.335	3123
874.464	3218
874.593	3397
874.722	3256
874.851	3412
874.979	3340
875.108	3332
875.237	3192
875.365	3157
875.494	3211
875.623	3287
875.751	3093
875.88	3119
876.008	3188
876.136	3203
876.265	3370
876.393	3504
876.521	3439
876.65	3466
876.778	3310
876.906	3302
877.034	3211
877.162	3211
877.29	3241
877.418	3253
877.546	3256
877.674	3283
877.802	3249
877.93	3233
878.058	3173
878.185	3108
878.313	3253
878.441	3245
878.568	3112
878.696	3161
878.824	3287
878.951	3329
879.079	3439
879.206	3625
879.333	3435
879.461	3344
879.588	3351
879.715	3458
879.842	3614
879.97	3386
880.097	3154
880.224	3131
880.351	3192
880.478	3230
880.605	3218
880.732	3203
880.859	3511
880.986	3302
881.112	3344
881.239	3237
881.366	3104
881.493	3081
881.619	3055
881.746	3108
881.872	3089
881.999	3123
882.125	3150
882.252	3249
882.378	3317
882.505	3428
882.631	3329
882.757	3154
882.883	3211
883.01	3256
883.136	3161
883.262	3093
883.388	3112
883.514	3329
883.64	3386
883.766	3336
883.892	3203
884.018	3226
884.143	3458
884.269	3523
884.395	3180
884.52	3192
884.646	3226
884.772	3138
884.897	3097
885.023	3222
885.148	3348
885.274	3409
885.399	3382
885.524	3268
885.65	3310
885.775	3313
885.9	3272
886.025	3443
886.15	3378
886.275	3306
886.4	3279
886.525	3321
886.65	3325
886.775	3256
886.9	3519
887.025	3652
887.149	3420
887.274	3279
887.399	3218
887.523	3207
887.648	3211
887.773	3214
887.897	3405
888.021	3409
888.146	3355
888.27	3469
888.395	3538
888.519	3469
888.643	3447
888.767	3477
888.891	3359
889.015	3241
889.139	3287
889.263	3241
889.387	3405
889.511	3538
889.635	3447
889.759	3294
889.883	3287
890.006	3389
890.13	3477
890.254	3291
890.377	3355
890.501	3203
890.624	3188
890.748	3359
890.871	3195
890.995	3112
891.118	3104
891.241	3207
891.364	3249
891.488	3336
891.611	3203
891.734	3195
891.857	3313
891.98	3218
892.103	3348
892.226	3306
892.349	3237
892.471	3138
892.594	3256
892.717	3294
892.839	3279
892.962	3306
893.085	3363
893.207	3344
893.33	3180
893.452	3207
893.575	3374
893.697	3233
893.819	3466
893.941	3530
894.064	3500
894.186	3302
894.308	3298
894.43	3458
894.552	3568
894.674	3443
894.796	3264
894.918	3294
895.04	3287
895.161	3447
895.283	3412
895.405	3340
895.526	3386
895.648	3424
895.769	3428
895.891	3500
896.012	3458
896.134	3477
896.255	3431
896.376	3401
896.498	3378
896.619	3435
896.74	3336
896.861	3416
896.982	3694
897.103	3823
897.224	3584
897.345	3534
897.466	3454
897.587	3481
897.708	3633
897.828	3576
897.949	3447
898.07	3336
898.19	3412
898.311	3618
898.431	3424
898.552	3485
898.672	3599
898.792	3603
898.913	3572
899.033	3466
899.153	3268
899.273	3211
899.393	3302
899.513	3374
899.633	3317
899.753	3329
899.873	3313
899.993	3420
900.113	3355
900.232	3401
900.352	3332
900.472	3298
900.591	3203
900.711	3283
900.83	3283
900.95	3439
901.069	3450
901.189	3359
901.308	3173
901.427	3116
901.546	3211
901.665	3325
901.784	3348
901.904	3207
902.023	3150
902.141	3020
902.26	2979
902.379	3127
902.498	3043
902.617	3089
902.735	3233
902.854	3268
902.973	3222
903.091	3062
903.21	3074
903.328	3184
903.446	3108
903.565	3142
903.683	3218
903.801	3127
903.919	3233
904.038	3302
904.156	3203
904.274	3313
904.392	3256
904.51	3310
904.627	3367
904.745	3405
904.863	3504
904.981	3306
905.098	3173
905.216	3222
905.334	3329
905.451	3279
905.569	3313
905.686	3412
905.803	3477
905.921	3321
906.038	3424
906.155	3351
906.272	3287
906.389	3336
906.506	3245
906.623	3226
906.74	3272
906.857	3173
906.974	3268
907.091	3477
907.208	3587
907.324	3526
907.441	3401
907.557	3256
907.674	3256
907.79	3218
907.907	3306
908.023	3389
908.139	3374
908.256	3332
908.372	3367
908.488	3332
908.604	3268
908.72	3237
908.836	3275
908.952	3283
909.068	3302
909.184	3435
909.3	3409
909.415	3523
909.531	3488
909.647	3298
909.762	3332
909.878	3268
909.993	3378
910.108	3332
910.224	3367
910.339	3412
910.454	3332
910.57	3298
910.685	3264
910.8	3595
910.915	3557
911.03	3454
911.145	3268
911.259	3302
911.374	3332
911.489	3249
911.604	3241
911.718	3100
911.833	3123
911.947	3039
912.062	2975
912.176	3207
912.291	3195
912.405	3203
912.519	3450
912.633	3466
912.748	3321
912.862	3279
912.976	3173
913.09	3043
913.204	3142
913.318	3214
913.431	3329
913.545	3325
913.659	3386
913.772	3306
913.886	3214
914	3184
914.113	3348
914.226	3409
914.34	3344
914.453	3195
914.566	3412
914.68	3283
914.793	3306
914.906	3165
915.019	3116
915.132	3074
915.245	3188
915.358	3211
915.47	3203
915.583	3249
915.696	3275
915.809	3393
915.921	3443
916.034	3279
916.146	3275
916.259	3233
916.371	3382
916.483	3374
916.595	3283
916.708	3310
916.82	3313
916.932	3302
917.044	3321
917.156	3363
917.268	3233
917.38	3302
917.491	3321
917.603	3389
917.715	3439
917.826	3469
917.938	3378
918.049	3253
918.161	3447
918.272	3606
918.384	3557
918.495	3507
918.606	3325
918.717	3291
918.828	3428
918.939	3389
919.05	3287
919.161	3389
919.272	3154
919.383	3283
919.494	3515
919.604	3686
919.715	3526
919.826	3386
919.936	3447
920.047	3584
920.157	3564
920.267	3762
920.378	3599
920.488	3618
920.598	3751
920.708	3941
920.818	3808
920.928	3846
921.038	4013
921.148	3979
921.258	3679
921.368	3610
921.477	3595
921.587	3526
921.697	3485
921.806	3622
921.916	3496
922.025	3348
922.134	3306
922.244	3325
922.353	3462
922.462	3275
922.571	3260
922.68	3055
922.789	3074
922.898	3161
923.007	3112
923.116	3253
923.224	3146
923.333	3237
923.442	3150
923.55	3089
923.659	3104
923.767	3233
923.876	3112
923.984	3260
924.092	3081
924.201	3249
924.309	3226
924.417	3287
924.525	3157
924.633	3226
924.741	4021
924.849	3051
924.956	3268
925.064	3062
925.172	3070
925.279	3108
925.387	3192
925.494	3214
925.602	3351
925.709	3310
925.816	3203
925.924	3302
926.031	3363
926.138	3348
926.245	3344
926.352	3302
926.459	3409
926.566	3500
926.673	3313
926.779	3253
926.886	3249
926.993	3138
927.099	3131
927.206	3077
927.312	3142
927.419	3195
927.525	3203
927.631	3268
927.737	3146
927.843	3119
927.95	3013
928.056	3161
928.162	3184
928.267	3287
928.373	3808
928.479	3260
928.585	3081
928.69	3188
928.796	3256
928.901	3154
929.007	3032
929.112	3253
929.218	3169
929.323	3165
929.428	3142
929.533	3340
929.638	3119
929.743	3150
929.848	3287
929.953	3211
930.058	3127
930.163	2994
930.267	3039
930.372	3184
930.477	3028
930.581	3340
930.685	3142
930.79	3081
930.894	3131
930.998	3123
931.103	3253
931.207	2979
931.311	2925
931.415	2922
931.519	2781
931.623	2823
