Data from test_V78500241_213.txt Node
Date: Fri Mar 25 16:16:40 CST 2022
User: usil
Spectrometer: V785-0024
Trigger mode: 0
Integration Time (sec): 4.000000E-1
Scans to average: 1
Nonlinearity correction enabled: false
Boxcar width: 0
Storing dark spectrum: false
XAxis mode: Wavelengths
Number of Pixels in Spectrum: 1024
>>>>>Begin Spectral Data<<<<<
801.071	2975
801.214	3036
801.356	2956
801.499	2929
801.641	2922
801.783	2982
801.926	3112
802.068	2998
802.211	3062
802.353	3070
802.496	3036
802.638	3081
802.78	3119
802.923	3142
803.065	3062
803.208	2944
803.35	2952
803.492	2998
803.635	2998
803.777	2800
803.919	2902
804.061	3283
804.204	3013
804.346	2929
804.488	2902
804.63	3001
804.773	2887
804.915	2960
805.057	3116
805.199	2963
805.341	3032
805.483	3089
805.626	3028
805.768	2998
805.91	3123
806.052	3142
806.194	3062
806.336	3302
806.478	3077
806.62	2998
806.762	3013
806.904	3135
807.046	3241
807.188	3058
807.33	2982
807.472	3036
807.614	2952
807.756	3051
807.898	2982
808.04	2925
808.182	3001
808.324	2986
808.465	2944
808.607	2963
808.749	2849
808.891	2872
809.033	3032
809.174	3032
809.316	2941
809.458	2960
809.6	2823
809.741	2857
809.883	2807
810.025	2868
810.166	2891
810.308	2902
810.45	2861
810.591	2823
810.733	2811
810.875	2842
811.016	2807
811.158	2811
811.299	2861
811.441	3001
811.582	2941
811.724	2864
811.865	2868
812.007	2902
812.148	2933
812.29	2925
812.431	2925
812.573	2986
812.714	3005
812.855	3066
812.997	3097
813.138	3131
813.279	3055
813.421	3070
813.562	2998
813.703	2925
813.845	2952
813.986	2807
814.127	2720
814.268	2857
814.41	2876
814.551	2849
814.692	2918
814.833	2887
814.974	2910
815.115	2979
815.256	2883
815.397	2864
815.539	2910
815.68	2823
815.821	2830
815.962	2967
816.103	2963
816.244	2914
816.385	2925
816.526	3001
816.666	2963
816.807	2777
816.948	2948
817.089	2944
817.23	2899
817.371	2815
817.512	2857
817.653	2849
817.793	2864
817.934	2914
818.075	3032
818.216	3058
818.356	3070
818.497	2925
818.638	2823
818.778	2849
818.919	2811
819.06	2815
819.2	2929
819.341	2880
819.481	2826
819.622	2933
819.762	3173
819.903	3074
820.043	2941
820.184	2910
820.324	2944
820.465	3074
820.605	3036
820.746	3093
820.886	2975
821.026	3104
821.167	3222
821.307	3310
821.447	3340
821.588	3287
821.728	3241
821.868	3233
822.008	3100
822.149	3222
822.289	3264
822.429	3135
822.569	3135
822.709	3211
822.849	3039
822.99	3108
823.13	3203
823.27	3253
823.41	3119
823.55	3176
823.69	3207
823.83	3211
823.97	3127
824.11	3070
824.25	3017
824.389	3085
824.529	3157
824.669	3097
824.809	3256
824.949	3302
825.089	3264
825.228	3207
825.368	3051
825.508	2994
825.648	2998
825.787	3051
825.927	3081
826.067	2979
826.206	3013
826.346	3062
826.485	3119
826.625	3142
826.765	3325
826.904	3233
827.044	2979
827.183	2986
827.323	2891
827.462	2994
827.601	2971
827.741	2956
827.88	3001
828.02	2883
828.159	3047
828.298	3081
828.437	3188
828.577	3093
828.716	3283
828.855	3131
828.994	2952
829.134	2914
829.273	2937
829.412	2925
829.551	2895
829.69	2910
829.829	2998
829.968	3165
830.107	3074
830.246	3104
830.385	3009
830.524	2910
830.663	2868
830.802	2766
830.941	2693
831.08	2701
831.219	2792
831.357	2758
831.496	2971
831.635	2727
831.774	2705
831.913	2712
832.051	2587
832.19	2590
832.329	2724
832.467	2571
832.606	2518
832.744	2636
832.883	2617
833.022	2602
833.16	2670
833.299	2708
833.437	2701
833.576	2735
833.714	2746
833.852	2746
833.991	2804
834.129	2853
834.267	2899
834.406	2830
834.544	2891
834.682	2868
834.821	2902
834.959	3085
835.097	2944
835.235	3112
835.373	3032
835.511	3055
835.65	2979
835.788	3024
835.926	2823
836.064	2861
836.202	2880
836.34	3112
836.478	3180
836.615	3100
836.753	3154
836.891	3226
837.029	3176
837.167	3123
837.305	3062
837.443	3077
837.58	2990
837.718	3131
837.856	3097
837.993	3020
838.131	3123
838.269	3131
838.406	3104
838.544	3138
838.681	2929
838.819	2948
838.956	2834
839.094	2853
839.231	2922
839.369	3066
839.506	3389
839.643	3256
839.781	3055
839.918	2982
840.055	3070
840.193	3089
840.33	3100
840.467	3116
840.604	3195
840.742	3424
840.879	3062
841.016	3089
841.153	3192
841.29	3359
841.427	3332
841.564	3283
841.701	3355
841.838	3245
841.975	3241
842.112	3233
842.249	3081
842.385	3093
842.522	3279
842.659	3138
842.796	3074
842.933	3123
843.069	3055
843.206	3070
843.343	3214
843.479	3138
843.616	3184
843.752	2906
843.889	2857
844.025	3135
844.162	2933
844.298	3135
844.435	2960
844.571	2910
844.708	3108
844.844	3207
844.98	3275
845.117	3199
845.253	3093
845.389	3077
845.525	3116
845.661	3138
845.798	3051
845.934	3119
846.07	3085
846.206	3279
846.342	3336
846.478	3233
846.614	3123
846.75	3070
846.886	3077
847.022	3279
847.158	3146
847.294	3253
847.429	3291
847.565	3230
847.701	3488
847.837	3089
847.972	3024
848.108	3199
848.244	3165
848.379	3047
848.515	2956
848.65	2979
848.786	3005
848.921	3036
849.057	3116
849.192	3146
849.328	3085
849.463	3123
849.598	3077
849.734	3051
849.869	3020
850.004	2941
850.14	2994
850.275	2952
850.41	2902
850.545	2922
850.68	2960
850.815	3009
850.95	3005
851.085	3203
851.22	3116
851.355	3051
851.49	2994
851.625	3024
851.76	3055
851.895	2967
852.03	2971
852.165	3039
852.299	3123
852.434	3226
852.569	3138
852.703	3211
852.838	3264
852.973	3367
853.107	3344
853.242	3176
853.376	3146
853.511	2986
853.645	3085
853.78	3253
853.914	3161
854.048	3100
854.183	3108
854.317	3180
854.451	3321
854.585	3150
854.72	3123
854.854	3226
854.988	3089
855.122	3085
855.256	3009
855.39	3150
855.524	3279
855.658	3218
855.792	3207
855.926	3188
856.06	3287
856.194	3272
856.327	3161
856.461	3123
856.595	3108
856.729	3127
856.862	3237
856.996	3226
857.13	3192
857.263	3253
857.397	3272
857.53	3192
857.664	3241
857.797	3241
857.931	3237
858.064	3195
858.197	3230
858.331	3180
858.464	3104
858.597	3039
858.731	3085
858.864	3127
858.997	3097
859.13	3173
859.263	3169
859.396	3203
859.529	3108
859.662	3100
859.795	3089
859.928	3169
860.061	3287
860.194	3302
860.327	3165
860.46	3104
860.592	3249
860.725	3260
860.858	3275
860.99	3127
861.123	3062
861.256	3093
861.388	3176
861.521	3865
861.653	3017
861.786	2982
861.918	3043
862.05	3085
862.183	3100
862.315	3146
862.447	3226
862.58	3142
862.712	2960
862.844	2895
862.976	3066
863.108	3051
863.24	3340
863.372	2868
863.504	2986
863.636	2963
863.768	3051
863.9	2986
864.032	2937
864.164	2967
864.296	3020
864.428	3116
864.559	3112
864.691	3051
864.823	3108
864.954	3104
865.086	3062
865.217	2998
865.349	2967
865.48	3001
865.612	3055
865.743	3150
865.875	2994
866.006	2990
866.137	3024
866.269	2982
866.4	2944
866.531	2960
866.662	2910
866.793	2929
866.924	2944
867.055	2971
867.186	2929
867.317	2910
867.448	2849
867.579	2845
867.71	2872
867.841	2830
867.972	2960
868.103	2941
868.233	2902
868.364	2895
868.495	2933
868.625	3112
868.756	3195
868.886	2979
869.017	3062
869.147	3169
869.278	3192
869.408	3070
869.539	3032
869.669	3108
869.799	3055
869.929	3119
870.06	3135
870.19	3336
870.32	3321
870.45	3321
870.58	3370
870.71	3496
870.84	3462
870.97	3336
871.1	3237
871.23	3496
871.36	3477
871.489	3359
871.619	3431
871.749	3416
871.879	3469
872.008	3492
872.138	3321
872.267	3283
872.397	3184
872.526	3112
872.656	3017
872.785	3112
872.915	3268
873.044	3298
873.173	3199
873.303	3275
873.432	3272
873.561	3283
873.69	3184
873.819	3169
873.948	3233
874.077	3135
874.206	3081
874.335	3097
874.464	3192
874.593	3428
874.722	3214
874.851	3435
874.979	3348
875.108	3332
875.237	3203
875.365	3192
875.494	3184
875.623	3287
875.751	3119
875.88	3119
876.008	3192
876.136	3237
876.265	3409
876.393	3549
876.521	3435
876.65	3416
876.778	3367
876.906	3249
877.034	3180
877.162	3275
877.29	3199
877.418	3275
877.546	3253
877.674	3233
877.802	3226
877.93	3249
878.058	3165
878.185	3093
878.313	3199
878.441	3207
878.568	3100
878.696	3173
878.824	3283
878.951	3291
879.079	3485
879.206	3641
879.333	3439
879.461	3321
879.588	3389
879.715	3492
879.842	3614
879.97	3386
880.097	3192
880.224	3161
880.351	3173
880.478	3249
880.605	3222
880.732	3157
880.859	3485
880.986	3279
881.112	3317
881.239	3207
881.366	3104
881.493	3020
881.619	3001
881.746	3123
881.872	3100
881.999	3123
882.125	3161
882.252	3256
882.378	3287
882.505	3447
882.631	3291
882.757	3154
882.883	3199
883.01	3230
883.136	3142
883.262	3116
883.388	3116
883.514	3340
883.64	3351
883.766	3310
883.892	3218
884.018	3253
884.143	3439
884.269	3538
884.395	3256
884.52	3154
884.646	3192
884.772	3112
884.897	3157
885.023	3230
885.148	3336
885.274	3420
885.399	3397
885.524	3287
885.65	3294
885.775	3355
885.9	3317
886.025	3439
886.15	3351
886.275	3264
886.4	3230
886.525	3317
886.65	3291
886.775	3279
886.9	3511
887.025	3663
887.149	3412
887.274	3272
887.399	3211
887.523	3195
887.648	3180
887.773	3218
887.897	3386
888.021	3431
888.146	3336
888.27	3473
888.395	3538
888.519	3412
888.643	3420
888.767	3466
888.891	3317
889.015	3260
889.139	3310
889.263	3283
889.387	3469
889.511	3545
889.635	3485
889.759	3302
889.883	3313
890.006	3401
890.13	3477
890.254	3275
890.377	3363
890.501	3211
890.624	3195
890.748	3306
890.871	3214
890.995	3119
891.118	3081
891.241	3207
891.364	3222
891.488	3348
891.611	3180
891.734	3260
891.857	3310
891.98	3279
892.103	3329
892.226	3272
892.349	3218
892.471	3089
892.594	3222
892.717	3287
892.839	3317
892.962	3287
893.085	3382
893.207	3332
893.33	3123
893.452	3226
893.575	3351
893.697	3249
893.819	3477
893.941	3538
894.064	3477
894.186	3291
894.308	3253
894.43	3466
894.552	3561
894.674	3504
894.796	3287
894.918	3348
895.04	3298
895.161	3466
895.283	3386
895.405	3302
895.526	3405
895.648	3443
895.769	3435
895.891	3458
896.012	3447
896.134	3439
896.255	3443
896.376	3389
896.498	3378
896.619	3435
896.74	3359
896.861	3389
896.982	3660
897.103	3838
897.224	3591
897.345	3557
897.466	3412
897.587	3500
897.708	3603
897.828	3580
897.949	3481
898.07	3325
898.19	3435
898.311	3656
898.431	3469
898.552	3545
898.672	3622
898.792	3584
898.913	3526
899.033	3393
899.153	3291
899.273	3237
899.393	3287
899.513	3340
899.633	3351
899.753	3310
899.873	3332
899.993	3382
900.113	3332
900.232	3405
900.352	3370
900.472	3275
900.591	3207
900.711	3336
900.83	3249
900.95	3431
901.069	3500
901.189	3367
901.308	3207
901.427	3123
901.546	3195
901.665	3340
901.784	3325
901.904	3237
902.023	3165
902.141	3009
902.26	2967
902.379	3173
902.498	3146
902.617	3093
902.735	3211
902.854	3260
902.973	3188
903.091	3108
903.21	3070
903.328	3161
903.446	3112
903.565	3123
903.683	3211
903.801	3157
903.919	3256
904.038	3272
904.156	3180
904.274	3302
904.392	3268
904.51	3283
904.627	3325
904.745	3431
904.863	3500
904.981	3329
905.098	3173
905.216	3237
905.334	3291
905.451	3329
905.569	3306
905.686	3420
905.803	3447
905.921	3264
906.038	3424
906.155	3359
906.272	3283
906.389	3332
906.506	3218
906.623	3256
906.74	3291
906.857	3161
906.974	3294
907.091	3439
907.208	3557
907.324	3500
907.441	3416
907.557	3226
907.674	3268
907.79	3199
907.907	3294
908.023	3382
908.139	3412
908.256	3363
908.372	3405
908.488	3363
908.604	3195
908.72	3245
908.836	3260
908.952	3264
909.068	3298
909.184	3492
909.3	3393
909.415	3500
909.531	3477
909.647	3256
909.762	3279
909.878	3279
909.993	3363
910.108	3313
910.224	3386
910.339	3409
910.454	3313
910.57	3298
910.685	3264
910.8	3584
910.915	3534
911.03	3428
911.145	3291
911.259	3256
911.374	3363
911.489	3241
911.604	3249
911.718	3119
911.833	3180
911.947	3051
912.062	2967
912.176	3169
912.291	3173
912.405	3233
912.519	3462
912.633	3496
912.748	3367
912.862	3268
912.976	3188
913.09	3089
913.204	3123
913.318	3241
913.431	3340
913.545	3374
913.659	3447
913.772	3291
913.886	3241
914	3237
914.113	3351
914.226	3435
914.34	3359
914.453	3207
914.566	3439
914.68	3283
914.793	3374
914.906	3154
915.019	3123
915.132	3104
915.245	3218
915.358	3214
915.47	3230
915.583	3264
915.696	3287
915.809	3424
915.921	3450
916.034	3275
916.146	3279
916.259	3222
916.371	3397
916.483	3355
916.595	3260
916.708	3367
916.82	3340
916.932	3359
917.044	3382
917.156	3351
917.268	3253
917.38	3302
917.491	3302
917.603	3393
917.715	3447
917.826	3481
917.938	3416
918.049	3279
918.161	3424
918.272	3603
918.384	3572
918.495	3496
918.606	3332
918.717	3313
918.828	3367
918.939	3397
919.05	3344
919.161	3386
919.272	3192
919.383	3329
919.494	3519
919.604	3671
919.715	3511
919.826	3458
919.936	3469
920.047	3641
920.157	3557
920.267	3797
920.378	3614
920.488	3603
920.598	3766
920.708	3968
920.818	3827
920.928	3857
921.038	4025
921.148	4029
921.258	3717
921.368	3663
921.477	3587
921.587	3526
921.697	3401
921.806	3641
921.916	3511
922.025	3370
922.134	3351
922.244	3321
922.353	3428
922.462	3313
922.571	3222
922.68	3135
922.789	3081
922.898	3112
923.007	3108
923.116	3249
923.224	3161
923.333	3233
923.442	3127
923.55	3093
923.659	3176
923.767	3237
923.876	3119
923.984	3272
924.092	3070
924.201	3222
924.309	3237
924.417	3237
924.525	3176
924.633	3180
924.741	4204
924.849	3066
924.956	3260
925.064	3100
925.172	3032
925.279	3085
925.387	3211
925.494	3192
925.602	3332
925.709	3306
925.816	3207
925.924	3302
926.031	3412
926.138	3321
926.245	3405
926.352	3253
926.459	3386
926.566	3477
926.673	3355
926.779	3272
926.886	3245
926.993	3184
927.099	3146
927.206	3085
927.312	3142
927.419	3264
927.525	3207
927.631	3275
927.737	3119
927.843	3127
927.95	3036
928.056	3112
928.162	3180
928.267	3260
928.373	3884
928.479	3313
928.585	3070
928.69	3241
928.796	3253
928.901	3211
929.007	3047
929.112	3188
929.218	3211
929.323	3173
929.428	3157
929.533	3329
929.638	3131
929.743	3157
929.848	3283
929.953	3211
930.058	3142
930.163	3051
930.267	3089
930.372	3203
930.477	3062
930.581	3321
930.685	3188
930.79	3100
930.894	3135
930.998	3097
931.103	3264
931.207	3005
931.311	2994
931.415	2922
931.519	2796
931.623	2834
