Data from test_V78500241_1606.txt Node
Date: Fri Mar 25 16:26:19 CST 2022
User: usil
Spectrometer: V785-0024
Trigger mode: 0
Integration Time (sec): 4.000000E-1
Scans to average: 1
Nonlinearity correction enabled: false
Boxcar width: 0
Storing dark spectrum: false
XAxis mode: Wavelengths
Number of Pixels in Spectrum: 1024
>>>>>Begin Spectral Data<<<<<
801.071	2925
801.214	2998
801.356	2902
801.499	2937
801.641	2937
801.783	2956
801.926	3093
802.068	2986
802.211	3032
802.353	3036
802.496	2986
802.638	3028
802.78	3097
802.923	3066
803.065	3009
803.208	2910
803.35	2948
803.492	2979
803.635	2952
803.777	2807
803.919	2922
804.061	3192
804.204	3020
804.346	2933
804.488	2861
804.63	3020
804.773	2918
804.915	2937
805.057	3093
805.199	2933
805.341	2975
805.483	3066
805.626	3039
805.768	2982
805.91	3100
806.052	3127
806.194	3043
806.336	3253
806.478	3043
806.62	2998
806.762	3013
806.904	3043
807.046	3173
807.188	2982
807.33	2956
807.472	3009
807.614	2929
807.756	3013
807.898	2941
808.04	2902
808.182	2994
808.324	2956
808.465	2899
808.607	2918
808.749	2819
808.891	2876
809.033	3005
809.174	2990
809.316	2925
809.458	2906
809.6	2796
809.741	2766
809.883	2811
810.025	2872
810.166	2906
810.308	2872
810.45	2899
810.591	2800
810.733	2834
810.875	2857
811.016	2804
811.158	2750
811.299	2834
811.441	2925
811.582	2956
811.724	2838
811.865	2849
812.007	2929
812.148	2895
812.29	2876
812.431	2891
812.573	2952
812.714	2963
812.855	3100
812.997	3074
813.138	3100
813.279	3028
813.421	3028
813.562	2998
813.703	2925
813.845	2891
813.986	2785
814.127	2769
814.268	2815
814.41	2842
814.551	2819
814.692	2902
814.833	2849
814.974	2937
815.115	2967
815.256	2834
815.397	2815
815.539	2880
815.68	2811
815.821	2834
815.962	2963
816.103	2952
816.244	2899
816.385	2864
816.526	3020
816.666	2925
816.807	2762
816.948	2906
817.089	2910
817.23	2857
817.371	2807
817.512	2830
817.653	2872
817.793	2834
817.934	2933
818.075	2982
818.216	2994
818.356	3013
818.497	2914
818.638	2792
818.778	2853
818.919	2830
819.06	2773
819.2	2883
819.341	2842
819.481	2811
819.622	2960
819.762	3138
819.903	3062
820.043	2944
820.184	2906
820.324	2876
820.465	3039
820.605	3017
820.746	3024
820.886	2975
821.026	3127
821.167	3173
821.307	3249
821.447	3283
821.588	3260
821.728	3222
821.868	3218
822.008	3074
822.149	3192
822.289	3230
822.429	3085
822.569	3142
822.709	3199
822.849	3074
822.99	3089
823.13	3173
823.27	3218
823.41	3123
823.55	3173
823.69	3199
823.83	3184
823.97	3123
824.11	3051
824.25	2990
824.389	3085
824.529	3123
824.669	3127
824.809	3253
824.949	3253
825.089	3268
825.228	3154
825.368	3005
825.508	2971
825.648	2944
825.787	3047
825.927	3028
826.067	3017
826.206	2952
826.346	3020
826.485	3085
826.625	3097
826.765	3245
826.904	3264
827.044	3017
827.183	2948
827.323	2845
827.462	3070
827.601	2929
827.741	2960
827.88	2929
828.02	2891
828.159	2994
828.298	3039
828.437	3119
828.577	3036
828.716	3264
828.855	3077
828.994	2933
829.134	2910
829.273	2937
829.412	2876
829.551	2857
829.69	2891
829.829	2998
829.968	3074
830.107	3055
830.246	3036
830.385	2925
830.524	2899
830.663	2842
830.802	2754
830.941	2659
831.08	2686
831.219	2777
831.357	2785
831.496	2956
831.635	2727
831.774	2682
831.913	2678
832.051	2552
832.19	2617
832.329	2689
832.467	2571
832.606	2541
832.744	2648
832.883	2606
833.022	2598
833.16	2667
833.299	2667
833.437	2720
833.576	2689
833.714	2720
833.852	2735
833.991	2769
834.129	2838
834.267	2849
834.406	2758
834.544	2864
834.682	2902
834.821	2876
834.959	3058
835.097	2929
835.235	3089
835.373	3024
835.511	3043
835.65	2979
835.788	2982
835.926	2838
836.064	2819
836.202	2857
836.34	3104
836.478	3176
836.615	3047
836.753	3157
836.891	3203
837.029	3192
837.167	3157
837.305	3062
837.443	3074
837.58	2956
837.718	3123
837.856	3058
837.993	3051
838.131	3142
838.269	3157
838.406	3116
838.544	3093
838.681	2933
838.819	2948
838.956	2826
839.094	2792
839.231	2880
839.369	2986
839.506	3397
839.643	3241
839.781	3028
839.918	2948
840.055	3028
840.193	3089
840.33	3058
840.467	3093
840.604	3173
840.742	3435
840.879	3104
841.016	3081
841.153	3123
841.29	3386
841.427	3279
841.564	3283
841.701	3340
841.838	3237
841.975	3161
842.112	3203
842.249	3108
842.385	3093
842.522	3283
842.659	3116
842.796	3085
842.933	3123
843.069	3039
843.206	3020
843.343	3184
843.479	3104
843.616	3146
843.752	2872
843.889	2895
844.025	3077
844.162	2880
844.298	3077
844.435	2971
844.571	2918
844.708	3104
844.844	3237
844.98	3245
845.117	3176
845.253	3058
845.389	3024
845.525	3119
845.661	3131
845.798	3058
845.934	3131
846.07	3039
846.206	3214
846.342	3321
846.478	3218
846.614	3081
846.75	3032
846.886	3020
847.022	3268
847.158	3138
847.294	3180
847.429	3230
847.565	3195
847.701	3488
847.837	3077
847.972	3013
848.108	3161
848.244	3161
848.379	2994
848.515	2918
848.65	2933
848.786	2971
848.921	3036
849.057	3146
849.192	3131
849.328	3066
849.463	3135
849.598	3074
849.734	3009
849.869	2998
850.004	2944
850.14	2971
850.275	2929
850.41	2876
850.545	2880
850.68	2922
850.815	2948
850.95	3001
851.085	3245
851.22	3127
851.355	3058
851.49	2998
851.625	2971
851.76	2986
851.895	2967
852.03	2910
852.165	3036
852.299	3135
852.434	3165
852.569	3123
852.703	3169
852.838	3272
852.973	3344
853.107	3306
853.242	3138
853.376	3074
853.511	2971
853.645	3013
853.78	3245
853.914	3142
854.048	3142
854.183	3104
854.317	3123
854.451	3298
854.585	3108
854.72	3097
854.854	3195
854.988	3062
855.122	3093
855.256	2975
855.39	3135
855.524	3226
855.658	3211
855.792	3161
855.926	3207
856.06	3203
856.194	3275
856.327	3165
856.461	3081
856.595	3093
856.729	3085
856.862	3230
856.996	3169
857.13	3207
857.263	3203
857.397	3260
857.53	3116
857.664	3180
857.797	3188
857.931	3260
858.064	3123
858.197	3211
858.331	3108
858.464	3077
858.597	3017
858.731	3138
858.864	3097
858.997	3108
859.13	3146
859.263	3180
859.396	3256
859.529	3112
859.662	3104
859.795	3043
859.928	3203
860.061	3256
860.194	3294
860.327	3112
860.46	3081
860.592	3268
860.725	3272
860.858	3253
860.99	3100
861.123	3066
861.256	3020
861.388	3123
861.521	3865
861.653	3043
861.786	3005
861.918	3001
862.05	3039
862.183	3089
862.315	3157
862.447	3226
862.58	3066
862.712	2952
862.844	2864
862.976	3024
863.108	3001
863.24	3340
863.372	2853
863.504	2994
863.636	2941
863.768	2990
863.9	2971
864.032	2906
864.164	2971
864.296	2998
864.428	3074
864.559	3112
864.691	3097
864.823	3097
864.954	3051
865.086	3039
865.217	3013
865.349	2960
865.48	2994
865.612	3036
865.743	3154
865.875	2963
866.006	2971
866.137	2971
866.269	2963
866.4	2929
866.531	2895
866.662	2895
866.793	2880
866.924	2902
867.055	2986
867.186	2925
867.317	2925
867.448	2819
867.579	2853
867.71	2849
867.841	2857
867.972	2914
868.103	2937
868.233	2891
868.364	2887
868.495	2929
868.625	3055
868.756	3135
868.886	2971
869.017	3055
869.147	3203
869.278	3150
869.408	3051
869.539	3036
869.669	3135
869.799	3058
869.929	3142
870.06	3108
870.19	3355
870.32	3294
870.45	3253
870.58	3359
870.71	3439
870.84	3454
870.97	3325
871.1	3222
871.23	3443
871.36	3435
871.489	3374
871.619	3412
871.749	3454
871.879	3435
872.008	3485
872.138	3359
872.267	3268
872.397	3165
872.526	3074
872.656	2998
872.785	3085
872.915	3256
873.044	3317
873.173	3237
873.303	3203
873.432	3253
873.561	3256
873.69	3192
873.819	3154
873.948	3195
874.077	3039
874.206	3028
874.335	3085
874.464	3226
874.593	3367
874.722	3241
874.851	3420
874.979	3340
875.108	3329
875.237	3192
875.365	3135
875.494	3154
875.623	3233
875.751	3108
875.88	3112
876.008	3195
876.136	3222
876.265	3378
876.393	3485
876.521	3439
876.65	3412
876.778	3344
876.906	3279
877.034	3207
877.162	3241
877.29	3188
877.418	3268
877.546	3279
877.674	3226
877.802	3253
877.93	3218
878.058	3150
878.185	3150
878.313	3188
878.441	3165
878.568	3051
878.696	3154
878.824	3233
878.951	3287
879.079	3466
879.206	3606
879.333	3439
879.461	3340
879.588	3359
879.715	3447
879.842	3534
879.97	3393
880.097	3165
880.224	3116
880.351	3207
880.478	3230
880.605	3199
880.732	3161
880.859	3454
880.986	3306
881.112	3321
881.239	3169
881.366	3077
881.493	3024
881.619	3051
881.746	3070
881.872	3104
881.999	3093
882.125	3146
882.252	3256
882.378	3291
882.505	3439
882.631	3264
882.757	3135
882.883	3211
883.01	3222
883.136	3157
883.262	3116
883.388	3119
883.514	3313
883.64	3370
883.766	3313
883.892	3195
884.018	3237
884.143	3397
884.269	3519
884.395	3222
884.52	3188
884.646	3173
884.772	3146
884.897	3097
885.023	3195
885.148	3317
885.274	3393
885.399	3355
885.524	3279
885.65	3283
885.775	3348
885.9	3268
886.025	3477
886.15	3386
886.275	3302
886.4	3233
886.525	3298
886.65	3253
886.775	3230
886.9	3450
887.025	3595
887.149	3412
887.274	3245
887.399	3207
887.523	3184
887.648	3176
887.773	3195
887.897	3370
888.021	3393
888.146	3321
888.27	3454
888.395	3534
888.519	3405
888.643	3424
888.767	3473
888.891	3294
889.015	3233
889.139	3298
889.263	3241
889.387	3393
889.511	3500
889.635	3458
889.759	3218
889.883	3298
890.006	3416
890.13	3488
890.254	3291
890.377	3340
890.501	3207
890.624	3150
890.748	3294
890.871	3195
890.995	3077
891.118	3055
891.241	3180
891.364	3245
891.488	3310
891.611	3211
891.734	3241
891.857	3287
891.98	3203
892.103	3302
892.226	3272
892.349	3249
892.471	3146
892.594	3211
892.717	3313
892.839	3275
892.962	3317
893.085	3344
893.207	3272
893.33	3169
893.452	3195
893.575	3374
893.697	3253
893.819	3481
893.941	3511
894.064	3477
894.186	3230
894.308	3294
894.43	3443
894.552	3504
894.674	3458
894.796	3253
894.918	3294
895.04	3268
895.161	3397
895.283	3370
895.405	3310
895.526	3348
895.648	3409
895.769	3443
895.891	3447
896.012	3462
896.134	3458
896.255	3401
896.376	3386
896.498	3359
896.619	3431
896.74	3367
896.861	3401
896.982	3667
897.103	3873
897.224	3572
897.345	3507
897.466	3397
897.587	3473
897.708	3606
897.828	3557
897.949	3424
898.07	3310
898.19	3416
898.311	3599
898.431	3420
898.552	3507
898.672	3591
898.792	3595
898.913	3496
899.033	3424
899.153	3298
899.273	3218
899.393	3294
899.513	3317
899.633	3294
899.753	3336
899.873	3298
899.993	3374
900.113	3348
900.232	3386
900.352	3351
900.472	3310
900.591	3207
900.711	3283
900.83	3260
900.95	3416
901.069	3507
901.189	3321
901.308	3161
901.427	3142
901.546	3165
901.665	3268
901.784	3298
901.904	3245
902.023	3119
902.141	3036
902.26	2994
902.379	3119
902.498	3074
902.617	3039
902.735	3211
902.854	3230
902.973	3192
903.091	3036
903.21	3074
903.328	3131
903.446	3085
903.565	3097
903.683	3184
903.801	3097
903.919	3256
904.038	3264
904.156	3169
904.274	3313
904.392	3253
904.51	3279
904.627	3344
904.745	3405
904.863	3526
904.981	3264
905.098	3135
905.216	3268
905.334	3283
905.451	3310
905.569	3298
905.686	3409
905.803	3435
905.921	3287
906.038	3401
906.155	3336
906.272	3237
906.389	3302
906.506	3195
906.623	3253
906.74	3237
906.857	3207
906.974	3272
907.091	3393
907.208	3580
907.324	3477
907.441	3405
907.557	3233
907.674	3233
907.79	3165
907.907	3249
908.023	3370
908.139	3351
908.256	3351
908.372	3367
908.488	3317
908.604	3256
908.72	3222
908.836	3268
908.952	3283
909.068	3359
909.184	3500
909.3	3405
909.415	3477
909.531	3485
909.647	3245
909.762	3279
909.878	3275
909.993	3370
910.108	3321
910.224	3317
910.339	3405
910.454	3348
910.57	3302
910.685	3253
910.8	3629
910.915	3557
911.03	3397
911.145	3245
911.259	3294
911.374	3302
911.489	3222
911.604	3218
911.718	3116
911.833	3135
911.947	3013
912.062	3013
912.176	3173
912.291	3195
912.405	3188
912.519	3447
912.633	3469
912.748	3302
912.862	3306
912.976	3135
913.09	3070
913.204	3131
913.318	3233
913.431	3329
913.545	3355
913.659	3447
913.772	3355
913.886	3214
914	3207
914.113	3367
914.226	3405
914.34	3367
914.453	3214
914.566	3389
914.68	3287
914.793	3329
914.906	3176
915.019	3093
915.132	3108
915.245	3180
915.358	3260
915.47	3260
915.583	3283
915.696	3294
915.809	3405
915.921	3412
916.034	3287
916.146	3253
916.259	3233
916.371	3397
916.483	3386
916.595	3275
916.708	3329
916.82	3374
916.932	3306
917.044	3363
917.156	3363
917.268	3245
917.38	3253
917.491	3306
917.603	3424
917.715	3439
917.826	3466
917.938	3412
918.049	3264
918.161	3435
918.272	3564
918.384	3572
918.495	3477
918.606	3329
918.717	3253
918.828	3378
918.939	3389
919.05	3325
919.161	3401
919.272	3142
919.383	3283
919.494	3450
919.604	3682
919.715	3511
919.826	3389
919.936	3466
920.047	3652
920.157	3599
920.267	3808
920.378	3618
920.488	3580
920.598	3823
920.708	3945
920.818	3827
920.928	3827
921.038	4002
921.148	4017
921.258	3675
921.368	3618
921.477	3568
921.587	3580
921.697	3409
921.806	3625
921.916	3511
922.025	3332
922.134	3313
922.244	3325
922.353	3431
922.462	3272
922.571	3245
922.68	3127
922.789	3074
922.898	3142
923.007	3116
923.116	3207
923.224	3157
923.333	3214
923.442	3112
923.55	3051
923.659	3135
923.767	3207
923.876	3131
923.984	3226
924.092	3138
924.201	3199
924.309	3199
924.417	3249
924.525	3207
924.633	3203
924.741	4131
924.849	3093
924.956	3291
925.064	3077
925.172	3043
925.279	3093
925.387	3142
925.494	3176
925.602	3332
925.709	3351
925.816	3188
925.924	3256
926.031	3348
926.138	3298
926.245	3332
926.352	3279
926.459	3428
926.566	3447
926.673	3325
926.779	3256
926.886	3245
926.993	3142
927.099	3138
927.206	3089
927.312	3108
927.419	3192
927.525	3180
927.631	3260
927.737	3161
927.843	3093
927.95	3036
928.056	3112
928.162	3142
928.267	3207
928.373	3903
928.479	3310
928.585	3100
928.69	3214
928.796	3249
928.901	3195
929.007	3077
929.112	3211
929.218	3173
929.323	3123
929.428	3135
929.533	3306
929.638	3146
929.743	3184
929.848	3226
929.953	3203
930.058	3169
930.163	3001
930.267	3097
930.372	3211
930.477	3032
930.581	3264
930.685	3192
930.79	3097
930.894	3104
930.998	3093
931.103	3279
931.207	2929
931.311	2902
931.415	2925
931.519	2788
931.623	2823
