Data from test_V78500241_1547.txt Node
Date: Fri Mar 25 16:25:55 CST 2022
User: usil
Spectrometer: V785-0024
Trigger mode: 0
Integration Time (sec): 4.000000E-1
Scans to average: 1
Nonlinearity correction enabled: false
Boxcar width: 0
Storing dark spectrum: false
XAxis mode: Wavelengths
Number of Pixels in Spectrum: 1024
>>>>>Begin Spectral Data<<<<<
801.071	2902
801.214	2922
801.356	2842
801.499	2902
801.641	2853
801.783	2906
801.926	3028
802.068	2963
802.211	3024
802.353	3024
802.496	2971
802.638	3009
802.78	3055
802.923	3055
803.065	2975
803.208	2906
803.35	2914
803.492	2906
803.635	2910
803.777	2739
803.919	2864
804.061	3192
804.204	2948
804.346	2880
804.488	2842
804.63	2963
804.773	2868
804.915	2910
805.057	3070
805.199	2982
805.341	2956
805.483	3009
805.626	2963
805.768	2941
805.91	3077
806.052	3089
806.194	3039
806.336	3245
806.478	3032
806.62	2979
806.762	2979
806.904	3032
807.046	3150
807.188	2990
807.33	2887
807.472	2982
807.614	2902
807.756	2994
807.898	2906
808.04	2887
808.182	2990
808.324	2975
808.465	2891
808.607	2895
808.749	2807
808.891	2796
809.033	2960
809.174	2960
809.316	2891
809.458	2876
809.6	2788
809.741	2731
809.883	2796
810.025	2838
810.166	2849
810.308	2830
810.45	2861
810.591	2766
810.733	2773
810.875	2838
811.016	2762
811.158	2750
811.299	2792
811.441	2910
811.582	2857
811.724	2849
811.865	2792
812.007	2895
812.148	2842
812.29	2883
812.431	2899
812.573	2933
812.714	2952
812.855	3039
812.997	3039
813.138	3123
813.279	3036
813.421	2982
813.562	2963
813.703	2823
813.845	2891
813.986	2766
814.127	2735
814.268	2826
814.41	2838
814.551	2811
814.692	2876
814.833	2811
814.974	2857
815.115	2952
815.256	2815
815.397	2769
815.539	2868
815.68	2746
815.821	2792
815.962	2948
816.103	2929
816.244	2883
816.385	2834
816.526	2944
816.666	2906
816.807	2739
816.948	2868
817.089	2902
817.23	2826
817.371	2796
817.512	2792
817.653	2853
817.793	2853
817.934	2857
818.075	2929
818.216	2990
818.356	3013
818.497	2868
818.638	2769
818.778	2826
818.919	2807
819.06	2773
819.2	2853
819.341	2781
819.481	2796
819.622	2948
819.762	3085
819.903	3070
820.043	2902
820.184	2887
820.324	2887
820.465	2998
820.605	3005
820.746	2979
820.886	2910
821.026	3074
821.167	3123
821.307	3241
821.447	3245
821.588	3195
821.728	3207
821.868	3199
822.008	3020
822.149	3135
822.289	3222
822.429	3089
822.569	3104
822.709	3169
822.849	3001
822.99	3081
823.13	3157
823.27	3184
823.41	3112
823.55	3112
823.69	3116
823.83	3180
823.97	3119
824.11	2967
824.25	3001
824.389	3081
824.529	3070
824.669	3051
824.809	3195
824.949	3260
825.089	3184
825.228	3119
825.368	3020
825.508	2960
825.648	2975
825.787	2971
825.927	3009
826.067	2994
826.206	2933
826.346	3047
826.485	3043
826.625	3108
826.765	3294
826.904	3176
827.044	2994
827.183	2944
827.323	2887
827.462	2990
827.601	2895
827.741	2902
827.88	2952
828.02	2842
828.159	2948
828.298	3039
828.437	3074
828.577	3032
828.716	3260
828.855	3055
828.994	2902
829.134	2864
829.273	2922
829.412	2876
829.551	2830
829.69	2902
829.829	2994
829.968	3077
830.107	3001
830.246	2979
830.385	2880
830.524	2883
830.663	2792
830.802	2724
830.941	2648
831.08	2689
831.219	2788
831.357	2785
831.496	2929
831.635	2716
831.774	2636
831.913	2636
832.051	2514
832.19	2556
832.329	2689
832.467	2541
832.606	2442
832.744	2564
832.883	2552
833.022	2575
833.16	2629
833.299	2689
833.437	2693
833.576	2693
833.714	2686
833.852	2724
833.991	2735
834.129	2857
834.267	2842
834.406	2819
834.544	2880
834.682	2868
834.821	2830
834.959	3066
835.097	2883
835.235	3062
835.373	3013
835.511	3013
835.65	2937
835.788	2941
835.926	2804
836.064	2788
836.202	2857
836.34	3097
836.478	3131
836.615	3066
836.753	3135
836.891	3195
837.029	3165
837.167	3104
837.305	3036
837.443	3062
837.58	2960
837.718	3150
837.856	3066
837.993	3043
838.131	3135
838.269	3077
838.406	3055
838.544	3051
838.681	2937
838.819	2922
838.956	2826
839.094	2796
839.231	2933
839.369	2971
839.506	3367
839.643	3176
839.781	3020
839.918	2963
840.055	3032
840.193	3039
840.33	3039
840.467	3070
840.604	3100
840.742	3416
840.879	3039
841.016	3074
841.153	3131
841.29	3317
841.427	3298
841.564	3226
841.701	3302
841.838	3184
841.975	3169
842.112	3264
842.249	3089
842.385	3036
842.522	3279
842.659	3066
842.796	3047
842.933	3062
843.069	3058
843.206	3020
843.343	3176
843.479	3112
843.616	3104
843.752	2910
843.889	2853
844.025	3055
844.162	2842
844.298	3070
844.435	2944
844.571	2906
844.708	3077
844.844	3161
844.98	3226
845.117	3173
845.253	3066
845.389	2990
845.525	3093
845.661	3051
845.798	2952
845.934	3104
846.07	3066
846.206	3199
846.342	3298
846.478	3199
846.614	3074
846.75	3032
846.886	3066
847.022	3226
847.158	3154
847.294	3195
847.429	3207
847.565	3226
847.701	3466
847.837	2986
847.972	3009
848.108	3150
848.244	3127
848.379	2975
848.515	2887
848.65	2910
848.786	2967
848.921	3032
849.057	3108
849.192	3161
849.328	3055
849.463	3089
849.598	3066
849.734	3028
849.869	2998
850.004	2902
850.14	2967
850.275	2902
850.41	2830
850.545	2872
850.68	2956
850.815	2933
850.95	2944
851.085	3207
851.22	3112
851.355	3005
851.49	2998
851.625	2998
851.76	3017
851.895	2910
852.03	2910
852.165	3032
852.299	3116
852.434	3192
852.569	3104
852.703	3127
852.838	3233
852.973	3294
853.107	3313
853.242	3150
853.376	3062
853.511	2944
853.645	3051
853.78	3218
853.914	3116
854.048	3089
854.183	3062
854.317	3142
854.451	3287
854.585	3081
854.72	3081
854.854	3180
854.988	3013
855.122	3081
855.256	2979
855.39	3119
855.524	3218
855.658	3180
855.792	3123
855.926	3184
856.06	3203
856.194	3249
856.327	3108
856.461	3081
856.595	3081
856.729	3104
856.862	3222
856.996	3165
857.13	3195
857.263	3253
857.397	3253
857.53	3097
857.664	3245
857.797	3237
857.931	3279
858.064	3127
858.197	3211
858.331	3131
858.464	3097
858.597	3017
858.731	3119
858.864	3104
858.997	3066
859.13	3138
859.263	3188
859.396	3207
859.529	3089
859.662	3024
859.795	3055
859.928	3112
860.061	3287
860.194	3249
860.327	3089
860.46	3089
860.592	3222
860.725	3245
860.858	3222
860.99	3100
861.123	3058
861.256	3070
861.388	3127
861.521	3922
861.653	2994
861.786	2948
861.918	2982
862.05	3077
862.183	3036
862.315	3150
862.447	3214
862.58	3108
862.712	2937
862.844	2861
862.976	2998
863.108	3024
863.24	3279
863.372	2864
863.504	2960
863.636	2933
863.768	3066
863.9	2941
864.032	2902
864.164	2963
864.296	2998
864.428	3047
864.559	3077
864.691	3081
864.823	3043
864.954	2986
865.086	3127
865.217	2994
865.349	2941
865.48	2975
865.612	3024
865.743	3116
865.875	2979
866.006	2952
866.137	2971
866.269	2914
866.4	2933
866.531	2922
866.662	2910
866.793	2868
866.924	2876
867.055	2937
867.186	2952
867.317	2895
867.448	2853
867.579	2838
867.71	2861
867.841	2819
867.972	2895
868.103	2933
868.233	2883
868.364	2864
868.495	2918
868.625	3077
868.756	3184
868.886	2925
869.017	3028
869.147	3176
869.278	3127
869.408	3043
869.539	3062
869.669	3116
869.799	3047
869.929	3123
870.06	3093
870.19	3313
870.32	3264
870.45	3287
870.58	3359
870.71	3424
870.84	3462
870.97	3275
871.1	3241
871.23	3435
871.36	3424
871.489	3329
871.619	3340
871.749	3412
871.879	3424
872.008	3477
872.138	3367
872.267	3256
872.397	3161
872.526	3135
872.656	3017
872.785	3074
872.915	3195
873.044	3332
873.173	3241
873.303	3233
873.432	3203
873.561	3207
873.69	3135
873.819	3161
873.948	3173
874.077	3097
874.206	3047
874.335	3119
874.464	3195
874.593	3329
874.722	3226
874.851	3393
874.979	3355
875.108	3329
875.237	3184
875.365	3119
875.494	3165
875.623	3237
875.751	3058
875.88	3093
876.008	3169
876.136	3233
876.265	3348
876.393	3504
876.521	3416
876.65	3409
876.778	3340
876.906	3233
877.034	3184
877.162	3203
877.29	3184
877.418	3222
877.546	3237
877.674	3279
877.802	3272
877.93	3237
878.058	3165
878.185	3100
878.313	3165
878.441	3180
878.568	3085
878.696	3142
878.824	3237
878.951	3302
879.079	3447
879.206	3633
879.333	3450
879.461	3336
879.588	3344
879.715	3485
879.842	3576
879.97	3367
880.097	3169
880.224	3123
880.351	3169
880.478	3214
880.605	3211
880.732	3146
880.859	3477
880.986	3306
881.112	3325
881.239	3165
881.366	3100
881.493	3024
881.619	2982
881.746	3058
881.872	3070
881.999	3081
882.125	3142
882.252	3214
882.378	3245
882.505	3420
882.631	3272
882.757	3161
882.883	3195
883.01	3237
883.136	3142
883.262	3112
883.388	3112
883.514	3336
883.64	3382
883.766	3321
883.892	3203
884.018	3275
884.143	3428
884.269	3526
884.395	3203
884.52	3173
884.646	3188
884.772	3100
884.897	3116
885.023	3173
885.148	3302
885.274	3382
885.399	3336
885.524	3272
885.65	3264
885.775	3317
885.9	3249
886.025	3409
886.15	3332
886.275	3306
886.4	3214
886.525	3306
886.65	3302
886.775	3237
886.9	3454
887.025	3644
887.149	3409
887.274	3218
887.399	3157
887.523	3161
887.648	3176
887.773	3176
887.897	3382
888.021	3397
888.146	3283
888.27	3454
888.395	3526
888.519	3439
888.643	3431
888.767	3477
888.891	3249
889.015	3233
889.139	3287
889.263	3199
889.387	3424
889.511	3526
889.635	3450
889.759	3291
889.883	3310
890.006	3359
890.13	3450
890.254	3237
890.377	3348
890.501	3173
890.624	3222
890.748	3306
890.871	3173
890.995	3123
891.118	3066
891.241	3184
891.364	3207
891.488	3317
891.611	3161
891.734	3188
891.857	3279
891.98	3199
892.103	3332
892.226	3264
892.349	3222
892.471	3097
892.594	3230
892.717	3268
892.839	3279
892.962	3275
893.085	3359
893.207	3272
893.33	3127
893.452	3233
893.575	3317
893.697	3272
893.819	3447
893.941	3526
894.064	3397
894.186	3256
894.308	3264
894.43	3473
894.552	3545
894.674	3492
894.796	3279
894.918	3302
895.04	3291
895.161	3431
895.283	3370
895.405	3272
895.526	3321
895.648	3401
895.769	3409
895.891	3458
896.012	3469
896.134	3488
896.255	3401
896.376	3355
896.498	3336
896.619	3443
896.74	3351
896.861	3367
896.982	3686
897.103	3846
897.224	3572
897.345	3485
897.466	3397
897.587	3553
897.708	3591
897.828	3549
897.949	3450
898.07	3291
898.19	3409
898.311	3618
898.431	3428
898.552	3500
898.672	3587
898.792	3576
898.913	3530
899.033	3389
899.153	3313
899.273	3199
899.393	3272
899.513	3329
899.633	3317
899.753	3325
899.873	3302
899.993	3386
900.113	3317
900.232	3374
900.352	3321
900.472	3291
900.591	3203
900.711	3256
900.83	3222
900.95	3367
901.069	3492
901.189	3340
901.308	3211
901.427	3104
901.546	3173
901.665	3245
901.784	3359
901.904	3192
902.023	3142
902.141	3017
902.26	3005
902.379	3112
902.498	3039
902.617	3066
902.735	3222
902.854	3222
902.973	3161
903.091	3062
903.21	3070
903.328	3165
903.446	3089
903.565	3093
903.683	3173
903.801	3116
903.919	3211
904.038	3306
904.156	3146
904.274	3260
904.392	3291
904.51	3283
904.627	3325
904.745	3424
904.863	3477
904.981	3245
905.098	3180
905.216	3222
905.334	3275
905.451	3313
905.569	3253
905.686	3439
905.803	3439
905.921	3272
906.038	3405
906.155	3313
906.272	3283
906.389	3340
906.506	3249
906.623	3218
906.74	3279
906.857	3142
906.974	3268
907.091	3435
907.208	3549
907.324	3466
907.441	3378
907.557	3192
907.674	3192
907.79	3180
907.907	3275
908.023	3401
908.139	3359
908.256	3336
908.372	3336
908.488	3351
908.604	3241
908.72	3211
908.836	3272
908.952	3237
909.068	3332
909.184	3443
909.3	3370
909.415	3523
909.531	3450
909.647	3237
909.762	3272
909.878	3256
909.993	3370
910.108	3355
910.224	3325
910.339	3420
910.454	3351
910.57	3253
910.685	3256
910.8	3606
910.915	3473
911.03	3458
911.145	3192
911.259	3268
911.374	3268
911.489	3211
911.604	3226
911.718	3108
911.833	3157
911.947	3024
912.062	2982
912.176	3154
912.291	3150
912.405	3203
912.519	3409
912.633	3454
912.748	3340
912.862	3291
912.976	3165
913.09	3074
913.204	3112
913.318	3199
913.431	3329
913.545	3351
913.659	3378
913.772	3344
913.886	3237
914	3165
914.113	3340
914.226	3389
914.34	3370
914.453	3157
914.566	3382
914.68	3272
914.793	3256
914.906	3100
915.019	3116
915.132	3058
915.245	3135
915.358	3203
915.47	3218
915.583	3294
915.696	3287
915.809	3428
915.921	3382
916.034	3249
916.146	3249
916.259	3245
916.371	3412
916.483	3393
916.595	3275
916.708	3363
916.82	3355
916.932	3351
917.044	3363
917.156	3355
917.268	3260
917.38	3298
917.491	3287
917.603	3424
917.715	3447
917.826	3500
917.938	3389
918.049	3279
918.161	3454
918.272	3584
918.384	3557
918.495	3488
918.606	3389
918.717	3313
918.828	3450
918.939	3439
919.05	3348
919.161	3397
919.272	3218
919.383	3302
919.494	3500
919.604	3701
919.715	3511
919.826	3447
919.936	3485
920.047	3629
920.157	3610
920.267	3797
920.378	3679
920.488	3622
920.598	3789
920.708	4006
920.818	3846
920.928	3896
921.038	4105
921.148	4055
921.258	3778
921.368	3682
921.477	3622
921.587	3557
921.697	3511
921.806	3720
921.916	3549
922.025	3393
922.134	3416
922.244	3367
922.353	3431
922.462	3329
922.571	3260
922.68	3157
922.789	3123
922.898	3184
923.007	3142
923.116	3237
923.224	3207
923.333	3253
923.442	3165
923.55	3119
923.659	3146
923.767	3230
923.876	3138
923.984	3272
924.092	3135
924.201	3253
924.309	3245
924.417	3302
924.525	3256
924.633	3279
924.741	4215
924.849	3093
924.956	3302
925.064	3135
925.172	3074
925.279	3116
925.387	3233
925.494	3226
925.602	3355
925.709	3367
925.816	3245
925.924	3329
926.031	3405
926.138	3363
926.245	3374
926.352	3287
926.459	3401
926.566	3500
926.673	3359
926.779	3294
926.886	3306
926.993	3188
927.099	3169
927.206	3142
927.312	3173
927.419	3264
927.525	3241
927.631	3344
927.737	3192
927.843	3138
927.95	3077
928.056	3157
928.162	3207
928.267	3321
928.373	3842
928.479	3329
928.585	3112
928.69	3230
928.796	3313
928.901	3237
929.007	3089
929.112	3283
929.218	3241
929.323	3180
929.428	3180
929.533	3340
929.638	3169
929.743	3176
929.848	3294
929.953	3260
930.058	3192
930.163	3043
930.267	3070
930.372	3192
930.477	3085
930.581	3370
930.685	3203
930.79	3093
930.894	3157
930.998	3135
931.103	3302
931.207	2971
931.311	3009
931.415	2937
931.519	2788
931.623	2842
