Data from test_V78500241_186.txt Node
Date: Fri Mar 25 16:16:29 CST 2022
User: usil
Spectrometer: V785-0024
Trigger mode: 0
Integration Time (sec): 4.000000E-1
Scans to average: 1
Nonlinearity correction enabled: false
Boxcar width: 0
Storing dark spectrum: false
XAxis mode: Wavelengths
Number of Pixels in Spectrum: 1024
>>>>>Begin Spectral Data<<<<<
801.071	2876
801.214	2986
801.356	2861
801.499	2944
801.641	2857
801.783	2929
801.926	3047
802.068	2971
802.211	2998
802.353	3070
802.496	2948
802.638	3009
802.78	3058
802.923	3058
803.065	3013
803.208	2861
803.35	2895
803.492	2948
803.635	2906
803.777	2750
803.919	2868
804.061	3207
804.204	2963
804.346	2910
804.488	2845
804.63	3001
804.773	2883
804.915	2902
805.057	3051
805.199	2937
805.341	2952
805.483	3043
805.626	2998
805.768	2952
805.91	3077
806.052	3123
806.194	3005
806.336	3233
806.478	3028
806.62	2952
806.762	2956
806.904	3043
807.046	3157
807.188	3001
807.33	2933
807.472	2990
807.614	2899
807.756	3017
807.898	2918
808.04	2914
808.182	2967
808.324	2963
808.465	2880
808.607	2876
808.749	2804
808.891	2834
809.033	2979
809.174	2990
809.316	2902
809.458	2914
809.6	2773
809.741	2754
809.883	2773
810.025	2823
810.166	2853
810.308	2842
810.45	2849
810.591	2807
810.733	2720
810.875	2830
811.016	2804
811.158	2762
811.299	2815
811.441	2960
811.582	2918
811.724	2781
811.865	2853
812.007	2929
812.148	2861
812.29	2826
812.431	2902
812.573	2982
812.714	3036
812.855	3070
812.997	3043
813.138	3135
813.279	3039
813.421	3009
813.562	3001
813.703	2883
813.845	2895
813.986	2796
814.127	2724
814.268	2823
814.41	2872
814.551	2819
814.692	2887
814.833	2815
814.974	2895
815.115	2986
815.256	2830
815.397	2804
815.539	2880
815.68	2758
815.821	2826
815.962	2937
816.103	2902
816.244	2922
816.385	2902
816.526	3005
816.666	2887
816.807	2720
816.948	2891
817.089	2929
817.23	2826
817.371	2773
817.512	2815
817.653	2842
817.793	2804
817.934	2902
818.075	2967
818.216	3005
818.356	3024
818.497	2883
818.638	2796
818.778	2864
818.919	2811
819.06	2785
819.2	2883
819.341	2792
819.481	2826
819.622	2906
819.762	3142
819.903	3062
820.043	2918
820.184	2891
820.324	2937
820.465	3062
820.605	3017
820.746	3051
820.886	2944
821.026	3077
821.167	3180
821.307	3253
821.447	3287
821.588	3249
821.728	3195
821.868	3180
822.008	3097
822.149	3207
822.289	3211
822.429	3100
822.569	3097
822.709	3176
822.849	3005
822.99	3051
823.13	3176
823.27	3199
823.41	3093
823.55	3116
823.69	3150
823.83	3226
823.97	3104
824.11	2998
824.25	3017
824.389	3032
824.529	3154
824.669	3070
824.809	3192
824.949	3264
825.089	3241
825.228	3192
825.368	3017
825.508	2986
825.648	2982
825.787	2944
825.927	3055
826.067	3001
826.206	2994
826.346	3005
826.485	3104
826.625	3184
826.765	3275
826.904	3222
827.044	3020
827.183	2994
827.323	2876
827.462	3017
827.601	2937
827.741	2948
827.88	2986
828.02	2857
828.159	3032
828.298	3074
828.437	3131
828.577	3074
828.716	3264
828.855	3127
828.994	2990
829.134	2960
829.273	2982
829.412	2880
829.551	2910
829.69	2918
829.829	3009
829.968	3157
830.107	3058
830.246	3055
830.385	2971
830.524	2933
830.663	2891
830.802	2777
830.941	2705
831.08	2705
831.219	2792
831.357	2804
831.496	3009
831.635	2796
831.774	2712
831.913	2724
832.051	2587
832.19	2632
832.329	2724
832.467	2568
832.606	2511
832.744	2640
832.883	2670
833.022	2629
833.16	2697
833.299	2716
833.437	2785
833.576	2762
833.714	2788
833.852	2769
833.991	2845
834.129	2933
834.267	2876
834.406	2819
834.544	2902
834.682	2922
834.821	2922
834.959	3112
835.097	2975
835.235	3123
835.373	3081
835.511	3066
835.65	3005
835.788	3009
835.926	2868
836.064	2849
836.202	2872
836.34	3135
836.478	3173
836.615	3093
836.753	3222
836.891	3241
837.029	3203
837.167	3195
837.305	3089
837.443	3116
837.58	2994
837.718	3169
837.856	3131
837.993	3081
838.131	3165
838.269	3135
838.406	3165
838.544	3119
838.681	2944
838.819	2963
838.956	2876
839.094	2895
839.231	2986
839.369	3074
839.506	3443
839.643	3256
839.781	3036
839.918	3001
840.055	3112
840.193	3089
840.33	3108
840.467	3127
840.604	3184
840.742	3435
840.879	3093
841.016	3104
841.153	3123
841.29	3397
841.427	3321
841.564	3344
841.701	3367
841.838	3249
841.975	3264
842.112	3260
842.249	3131
842.385	3039
842.522	3275
842.659	3131
842.796	3138
842.933	3169
843.069	3119
843.206	3058
843.343	3256
843.479	3165
843.616	3203
843.752	2933
843.889	2899
844.025	3142
844.162	2925
844.298	3108
844.435	2986
844.571	2971
844.708	3135
844.844	3245
844.98	3283
845.117	3211
845.253	3127
845.389	3085
845.525	3150
845.661	3116
845.798	3039
845.934	3207
846.07	3150
846.206	3256
846.342	3351
846.478	3268
846.614	3135
846.75	3112
846.886	3104
847.022	3283
847.158	3207
847.294	3241
847.429	3298
847.565	3279
847.701	3523
847.837	3093
847.972	3055
848.108	3192
848.244	3188
848.379	3036
848.515	2986
848.65	2963
848.786	3020
848.921	3058
849.057	3146
849.192	3176
849.328	3131
849.463	3161
849.598	3123
849.734	3093
849.869	3028
850.004	2914
850.14	3028
850.275	2963
850.41	2918
850.545	2937
850.68	2994
850.815	3017
850.95	2990
851.085	3268
851.22	3127
851.355	3085
851.49	3028
851.625	3055
851.76	3051
851.895	2937
852.03	2994
852.165	3070
852.299	3146
852.434	3211
852.569	3180
852.703	3199
852.838	3291
852.973	3378
853.107	3359
853.242	3207
853.376	3119
853.511	3009
853.645	3097
853.78	3279
853.914	3157
854.048	3150
854.183	3108
854.317	3195
854.451	3348
854.585	3184
854.72	3138
854.854	3256
854.988	3123
855.122	3142
855.256	3039
855.39	3146
855.524	3264
855.658	3237
855.792	3188
855.926	3268
856.06	3264
856.194	3294
856.327	3211
856.461	3112
856.595	3089
856.729	3135
856.862	3313
856.996	3192
857.13	3237
857.263	3302
857.397	3325
857.53	3173
857.664	3245
857.797	3241
857.931	3321
858.064	3207
858.197	3245
858.331	3154
858.464	3157
858.597	3058
858.731	3154
858.864	3161
858.997	3123
859.13	3199
859.263	3195
859.396	3245
859.529	3131
859.662	3108
859.795	3051
859.928	3176
860.061	3336
860.194	3313
860.327	3211
860.46	3123
860.592	3253
860.725	3291
860.858	3283
860.99	3146
861.123	3081
861.256	3146
861.388	3199
861.521	3778
861.653	3051
861.786	2986
861.918	3051
862.05	3028
862.183	3116
862.315	3173
862.447	3222
862.58	3138
862.712	3005
862.844	2933
862.976	3085
863.108	3032
863.24	3329
863.372	2944
863.504	3005
863.636	2975
863.768	3055
863.9	3028
864.032	2963
864.164	2990
864.296	3066
864.428	3127
864.559	3146
864.691	3150
864.823	3089
864.954	3062
865.086	3131
865.217	3032
865.349	2990
865.48	3043
865.612	3051
865.743	3203
865.875	2982
866.006	2975
866.137	3039
866.269	2990
866.4	2956
866.531	2941
866.662	2944
866.793	2941
866.924	2929
867.055	3013
867.186	2944
867.317	2902
867.448	2895
867.579	2902
867.71	2933
867.841	2872
867.972	2887
868.103	2914
868.233	2906
868.364	2895
868.495	2975
868.625	3089
868.756	3214
868.886	2998
869.017	3051
869.147	3169
869.278	3199
869.408	3058
869.539	3039
869.669	3123
869.799	3085
869.929	3195
870.06	3119
870.19	3367
870.32	3355
870.45	3336
870.58	3443
870.71	3477
870.84	3519
870.97	3306
871.1	3275
871.23	3523
871.36	3534
871.489	3409
871.619	3435
871.749	3431
871.879	3481
872.008	3515
872.138	3397
872.267	3310
872.397	3142
872.526	3146
872.656	3077
872.785	3154
872.915	3264
873.044	3348
873.173	3272
873.303	3279
873.432	3233
873.561	3272
873.69	3199
873.819	3222
873.948	3233
874.077	3119
874.206	3081
874.335	3127
874.464	3245
874.593	3397
874.722	3306
874.851	3405
874.979	3340
875.108	3332
875.237	3226
875.365	3188
875.494	3222
875.623	3253
875.751	3112
875.88	3119
876.008	3253
876.136	3260
876.265	3409
876.393	3580
876.521	3469
876.65	3473
876.778	3393
876.906	3245
877.034	3268
877.162	3313
877.29	3207
877.418	3306
877.546	3287
877.674	3298
877.802	3241
877.93	3256
878.058	3157
878.185	3146
878.313	3233
878.441	3218
878.568	3131
878.696	3157
878.824	3332
878.951	3332
879.079	3488
879.206	3663
879.333	3458
879.461	3382
879.588	3374
879.715	3526
879.842	3663
879.97	3386
880.097	3195
880.224	3176
880.351	3233
880.478	3264
880.605	3245
880.732	3214
880.859	3523
880.986	3359
881.112	3378
881.239	3275
881.366	3123
881.493	3039
881.619	3020
881.746	3100
881.872	3127
881.999	3142
882.125	3199
882.252	3272
882.378	3325
882.505	3469
882.631	3272
882.757	3199
882.883	3203
883.01	3245
883.136	3199
883.262	3097
883.388	3146
883.514	3359
883.64	3386
883.766	3325
883.892	3249
884.018	3279
884.143	3450
884.269	3538
884.395	3275
884.52	3188
884.646	3207
884.772	3127
884.897	3108
885.023	3233
885.148	3374
885.274	3488
885.399	3389
885.524	3298
885.65	3249
885.775	3336
885.9	3283
886.025	3469
886.15	3401
886.275	3287
886.4	3268
886.525	3336
886.65	3359
886.775	3329
886.9	3553
887.025	3671
887.149	3447
887.274	3291
887.399	3173
887.523	3211
887.648	3249
887.773	3226
887.897	3416
888.021	3462
888.146	3298
888.27	3454
888.395	3564
888.519	3481
888.643	3477
888.767	3519
888.891	3340
889.015	3279
889.139	3351
889.263	3256
889.387	3435
889.511	3561
889.635	3515
889.759	3317
889.883	3283
890.006	3443
890.13	3530
890.254	3329
890.377	3409
890.501	3256
890.624	3237
890.748	3355
890.871	3214
890.995	3108
891.118	3066
891.241	3192
891.364	3283
891.488	3359
891.611	3222
891.734	3245
891.857	3325
891.98	3260
892.103	3325
892.226	3306
892.349	3214
892.471	3135
892.594	3291
892.717	3287
892.839	3279
892.962	3275
893.085	3401
893.207	3287
893.33	3135
893.452	3241
893.575	3405
893.697	3256
893.819	3450
893.941	3545
894.064	3473
894.186	3317
894.308	3294
894.43	3481
894.552	3572
894.674	3492
894.796	3264
894.918	3367
895.04	3275
895.161	3462
895.283	3412
895.405	3325
895.526	3405
895.648	3428
895.769	3424
895.891	3519
896.012	3500
896.134	3492
896.255	3481
896.376	3424
896.498	3374
896.619	3492
896.74	3374
896.861	3409
896.982	3724
897.103	3876
897.224	3652
897.345	3504
897.466	3485
897.587	3504
897.708	3660
897.828	3545
897.949	3485
898.07	3359
898.19	3439
898.311	3622
898.431	3439
898.552	3526
898.672	3618
898.792	3606
898.913	3549
899.033	3412
899.153	3294
899.273	3249
899.393	3306
899.513	3310
899.633	3367
899.753	3332
899.873	3344
899.993	3424
900.113	3313
900.232	3386
900.352	3355
900.472	3355
900.591	3214
900.711	3302
900.83	3298
900.95	3431
901.069	3481
901.189	3424
901.308	3192
901.427	3138
901.546	3188
901.665	3370
901.784	3416
901.904	3199
902.023	3123
902.141	3024
902.26	3024
902.379	3150
902.498	3085
902.617	3093
902.735	3192
902.854	3256
902.973	3249
903.091	3024
903.21	3093
903.328	3192
903.446	3135
903.565	3123
903.683	3230
903.801	3165
903.919	3253
904.038	3306
904.156	3154
904.274	3275
904.392	3275
904.51	3321
904.627	3359
904.745	3477
904.863	3564
904.981	3272
905.098	3203
905.216	3283
905.334	3355
905.451	3321
905.569	3313
905.686	3424
905.803	3469
905.921	3325
906.038	3439
906.155	3355
906.272	3272
906.389	3348
906.506	3237
906.623	3272
906.74	3310
906.857	3195
906.974	3336
907.091	3515
907.208	3564
907.324	3500
907.441	3382
907.557	3264
907.674	3233
907.79	3253
907.907	3272
908.023	3416
908.139	3378
908.256	3344
908.372	3378
908.488	3355
908.604	3325
908.72	3241
908.836	3287
908.952	3275
909.068	3332
909.184	3534
909.3	3393
909.415	3542
909.531	3473
909.647	3291
909.762	3317
909.878	3313
909.993	3428
910.108	3321
910.224	3367
910.339	3447
910.454	3363
910.57	3302
910.685	3241
910.8	3614
910.915	3564
911.03	3481
911.145	3325
911.259	3291
911.374	3310
911.489	3291
911.604	3203
911.718	3104
911.833	3176
911.947	3039
912.062	2990
912.176	3180
912.291	3211
912.405	3241
912.519	3481
912.633	3504
912.748	3389
912.862	3268
912.976	3203
913.09	3081
913.204	3138
913.318	3226
913.431	3367
913.545	3359
913.659	3428
913.772	3344
913.886	3222
914	3218
914.113	3405
914.226	3458
914.34	3363
914.453	3279
914.566	3412
914.68	3302
914.793	3348
914.906	3161
915.019	3093
915.132	3100
915.245	3180
915.358	3230
915.47	3203
915.583	3275
915.696	3313
915.809	3435
915.921	3481
916.034	3268
916.146	3310
916.259	3230
916.371	3405
916.483	3393
916.595	3283
916.708	3389
916.82	3355
916.932	3332
917.044	3351
917.156	3374
917.268	3268
917.38	3287
917.491	3321
917.603	3370
917.715	3447
917.826	3500
917.938	3393
918.049	3329
918.161	3428
918.272	3599
918.384	3599
918.495	3511
918.606	3336
918.717	3310
918.828	3382
918.939	3458
919.05	3340
919.161	3420
919.272	3211
919.383	3291
919.494	3504
919.604	3694
919.715	3496
919.826	3409
919.936	3492
920.047	3591
920.157	3561
920.267	3762
920.378	3644
920.488	3599
920.598	3781
920.708	3972
920.818	3827
920.928	3842
921.038	4055
921.148	3972
921.258	3720
921.368	3644
921.477	3603
921.587	3576
921.697	3477
921.806	3656
921.916	3572
922.025	3367
922.134	3378
922.244	3351
922.353	3447
922.462	3287
922.571	3237
922.68	3119
922.789	3070
922.898	3203
923.007	3135
923.116	3249
923.224	3192
923.333	3184
923.442	3119
923.55	3119
923.659	3108
923.767	3268
923.876	3138
923.984	3253
924.092	3100
924.201	3218
924.309	3241
924.417	3241
924.525	3211
924.633	3260
924.741	4192
924.849	3058
924.956	3283
925.064	3116
925.172	3108
925.279	3108
925.387	3188
925.494	3184
925.602	3386
925.709	3348
925.816	3218
925.924	3294
926.031	3367
926.138	3279
926.245	3386
926.352	3268
926.459	3450
926.566	3496
926.673	3329
926.779	3245
926.886	3268
926.993	3165
927.099	3165
927.206	3127
927.312	3157
927.419	3222
927.525	3233
927.631	3287
927.737	3165
927.843	3138
927.95	3013
928.056	3127
928.162	3176
928.267	3264
928.373	3911
928.479	3321
928.585	3100
928.69	3230
928.796	3321
928.901	3195
929.007	3039
929.112	3233
929.218	3214
929.323	3104
929.428	3169
929.533	3306
929.638	3123
929.743	3165
929.848	3264
929.953	3272
930.058	3165
930.163	2975
930.267	3093
930.372	3233
930.477	3047
930.581	3363
930.685	3199
930.79	3077
930.894	3127
930.998	3127
931.103	3313
931.207	2982
931.311	2967
931.415	2956
931.519	2830
931.623	2815
