Data from test_V78500241_1818.txt Node
Date: Fri Mar 25 16:27:47 CST 2022
User: usil
Spectrometer: V785-0024
Trigger mode: 0
Integration Time (sec): 4.000000E-1
Scans to average: 1
Nonlinearity correction enabled: false
Boxcar width: 0
Storing dark spectrum: false
XAxis mode: Wavelengths
Number of Pixels in Spectrum: 1024
>>>>>Begin Spectral Data<<<<<
801.071	2899
801.214	2944
801.356	2872
801.499	2906
801.641	2853
801.783	2948
801.926	3047
802.068	2982
802.211	3032
802.353	3085
802.496	2990
802.638	3024
802.78	3055
802.923	3081
803.065	3017
803.208	2842
803.35	2960
803.492	2929
803.635	2891
803.777	2754
803.919	2853
804.061	3173
804.204	2960
804.346	2906
804.488	2845
804.63	2994
804.773	2876
804.915	2937
805.057	3077
805.199	2918
805.341	2982
805.483	3062
805.626	3028
805.768	2994
805.91	3097
806.052	3119
806.194	3077
806.336	3245
806.478	3036
806.62	2952
806.762	2990
806.904	3074
807.046	3169
807.188	3020
807.33	2902
807.472	2994
807.614	2941
807.756	2979
807.898	2952
808.04	2944
808.182	3009
808.324	3013
808.465	2868
808.607	2922
808.749	2830
808.891	2883
809.033	2994
809.174	2994
809.316	2902
809.458	2910
809.6	2807
809.741	2781
809.883	2792
810.025	2834
810.166	2872
810.308	2849
810.45	2880
810.591	2788
810.733	2804
810.875	2853
811.016	2731
811.158	2750
811.299	2815
811.441	2975
811.582	2906
811.724	2845
811.865	2864
812.007	2956
812.148	2876
812.29	2872
812.431	2918
812.573	2941
812.714	2979
812.855	3017
812.997	3055
813.138	3135
813.279	3024
813.421	2963
813.562	3009
813.703	2929
813.845	2876
813.986	2773
814.127	2731
814.268	2807
814.41	2838
814.551	2792
814.692	2891
814.833	2819
814.974	2876
815.115	2967
815.256	2845
815.397	2804
815.539	2891
815.68	2788
815.821	2766
815.962	2963
816.103	2929
816.244	2872
816.385	2864
816.526	3009
816.666	2918
816.807	2750
816.948	2899
817.089	2910
817.23	2868
817.371	2781
817.512	2830
817.653	2857
817.793	2815
817.934	2883
818.075	2986
818.216	3001
818.356	3020
818.497	2876
818.638	2807
818.778	2815
818.919	2826
819.06	2754
819.2	2922
819.341	2815
819.481	2826
819.622	2902
819.762	3127
819.903	3066
820.043	2914
820.184	2891
820.324	2933
820.465	3020
820.605	3001
820.746	3043
820.886	2944
821.026	3119
821.167	3161
821.307	3275
821.447	3279
821.588	3249
821.728	3211
821.868	3154
822.008	3097
822.149	3150
822.289	3222
822.429	3081
822.569	3108
822.709	3176
822.849	3058
822.99	3036
823.13	3138
823.27	3218
823.41	3112
823.55	3176
823.69	3146
823.83	3203
823.97	3100
824.11	2998
824.25	3009
824.389	3089
824.529	3173
824.669	3058
824.809	3214
824.949	3283
825.089	3253
825.228	3188
825.368	3001
825.508	2975
825.648	2952
825.787	3036
825.927	3051
826.067	2952
826.206	2963
826.346	3066
826.485	3093
826.625	3081
826.765	3233
826.904	3226
827.044	3001
827.183	2910
827.323	2849
827.462	3017
827.601	2929
827.741	2937
827.88	2956
828.02	2834
828.159	3005
828.298	3043
828.437	3135
828.577	3039
828.716	3272
828.855	3081
828.994	2922
829.134	2891
829.273	2895
829.412	2868
829.551	2910
829.69	2891
829.829	3013
829.968	3131
830.107	3017
830.246	3039
830.385	2937
830.524	2883
830.663	2815
830.802	2739
830.941	2644
831.08	2659
831.219	2777
831.357	2750
831.496	2982
831.635	2739
831.774	2640
831.913	2689
832.051	2579
832.19	2575
832.329	2716
832.467	2533
832.606	2492
832.744	2610
832.883	2613
833.022	2594
833.16	2686
833.299	2708
833.437	2708
833.576	2705
833.714	2766
833.852	2743
833.991	2754
834.129	2830
834.267	2849
834.406	2800
834.544	2872
834.682	2868
834.821	2910
834.959	3043
835.097	2922
835.235	3089
835.373	3005
835.511	3009
835.65	2944
835.788	3001
835.926	2842
836.064	2788
836.202	2819
836.34	3051
836.478	3135
836.615	3077
836.753	3150
836.891	3230
837.029	3180
837.167	3127
837.305	3055
837.443	3047
837.58	2975
837.718	3127
837.856	3058
837.993	3020
838.131	3093
838.269	3081
838.406	3074
838.544	3127
838.681	2944
838.819	2899
838.956	2845
839.094	2849
839.231	2918
839.369	3009
839.506	3378
839.643	3214
839.781	3013
839.918	2960
840.055	3032
840.193	3036
840.33	3070
840.467	3116
840.604	3176
840.742	3435
840.879	3066
841.016	3039
841.153	3100
841.29	3351
841.427	3298
841.564	3268
841.701	3302
841.838	3249
841.975	3116
842.112	3184
842.249	3047
842.385	3017
842.522	3264
842.659	3100
842.796	3081
842.933	3108
843.069	3024
843.206	3055
843.343	3207
843.479	3119
843.616	3116
843.752	2895
843.889	2899
844.025	3085
844.162	2864
844.298	3077
844.435	2918
844.571	2872
844.708	3100
844.844	3180
844.98	3298
845.117	3180
845.253	3066
845.389	3032
845.525	3146
845.661	3058
845.798	2967
845.934	3150
846.07	3058
846.206	3249
846.342	3313
846.478	3195
846.614	3104
846.75	3024
846.886	3032
847.022	3180
847.158	3112
847.294	3188
847.429	3218
847.565	3214
847.701	3488
847.837	3032
847.972	2998
848.108	3169
848.244	3146
848.379	3017
848.515	2937
848.65	2948
848.786	2979
848.921	3009
849.057	3097
849.192	3138
849.328	3085
849.463	3112
849.598	3104
849.734	3058
849.869	2971
850.004	2914
850.14	2963
850.275	2899
850.41	2826
850.545	2857
850.68	2941
850.815	2994
850.95	2967
851.085	3169
851.22	3108
851.355	3062
851.49	3005
851.625	3020
851.76	3028
851.895	2933
852.03	2922
852.165	3051
852.299	3104
852.434	3195
852.569	3135
852.703	3165
852.838	3241
852.973	3332
853.107	3325
853.242	3180
853.376	3085
853.511	2960
853.645	2982
853.78	3233
853.914	3142
854.048	3119
854.183	3081
854.317	3116
854.451	3291
854.585	3123
854.72	3062
854.854	3184
854.988	3024
855.122	3097
855.256	3001
855.39	3112
855.524	3241
855.658	3176
855.792	3116
855.926	3161
856.06	3222
856.194	3272
856.327	3157
856.461	3074
856.595	3047
856.729	3085
856.862	3195
856.996	3157
857.13	3188
857.263	3199
857.397	3298
857.53	3081
857.664	3184
857.797	3214
857.931	3214
858.064	3161
858.197	3218
858.331	3138
858.464	3077
858.597	2994
858.731	3089
858.864	3112
858.997	3100
859.13	3150
859.263	3142
859.396	3184
859.529	3093
859.662	3055
859.795	3051
859.928	3142
860.061	3249
860.194	3275
860.327	3142
860.46	3097
860.592	3249
860.725	3275
860.858	3272
860.99	3142
861.123	3013
861.256	3020
861.388	3135
861.521	3888
861.653	3024
861.786	2979
861.918	3001
862.05	3055
862.183	3097
862.315	3127
862.447	3207
862.58	3104
862.712	2952
862.844	2849
862.976	2998
863.108	3009
863.24	3420
863.372	2868
863.504	2937
863.636	2975
863.768	3055
863.9	2971
864.032	2906
864.164	2975
864.296	3009
864.428	3062
864.559	3116
864.691	3074
864.823	3055
864.954	3001
865.086	2998
865.217	3017
865.349	2948
865.48	2986
865.612	3017
865.743	3131
865.875	2994
866.006	2933
866.137	2975
866.269	2948
866.4	2937
866.531	2948
866.662	2861
866.793	2861
866.924	2914
867.055	2998
867.186	2952
867.317	2872
867.448	2826
867.579	2842
867.71	2857
867.841	2815
867.972	2872
868.103	2937
868.233	2902
868.364	2880
868.495	2914
868.625	3058
868.756	3161
868.886	2948
869.017	3020
869.147	3169
869.278	3203
869.408	3047
869.539	3062
869.669	3089
869.799	3005
869.929	3100
870.06	3119
870.19	3329
870.32	3264
870.45	3313
870.58	3344
870.71	3439
870.84	3439
870.97	3256
871.1	3241
871.23	3450
871.36	3439
871.489	3348
871.619	3378
871.749	3412
871.879	3454
872.008	3473
872.138	3344
872.267	3264
872.397	3127
872.526	3085
872.656	3017
872.785	3089
872.915	3237
873.044	3275
873.173	3199
873.303	3211
873.432	3245
873.561	3199
873.69	3142
873.819	3161
873.948	3180
874.077	3070
874.206	3058
874.335	3074
874.464	3233
874.593	3351
874.722	3272
874.851	3420
874.979	3329
875.108	3321
875.237	3188
875.365	3123
875.494	3157
875.623	3249
875.751	3089
875.88	3104
876.008	3180
876.136	3207
876.265	3382
876.393	3504
876.521	3454
876.65	3397
876.778	3344
876.906	3218
877.034	3188
877.162	3245
877.29	3199
877.418	3237
877.546	3230
877.674	3214
877.802	3233
877.93	3260
878.058	3161
878.185	3112
878.313	3192
878.441	3192
878.568	3077
878.696	3165
878.824	3249
878.951	3260
879.079	3431
879.206	3618
879.333	3435
879.461	3321
879.588	3367
879.715	3492
879.842	3564
879.97	3386
880.097	3165
880.224	3127
880.351	3188
880.478	3199
880.605	3184
880.732	3192
880.859	3481
880.986	3256
881.112	3386
881.239	3199
881.366	3119
881.493	3036
881.619	3009
881.746	3093
881.872	3081
881.999	3055
882.125	3173
882.252	3272
882.378	3317
882.505	3416
882.631	3291
882.757	3165
882.883	3199
883.01	3230
883.136	3169
883.262	3089
883.388	3127
883.514	3302
883.64	3382
883.766	3336
883.892	3161
884.018	3226
884.143	3412
884.269	3553
884.395	3184
884.52	3150
884.646	3173
884.772	3127
884.897	3093
885.023	3218
885.148	3329
885.274	3386
885.399	3412
885.524	3283
885.65	3275
885.775	3294
885.9	3256
886.025	3424
886.15	3359
886.275	3253
886.4	3245
886.525	3348
886.65	3302
886.775	3241
886.9	3473
887.025	3603
887.149	3409
887.274	3256
887.399	3192
887.523	3195
887.648	3142
887.773	3192
887.897	3401
888.021	3363
888.146	3287
888.27	3424
888.395	3538
888.519	3450
888.643	3435
888.767	3481
888.891	3291
889.015	3272
889.139	3245
889.263	3222
889.387	3393
889.511	3496
889.635	3469
889.759	3287
889.883	3253
890.006	3351
890.13	3466
890.254	3272
890.377	3336
890.501	3173
890.624	3188
890.748	3256
890.871	3169
890.995	3077
891.118	3066
891.241	3188
891.364	3207
891.488	3325
891.611	3176
891.734	3169
891.857	3272
891.98	3241
892.103	3302
892.226	3256
892.349	3211
892.471	3100
892.594	3256
892.717	3279
892.839	3245
892.962	3302
893.085	3348
893.207	3272
893.33	3138
893.452	3192
893.575	3310
893.697	3253
893.819	3431
893.941	3523
894.064	3443
894.186	3253
894.308	3245
894.43	3412
894.552	3523
894.674	3450
894.796	3230
894.918	3310
895.04	3291
895.161	3454
895.283	3386
895.405	3294
895.526	3329
895.648	3454
895.769	3454
895.891	3477
896.012	3469
896.134	3458
896.255	3389
896.376	3382
896.498	3363
896.619	3424
896.74	3340
896.861	3397
896.982	3644
897.103	3842
897.224	3629
897.345	3473
897.466	3405
897.587	3500
897.708	3625
897.828	3580
897.949	3405
898.07	3332
898.19	3329
898.311	3580
898.431	3393
898.552	3511
898.672	3564
898.792	3561
898.913	3523
899.033	3424
899.153	3302
899.273	3245
899.393	3287
899.513	3363
899.633	3298
899.753	3367
899.873	3272
899.993	3393
900.113	3268
900.232	3386
900.352	3370
900.472	3310
900.591	3233
900.711	3310
900.83	3253
900.95	3378
901.069	3488
901.189	3351
901.308	3127
901.427	3112
901.546	3195
901.665	3272
901.784	3279
901.904	3230
902.023	3123
902.141	3020
902.26	2986
902.379	3173
902.498	3104
902.617	3039
902.735	3199
902.854	3230
902.973	3165
903.091	3051
903.21	3051
903.328	3089
903.446	3157
903.565	3119
903.683	3199
903.801	3123
903.919	3283
904.038	3294
904.156	3150
904.274	3306
904.392	3275
904.51	3268
904.627	3340
904.745	3454
904.863	3485
904.981	3287
905.098	3188
905.216	3237
905.334	3298
905.451	3332
905.569	3325
905.686	3431
905.803	3447
905.921	3283
906.038	3401
906.155	3348
906.272	3313
906.389	3351
906.506	3268
906.623	3218
906.74	3298
906.857	3203
906.974	3230
907.091	3412
907.208	3572
907.324	3469
907.441	3374
907.557	3173
907.674	3230
907.79	3226
907.907	3313
908.023	3393
908.139	3336
908.256	3275
908.372	3370
908.488	3321
908.604	3230
908.72	3275
908.836	3260
908.952	3279
909.068	3348
909.184	3477
909.3	3397
909.415	3492
909.531	3473
909.647	3260
909.762	3283
909.878	3230
909.993	3367
910.108	3317
910.224	3313
910.339	3393
910.454	3336
910.57	3283
910.685	3230
910.8	3599
910.915	3545
911.03	3435
911.145	3249
911.259	3260
911.374	3302
911.489	3253
911.604	3279
911.718	3119
911.833	3150
911.947	3055
912.062	2986
912.176	3161
912.291	3195
912.405	3211
912.519	3450
912.633	3462
912.748	3348
912.862	3268
912.976	3169
913.09	3039
913.204	3138
913.318	3222
913.431	3363
913.545	3332
913.659	3428
913.772	3283
913.886	3199
914	3249
914.113	3363
914.226	3401
914.34	3348
914.453	3180
914.566	3416
914.68	3272
914.793	3302
914.906	3131
915.019	3116
915.132	3051
915.245	3192
915.358	3176
915.47	3245
915.583	3249
915.696	3279
915.809	3397
915.921	3405
916.034	3241
916.146	3233
916.259	3207
916.371	3405
916.483	3351
916.595	3241
916.708	3329
916.82	3317
916.932	3329
917.044	3359
917.156	3374
917.268	3230
917.38	3279
917.491	3291
917.603	3374
917.715	3447
917.826	3450
917.938	3386
918.049	3283
918.161	3428
918.272	3606
918.384	3534
918.495	3496
918.606	3325
918.717	3260
918.828	3351
918.939	3416
919.05	3302
919.161	3374
919.272	3173
919.383	3272
919.494	3485
919.604	3663
919.715	3462
919.826	3439
919.936	3496
920.047	3614
920.157	3534
920.267	3789
920.378	3591
920.488	3561
920.598	3762
920.708	3968
920.818	3831
920.928	3838
921.038	4002
921.148	3991
921.258	3724
921.368	3690
921.477	3576
921.587	3473
921.697	3443
921.806	3584
921.916	3500
922.025	3329
922.134	3378
922.244	3325
922.353	3450
922.462	3256
922.571	3211
922.68	3112
922.789	3047
922.898	3123
923.007	3081
923.116	3199
923.224	3169
923.333	3207
923.442	3085
923.55	3104
923.659	3150
923.767	3211
923.876	3085
923.984	3245
924.092	3085
924.201	3161
924.309	3192
924.417	3249
924.525	3184
924.633	3241
924.741	4185
924.849	3039
924.956	3233
925.064	3104
925.172	3074
925.279	3135
925.387	3214
925.494	3199
925.602	3355
925.709	3264
925.816	3195
925.924	3264
926.031	3374
926.138	3279
926.245	3389
926.352	3237
926.459	3378
926.566	3481
926.673	3340
926.779	3245
926.886	3302
926.993	3150
927.099	3138
927.206	3100
927.312	3089
927.419	3260
927.525	3203
927.631	3291
927.737	3180
927.843	3138
927.95	3081
928.056	3127
928.162	3195
928.267	3256
928.373	3766
928.479	3294
928.585	3077
928.69	3218
928.796	3287
928.901	3123
929.007	3058
929.112	3180
929.218	3138
929.323	3150
929.428	3150
929.533	3294
929.638	3104
929.743	3176
929.848	3279
929.953	3173
930.058	3180
930.163	3005
930.267	3005
930.372	3195
930.477	3036
930.581	3325
930.685	3214
930.79	3085
930.894	3077
930.998	3127
931.103	3275
931.207	2941
931.311	2933
931.415	2925
931.519	2769
931.623	2815
