Data from test_V78500241_1909.txt Node
Date: Fri Mar 25 16:28:25 CST 2022
User: usil
Spectrometer: V785-0024
Trigger mode: 0
Integration Time (sec): 4.000000E-1
Scans to average: 1
Nonlinearity correction enabled: false
Boxcar width: 0
Storing dark spectrum: false
XAxis mode: Wavelengths
Number of Pixels in Spectrum: 1024
>>>>>Begin Spectral Data<<<<<
801.071	2941
801.214	2933
801.356	2891
801.499	2956
801.641	2899
801.783	2937
801.926	3074
802.068	2998
802.211	3017
802.353	3017
802.496	2979
802.638	3001
802.78	3043
802.923	3100
803.065	2994
803.208	2895
803.35	2914
803.492	2967
803.635	2933
803.777	2773
803.919	2906
804.061	3237
804.204	2944
804.346	2929
804.488	2857
804.63	2979
804.773	2857
804.915	2910
805.057	3146
805.199	2910
805.341	2971
805.483	3055
805.626	3001
805.768	2994
805.91	3093
806.052	3123
806.194	3043
806.336	3218
806.478	3036
806.62	2971
806.762	2998
806.904	3074
807.046	3146
807.188	2994
807.33	2929
807.472	2986
807.614	2922
807.756	2979
807.898	2925
808.04	2895
808.182	2979
808.324	2944
808.465	2910
808.607	2906
808.749	2826
808.891	2883
809.033	3024
809.174	2990
809.316	2902
809.458	2929
809.6	2766
809.741	2769
809.883	2777
810.025	2902
810.166	2868
810.308	2857
810.45	2853
810.591	2785
810.733	2777
810.875	2807
811.016	2766
811.158	2807
811.299	2842
811.441	2933
811.582	2880
811.724	2838
811.865	2815
812.007	2899
812.148	2918
812.29	2880
812.431	2922
812.573	2944
812.714	2982
812.855	3051
812.997	3055
813.138	3119
813.279	3032
813.421	3001
813.562	2944
813.703	2925
813.845	2895
813.986	2815
814.127	2735
814.268	2842
814.41	2823
814.551	2804
814.692	2876
814.833	2804
814.974	2895
815.115	2952
815.256	2815
815.397	2826
815.539	2895
815.68	2762
815.821	2766
815.962	2948
816.103	2914
816.244	2880
816.385	2864
816.526	2982
816.666	2918
816.807	2739
816.948	2902
817.089	2864
817.23	2857
817.371	2781
817.512	2823
817.653	2811
817.793	2857
817.934	2918
818.075	2971
818.216	2994
818.356	3055
818.497	2880
818.638	2804
818.778	2815
818.919	2796
819.06	2739
819.2	2868
819.341	2800
819.481	2800
819.622	2925
819.762	3093
819.903	3070
820.043	2887
820.184	2902
820.324	2891
820.465	2998
820.605	2994
820.746	3055
820.886	2956
821.026	3123
821.167	3176
821.307	3283
821.447	3256
821.588	3249
821.728	3241
821.868	3176
822.008	3089
822.149	3230
822.289	3245
822.429	3119
822.569	3097
822.709	3192
822.849	3074
822.99	3100
823.13	3176
823.27	3207
823.41	3123
823.55	3142
823.69	3138
823.83	3199
823.97	3112
824.11	3032
824.25	3036
824.389	3085
824.529	3127
824.669	3100
824.809	3279
824.949	3283
825.089	3214
825.228	3203
825.368	3066
825.508	2967
825.648	3001
825.787	3070
825.927	3043
826.067	3024
826.206	2986
826.346	3104
826.485	3127
826.625	3161
826.765	3294
826.904	3249
827.044	3039
827.183	2998
827.323	2922
827.462	3055
827.601	2952
827.741	3001
827.88	3009
828.02	2906
828.159	2990
828.298	3062
828.437	3157
828.577	3085
828.716	3264
828.855	3093
828.994	2941
829.134	2891
829.273	2967
829.412	2891
829.551	2906
829.69	2960
829.829	3020
829.968	3203
830.107	3047
830.246	3047
830.385	2960
830.524	2880
830.663	2830
830.802	2777
830.941	2739
831.08	2674
831.219	2804
831.357	2811
831.496	2967
831.635	2766
831.774	2697
831.913	2743
832.051	2621
832.19	2651
832.329	2739
832.467	2583
832.606	2526
832.744	2625
832.883	2621
833.022	2606
833.16	2708
833.299	2720
833.437	2724
833.576	2739
833.714	2773
833.852	2746
833.991	2796
834.129	2880
834.267	2880
834.406	2819
834.544	2944
834.682	2952
834.821	2899
834.959	3100
835.097	2922
835.235	3138
835.373	3020
835.511	3055
835.65	2986
835.788	2975
835.926	2849
836.064	2819
836.202	2910
836.34	3150
836.478	3180
836.615	3081
836.753	3161
836.891	3233
837.029	3203
837.167	3165
837.305	3089
837.443	3081
837.58	2994
837.718	3180
837.856	3119
837.993	3047
838.131	3150
838.269	3135
838.406	3108
838.544	3119
838.681	2963
838.819	2948
838.956	2845
839.094	2857
839.231	2941
839.369	3047
839.506	3374
839.643	3294
839.781	3089
839.918	2986
840.055	3108
840.193	3100
840.33	3100
840.467	3123
840.604	3195
840.742	3443
840.879	3070
841.016	3081
841.153	3112
841.29	3329
841.427	3329
841.564	3313
841.701	3317
841.838	3272
841.975	3222
842.112	3237
842.249	3108
842.385	3112
842.522	3283
842.659	3116
842.796	3070
842.933	3119
843.069	3089
843.206	3077
843.343	3169
843.479	3154
843.616	3135
843.752	2960
843.889	2876
844.025	3085
844.162	2895
844.298	3112
844.435	2975
844.571	2937
844.708	3081
844.844	3226
844.98	3241
845.117	3188
845.253	3089
845.389	3024
845.525	3112
845.661	3116
845.798	3051
845.934	3138
846.07	3077
846.206	3222
846.342	3363
846.478	3249
846.614	3127
846.75	3119
846.886	3051
847.022	3275
847.158	3188
847.294	3230
847.429	3253
847.565	3260
847.701	3530
847.837	3024
847.972	3036
848.108	3214
848.244	3180
848.379	3009
848.515	2944
848.65	2967
848.786	3005
848.921	3062
849.057	3150
849.192	3180
849.328	3093
849.463	3123
849.598	3066
849.734	3081
849.869	3005
850.004	2948
850.14	2990
850.275	2937
850.41	2906
850.545	2933
850.68	2963
850.815	2967
850.95	2979
851.085	3218
851.22	3119
851.355	3058
851.49	3036
851.625	3043
851.76	3085
851.895	2994
852.03	2971
852.165	3055
852.299	3127
852.434	3222
852.569	3176
852.703	3188
852.838	3279
852.973	3363
853.107	3359
853.242	3192
853.376	3093
853.511	3013
853.645	3097
853.78	3291
853.914	3146
854.048	3142
854.183	3093
854.317	3146
854.451	3310
854.585	3184
854.72	3112
854.854	3218
854.988	3081
855.122	3127
855.256	3009
855.39	3169
855.524	3218
855.658	3207
855.792	3184
855.926	3195
856.06	3256
856.194	3275
856.327	3188
856.461	3074
856.595	3085
856.729	3112
856.862	3256
856.996	3180
857.13	3222
857.263	3279
857.397	3279
857.53	3127
857.664	3253
857.797	3264
857.931	3253
858.064	3195
858.197	3241
858.331	3131
858.464	3089
858.597	3013
858.731	3127
858.864	3157
858.997	3070
859.13	3203
859.263	3211
859.396	3233
859.529	3112
859.662	3135
859.795	3062
859.928	3199
860.061	3291
860.194	3279
860.327	3157
860.46	3138
860.592	3256
860.725	3294
860.858	3260
860.99	3116
861.123	3093
861.256	3077
861.388	3192
861.521	3835
861.653	3058
861.786	3001
861.918	2986
862.05	3085
862.183	3127
862.315	3154
862.447	3237
862.58	3108
862.712	2979
862.844	2883
862.976	3047
863.108	3051
863.24	3332
863.372	2922
863.504	2990
863.636	2986
863.768	3062
863.9	3017
864.032	2982
864.164	2933
864.296	3043
864.428	3077
864.559	3085
864.691	3077
864.823	3085
864.954	3032
865.086	3043
865.217	3028
865.349	2925
865.48	3020
865.612	3039
865.743	3127
865.875	2982
866.006	2944
866.137	2975
866.269	2948
866.4	2922
866.531	2944
866.662	2933
866.793	2918
866.924	2918
867.055	2990
867.186	2929
867.317	2895
867.448	2868
867.579	2887
867.71	2842
867.841	2853
867.972	2933
868.103	2914
868.233	2883
868.364	2914
868.495	2941
868.625	3074
868.756	3180
868.886	2990
869.017	3017
869.147	3207
869.278	3203
869.408	3077
869.539	3062
869.669	3119
869.799	3081
869.929	3154
870.06	3131
870.19	3317
870.32	3336
870.45	3279
870.58	3359
870.71	3496
870.84	3477
870.97	3367
871.1	3260
871.23	3561
871.36	3488
871.489	3359
871.619	3393
871.749	3409
871.879	3439
872.008	3496
872.138	3340
872.267	3291
872.397	3188
872.526	3127
872.656	3039
872.785	3131
872.915	3260
873.044	3317
873.173	3233
873.303	3268
873.432	3260
873.561	3222
873.69	3180
873.819	3184
873.948	3203
874.077	3135
874.206	3070
874.335	3100
874.464	3233
874.593	3393
874.722	3275
874.851	3412
874.979	3355
875.108	3370
875.237	3222
875.365	3211
875.494	3192
875.623	3298
875.751	3161
875.88	3127
876.008	3188
876.136	3249
876.265	3386
876.393	3526
876.521	3447
876.65	3378
876.778	3386
876.906	3317
877.034	3195
877.162	3230
877.29	3165
877.418	3272
877.546	3230
877.674	3310
877.802	3230
877.93	3226
878.058	3180
878.185	3112
878.313	3203
878.441	3214
878.568	3127
878.696	3192
878.824	3260
878.951	3351
879.079	3447
879.206	3637
879.333	3405
879.461	3329
879.588	3389
879.715	3511
879.842	3625
879.97	3386
880.097	3150
880.224	3161
880.351	3230
880.478	3218
880.605	3207
880.732	3222
880.859	3477
880.986	3325
881.112	3393
881.239	3214
881.366	3100
881.493	3047
881.619	3013
881.746	3100
881.872	3135
881.999	3108
882.125	3161
882.252	3253
882.378	3283
882.505	3439
882.631	3237
882.757	3180
882.883	3245
883.01	3260
883.136	3161
883.262	3085
883.388	3154
883.514	3336
883.64	3397
883.766	3302
883.892	3195
884.018	3256
884.143	3405
884.269	3572
884.395	3211
884.52	3180
884.646	3188
884.772	3138
884.897	3100
885.023	3211
885.148	3351
885.274	3416
885.399	3374
885.524	3306
885.65	3260
885.775	3359
885.9	3279
886.025	3485
886.15	3370
886.275	3291
886.4	3275
886.525	3325
886.65	3294
886.775	3272
886.9	3515
887.025	3629
887.149	3393
887.274	3241
887.399	3222
887.523	3222
887.648	3203
887.773	3199
887.897	3370
888.021	3428
888.146	3313
888.27	3428
888.395	3542
888.519	3431
888.643	3420
888.767	3481
888.891	3317
889.015	3275
889.139	3344
889.263	3272
889.387	3420
889.511	3526
889.635	3450
889.759	3279
889.883	3294
890.006	3374
890.13	3492
890.254	3317
890.377	3344
890.501	3184
890.624	3222
890.748	3306
890.871	3203
890.995	3127
891.118	3070
891.241	3207
891.364	3233
891.488	3329
891.611	3230
891.734	3188
891.857	3298
891.98	3253
892.103	3359
892.226	3313
892.349	3253
892.471	3127
892.594	3275
892.717	3291
892.839	3279
892.962	3321
893.085	3370
893.207	3283
893.33	3173
893.452	3222
893.575	3298
893.697	3249
893.819	3488
893.941	3511
894.064	3477
894.186	3256
894.308	3256
894.43	3428
894.552	3530
894.674	3500
894.796	3264
894.918	3344
895.04	3283
895.161	3393
895.283	3420
895.405	3287
895.526	3370
895.648	3431
895.769	3416
895.891	3481
896.012	3500
896.134	3469
896.255	3447
896.376	3409
896.498	3348
896.619	3431
896.74	3389
896.861	3420
896.982	3686
897.103	3819
897.224	3618
897.345	3504
897.466	3443
897.587	3530
897.708	3648
897.828	3606
897.949	3492
898.07	3298
898.19	3397
898.311	3629
898.431	3466
898.552	3549
898.672	3610
898.792	3595
898.913	3526
899.033	3363
899.153	3294
899.273	3237
899.393	3294
899.513	3298
899.633	3306
899.753	3344
899.873	3317
899.993	3378
900.113	3340
900.232	3363
900.352	3359
900.472	3287
900.591	3241
900.711	3310
900.83	3275
900.95	3401
901.069	3511
901.189	3348
901.308	3192
901.427	3146
901.546	3222
901.665	3306
901.784	3351
901.904	3253
902.023	3150
902.141	3020
902.26	3013
902.379	3165
902.498	3093
902.617	3085
902.735	3249
902.854	3256
902.973	3180
903.091	3097
903.21	3051
903.328	3146
903.446	3150
903.565	3074
903.683	3237
903.801	3146
903.919	3241
904.038	3264
904.156	3192
904.274	3283
904.392	3230
904.51	3294
904.627	3302
904.745	3454
904.863	3485
904.981	3275
905.098	3169
905.216	3256
905.334	3298
905.451	3336
905.569	3287
905.686	3393
905.803	3431
905.921	3306
906.038	3443
906.155	3359
906.272	3287
906.389	3329
906.506	3256
906.623	3241
906.74	3283
906.857	3233
906.974	3272
907.091	3450
907.208	3549
907.324	3477
907.441	3397
907.557	3233
907.674	3207
907.79	3260
907.907	3264
908.023	3359
908.139	3378
908.256	3329
908.372	3389
908.488	3355
908.604	3230
908.72	3211
908.836	3253
908.952	3287
909.068	3275
909.184	3488
909.3	3382
909.415	3488
909.531	3538
909.647	3272
909.762	3291
909.878	3272
909.993	3355
910.108	3355
910.224	3351
910.339	3439
910.454	3310
910.57	3294
910.685	3279
910.8	3595
910.915	3523
911.03	3458
911.145	3268
911.259	3283
911.374	3325
911.489	3241
911.604	3253
911.718	3119
911.833	3161
911.947	3024
912.062	3032
912.176	3203
912.291	3184
912.405	3211
912.519	3424
912.633	3519
912.748	3306
912.862	3260
912.976	3199
913.09	3097
913.204	3135
913.318	3226
913.431	3313
913.545	3336
913.659	3424
913.772	3340
913.886	3241
914	3184
914.113	3386
914.226	3409
914.34	3389
914.453	3184
914.566	3412
914.68	3340
914.793	3310
914.906	3176
915.019	3077
915.132	3077
915.245	3150
915.358	3218
915.47	3249
915.583	3321
915.696	3249
915.809	3405
915.921	3450
916.034	3203
916.146	3260
916.259	3195
916.371	3401
916.483	3386
916.595	3291
916.708	3310
916.82	3344
916.932	3355
917.044	3325
917.156	3348
917.268	3279
917.38	3321
917.491	3355
917.603	3405
917.715	3443
917.826	3454
917.938	3382
918.049	3253
918.161	3412
918.272	3572
918.384	3610
918.495	3492
918.606	3306
918.717	3313
918.828	3386
918.939	3416
919.05	3313
919.161	3348
919.272	3165
919.383	3279
919.494	3462
919.604	3690
919.715	3488
919.826	3439
919.936	3462
920.047	3599
920.157	3557
920.267	3827
920.378	3591
920.488	3587
920.598	3762
920.708	3975
920.818	3838
920.928	3857
921.038	4036
921.148	4017
921.258	3705
921.368	3618
921.477	3549
921.587	3530
921.697	3473
921.806	3656
921.916	3492
922.025	3401
922.134	3355
922.244	3310
922.353	3389
922.462	3260
922.571	3233
922.68	3123
922.789	3062
922.898	3157
923.007	3131
923.116	3199
923.224	3184
923.333	3207
923.442	3104
923.55	3104
923.659	3176
923.767	3245
923.876	3127
923.984	3237
924.092	3135
924.201	3180
924.309	3218
924.417	3272
924.525	3165
924.633	3222
924.741	4036
924.849	3043
924.956	3287
925.064	3085
925.172	3062
925.279	3085
925.387	3180
925.494	3180
925.602	3374
925.709	3336
925.816	3207
925.924	3291
926.031	3389
926.138	3283
926.245	3325
926.352	3313
926.459	3424
926.566	3492
926.673	3332
926.779	3264
926.886	3237
926.993	3173
927.099	3138
927.206	3104
927.312	3119
927.419	3256
927.525	3165
927.631	3294
927.737	3154
927.843	3142
927.95	3024
928.056	3142
928.162	3169
928.267	3226
928.373	3876
928.479	3306
928.585	3051
928.69	3241
928.796	3272
928.901	3184
929.007	3074
929.112	3176
929.218	3146
929.323	3176
929.428	3119
929.533	3325
929.638	3135
929.743	3184
929.848	3218
929.953	3203
930.058	3135
930.163	2982
930.267	3039
930.372	3230
930.477	3070
930.581	3329
930.685	3154
930.79	3070
930.894	3127
930.998	3116
931.103	3237
931.207	2956
931.311	2941
931.415	2891
931.519	2804
931.623	2796
