Data from test_V78500241_598.txt Node
Date: Fri Mar 25 16:19:20 CST 2022
User: usil
Spectrometer: V785-0024
Trigger mode: 0
Integration Time (sec): 4.000000E-1
Scans to average: 1
Nonlinearity correction enabled: false
Boxcar width: 0
Storing dark spectrum: false
XAxis mode: Wavelengths
Number of Pixels in Spectrum: 1024
>>>>>Begin Spectral Data<<<<<
801.071	2960
801.214	2975
801.356	2883
801.499	2929
801.641	2941
801.783	2948
801.926	3108
802.068	2990
802.211	3001
802.353	3070
802.496	2994
802.638	3089
802.78	3074
802.923	3074
803.065	3036
803.208	2922
803.35	2956
803.492	2990
803.635	3009
803.777	2777
803.919	2887
804.061	3272
804.204	2979
804.346	2937
804.488	2864
804.63	3039
804.773	2922
804.915	2956
805.057	3116
805.199	2929
805.341	2998
805.483	3066
805.626	2994
805.768	2994
805.91	3108
806.052	3135
806.194	3055
806.336	3264
806.478	3055
806.62	2963
806.762	3005
806.904	3066
807.046	3192
807.188	3036
807.33	2933
807.472	2990
807.614	2937
807.756	2982
807.898	2925
808.04	2899
808.182	3013
808.324	3005
808.465	2887
808.607	2929
808.749	2804
808.891	2861
809.033	3005
809.174	2982
809.316	2895
809.458	2918
809.6	2758
809.741	2823
809.883	2815
810.025	2861
810.166	2842
810.308	2830
810.45	2906
810.591	2788
810.733	2792
810.875	2849
811.016	2750
811.158	2823
811.299	2823
811.441	2967
811.582	2883
811.724	2819
811.865	2830
812.007	2914
812.148	2914
812.29	2887
812.431	2941
812.573	2971
812.714	2990
812.855	3058
812.997	3055
813.138	3119
813.279	3013
813.421	3020
813.562	2998
813.703	2880
813.845	2887
813.986	2792
814.127	2800
814.268	2857
814.41	2861
814.551	2823
814.692	2876
814.833	2842
814.974	2918
815.115	2971
815.256	2845
815.397	2826
815.539	2880
815.68	2773
815.821	2796
815.962	2986
816.103	2979
816.244	2902
816.385	2887
816.526	2994
816.666	2952
816.807	2800
816.948	2910
817.089	2941
817.23	2899
817.371	2792
817.512	2830
817.653	2826
817.793	2823
817.934	2891
818.075	3013
818.216	2982
818.356	3039
818.497	2887
818.638	2807
818.778	2830
818.919	2781
819.06	2785
819.2	2864
819.341	2838
819.481	2800
819.622	2952
819.762	3131
819.903	3051
820.043	2967
820.184	2937
820.324	2910
820.465	2994
820.605	3020
820.746	3039
820.886	2944
821.026	3085
821.167	3176
821.307	3253
821.447	3279
821.588	3230
821.728	3222
821.868	3195
822.008	3097
822.149	3222
822.289	3222
822.429	3039
822.569	3093
822.709	3203
822.849	3028
822.99	3116
823.13	3165
823.27	3192
823.41	3127
823.55	3173
823.69	3173
823.83	3207
823.97	3119
824.11	3020
824.25	2982
824.389	3062
824.529	3108
824.669	3093
824.809	3226
824.949	3294
825.089	3237
825.228	3169
825.368	3001
825.508	2982
825.648	3001
825.787	2986
825.927	3047
826.067	2979
826.206	2971
826.346	3039
826.485	3089
826.625	3127
826.765	3253
826.904	3180
827.044	3024
827.183	2937
827.323	2895
827.462	3005
827.601	2906
827.741	2952
827.88	2944
828.02	2872
828.159	2990
828.298	3055
828.437	3108
828.577	3036
828.716	3249
828.855	3062
828.994	2956
829.134	2891
829.273	2922
829.412	2883
829.551	2902
829.69	2922
829.829	2990
829.968	3119
830.107	3001
830.246	3062
830.385	2941
830.524	2887
830.663	2834
830.802	2754
830.941	2644
831.08	2663
831.219	2769
831.357	2773
831.496	2948
831.635	2773
831.774	2644
831.913	2640
832.051	2587
832.19	2571
832.329	2689
832.467	2590
832.606	2492
832.744	2598
832.883	2579
833.022	2564
833.16	2663
833.299	2701
833.437	2720
833.576	2720
833.714	2750
833.852	2724
833.991	2777
834.129	2830
834.267	2861
834.406	2807
834.544	2899
834.682	2891
834.821	2868
834.959	3066
835.097	2910
835.235	3036
835.373	2956
835.511	3013
835.65	2948
835.788	2979
835.926	2891
836.064	2834
836.202	2819
836.34	3104
836.478	3184
836.615	3074
836.753	3127
836.891	3195
837.029	3195
837.167	3119
837.305	3074
837.443	3039
837.58	2986
837.718	3150
837.856	3074
837.993	3001
838.131	3131
838.269	3089
838.406	3097
838.544	3085
838.681	2948
838.819	2910
838.956	2796
839.094	2838
839.231	2914
839.369	3017
839.506	3428
839.643	3241
839.781	3013
839.918	2994
840.055	3036
840.193	3074
840.33	3100
840.467	3085
840.604	3161
840.742	3416
840.879	3074
841.016	3043
841.153	3154
841.29	3340
841.427	3287
841.564	3241
841.701	3325
841.838	3176
841.975	3195
842.112	3226
842.249	3055
842.385	3039
842.522	3275
842.659	3074
842.796	3089
842.933	3093
843.069	3043
843.206	3043
843.343	3207
843.479	3112
843.616	3127
843.752	2902
843.889	2918
844.025	3066
844.162	2895
844.298	3058
844.435	2929
844.571	2902
844.708	3081
844.844	3192
844.98	3222
845.117	3184
845.253	3066
845.389	3039
845.525	3077
845.661	3119
845.798	3024
845.934	3123
846.07	3062
846.206	3230
846.342	3370
846.478	3230
846.614	3100
846.75	3047
846.886	2998
847.022	3249
847.158	3150
847.294	3188
847.429	3226
847.565	3199
847.701	3504
847.837	3036
847.972	3005
848.108	3154
848.244	3157
848.379	2975
848.515	2967
848.65	2914
848.786	3001
848.921	2994
849.057	3119
849.192	3142
849.328	3081
849.463	3104
849.598	3089
849.734	3017
849.869	2998
850.004	2887
850.14	2998
850.275	2910
850.41	2830
850.545	2864
850.68	2963
850.815	2925
850.95	2998
851.085	3165
851.22	3089
851.355	2998
851.49	2990
851.625	2971
851.76	3058
851.895	2975
852.03	2906
852.165	3047
852.299	3097
852.434	3207
852.569	3161
852.703	3218
852.838	3275
852.973	3321
853.107	3336
853.242	3123
853.376	3108
853.511	2975
853.645	3028
853.78	3226
853.914	3116
854.048	3104
854.183	3055
854.317	3154
854.451	3313
854.585	3104
854.72	3142
854.854	3226
854.988	3070
855.122	3093
855.256	2963
855.39	3150
855.524	3218
855.658	3218
855.792	3165
855.926	3180
856.06	3192
856.194	3268
856.327	3150
856.461	3051
856.595	3055
856.729	3093
856.862	3199
856.996	3157
857.13	3253
857.263	3237
857.397	3256
857.53	3142
857.664	3195
857.797	3203
857.931	3287
858.064	3154
858.197	3253
858.331	3123
858.464	3108
858.597	3013
858.731	3116
858.864	3119
858.997	3039
859.13	3154
859.263	3207
859.396	3233
859.529	3093
859.662	3070
859.795	3051
859.928	3154
860.061	3256
860.194	3275
860.327	3161
860.46	3085
860.592	3253
860.725	3218
860.858	3253
860.99	3093
861.123	3058
861.256	3051
861.388	3135
861.521	3698
861.653	2975
861.786	3017
861.918	3017
862.05	3093
862.183	3100
862.315	3127
862.447	3207
862.58	3081
862.712	2963
862.844	2872
862.976	3039
863.108	3013
863.24	3405
863.372	2891
863.504	2960
863.636	2933
863.768	3036
863.9	2967
864.032	2922
864.164	2971
864.296	3001
864.428	3085
864.559	3097
864.691	3081
864.823	3062
864.954	3017
865.086	3017
865.217	2982
865.349	2933
865.48	2990
865.612	3013
865.743	3180
865.875	3009
866.006	2963
866.137	2971
866.269	2963
866.4	2929
866.531	2925
866.662	2864
866.793	2853
866.924	2902
867.055	2971
867.186	2944
867.317	2872
867.448	2834
867.579	2838
867.71	2823
867.841	2830
867.972	2910
868.103	2937
868.233	2857
868.364	2872
868.495	2922
868.625	3058
868.756	3154
868.886	2986
869.017	3013
869.147	3207
869.278	3146
869.408	3032
869.539	3047
869.669	3081
869.799	3028
869.929	3154
870.06	3081
870.19	3340
870.32	3272
870.45	3317
870.58	3367
870.71	3431
870.84	3458
870.97	3302
871.1	3184
871.23	3447
871.36	3458
871.489	3359
871.619	3412
871.749	3370
871.879	3439
872.008	3485
872.138	3359
872.267	3310
872.397	3112
872.526	3104
872.656	2998
872.785	3089
872.915	3237
873.044	3313
873.173	3237
873.303	3264
873.432	3233
873.561	3218
873.69	3165
873.819	3108
873.948	3165
874.077	3093
874.206	3055
874.335	3104
874.464	3207
874.593	3359
874.722	3253
874.851	3374
874.979	3332
875.108	3287
875.237	3226
875.365	3146
875.494	3138
875.623	3211
875.751	3074
875.88	3112
876.008	3173
876.136	3207
876.265	3351
876.393	3492
876.521	3412
876.65	3428
876.778	3302
876.906	3279
877.034	3214
877.162	3222
877.29	3184
877.418	3237
877.546	3233
877.674	3237
877.802	3195
877.93	3203
878.058	3165
878.185	3085
878.313	3195
878.441	3222
878.568	3066
878.696	3135
878.824	3233
878.951	3287
879.079	3462
879.206	3572
879.333	3416
879.461	3363
879.588	3367
879.715	3492
879.842	3587
879.97	3332
880.097	3150
880.224	3142
880.351	3199
880.478	3222
880.605	3211
880.732	3161
880.859	3485
880.986	3306
881.112	3325
881.239	3180
881.366	3112
881.493	2998
881.619	3001
881.746	3074
881.872	3100
881.999	3074
882.125	3112
882.252	3230
882.378	3294
882.505	3420
882.631	3294
882.757	3161
882.883	3203
883.01	3230
883.136	3192
883.262	3116
883.388	3157
883.514	3344
883.64	3351
883.766	3275
883.892	3203
884.018	3245
884.143	3386
884.269	3542
884.395	3214
884.52	3188
884.646	3180
884.772	3146
884.897	3100
885.023	3199
885.148	3313
885.274	3389
885.399	3363
885.524	3272
885.65	3245
885.775	3294
885.9	3291
886.025	3428
886.15	3359
886.275	3298
886.4	3214
886.525	3279
886.65	3287
886.775	3294
886.9	3458
887.025	3663
887.149	3359
887.274	3245
887.399	3138
887.523	3146
887.648	3188
887.773	3180
887.897	3378
888.021	3393
888.146	3321
888.27	3412
888.395	3511
888.519	3393
888.643	3447
888.767	3439
888.891	3298
889.015	3222
889.139	3291
889.263	3241
889.387	3401
889.511	3538
889.635	3469
889.759	3298
889.883	3279
890.006	3393
890.13	3488
890.254	3268
890.377	3355
890.501	3192
890.624	3192
890.748	3302
890.871	3192
890.995	3093
891.118	3070
891.241	3184
891.364	3203
891.488	3340
891.611	3161
891.734	3233
891.857	3291
891.98	3233
892.103	3325
892.226	3283
892.349	3199
892.471	3135
892.594	3218
892.717	3294
892.839	3253
892.962	3260
893.085	3348
893.207	3283
893.33	3127
893.452	3203
893.575	3370
893.697	3253
893.819	3469
893.941	3488
894.064	3496
894.186	3287
894.308	3268
894.43	3412
894.552	3523
894.674	3492
894.796	3264
894.918	3313
895.04	3287
895.161	3386
895.283	3386
895.405	3344
895.526	3317
895.648	3454
895.769	3374
895.891	3424
896.012	3485
896.134	3447
896.255	3401
896.376	3367
896.498	3340
896.619	3450
896.74	3382
896.861	3401
896.982	3705
897.103	3846
897.224	3633
897.345	3492
897.466	3435
897.587	3515
897.708	3610
897.828	3561
897.949	3439
898.07	3325
898.19	3416
898.311	3652
898.431	3439
898.552	3530
898.672	3564
898.792	3591
898.913	3469
899.033	3412
899.153	3291
899.273	3222
899.393	3298
899.513	3313
899.633	3294
899.753	3367
899.873	3294
899.993	3412
900.113	3306
900.232	3393
900.352	3359
900.472	3279
900.591	3211
900.711	3310
900.83	3241
900.95	3431
901.069	3454
901.189	3329
901.308	3154
901.427	3077
901.546	3161
901.665	3287
901.784	3310
901.904	3230
902.023	3146
902.141	3020
902.26	2960
902.379	3123
902.498	3066
902.617	3024
902.735	3214
902.854	3214
902.973	3165
903.091	3062
903.21	3028
903.328	3142
903.446	3138
903.565	3119
903.683	3214
903.801	3097
903.919	3237
904.038	3279
904.156	3165
904.274	3272
904.392	3222
904.51	3310
904.627	3298
904.745	3443
904.863	3473
904.981	3260
905.098	3195
905.216	3256
905.334	3313
905.451	3306
905.569	3287
905.686	3450
905.803	3473
905.921	3260
906.038	3428
906.155	3329
906.272	3272
906.389	3317
906.506	3253
906.623	3241
906.74	3260
906.857	3192
906.974	3222
907.091	3435
907.208	3538
907.324	3496
907.441	3386
907.557	3211
907.674	3222
907.79	3230
907.907	3253
908.023	3374
908.139	3401
908.256	3329
908.372	3340
908.488	3363
908.604	3230
908.72	3226
908.836	3256
908.952	3275
909.068	3378
909.184	3492
909.3	3393
909.415	3496
909.531	3504
909.647	3253
909.762	3275
909.878	3268
909.993	3374
910.108	3393
910.224	3344
910.339	3374
910.454	3363
910.57	3275
910.685	3249
910.8	3568
910.915	3553
911.03	3439
911.145	3268
911.259	3275
911.374	3302
911.489	3256
911.604	3211
911.718	3119
911.833	3161
911.947	3051
912.062	2982
912.176	3169
912.291	3203
912.405	3188
912.519	3416
912.633	3473
912.748	3351
912.862	3260
912.976	3176
913.09	3074
913.204	3112
913.318	3218
913.431	3355
913.545	3329
913.659	3355
913.772	3321
913.886	3241
914	3218
914.113	3363
914.226	3428
914.34	3344
914.453	3214
914.566	3370
914.68	3310
914.793	3313
914.906	3169
915.019	3138
915.132	3062
915.245	3180
915.358	3203
915.47	3214
915.583	3233
915.696	3302
915.809	3401
915.921	3435
916.034	3264
916.146	3253
916.259	3272
916.371	3378
916.483	3355
916.595	3306
916.708	3325
916.82	3348
916.932	3367
917.044	3348
917.156	3374
917.268	3268
917.38	3279
917.491	3329
917.603	3374
917.715	3469
917.826	3492
917.938	3389
918.049	3275
918.161	3397
918.272	3576
918.384	3603
918.495	3485
918.606	3294
918.717	3287
918.828	3336
918.939	3401
919.05	3298
919.161	3370
919.272	3173
919.383	3306
919.494	3473
919.604	3671
919.715	3492
919.826	3428
919.936	3450
920.047	3545
920.157	3568
920.267	3770
920.378	3625
920.488	3557
920.598	3747
920.708	3930
920.818	3823
920.928	3865
921.038	4032
921.148	3956
921.258	3720
921.368	3637
921.477	3576
921.587	3526
921.697	3462
921.806	3622
921.916	3504
922.025	3386
922.134	3367
922.244	3291
922.353	3412
922.462	3256
922.571	3233
922.68	3119
922.789	3055
922.898	3119
923.007	3104
923.116	3173
923.224	3138
923.333	3207
923.442	3062
923.55	3097
923.659	3150
923.767	3195
923.876	3093
923.984	3233
924.092	3100
924.201	3188
924.309	3203
924.417	3264
924.525	3192
924.633	3256
924.741	3987
924.849	3074
924.956	3256
925.064	3097
925.172	3043
925.279	3081
925.387	3230
925.494	3211
925.602	3351
925.709	3306
925.816	3169
925.924	3302
926.031	3401
926.138	3332
926.245	3340
926.352	3230
926.459	3382
926.566	3424
926.673	3302
926.779	3256
926.886	3268
926.993	3131
927.099	3100
927.206	3081
927.312	3081
927.419	3237
927.525	3161
927.631	3249
927.737	3131
927.843	3093
927.95	3036
928.056	3116
928.162	3142
928.267	3260
928.373	3728
928.479	3310
928.585	3070
928.69	3256
928.796	3268
928.901	3165
929.007	3028
929.112	3226
929.218	3180
929.323	3127
929.428	3135
929.533	3298
929.638	3089
929.743	3176
929.848	3237
929.953	3211
930.058	3157
930.163	3017
930.267	3070
930.372	3180
930.477	3051
930.581	3272
930.685	3184
930.79	3032
930.894	3051
930.998	3093
931.103	3287
931.207	2960
931.311	2918
931.415	2925
931.519	2766
931.623	2792
