Data from test_V78500241_1277.txt Node
Date: Fri Mar 25 16:24:03 CST 2022
User: usil
Spectrometer: V785-0024
Trigger mode: 0
Integration Time (sec): 4.000000E-1
Scans to average: 1
Nonlinearity correction enabled: false
Boxcar width: 0
Storing dark spectrum: false
XAxis mode: Wavelengths
Number of Pixels in Spectrum: 1024
>>>>>Begin Spectral Data<<<<<
801.071	2906
801.214	2895
801.356	2872
801.499	2891
801.641	2830
801.783	2925
801.926	3020
802.068	2960
802.211	2982
802.353	3017
802.496	2952
802.638	2990
802.78	3081
802.923	3058
803.065	2941
803.208	2891
803.35	2883
803.492	2880
803.635	2899
803.777	2754
803.919	2895
804.061	3199
804.204	2910
804.346	2895
804.488	2876
804.63	2979
804.773	2853
804.915	2937
805.057	3074
805.199	2876
805.341	2960
805.483	3055
805.626	2971
805.768	2967
805.91	3097
806.052	3047
806.194	3017
806.336	3192
806.478	3036
806.62	2963
806.762	2967
806.904	3024
807.046	3157
807.188	2952
807.33	2929
807.472	3005
807.614	2922
807.756	2994
807.898	2910
808.04	2887
808.182	2979
808.324	2910
808.465	2887
808.607	2857
808.749	2811
808.891	2868
809.033	2937
809.174	2979
809.316	2864
809.458	2902
809.6	2796
809.741	2773
809.883	2739
810.025	2861
810.166	2872
810.308	2823
810.45	2853
810.591	2762
810.733	2746
810.875	2842
811.016	2769
811.158	2773
811.299	2804
811.441	2895
811.582	2929
811.724	2796
811.865	2826
812.007	2902
812.148	2883
812.29	2826
812.431	2902
812.573	2906
812.714	2918
812.855	3062
812.997	3028
813.138	3116
813.279	2963
813.421	2979
813.562	2941
813.703	2861
813.845	2895
813.986	2769
814.127	2708
814.268	2792
814.41	2864
814.551	2811
814.692	2880
814.833	2800
814.974	2895
815.115	2963
815.256	2819
815.397	2823
815.539	2853
815.68	2750
815.821	2773
815.962	2956
816.103	2918
816.244	2872
816.385	2872
816.526	2956
816.666	2925
816.807	2735
816.948	2880
817.089	2880
817.23	2891
817.371	2792
817.512	2800
817.653	2864
817.793	2849
817.934	2880
818.075	2956
818.216	2944
818.356	2960
818.497	2883
818.638	2792
818.778	2811
818.919	2815
819.06	2773
819.2	2876
819.341	2807
819.481	2785
819.622	2914
819.762	3097
819.903	3028
820.043	2899
820.184	2883
820.324	2872
820.465	2990
820.605	2994
820.746	3028
820.886	2963
821.026	3104
821.167	3184
821.307	3264
821.447	3268
821.588	3226
821.728	3233
821.868	3154
822.008	3074
822.149	3161
822.289	3203
822.429	3062
822.569	3058
822.709	3131
822.849	3005
822.99	3017
823.13	3123
823.27	3195
823.41	3055
823.55	3135
823.69	3131
823.83	3176
823.97	3100
824.11	3013
824.25	2967
824.389	3077
824.529	3100
824.669	3097
824.809	3184
824.949	3199
825.089	3188
825.228	3154
825.368	2982
825.508	2952
825.648	2975
825.787	3013
825.927	3005
826.067	2971
826.206	2963
826.346	3009
826.485	3062
826.625	3077
826.765	3237
826.904	3161
827.044	3005
827.183	2899
827.323	2876
827.462	2998
827.601	2918
827.741	2922
827.88	2933
828.02	2830
828.159	2975
828.298	3028
828.437	3070
828.577	3058
828.716	3218
828.855	3085
828.994	2922
829.134	2891
829.273	2925
829.412	2834
829.551	2838
829.69	2857
829.829	2979
829.968	3138
830.107	2998
830.246	2998
830.385	2925
830.524	2849
830.663	2815
830.802	2743
830.941	2659
831.08	2636
831.219	2750
831.357	2727
831.496	2967
831.635	2716
831.774	2640
831.913	2655
832.051	2526
832.19	2564
832.329	2651
832.467	2522
832.606	2469
832.744	2583
832.883	2571
833.022	2579
833.16	2644
833.299	2655
833.437	2682
833.576	2674
833.714	2682
833.852	2746
833.991	2781
834.129	2864
834.267	2811
834.406	2796
834.544	2838
834.682	2902
834.821	2845
834.959	3047
835.097	2876
835.235	3028
835.373	2975
835.511	3001
835.65	2956
835.788	2948
835.926	2815
836.064	2788
836.202	2823
836.34	3074
836.478	3108
836.615	3062
836.753	3112
836.891	3192
837.029	3157
837.167	3093
837.305	3032
837.443	3032
837.58	2944
837.718	3104
837.856	3085
837.993	3036
838.131	3066
838.269	3077
838.406	3062
838.544	3047
838.681	2937
838.819	2925
838.956	2785
839.094	2849
839.231	2883
839.369	3036
839.506	3393
839.643	3218
839.781	3005
839.918	2979
840.055	3039
840.193	3028
840.33	3058
840.467	3058
840.604	3173
840.742	3386
840.879	3009
841.016	3020
841.153	3093
841.29	3306
841.427	3249
841.564	3253
841.701	3287
841.838	3230
841.975	3184
842.112	3211
842.249	3062
842.385	3005
842.522	3253
842.659	3055
842.796	3032
842.933	3070
843.069	3051
843.206	3028
843.343	3150
843.479	3077
843.616	3127
843.752	2906
843.889	2861
844.025	3077
844.162	2861
844.298	3036
844.435	2933
844.571	2868
844.708	3074
844.844	3184
844.98	3256
845.117	3176
845.253	3028
845.389	2967
845.525	3131
845.661	3051
845.798	2990
845.934	3085
846.07	3055
846.206	3214
846.342	3287
846.478	3245
846.614	3066
846.75	3005
846.886	3039
847.022	3188
847.158	3123
847.294	3154
847.429	3176
847.565	3173
847.701	3477
847.837	3005
847.972	2998
848.108	3131
848.244	3127
848.379	2963
848.515	2937
848.65	2887
848.786	2971
848.921	2986
849.057	3043
849.192	3108
849.328	3058
849.463	3100
849.598	3039
849.734	3036
849.869	2982
850.004	2910
850.14	2944
850.275	2895
850.41	2838
850.545	2899
850.68	2937
850.815	2944
850.95	2998
851.085	3165
851.22	3074
851.355	2994
851.49	2975
851.625	2971
851.76	3017
851.895	2925
852.03	2887
852.165	3017
852.299	3077
852.434	3173
852.569	3097
852.703	3157
852.838	3199
852.973	3340
853.107	3336
853.242	3131
853.376	3097
853.511	2960
853.645	3028
853.78	3203
853.914	3089
854.048	3058
854.183	3058
854.317	3119
854.451	3298
854.585	3077
854.72	3077
854.854	3203
854.988	3020
855.122	3039
855.256	2967
855.39	3100
855.524	3203
855.658	3135
855.792	3135
855.926	3192
856.06	3195
856.194	3222
856.327	3100
856.461	3039
856.595	3089
856.729	3089
856.862	3154
856.996	3146
857.13	3161
857.263	3207
857.397	3272
857.53	3131
857.664	3173
857.797	3226
857.931	3237
858.064	3138
858.197	3211
858.331	3093
858.464	3085
858.597	2960
858.731	3093
858.864	3169
858.997	3032
859.13	3127
859.263	3184
859.396	3260
859.529	3100
859.662	3055
859.795	3070
859.928	3165
860.061	3332
860.194	3256
860.327	3131
860.46	3085
860.592	3279
860.725	3214
860.858	3260
860.99	3104
861.123	3043
861.256	3055
861.388	3154
861.521	3709
861.653	3051
861.786	3009
861.918	3062
862.05	3108
862.183	3169
862.315	3157
862.447	3241
862.58	3097
862.712	2990
862.844	2891
862.976	3081
863.108	3013
863.24	3351
863.372	2887
863.504	2994
863.636	2986
863.768	3055
863.9	3024
864.032	2941
864.164	2944
864.296	3043
864.428	3157
864.559	3165
864.691	3123
864.823	3081
864.954	3051
865.086	3093
865.217	2998
865.349	2990
865.48	3032
865.612	3047
865.743	3173
865.875	3028
866.006	2956
866.137	3001
866.269	2967
866.4	2948
866.531	2971
866.662	2906
866.793	2914
866.924	2948
867.055	3005
867.186	2982
867.317	2880
867.448	2853
867.579	2910
867.71	2925
867.841	2857
867.972	2933
868.103	2944
868.233	2922
868.364	2899
868.495	2944
868.625	3108
868.756	3176
868.886	3013
869.017	3055
869.147	3211
869.278	3203
869.408	3058
869.539	3020
869.669	3157
869.799	3112
869.929	3161
870.06	3116
870.19	3291
870.32	3283
870.45	3321
870.58	3397
870.71	3458
870.84	3473
870.97	3340
871.1	3253
871.23	3488
871.36	3492
871.489	3420
871.619	3443
871.749	3458
871.879	3450
872.008	3504
872.138	3378
872.267	3310
872.397	3195
872.526	3138
872.656	3047
872.785	3116
872.915	3283
873.044	3348
873.173	3287
873.303	3294
873.432	3241
873.561	3241
873.69	3192
873.819	3157
873.948	3230
874.077	3108
874.206	3077
874.335	3085
874.464	3230
874.593	3412
874.722	3268
874.851	3370
874.979	3382
875.108	3336
875.237	3272
875.365	3207
875.494	3154
875.623	3264
875.751	3097
875.88	3108
876.008	3195
876.136	3222
876.265	3428
876.393	3545
876.521	3428
876.65	3382
876.778	3367
876.906	3272
877.034	3241
877.162	3275
877.29	3169
877.418	3256
877.546	3233
877.674	3222
877.802	3245
877.93	3279
878.058	3214
878.185	3138
878.313	3264
878.441	3233
878.568	3070
878.696	3173
878.824	3253
878.951	3321
879.079	3428
879.206	3614
879.333	3458
879.461	3332
879.588	3363
879.715	3500
879.842	3614
879.97	3397
880.097	3237
880.224	3135
880.351	3188
880.478	3283
880.605	3211
880.732	3173
880.859	3492
880.986	3355
881.112	3355
881.239	3230
881.366	3119
881.493	3066
881.619	3024
881.746	3081
881.872	3116
881.999	3119
882.125	3184
882.252	3275
882.378	3325
882.505	3477
882.631	3325
882.757	3165
882.883	3226
883.01	3275
883.136	3192
883.262	3157
883.388	3157
883.514	3344
883.64	3386
883.766	3310
883.892	3214
884.018	3237
884.143	3439
884.269	3572
884.395	3222
884.52	3218
884.646	3173
884.772	3165
884.897	3188
885.023	3245
885.148	3355
885.274	3443
885.399	3393
885.524	3332
885.65	3275
885.775	3332
885.9	3348
886.025	3443
886.15	3397
886.275	3310
886.4	3211
886.525	3336
886.65	3313
886.775	3310
886.9	3488
887.025	3625
887.149	3428
887.274	3275
887.399	3192
887.523	3241
887.648	3218
887.773	3192
887.897	3401
888.021	3428
888.146	3344
888.27	3443
888.395	3538
888.519	3424
888.643	3469
888.767	3488
888.891	3348
889.015	3226
889.139	3275
889.263	3294
889.387	3416
889.511	3587
889.635	3511
889.759	3306
889.883	3294
890.006	3409
890.13	3526
890.254	3291
890.377	3348
890.501	3226
890.624	3207
890.748	3378
890.871	3203
890.995	3127
891.118	3100
891.241	3218
891.364	3233
891.488	3317
891.611	3211
891.734	3214
891.857	3253
891.98	3260
892.103	3382
892.226	3306
892.349	3264
892.471	3131
892.594	3218
892.717	3306
892.839	3291
892.962	3268
893.085	3405
893.207	3313
893.33	3176
893.452	3222
893.575	3355
893.697	3291
893.819	3492
893.941	3519
894.064	3488
894.186	3272
894.308	3306
894.43	3447
894.552	3530
894.674	3477
894.796	3310
894.918	3302
895.04	3313
895.161	3443
895.283	3409
895.405	3329
895.526	3389
895.648	3447
895.769	3420
895.891	3488
896.012	3500
896.134	3492
896.255	3443
896.376	3428
896.498	3389
896.619	3462
896.74	3405
896.861	3416
896.982	3705
897.103	3857
897.224	3629
897.345	3511
897.466	3469
897.587	3542
897.708	3633
897.828	3595
897.949	3473
898.07	3340
898.19	3439
898.311	3603
898.431	3454
898.552	3538
898.672	3622
898.792	3561
898.913	3553
899.033	3435
899.153	3336
899.273	3253
899.393	3317
899.513	3348
899.633	3317
899.753	3344
899.873	3317
899.993	3355
900.113	3351
900.232	3378
900.352	3344
900.472	3298
900.591	3260
900.711	3283
900.83	3264
900.95	3454
901.069	3534
901.189	3344
901.308	3161
901.427	3173
901.546	3214
901.665	3291
901.784	3359
901.904	3199
902.023	3173
902.141	3058
902.26	2994
902.379	3165
902.498	3116
902.617	3077
902.735	3214
902.854	3272
902.973	3230
903.091	3077
903.21	3081
903.328	3146
903.446	3100
903.565	3146
903.683	3241
903.801	3138
903.919	3268
904.038	3302
904.156	3192
904.274	3302
904.392	3279
904.51	3325
904.627	3344
904.745	3462
904.863	3504
904.981	3245
905.098	3176
905.216	3233
905.334	3317
905.451	3340
905.569	3302
905.686	3492
905.803	3443
905.921	3321
906.038	3443
906.155	3405
906.272	3310
906.389	3363
906.506	3264
906.623	3298
906.74	3249
906.857	3207
906.974	3283
907.091	3458
907.208	3549
907.324	3477
907.441	3431
907.557	3264
907.674	3272
907.79	3237
907.907	3272
908.023	3378
908.139	3363
908.256	3359
908.372	3359
908.488	3382
908.604	3287
908.72	3245
908.836	3291
908.952	3313
909.068	3378
909.184	3473
909.3	3397
909.415	3530
909.531	3447
909.647	3306
909.762	3325
909.878	3313
909.993	3420
910.108	3340
910.224	3306
910.339	3382
910.454	3310
910.57	3321
910.685	3272
910.8	3606
910.915	3530
911.03	3431
911.145	3291
911.259	3321
911.374	3298
911.489	3253
911.604	3226
911.718	3123
911.833	3157
911.947	3024
912.062	3005
912.176	3188
912.291	3226
912.405	3199
912.519	3412
912.633	3500
912.748	3351
912.862	3329
912.976	3169
913.09	3043
913.204	3184
913.318	3207
913.431	3298
913.545	3329
913.659	3435
913.772	3363
913.886	3233
914	3241
914.113	3378
914.226	3412
914.34	3386
914.453	3233
914.566	3409
914.68	3287
914.793	3325
914.906	3169
915.019	3138
915.132	3058
915.245	3176
915.358	3203
915.47	3256
915.583	3256
915.696	3302
915.809	3378
915.921	3416
916.034	3249
916.146	3245
916.259	3214
916.371	3378
916.483	3367
916.595	3294
916.708	3363
916.82	3363
916.932	3389
917.044	3340
917.156	3363
917.268	3241
917.38	3321
917.491	3283
917.603	3374
917.715	3473
917.826	3488
917.938	3405
918.049	3291
918.161	3443
918.272	3603
918.384	3599
918.495	3519
918.606	3317
918.717	3321
918.828	3409
918.939	3386
919.05	3287
919.161	3332
919.272	3207
919.383	3256
919.494	3496
919.604	3675
919.715	3519
919.826	3420
919.936	3450
920.047	3648
920.157	3538
920.267	3781
920.378	3618
920.488	3545
920.598	3762
920.708	3979
920.818	3797
920.928	3838
921.038	4044
921.148	4002
921.258	3713
921.368	3603
921.477	3606
921.587	3542
921.697	3450
921.806	3637
921.916	3515
922.025	3351
922.134	3344
922.244	3310
922.353	3435
922.462	3256
922.571	3222
922.68	3127
922.789	3116
922.898	3142
923.007	3097
923.116	3226
923.224	3199
923.333	3173
923.442	3081
923.55	3058
923.659	3146
923.767	3222
923.876	3085
923.984	3199
924.092	3112
924.201	3199
924.309	3199
924.417	3264
924.525	3154
924.633	3214
924.741	4013
924.849	3032
924.956	3279
925.064	3100
925.172	3047
925.279	3104
925.387	3214
925.494	3211
925.602	3359
925.709	3332
925.816	3195
925.924	3268
926.031	3378
926.138	3359
926.245	3359
926.352	3233
926.459	3409
926.566	3447
926.673	3340
926.779	3253
926.886	3294
926.993	3195
927.099	3150
927.206	3138
927.312	3138
927.419	3222
927.525	3230
927.631	3279
927.737	3165
927.843	3146
927.95	3036
928.056	3176
928.162	3192
928.267	3260
928.373	3876
928.479	3306
928.585	3131
928.69	3218
928.796	3294
928.901	3199
929.007	3051
929.112	3233
929.218	3241
929.323	3150
929.428	3192
929.533	3363
929.638	3150
929.743	3180
929.848	3325
929.953	3226
930.058	3169
930.163	3051
930.267	3085
930.372	3241
930.477	3093
930.581	3386
930.685	3222
930.79	3127
930.894	3157
930.998	3112
931.103	3298
931.207	2986
931.311	3024
931.415	2960
931.519	2819
931.623	2849
