Data from test_V78500241_1166.txt Node
Date: Fri Mar 25 16:23:16 CST 2022
User: usil
Spectrometer: V785-0024
Trigger mode: 0
Integration Time (sec): 4.000000E-1
Scans to average: 1
Nonlinearity correction enabled: false
Boxcar width: 0
Storing dark spectrum: false
XAxis mode: Wavelengths
Number of Pixels in Spectrum: 1024
>>>>>Begin Spectral Data<<<<<
801.071	2902
801.214	2922
801.356	2849
801.499	2872
801.641	2891
801.783	2902
801.926	3032
802.068	2960
802.211	3009
802.353	3005
802.496	2941
802.638	2990
802.78	3009
802.923	3020
803.065	3017
803.208	2891
803.35	2937
803.492	2922
803.635	2933
803.777	2785
803.919	2868
804.061	3233
804.204	2971
804.346	2887
804.488	2857
804.63	2998
804.773	2876
804.915	2914
805.057	3066
805.199	2925
805.341	2979
805.483	3062
805.626	3005
805.768	2956
805.91	3055
806.052	3127
806.194	3047
806.336	3218
806.478	3062
806.62	2933
806.762	2979
806.904	3070
807.046	3180
807.188	2956
807.33	2902
807.472	2982
807.614	2948
807.756	3001
807.898	2944
808.04	2891
808.182	2952
808.324	2952
808.465	2876
808.607	2864
808.749	2788
808.891	2845
809.033	2960
809.174	2982
809.316	2914
809.458	2876
809.6	2785
809.741	2766
809.883	2800
810.025	2849
810.166	2864
810.308	2883
810.45	2845
810.591	2800
810.733	2746
810.875	2834
811.016	2762
811.158	2777
811.299	2777
811.441	2876
811.582	2872
811.724	2804
811.865	2819
812.007	2922
812.148	2891
812.29	2826
812.431	2880
812.573	2971
812.714	2986
812.855	3036
812.997	3047
813.138	3146
813.279	3032
813.421	2979
813.562	2956
813.703	2872
813.845	2876
813.986	2788
814.127	2746
814.268	2826
814.41	2864
814.551	2819
814.692	2922
814.833	2796
814.974	2861
815.115	2941
815.256	2826
815.397	2834
815.539	2815
815.68	2807
815.821	2762
815.962	2933
816.103	2944
816.244	2864
816.385	2899
816.526	2952
816.666	2902
816.807	2712
816.948	2880
817.089	2937
817.23	2838
817.371	2777
817.512	2819
817.653	2845
817.793	2826
817.934	2883
818.075	3001
818.216	2971
818.356	3020
818.497	2887
818.638	2773
818.778	2819
818.919	2766
819.06	2750
819.2	2910
819.341	2819
819.481	2766
819.622	2922
819.762	3070
819.903	3058
820.043	2902
820.184	2891
820.324	2899
820.465	3032
820.605	2979
820.746	3028
820.886	2952
821.026	3081
821.167	3142
821.307	3253
821.447	3291
821.588	3237
821.728	3192
821.868	3131
822.008	3077
822.149	3203
822.289	3199
822.429	3047
822.569	3051
822.709	3161
822.849	2990
822.99	3047
823.13	3116
823.27	3203
823.41	3066
823.55	3154
823.69	3161
823.83	3150
823.97	3116
824.11	3028
824.25	2986
824.389	3058
824.529	3127
824.669	3070
824.809	3222
824.949	3237
825.089	3245
825.228	3165
825.368	3013
825.508	2956
825.648	2975
825.787	3009
825.927	3020
826.067	2956
826.206	2952
826.346	3001
826.485	3047
826.625	3100
826.765	3237
826.904	3226
827.044	2986
827.183	2933
827.323	2906
827.462	2960
827.601	2910
827.741	2918
827.88	2967
828.02	2804
828.159	2952
828.298	3028
828.437	3093
828.577	3017
828.716	3230
828.855	3062
828.994	2948
829.134	2880
829.273	2910
829.412	2868
829.551	2861
829.69	2883
829.829	2990
829.968	3142
830.107	2986
830.246	3028
830.385	2872
830.524	2849
830.663	2819
830.802	2712
830.941	2632
831.08	2644
831.219	2746
831.357	2769
831.496	2967
831.635	2689
831.774	2644
831.913	2670
832.051	2511
832.19	2594
832.329	2667
832.467	2514
832.606	2488
832.744	2552
832.883	2587
833.022	2613
833.16	2659
833.299	2678
833.437	2640
833.576	2670
833.714	2739
833.852	2712
833.991	2777
834.129	2819
834.267	2830
834.406	2785
834.544	2864
834.682	2872
834.821	2845
834.959	3066
835.097	2876
835.235	3089
835.373	2979
835.511	3020
835.65	2975
835.788	2948
835.926	2834
836.064	2834
836.202	2849
836.34	3066
836.478	3154
836.615	3039
836.753	3108
836.891	3214
837.029	3131
837.167	3089
837.305	3024
837.443	3085
837.58	2960
837.718	3108
837.856	3058
837.993	3036
838.131	3146
838.269	3062
838.406	3081
838.544	3108
838.681	2906
838.819	2914
838.956	2811
839.094	2785
839.231	2922
839.369	3017
839.506	3370
839.643	3184
839.781	3009
839.918	2956
840.055	3036
840.193	3020
840.33	3047
840.467	3119
840.604	3112
840.742	3416
840.879	3043
841.016	3013
841.153	3112
841.29	3340
841.427	3298
841.564	3268
841.701	3264
841.838	3256
841.975	3169
842.112	3214
842.249	3089
842.385	3013
842.522	3249
842.659	3085
842.796	3066
842.933	3093
843.069	3062
843.206	3039
843.343	3184
843.479	3100
843.616	3119
843.752	2876
843.889	2861
844.025	3062
844.162	2868
844.298	3085
844.435	2941
844.571	2891
844.708	3051
844.844	3161
844.98	3226
845.117	3169
845.253	3047
845.389	2994
845.525	3112
845.661	3093
845.798	3017
845.934	3135
846.07	3039
846.206	3222
846.342	3306
846.478	3203
846.614	3058
846.75	3043
846.886	3028
847.022	3222
847.158	3108
847.294	3207
847.429	3245
847.565	3211
847.701	3492
847.837	3009
847.972	2994
848.108	3146
848.244	3119
848.379	3032
848.515	2906
848.65	2937
848.786	2956
848.921	2971
849.057	3116
849.192	3131
849.328	3077
849.463	3123
849.598	3039
849.734	3024
849.869	2948
850.004	2948
850.14	2967
850.275	2902
850.41	2857
850.545	2853
850.68	2914
850.815	2906
850.95	2971
851.085	3180
851.22	3097
851.355	3005
851.49	2975
851.625	2998
851.76	3005
851.895	2922
852.03	2899
852.165	3066
852.299	3093
852.434	3192
852.569	3165
852.703	3169
852.838	3230
852.973	3325
853.107	3325
853.242	3135
853.376	3039
853.511	2979
853.645	3024
853.78	3264
853.914	3119
854.048	3135
854.183	3051
854.317	3154
854.451	3291
854.585	3119
854.72	3081
854.854	3214
854.988	3051
855.122	3116
855.256	2979
855.39	3119
855.524	3211
855.658	3188
855.792	3123
855.926	3211
856.06	3195
856.194	3233
856.327	3116
856.461	3058
856.595	3077
856.729	3062
856.862	3237
856.996	3173
857.13	3192
857.263	3199
857.397	3245
857.53	3127
857.664	3188
857.797	3260
857.931	3230
858.064	3142
858.197	3180
858.331	3127
858.464	3089
858.597	2975
858.731	3089
858.864	3127
858.997	3074
859.13	3112
859.263	3154
859.396	3192
859.529	3085
859.662	3051
859.795	3047
859.928	3116
860.061	3275
860.194	3245
860.327	3157
860.46	3077
860.592	3230
860.725	3241
860.858	3249
860.99	3077
861.123	3093
861.256	3013
861.388	3135
861.521	3713
861.653	2998
861.786	2960
861.918	3039
862.05	3017
862.183	3100
862.315	3150
862.447	3188
862.58	3093
862.712	2929
862.844	2891
862.976	3001
863.108	2975
863.24	3283
863.372	2872
863.504	2910
863.636	2937
863.768	3043
863.9	3001
864.032	2960
864.164	2948
864.296	2982
864.428	3058
864.559	3093
864.691	3058
864.823	3077
864.954	3013
865.086	3036
865.217	2998
865.349	2952
865.48	3013
865.612	3001
865.743	3116
865.875	2967
866.006	2914
866.137	2994
866.269	2941
866.4	2929
866.531	2944
866.662	2823
866.793	2868
866.924	2902
867.055	2960
867.186	2944
867.317	2899
867.448	2826
867.579	2830
867.71	2823
867.841	2777
867.972	2902
868.103	2876
868.233	2899
868.364	2887
868.495	2891
868.625	3062
868.756	3154
868.886	2952
869.017	3036
869.147	3173
869.278	3142
869.408	2990
869.539	3051
869.669	3104
869.799	3013
869.929	3146
870.06	3112
870.19	3321
870.32	3298
870.45	3272
870.58	3351
870.71	3439
870.84	3428
870.97	3298
871.1	3253
871.23	3492
871.36	3428
871.489	3355
871.619	3401
871.749	3367
871.879	3409
872.008	3469
872.138	3370
872.267	3253
872.397	3127
872.526	3077
872.656	2994
872.785	3123
872.915	3207
873.044	3310
873.173	3214
873.303	3214
873.432	3211
873.561	3237
873.69	3150
873.819	3150
873.948	3195
874.077	3097
874.206	2986
874.335	3062
874.464	3192
874.593	3332
874.722	3226
874.851	3386
874.979	3378
875.108	3287
875.237	3188
875.365	3146
875.494	3157
875.623	3203
875.751	3070
875.88	3112
876.008	3188
876.136	3214
876.265	3389
876.393	3500
876.521	3393
876.65	3351
876.778	3306
876.906	3226
877.034	3199
877.162	3218
877.29	3176
877.418	3211
877.546	3211
877.674	3222
877.802	3222
877.93	3211
878.058	3154
878.185	3089
878.313	3192
878.441	3188
878.568	3009
878.696	3161
878.824	3245
878.951	3264
879.079	3439
879.206	3633
879.333	3420
879.461	3313
879.588	3355
879.715	3466
879.842	3561
879.97	3370
880.097	3154
880.224	3100
880.351	3188
880.478	3218
880.605	3154
880.732	3184
880.859	3519
880.986	3306
881.112	3332
881.239	3176
881.366	3070
881.493	3005
881.619	3005
881.746	3062
881.872	3135
881.999	3081
882.125	3169
882.252	3195
882.378	3317
882.505	3454
882.631	3313
882.757	3123
882.883	3230
883.01	3207
883.136	3161
883.262	3070
883.388	3112
883.514	3325
883.64	3378
883.766	3272
883.892	3199
884.018	3207
884.143	3382
884.269	3515
884.395	3256
884.52	3161
884.646	3180
884.772	3127
884.897	3074
885.023	3218
885.148	3298
885.274	3424
885.399	3321
885.524	3272
885.65	3256
885.775	3302
885.9	3264
886.025	3458
886.15	3325
886.275	3272
886.4	3211
886.525	3310
886.65	3256
886.775	3321
886.9	3485
887.025	3610
887.149	3393
887.274	3264
887.399	3199
887.523	3218
887.648	3176
887.773	3176
887.897	3378
888.021	3386
888.146	3283
888.27	3412
888.395	3507
888.519	3424
888.643	3439
888.767	3458
888.891	3287
889.015	3230
889.139	3272
889.263	3256
889.387	3409
889.511	3515
889.635	3416
889.759	3294
889.883	3268
890.006	3348
890.13	3481
890.254	3272
890.377	3359
890.501	3211
890.624	3192
890.748	3268
890.871	3135
890.995	3077
891.118	3028
891.241	3184
891.364	3233
891.488	3298
891.611	3203
891.734	3222
891.857	3256
891.98	3253
892.103	3325
892.226	3287
892.349	3222
892.471	3085
892.594	3260
892.717	3291
892.839	3253
892.962	3241
893.085	3344
893.207	3313
893.33	3169
893.452	3188
893.575	3336
893.697	3260
893.819	3443
893.941	3526
894.064	3447
894.186	3256
894.308	3264
894.43	3462
894.552	3485
894.674	3469
894.796	3275
894.918	3321
895.04	3298
895.161	3450
895.283	3378
895.405	3344
895.526	3374
895.648	3443
895.769	3439
895.891	3412
896.012	3431
896.134	3492
896.255	3420
896.376	3367
896.498	3363
896.619	3435
896.74	3367
896.861	3405
896.982	3618
897.103	3823
897.224	3599
897.345	3454
897.466	3431
897.587	3511
897.708	3625
897.828	3564
897.949	3424
898.07	3310
898.19	3370
898.311	3587
898.431	3412
898.552	3523
898.672	3568
898.792	3591
898.913	3500
899.033	3443
899.153	3268
899.273	3207
899.393	3241
899.513	3283
899.633	3313
899.753	3344
899.873	3306
899.993	3382
900.113	3310
900.232	3389
900.352	3306
900.472	3287
900.591	3180
900.711	3332
900.83	3260
900.95	3424
901.069	3481
901.189	3363
901.308	3176
901.427	3135
901.546	3203
901.665	3287
901.784	3344
901.904	3180
902.023	3146
902.141	2998
902.26	3013
902.379	3138
902.498	3070
902.617	3055
902.735	3237
902.854	3211
902.973	3169
903.091	3017
903.21	3089
903.328	3138
903.446	3104
903.565	3100
903.683	3195
903.801	3150
903.919	3180
904.038	3249
904.156	3142
904.274	3256
904.392	3268
904.51	3306
904.627	3310
904.745	3428
904.863	3481
904.981	3253
905.098	3176
905.216	3176
905.334	3272
905.451	3275
905.569	3310
905.686	3409
905.803	3439
905.921	3306
906.038	3405
906.155	3378
906.272	3249
906.389	3317
906.506	3226
906.623	3241
906.74	3268
906.857	3207
906.974	3211
907.091	3447
907.208	3603
907.324	3469
907.441	3378
907.557	3218
907.674	3233
907.79	3237
907.907	3275
908.023	3367
908.139	3317
908.256	3313
908.372	3389
908.488	3340
908.604	3253
908.72	3207
908.836	3283
908.952	3321
909.068	3329
909.184	3477
909.3	3389
909.415	3481
909.531	3477
909.647	3306
909.762	3310
909.878	3253
909.993	3363
910.108	3359
910.224	3321
910.339	3393
910.454	3298
910.57	3283
910.685	3218
910.8	3595
910.915	3542
911.03	3412
911.145	3268
911.259	3275
911.374	3313
911.489	3230
911.604	3233
911.718	3112
911.833	3211
911.947	3036
912.062	2982
912.176	3165
912.291	3180
912.405	3218
912.519	3443
912.633	3412
912.748	3363
912.862	3272
912.976	3165
913.09	3062
913.204	3150
913.318	3230
913.431	3298
913.545	3336
913.659	3409
913.772	3287
913.886	3207
914	3184
914.113	3348
914.226	3405
914.34	3370
914.453	3203
914.566	3386
914.68	3283
914.793	3313
914.906	3180
915.019	3085
915.132	3047
915.245	3188
915.358	3176
915.47	3256
915.583	3279
915.696	3306
915.809	3382
915.921	3431
916.034	3268
916.146	3233
916.259	3218
916.371	3367
916.483	3355
916.595	3264
916.708	3336
916.82	3336
916.932	3325
917.044	3313
917.156	3321
917.268	3241
917.38	3317
917.491	3310
917.603	3382
917.715	3409
917.826	3454
917.938	3363
918.049	3249
918.161	3435
918.272	3549
918.384	3610
918.495	3492
918.606	3329
918.717	3294
918.828	3363
918.939	3412
919.05	3272
919.161	3401
919.272	3161
919.383	3275
919.494	3466
919.604	3675
919.715	3428
919.826	3409
919.936	3473
920.047	3603
920.157	3572
920.267	3705
920.378	3618
920.488	3545
920.598	3751
920.708	3937
920.818	3812
920.928	3846
921.038	3998
921.148	3945
921.258	3720
921.368	3648
921.477	3587
921.587	3564
921.697	3462
921.806	3644
921.916	3538
922.025	3348
922.134	3329
922.244	3279
922.353	3409
922.462	3268
922.571	3241
922.68	3123
922.789	3070
922.898	3150
923.007	3104
923.116	3230
923.224	3146
923.333	3176
923.442	3043
923.55	3097
923.659	3119
923.767	3233
923.876	3127
923.984	3230
924.092	3089
924.201	3195
924.309	3241
924.417	3222
924.525	3169
924.633	3241
924.741	3983
924.849	3032
924.956	3249
925.064	3112
925.172	2994
925.279	3089
925.387	3146
925.494	3188
925.602	3351
925.709	3344
925.816	3176
925.924	3287
926.031	3355
926.138	3313
926.245	3363
926.352	3249
926.459	3397
926.566	3435
926.673	3306
926.779	3272
926.886	3218
926.993	3119
927.099	3127
927.206	3104
927.312	3093
927.419	3218
927.525	3192
927.631	3283
927.737	3150
927.843	3150
927.95	3013
928.056	3142
928.162	3173
928.267	3230
928.373	3869
928.479	3313
928.585	3055
928.69	3214
928.796	3272
928.901	3154
929.007	3036
929.112	3214
929.218	3173
929.323	3157
929.428	3131
929.533	3298
929.638	3108
929.743	3150
929.848	3283
929.953	3188
930.058	3161
930.163	2982
930.267	3036
930.372	3211
930.477	3024
930.581	3332
930.685	3180
930.79	3055
930.894	3135
930.998	3085
931.103	3279
931.207	2956
931.311	2929
931.415	2941
931.519	2804
931.623	2804
