Data from test_V78500241_433.txt Node
Date: Fri Mar 25 16:18:12 CST 2022
User: usil
Spectrometer: V785-0024
Trigger mode: 0
Integration Time (sec): 4.000000E-1
Scans to average: 1
Nonlinearity correction enabled: false
Boxcar width: 0
Storing dark spectrum: false
XAxis mode: Wavelengths
Number of Pixels in Spectrum: 1024
>>>>>Begin Spectral Data<<<<<
801.071	2937
801.214	2918
801.356	2895
801.499	2922
801.641	2895
801.783	2933
801.926	3062
802.068	2960
802.211	2990
802.353	3032
802.496	2971
802.638	3039
802.78	3024
802.923	3062
803.065	3024
803.208	2910
803.35	2941
803.492	2944
803.635	2960
803.777	2800
803.919	2876
804.061	3195
804.204	2971
804.346	2925
804.488	2853
804.63	2963
804.773	2845
804.915	2944
805.057	3085
805.199	2952
805.341	2982
805.483	3062
805.626	3013
805.768	2960
805.91	3123
806.052	3142
806.194	3062
806.336	3241
806.478	3043
806.62	2967
806.762	2963
806.904	3089
807.046	3192
807.188	3047
807.33	2918
807.472	3013
807.614	2918
807.756	2960
807.898	2922
808.04	2899
808.182	2963
808.324	2952
808.465	2925
808.607	2925
808.749	2823
808.891	2830
809.033	2998
809.174	2990
809.316	2899
809.458	2887
809.6	2766
809.741	2804
809.883	2796
810.025	2891
810.166	2838
810.308	2834
810.45	2857
810.591	2792
810.733	2773
810.875	2826
811.016	2773
811.158	2762
811.299	2815
811.441	2918
811.582	2937
811.724	2819
811.865	2849
812.007	2941
812.148	2880
812.29	2876
812.431	2910
812.573	2933
812.714	2994
812.855	3085
812.997	3074
813.138	3104
813.279	3013
813.421	3001
813.562	2948
813.703	2914
813.845	2914
813.986	2804
814.127	2724
814.268	2830
814.41	2895
814.551	2811
814.692	2910
814.833	2830
814.974	2925
815.115	2952
815.256	2830
815.397	2819
815.539	2864
815.68	2830
815.821	2796
815.962	2948
816.103	2933
816.244	2853
816.385	2895
816.526	3009
816.666	2914
816.807	2708
816.948	2876
817.089	2895
817.23	2857
817.371	2766
817.512	2766
817.653	2838
817.793	2842
817.934	2906
818.075	2941
818.216	3024
818.356	3043
818.497	2914
818.638	2807
818.778	2811
818.919	2788
819.06	2792
819.2	2895
819.341	2800
819.481	2830
819.622	2887
819.762	3100
819.903	3036
820.043	2914
820.184	2880
820.324	2895
820.465	3028
820.605	3020
820.746	2990
820.886	2956
821.026	3055
821.167	3154
821.307	3256
821.447	3306
821.588	3298
821.728	3188
821.868	3214
822.008	3100
822.149	3222
822.289	3237
822.429	3081
822.569	3104
822.709	3157
822.849	3047
822.99	3104
823.13	3173
823.27	3230
823.41	3142
823.55	3123
823.69	3157
823.83	3218
823.97	3135
824.11	3001
824.25	3013
824.389	3070
824.529	3108
824.669	3077
824.809	3207
824.949	3306
825.089	3237
825.228	3218
825.368	2982
825.508	2922
825.648	2994
825.787	3036
825.927	3005
826.067	2994
826.206	2971
826.346	3066
826.485	3093
826.625	3097
826.765	3241
826.904	3241
827.044	2975
827.183	2944
827.323	2883
827.462	2967
827.601	2952
827.741	2933
827.88	3005
828.02	2891
828.159	3001
828.298	3066
828.437	3116
828.577	3051
828.716	3233
828.855	3043
828.994	2910
829.134	2899
829.273	2902
829.412	2883
829.551	2864
829.69	2876
829.829	3020
829.968	3146
830.107	2998
830.246	3039
830.385	2944
830.524	2834
830.663	2811
830.802	2720
830.941	2667
831.08	2617
831.219	2773
831.357	2762
831.496	2944
831.635	2697
831.774	2678
831.913	2663
832.051	2564
832.19	2594
832.329	2674
832.467	2556
832.606	2446
832.744	2571
832.883	2602
833.022	2575
833.16	2651
833.299	2667
833.437	2674
833.576	2689
833.714	2720
833.852	2754
833.991	2796
834.129	2834
834.267	2826
834.406	2781
834.544	2842
834.682	2910
834.821	2864
834.959	3070
835.097	2895
835.235	3081
835.373	2967
835.511	3058
835.65	2914
835.788	2975
835.926	2838
836.064	2819
836.202	2834
836.34	3070
836.478	3150
836.615	3032
836.753	3138
836.891	3173
837.029	3165
837.167	3112
837.305	3074
837.443	3051
837.58	2982
837.718	3154
837.856	3043
837.993	3013
838.131	3135
838.269	3112
838.406	3062
838.544	3081
838.681	2956
838.819	2933
838.956	2838
839.094	2815
839.231	2918
839.369	3009
839.506	3344
839.643	3211
839.781	2998
839.918	2975
840.055	3070
840.193	3074
840.33	3089
840.467	3135
840.604	3157
840.742	3374
840.879	3036
841.016	3058
841.153	3081
841.29	3329
841.427	3302
841.564	3233
841.701	3317
841.838	3214
841.975	3173
842.112	3176
842.249	3104
842.385	3051
842.522	3272
842.659	3146
842.796	3051
842.933	3119
843.069	3032
843.206	3017
843.343	3192
843.479	3154
843.616	3161
843.752	2922
843.889	2876
844.025	3062
844.162	2880
844.298	3043
844.435	2944
844.571	2937
844.708	3085
844.844	3195
844.98	3218
845.117	3222
845.253	3024
845.389	2998
845.525	3085
845.661	3062
845.798	3013
845.934	3116
846.07	3055
846.206	3207
846.342	3313
846.478	3230
846.614	3070
846.75	3074
846.886	3051
847.022	3218
847.158	3116
847.294	3222
847.429	3226
847.565	3218
847.701	3485
847.837	3017
847.972	3009
848.108	3157
848.244	3176
848.379	2975
848.515	2967
848.65	2967
848.786	2994
848.921	3024
849.057	3077
849.192	3146
849.328	3051
849.463	3161
849.598	3058
849.734	3032
849.869	2956
850.004	2925
850.14	2975
850.275	2918
850.41	2845
850.545	2823
850.68	2979
850.815	2967
850.95	2956
851.085	3173
851.22	3097
851.355	3055
851.49	2990
851.625	3001
851.76	3024
851.895	2952
852.03	2944
852.165	3043
852.299	3138
852.434	3184
852.569	3165
852.703	3169
852.838	3249
852.973	3329
853.107	3332
853.242	3119
853.376	3093
853.511	2956
853.645	3043
853.78	3203
853.914	3100
854.048	3112
854.183	3074
854.317	3142
854.451	3279
854.585	3116
854.72	3123
854.854	3199
854.988	3051
855.122	3081
855.256	2975
855.39	3108
855.524	3245
855.658	3146
855.792	3142
855.926	3180
856.06	3211
856.194	3249
856.327	3150
856.461	3097
856.595	3085
856.729	3119
856.862	3222
856.996	3157
857.13	3180
857.263	3218
857.397	3237
857.53	3161
857.664	3222
857.797	3237
857.931	3283
858.064	3188
858.197	3237
858.331	3116
858.464	3058
858.597	3001
858.731	3135
858.864	3138
858.997	3024
859.13	3180
859.263	3154
859.396	3203
859.529	3089
859.662	3020
859.795	3058
859.928	3127
860.061	3268
860.194	3294
860.327	3104
860.46	3077
860.592	3222
860.725	3249
860.858	3211
860.99	3081
861.123	3066
861.256	3028
861.388	3119
861.521	3972
861.653	3009
861.786	2963
861.918	2986
862.05	3062
862.183	3097
862.315	3131
862.447	3161
862.58	3085
862.712	2944
862.844	2872
862.976	3017
863.108	3001
863.24	3401
863.372	2883
863.504	2952
863.636	2975
863.768	3055
863.9	2944
864.032	2910
864.164	2975
864.296	2990
864.428	3077
864.559	3116
864.691	3070
864.823	3062
864.954	3036
865.086	3039
865.217	2998
865.349	2941
865.48	2998
865.612	3039
865.743	3180
865.875	2975
866.006	2902
866.137	2960
866.269	2910
866.4	2937
866.531	2925
866.662	2880
866.793	2906
866.924	2914
867.055	2967
867.186	2902
867.317	2906
867.448	2800
867.579	2891
867.71	2845
867.841	2830
867.972	2925
868.103	2872
868.233	2883
868.364	2861
868.495	2918
868.625	3058
868.756	3184
868.886	2952
869.017	3001
869.147	3161
869.278	3146
869.408	3032
869.539	3024
869.669	3097
869.799	3074
869.929	3131
870.06	3119
870.19	3317
870.32	3275
870.45	3332
870.58	3393
870.71	3443
870.84	3447
870.97	3272
871.1	3272
871.23	3477
871.36	3450
871.489	3359
871.619	3435
871.749	3412
871.879	3416
872.008	3443
872.138	3405
872.267	3256
872.397	3135
872.526	3089
872.656	3024
872.785	3089
872.915	3253
873.044	3348
873.173	3260
873.303	3237
873.432	3211
873.561	3211
873.69	3157
873.819	3157
873.948	3192
874.077	3074
874.206	3032
874.335	3089
874.464	3214
874.593	3340
874.722	3237
874.851	3367
874.979	3329
875.108	3325
875.237	3195
875.365	3157
875.494	3169
875.623	3264
875.751	3043
875.88	3123
876.008	3169
876.136	3237
876.265	3332
876.393	3481
876.521	3439
876.65	3351
876.778	3389
876.906	3249
877.034	3184
877.162	3203
877.29	3154
877.418	3272
877.546	3241
877.674	3241
877.802	3245
877.93	3256
878.058	3154
878.185	3074
878.313	3195
878.441	3195
878.568	3077
878.696	3135
878.824	3226
878.951	3256
879.079	3485
879.206	3587
879.333	3443
879.461	3332
879.588	3359
879.715	3469
879.842	3553
879.97	3340
880.097	3169
880.224	3135
880.351	3214
880.478	3230
880.605	3157
880.732	3214
880.859	3477
880.986	3317
881.112	3325
881.239	3192
881.366	3062
881.493	2986
881.619	3017
881.746	3043
881.872	3097
881.999	3119
882.125	3142
882.252	3241
882.378	3279
882.505	3370
882.631	3283
882.757	3173
882.883	3218
883.01	3207
883.136	3131
883.262	3051
883.388	3119
883.514	3325
883.64	3325
883.766	3310
883.892	3173
884.018	3226
884.143	3386
884.269	3500
884.395	3157
884.52	3180
884.646	3199
884.772	3142
884.897	3085
885.023	3203
885.148	3351
885.274	3412
885.399	3348
885.524	3310
885.65	3283
885.775	3313
885.9	3302
886.025	3378
886.15	3321
886.275	3294
886.4	3226
886.525	3283
886.65	3291
886.775	3306
886.9	3481
887.025	3591
887.149	3378
887.274	3233
887.399	3119
887.523	3161
887.648	3169
887.773	3154
887.897	3370
888.021	3389
888.146	3268
888.27	3428
888.395	3500
888.519	3416
888.643	3477
888.767	3431
888.891	3329
889.015	3249
889.139	3264
889.263	3211
889.387	3386
889.511	3477
889.635	3435
889.759	3287
889.883	3260
890.006	3401
890.13	3481
890.254	3245
890.377	3294
890.501	3192
890.624	3157
890.748	3298
890.871	3203
890.995	3108
891.118	3043
891.241	3184
891.364	3184
891.488	3298
891.611	3226
891.734	3188
891.857	3298
891.98	3256
892.103	3321
892.226	3272
892.349	3211
892.471	3089
892.594	3233
892.717	3298
892.839	3256
892.962	3283
893.085	3329
893.207	3348
893.33	3123
893.452	3203
893.575	3348
893.697	3260
893.819	3462
893.941	3492
894.064	3466
894.186	3268
894.308	3237
894.43	3424
894.552	3557
894.674	3473
894.796	3283
894.918	3340
895.04	3268
895.161	3443
895.283	3389
895.405	3291
895.526	3325
895.648	3393
895.769	3389
895.891	3488
896.012	3488
896.134	3481
896.255	3378
896.376	3412
896.498	3359
896.619	3443
896.74	3355
896.861	3378
896.982	3701
897.103	3816
897.224	3606
897.345	3469
897.466	3431
897.587	3496
897.708	3644
897.828	3504
897.949	3397
898.07	3306
898.19	3389
898.311	3584
898.431	3401
898.552	3538
898.672	3618
898.792	3568
898.913	3538
899.033	3412
899.153	3249
899.273	3218
899.393	3321
899.513	3325
899.633	3332
899.753	3329
899.873	3344
899.993	3382
900.113	3317
900.232	3389
900.352	3367
900.472	3279
900.591	3245
900.711	3344
900.83	3214
900.95	3393
901.069	3523
901.189	3348
901.308	3150
901.427	3142
901.546	3195
901.665	3264
901.784	3310
901.904	3176
902.023	3154
902.141	3005
902.26	3009
902.379	3119
902.498	3047
902.617	3066
902.735	3222
902.854	3245
902.973	3207
903.091	3013
903.21	3085
903.328	3154
903.446	3108
903.565	3089
903.683	3165
903.801	3142
903.919	3256
904.038	3294
904.156	3184
904.274	3298
904.392	3272
904.51	3317
904.627	3321
904.745	3397
904.863	3488
904.981	3226
905.098	3207
905.216	3226
905.334	3260
905.451	3313
905.569	3253
905.686	3397
905.803	3462
905.921	3306
906.038	3443
906.155	3351
906.272	3268
906.389	3325
906.506	3214
906.623	3245
906.74	3253
906.857	3180
906.974	3218
907.091	3439
907.208	3564
907.324	3488
907.441	3370
907.557	3256
907.674	3237
907.79	3218
907.907	3260
908.023	3382
908.139	3351
908.256	3298
908.372	3367
908.488	3363
908.604	3241
908.72	3256
908.836	3272
908.952	3306
909.068	3332
909.184	3488
909.3	3397
909.415	3466
909.531	3454
909.647	3260
909.762	3317
909.878	3264
909.993	3367
910.108	3310
910.224	3367
910.339	3424
910.454	3329
910.57	3310
910.685	3249
910.8	3603
910.915	3572
911.03	3435
911.145	3264
911.259	3291
911.374	3321
911.489	3241
911.604	3233
911.718	3131
911.833	3127
911.947	3005
912.062	3013
912.176	3161
912.291	3180
912.405	3226
912.519	3409
912.633	3462
912.748	3359
912.862	3275
912.976	3161
913.09	3047
913.204	3097
913.318	3237
913.431	3359
913.545	3329
913.659	3412
913.772	3340
913.886	3214
914	3180
914.113	3313
914.226	3386
914.34	3367
914.453	3241
914.566	3416
914.68	3291
914.793	3306
914.906	3127
915.019	3123
915.132	3043
915.245	3199
915.358	3195
915.47	3211
915.583	3249
915.696	3321
915.809	3409
915.921	3378
916.034	3279
916.146	3264
916.259	3226
916.371	3393
916.483	3351
916.595	3241
916.708	3374
916.82	3374
916.932	3370
917.044	3321
917.156	3344
917.268	3283
917.38	3268
917.491	3310
917.603	3389
917.715	3439
917.826	3469
917.938	3409
918.049	3306
918.161	3447
918.272	3580
918.384	3591
918.495	3466
918.606	3287
918.717	3294
918.828	3363
918.939	3393
919.05	3268
919.161	3351
919.272	3173
919.383	3264
919.494	3469
919.604	3701
919.715	3435
919.826	3367
919.936	3443
920.047	3614
920.157	3500
920.267	3747
920.378	3584
920.488	3553
920.598	3793
920.708	3968
920.818	3800
920.928	3835
921.038	4055
921.148	3998
921.258	3675
921.368	3648
921.477	3568
921.587	3515
921.697	3443
921.806	3648
921.916	3500
922.025	3355
922.134	3348
922.244	3340
922.353	3443
922.462	3291
922.571	3195
922.68	3104
922.789	3097
922.898	3131
923.007	3104
923.116	3203
923.224	3199
923.333	3161
923.442	3085
923.55	3085
923.659	3146
923.767	3218
923.876	3123
923.984	3264
924.092	3135
924.201	3207
924.309	3180
924.417	3268
924.525	3184
924.633	3218
924.741	4185
924.849	3036
924.956	3249
925.064	3070
925.172	3043
925.279	3100
925.387	3222
925.494	3211
925.602	3367
925.709	3336
925.816	3192
925.924	3291
926.031	3329
926.138	3325
926.245	3363
926.352	3264
926.459	3382
926.566	3447
926.673	3306
926.779	3264
926.886	3207
926.993	3169
927.099	3150
927.206	3081
927.312	3138
927.419	3226
927.525	3192
927.631	3291
927.737	3123
927.843	3077
927.95	3051
928.056	3142
928.162	3146
928.267	3298
928.373	3884
928.479	3291
928.585	3085
928.69	3203
928.796	3256
928.901	3150
929.007	3093
929.112	3173
929.218	3135
929.323	3119
929.428	3100
929.533	3325
929.638	3085
929.743	3180
929.848	3256
929.953	3207
930.058	3127
930.163	3032
930.267	3032
930.372	3199
930.477	3047
930.581	3313
930.685	3180
930.79	3074
930.894	3100
930.998	3066
931.103	3287
931.207	2952
931.311	2948
931.415	2929
931.519	2781
931.623	2777
