Data from test_V78500241_1275.txt Node
Date: Fri Mar 25 16:24:02 CST 2022
User: usil
Spectrometer: V785-0024
Trigger mode: 0
Integration Time (sec): 4.000000E-1
Scans to average: 1
Nonlinearity correction enabled: false
Boxcar width: 0
Storing dark spectrum: false
XAxis mode: Wavelengths
Number of Pixels in Spectrum: 1024
>>>>>Begin Spectral Data<<<<<
801.071	2960
801.214	2960
801.356	2895
801.499	2982
801.641	2914
801.783	2960
801.926	3104
802.068	3024
802.211	3005
802.353	3047
802.496	3032
802.638	3028
802.78	3051
802.923	3077
803.065	3013
803.208	2941
803.35	2960
803.492	2990
803.635	2986
803.777	2823
803.919	2899
804.061	3253
804.204	2994
804.346	2895
804.488	2868
804.63	3036
804.773	2868
804.915	2960
805.057	3116
805.199	2956
805.341	2994
805.483	3085
805.626	3024
805.768	3024
805.91	3123
806.052	3157
806.194	3089
806.336	3264
806.478	3055
806.62	3005
806.762	3001
806.904	3097
807.046	3169
807.188	3017
807.33	2929
807.472	3032
807.614	2925
807.756	3028
807.898	2998
808.04	2906
808.182	3009
808.324	3009
808.465	2922
808.607	2864
808.749	2853
808.891	2883
809.033	2998
809.174	2986
809.316	2937
809.458	2914
809.6	2785
809.741	2788
809.883	2796
810.025	2899
810.166	2895
810.308	2880
810.45	2895
810.591	2804
810.733	2788
810.875	2887
811.016	2811
811.158	2811
811.299	2842
811.441	2937
811.582	2899
811.724	2853
811.865	2845
812.007	2948
812.148	2929
812.29	2883
812.431	2941
812.573	2971
812.714	2963
812.855	3062
812.997	3062
813.138	3116
813.279	3028
813.421	3043
813.562	2948
813.703	2872
813.845	2906
813.986	2819
814.127	2735
814.268	2845
814.41	2880
814.551	2864
814.692	2895
814.833	2834
814.974	2895
815.115	2975
815.256	2876
815.397	2800
815.539	2883
815.68	2792
815.821	2796
815.962	2967
816.103	2963
816.244	2918
816.385	2853
816.526	2963
816.666	2967
816.807	2712
816.948	2895
817.089	2937
817.23	2876
817.371	2788
817.512	2792
817.653	2861
817.793	2857
817.934	2902
818.075	3020
818.216	3013
818.356	3039
818.497	2918
818.638	2845
818.778	2857
818.919	2849
819.06	2807
819.2	2887
819.341	2834
819.481	2811
819.622	2952
819.762	3112
819.903	3062
820.043	2944
820.184	2902
820.324	2914
820.465	3009
820.605	3017
820.746	3074
820.886	2948
821.026	3142
821.167	3176
821.307	3291
821.447	3310
821.588	3226
821.728	3222
821.868	3245
822.008	3127
822.149	3199
822.289	3253
822.429	3131
822.569	3085
822.709	3192
822.849	3066
822.99	3089
823.13	3150
823.27	3253
823.41	3100
823.55	3157
823.69	3150
823.83	3233
823.97	3157
824.11	3009
824.25	3024
824.389	3074
824.529	3138
824.669	3062
824.809	3161
824.949	3302
825.089	3230
825.228	3192
825.368	3058
825.508	2986
825.648	3001
825.787	3051
825.927	3001
826.067	2986
826.206	2982
826.346	3066
826.485	3097
826.625	3173
826.765	3313
826.904	3222
827.044	3013
827.183	2986
827.323	2910
827.462	2994
827.601	2952
827.741	2937
827.88	2967
828.02	2857
828.159	2990
828.298	3070
828.437	3131
828.577	3077
828.716	3249
828.855	3116
828.994	2948
829.134	2922
829.273	2941
829.412	2883
829.551	2910
829.69	2857
829.829	3001
829.968	3138
830.107	3062
830.246	3051
830.385	2902
830.524	2902
830.663	2826
830.802	2762
830.941	2663
831.08	2659
831.219	2804
831.357	2773
831.496	3009
831.635	2743
831.774	2678
831.913	2648
832.051	2541
832.19	2594
832.329	2686
832.467	2568
832.606	2499
832.744	2594
832.883	2583
833.022	2629
833.16	2686
833.299	2689
833.437	2720
833.576	2701
833.714	2746
833.852	2743
833.991	2785
834.129	2864
834.267	2880
834.406	2804
834.544	2902
834.682	2899
834.821	2910
834.959	3089
835.097	2883
835.235	3043
835.373	2994
835.511	3028
835.65	2994
835.788	3005
835.926	2849
836.064	2853
836.202	2834
836.34	3077
836.478	3169
836.615	3093
836.753	3180
836.891	3241
837.029	3173
837.167	3131
837.305	3104
837.443	3070
837.58	2990
837.718	3165
837.856	3066
837.993	3047
838.131	3142
838.269	3150
838.406	3093
838.544	3123
838.681	2986
838.819	2918
838.956	2857
839.094	2838
839.231	2937
839.369	3039
839.506	3397
839.643	3241
839.781	3024
839.918	3013
840.055	3051
840.193	3039
840.33	3104
840.467	3104
840.604	3142
840.742	3428
840.879	3089
841.016	3039
841.153	3135
841.29	3367
841.427	3306
841.564	3279
841.701	3317
841.838	3241
841.975	3188
842.112	3226
842.249	3104
842.385	3074
842.522	3294
842.659	3100
842.796	3066
842.933	3123
843.069	3051
843.206	3043
843.343	3207
843.479	3138
843.616	3157
843.752	2895
843.889	2849
844.025	3112
844.162	2857
844.298	3119
844.435	2948
844.571	2975
844.708	3077
844.844	3188
844.98	3211
845.117	3192
845.253	3070
845.389	3024
845.525	3097
845.661	3100
845.798	3047
845.934	3131
846.07	3024
846.206	3226
846.342	3348
846.478	3260
846.614	3131
846.75	3043
846.886	3047
847.022	3275
847.158	3112
847.294	3176
847.429	3222
847.565	3176
847.701	3492
847.837	3047
847.972	3032
848.108	3142
848.244	3154
848.379	3024
848.515	2944
848.65	2963
848.786	2994
848.921	3024
849.057	3085
849.192	3131
849.328	3085
849.463	3119
849.598	3066
849.734	3047
849.869	2979
850.004	2895
850.14	2990
850.275	2937
850.41	2845
850.545	2933
850.68	2922
850.815	2975
850.95	2963
851.085	3173
851.22	3127
851.355	3077
851.49	3013
851.625	2994
851.76	3009
851.895	2948
852.03	2929
852.165	3043
852.299	3135
852.434	3226
852.569	3154
852.703	3154
852.838	3245
852.973	3405
853.107	3336
853.242	3192
853.376	3081
853.511	2986
853.645	3055
853.78	3233
853.914	3123
854.048	3085
854.183	3085
854.317	3150
854.451	3260
854.585	3131
854.72	3100
854.854	3256
854.988	3062
855.122	3127
855.256	2998
855.39	3112
855.524	3283
855.658	3180
855.792	3161
855.926	3230
856.06	3230
856.194	3287
856.327	3154
856.461	3070
856.595	3043
856.729	3108
856.862	3233
856.996	3180
857.13	3226
857.263	3233
857.397	3287
857.53	3142
857.664	3161
857.797	3222
857.931	3249
858.064	3142
858.197	3230
858.331	3127
858.464	3123
858.597	3020
858.731	3131
858.864	3116
858.997	3108
859.13	3161
859.263	3176
859.396	3192
859.529	3077
859.662	3074
859.795	3043
859.928	3112
860.061	3294
860.194	3317
860.327	3142
860.46	3119
860.592	3283
860.725	3237
860.858	3272
860.99	3081
861.123	3055
861.256	3070
861.388	3207
861.521	3698
861.653	3058
861.786	2963
861.918	3036
862.05	3051
862.183	3077
862.315	3161
862.447	3188
862.58	3085
862.712	2982
862.844	2910
862.976	3020
863.108	2998
863.24	3332
863.372	2906
863.504	2944
863.636	2963
863.768	3020
863.9	2990
864.032	2918
864.164	2952
864.296	3028
864.428	3081
864.559	3127
864.691	3127
864.823	3074
864.954	3009
865.086	3055
865.217	3005
865.349	2937
865.48	2998
865.612	3039
865.743	3127
865.875	3009
866.006	2975
866.137	2998
866.269	2914
866.4	2990
866.531	2899
866.662	2906
866.793	2853
866.924	2914
867.055	2971
867.186	2933
867.317	2880
867.448	2853
867.579	2872
867.71	2887
867.841	2823
867.972	2929
868.103	2876
868.233	2880
868.364	2842
868.495	2922
868.625	3081
868.756	3161
868.886	2990
869.017	3017
869.147	3184
869.278	3165
869.408	3047
869.539	3020
869.669	3066
869.799	3020
869.929	3097
870.06	3093
870.19	3363
870.32	3298
870.45	3294
870.58	3416
870.71	3485
870.84	3458
870.97	3298
871.1	3249
871.23	3488
871.36	3447
871.489	3348
871.619	3428
871.749	3428
871.879	3443
872.008	3507
872.138	3401
872.267	3291
872.397	3146
872.526	3100
872.656	2994
872.785	3154
872.915	3230
873.044	3294
873.173	3218
873.303	3233
873.432	3256
873.561	3237
873.69	3116
873.819	3119
873.948	3188
874.077	3142
874.206	3058
874.335	3077
874.464	3218
874.593	3329
874.722	3245
874.851	3340
874.979	3344
875.108	3321
875.237	3222
875.365	3180
875.494	3176
875.623	3230
875.751	3074
875.88	3104
876.008	3165
876.136	3207
876.265	3378
876.393	3511
876.521	3401
876.65	3367
876.778	3283
876.906	3287
877.034	3195
877.162	3226
877.29	3169
877.418	3226
877.546	3245
877.674	3245
877.802	3253
877.93	3230
878.058	3154
878.185	3123
878.313	3211
878.441	3233
878.568	3043
878.696	3131
878.824	3241
878.951	3291
879.079	3447
879.206	3610
879.333	3424
879.461	3317
879.588	3355
879.715	3504
879.842	3572
879.97	3405
880.097	3169
880.224	3138
880.351	3195
880.478	3195
880.605	3226
880.732	3192
880.859	3511
880.986	3287
881.112	3313
881.239	3222
881.366	3093
881.493	3051
881.619	2979
881.746	3108
881.872	3085
881.999	3100
882.125	3135
882.252	3241
882.378	3279
882.505	3428
882.631	3310
882.757	3180
882.883	3233
883.01	3188
883.136	3173
883.262	3097
883.388	3074
883.514	3294
883.64	3374
883.766	3306
883.892	3218
884.018	3237
884.143	3409
884.269	3511
884.395	3195
884.52	3188
884.646	3165
884.772	3127
884.897	3077
885.023	3237
885.148	3344
885.274	3370
885.399	3325
885.524	3283
885.65	3237
885.775	3279
885.9	3298
886.025	3443
886.15	3355
886.275	3264
886.4	3233
886.525	3348
886.65	3260
886.775	3275
886.9	3477
887.025	3610
887.149	3435
887.274	3260
887.399	3154
887.523	3192
887.648	3199
887.773	3169
887.897	3363
888.021	3431
888.146	3283
888.27	3435
888.395	3511
888.519	3401
888.643	3466
888.767	3431
888.891	3294
889.015	3237
889.139	3264
889.263	3279
889.387	3397
889.511	3523
889.635	3428
889.759	3287
889.883	3348
890.006	3374
890.13	3496
890.254	3256
890.377	3329
890.501	3176
890.624	3214
890.748	3260
890.871	3165
890.995	3085
891.118	3039
891.241	3211
891.364	3233
891.488	3317
891.611	3165
891.734	3211
891.857	3218
891.98	3222
892.103	3332
892.226	3237
892.349	3184
892.471	3058
892.594	3222
892.717	3275
892.839	3268
892.962	3317
893.085	3321
893.207	3294
893.33	3169
893.452	3180
893.575	3329
893.697	3275
893.819	3473
893.941	3481
894.064	3435
894.186	3302
894.308	3283
894.43	3412
894.552	3523
894.674	3485
894.796	3268
894.918	3321
895.04	3264
895.161	3431
895.283	3401
895.405	3275
895.526	3382
895.648	3374
895.769	3409
895.891	3454
896.012	3466
896.134	3443
896.255	3416
896.376	3397
896.498	3370
896.619	3454
896.74	3370
896.861	3428
896.982	3694
897.103	3865
897.224	3618
897.345	3515
897.466	3450
897.587	3466
897.708	3591
897.828	3538
897.949	3469
898.07	3325
898.19	3393
898.311	3648
898.431	3443
898.552	3500
898.672	3603
898.792	3564
898.913	3534
899.033	3401
899.153	3272
899.273	3237
899.393	3264
899.513	3321
899.633	3302
899.753	3359
899.873	3313
899.993	3325
900.113	3294
900.232	3374
900.352	3351
900.472	3275
900.591	3184
900.711	3283
900.83	3222
900.95	3424
901.069	3473
901.189	3363
901.308	3199
901.427	3154
901.546	3169
901.665	3294
901.784	3348
901.904	3237
902.023	3119
902.141	3013
902.26	2986
902.379	3135
902.498	3062
902.617	3039
902.735	3184
902.854	3222
902.973	3207
903.091	3089
903.21	3039
903.328	3131
903.446	3097
903.565	3097
903.683	3176
903.801	3157
903.919	3253
904.038	3291
904.156	3146
904.274	3310
904.392	3195
904.51	3351
904.627	3310
904.745	3405
904.863	3481
904.981	3275
905.098	3180
905.216	3195
905.334	3260
905.451	3306
905.569	3287
905.686	3428
905.803	3416
905.921	3310
906.038	3443
906.155	3344
906.272	3283
906.389	3298
906.506	3230
906.623	3222
906.74	3233
906.857	3176
906.974	3256
907.091	3458
907.208	3557
907.324	3481
907.441	3374
907.557	3207
907.674	3218
907.79	3188
907.907	3291
908.023	3351
908.139	3363
908.256	3344
908.372	3340
908.488	3363
908.604	3256
908.72	3245
908.836	3237
908.952	3329
909.068	3313
909.184	3416
909.3	3409
909.415	3462
909.531	3435
909.647	3256
909.762	3260
909.878	3283
909.993	3378
910.108	3382
910.224	3336
910.339	3428
910.454	3340
910.57	3279
910.685	3268
910.8	3580
910.915	3542
911.03	3420
911.145	3283
911.259	3294
911.374	3344
911.489	3272
911.604	3268
911.718	3089
911.833	3180
911.947	3009
912.062	2956
912.176	3165
912.291	3176
912.405	3199
912.519	3424
912.633	3477
912.748	3332
912.862	3241
912.976	3165
913.09	3043
913.204	3138
913.318	3173
913.431	3348
913.545	3302
913.659	3355
913.772	3302
913.886	3207
914	3188
914.113	3355
914.226	3435
914.34	3348
914.453	3222
914.566	3412
914.68	3279
914.793	3313
914.906	3142
915.019	3116
915.132	3036
915.245	3203
915.358	3207
915.47	3237
915.583	3291
915.696	3272
915.809	3397
915.921	3428
916.034	3283
916.146	3237
916.259	3203
916.371	3386
916.483	3340
916.595	3260
916.708	3363
916.82	3370
916.932	3363
917.044	3348
917.156	3344
917.268	3260
917.38	3253
917.491	3279
917.603	3393
917.715	3409
917.826	3454
917.938	3340
918.049	3260
918.161	3447
918.272	3599
918.384	3553
918.495	3496
918.606	3313
918.717	3302
918.828	3382
918.939	3363
919.05	3287
919.161	3351
919.272	3180
919.383	3272
919.494	3462
919.604	3690
919.715	3466
919.826	3393
919.936	3443
920.047	3576
920.157	3545
920.267	3762
920.378	3580
920.488	3542
920.598	3804
920.708	3956
920.818	3812
920.928	3793
921.038	4036
921.148	3968
921.258	3709
921.368	3614
921.477	3564
921.587	3523
921.697	3447
921.806	3618
921.916	3526
922.025	3351
922.134	3340
922.244	3310
922.353	3412
922.462	3268
922.571	3222
922.68	3108
922.789	3074
922.898	3142
923.007	3131
923.116	3188
923.224	3165
923.333	3157
923.442	3097
923.55	3074
923.659	3119
923.767	3184
923.876	3123
923.984	3233
924.092	3108
924.201	3203
924.309	3214
924.417	3226
924.525	3180
924.633	3184
924.741	4013
924.849	3039
924.956	3245
925.064	3123
925.172	3051
925.279	3108
925.387	3199
925.494	3195
925.602	3321
925.709	3310
925.816	3188
925.924	3283
926.031	3329
926.138	3313
926.245	3355
926.352	3264
926.459	3401
926.566	3454
926.673	3268
926.779	3245
926.886	3199
926.993	3089
927.099	3104
927.206	3108
927.312	3119
927.419	3211
927.525	3173
927.631	3287
927.737	3116
927.843	3089
927.95	3028
928.056	3142
928.162	3150
928.267	3249
928.373	3846
928.479	3306
928.585	3047
928.69	3211
928.796	3241
928.901	3169
929.007	3013
929.112	3180
929.218	3146
929.323	3150
929.428	3169
929.533	3310
929.638	3146
929.743	3150
929.848	3272
929.953	3211
930.058	3157
930.163	2982
930.267	3032
930.372	3173
930.477	3032
930.581	3291
930.685	3135
930.79	3077
930.894	3119
930.998	3066
931.103	3268
931.207	2982
931.311	2918
931.415	2895
931.519	2724
931.623	2815
