Data from test_V78500241_1687.txt Node
Date: Fri Mar 25 16:26:53 CST 2022
User: usil
Spectrometer: V785-0024
Trigger mode: 0
Integration Time (sec): 4.000000E-1
Scans to average: 1
Nonlinearity correction enabled: false
Boxcar width: 0
Storing dark spectrum: false
XAxis mode: Wavelengths
Number of Pixels in Spectrum: 1024
>>>>>Begin Spectral Data<<<<<
801.071	2910
801.214	2960
801.356	2861
801.499	2887
801.641	2891
801.783	2922
801.926	3047
802.068	2963
802.211	2982
802.353	3055
802.496	2944
802.638	3013
802.78	3032
802.923	3070
803.065	2990
803.208	2906
803.35	2899
803.492	2899
803.635	2906
803.777	2746
803.919	2872
804.061	3249
804.204	2933
804.346	2922
804.488	2857
804.63	2975
804.773	2899
804.915	2910
805.057	3070
805.199	2937
805.341	2963
805.483	3032
805.626	2979
805.768	2941
805.91	3058
806.052	3112
806.194	3036
806.336	3195
806.478	2998
806.62	2929
806.762	2952
806.904	3066
807.046	3157
807.188	2941
807.33	2902
807.472	3020
807.614	2918
807.756	2994
807.898	2929
808.04	2887
808.182	2979
808.324	2937
808.465	2864
808.607	2872
808.749	2781
808.891	2876
809.033	2925
809.174	2971
809.316	2883
809.458	2910
809.6	2777
809.741	2769
809.883	2766
810.025	2826
810.166	2876
810.308	2811
810.45	2834
810.591	2788
810.733	2766
810.875	2834
811.016	2788
811.158	2743
811.299	2834
811.441	2933
811.582	2906
811.724	2807
811.865	2815
812.007	2887
812.148	2899
812.29	2838
812.431	2826
812.573	2902
812.714	2910
812.855	3013
812.997	3039
813.138	3131
813.279	2998
813.421	2998
813.562	2933
813.703	2876
813.845	2876
813.986	2762
814.127	2712
814.268	2823
814.41	2845
814.551	2823
814.692	2918
814.833	2815
814.974	2876
815.115	2922
815.256	2845
815.397	2800
815.539	2845
815.68	2807
815.821	2773
815.962	2918
816.103	2872
816.244	2826
816.385	2880
816.526	2994
816.666	2918
816.807	2750
816.948	2880
817.089	2922
817.23	2845
817.371	2777
817.512	2811
817.653	2861
817.793	2804
817.934	2861
818.075	2960
818.216	2990
818.356	3024
818.497	2880
818.638	2815
818.778	2823
818.919	2777
819.06	2762
819.2	2864
819.341	2796
819.481	2788
819.622	2952
819.762	3081
819.903	3074
820.043	2876
820.184	2883
820.324	2914
820.465	3039
820.605	3043
820.746	3001
820.886	2880
821.026	3127
821.167	3112
821.307	3268
821.447	3287
821.588	3214
821.728	3173
821.868	3211
822.008	3070
822.149	3154
822.289	3211
822.429	3074
822.569	3074
822.709	3173
822.849	3020
822.99	3047
823.13	3142
823.27	3173
823.41	3127
823.55	3116
823.69	3165
823.83	3180
823.97	3058
824.11	2994
824.25	2986
824.389	3070
824.529	3123
824.669	3085
824.809	3176
824.949	3211
825.089	3237
825.228	3142
825.368	3001
825.508	2960
825.648	2967
825.787	3017
825.927	3043
826.067	2937
826.206	2944
826.346	3043
826.485	3074
826.625	3100
826.765	3256
826.904	3192
827.044	2998
827.183	2967
827.323	2872
827.462	2990
827.601	2895
827.741	2944
827.88	2941
828.02	2857
828.159	2944
828.298	3017
828.437	3112
828.577	3020
828.716	3264
828.855	3066
828.994	2925
829.134	2883
829.273	2906
829.412	2880
829.551	2887
829.69	2883
829.829	2971
829.968	3123
830.107	2990
830.246	3024
830.385	2933
830.524	2887
830.663	2853
830.802	2701
830.941	2663
831.08	2648
831.219	2754
831.357	2743
831.496	2922
831.635	2701
831.774	2663
831.913	2659
832.051	2556
832.19	2617
832.329	2678
832.467	2533
832.606	2522
832.744	2594
832.883	2579
833.022	2594
833.16	2636
833.299	2701
833.437	2651
833.576	2708
833.714	2746
833.852	2727
833.991	2762
834.129	2842
834.267	2800
834.406	2796
834.544	2868
834.682	2868
834.821	2887
834.959	3058
835.097	2910
835.235	3043
835.373	3017
835.511	3039
835.65	2925
835.788	2956
835.926	2800
836.064	2823
836.202	2819
836.34	3093
836.478	3146
836.615	3043
836.753	3104
836.891	3195
837.029	3150
837.167	3070
837.305	3036
837.443	3001
837.58	2918
837.718	3100
837.856	3055
837.993	3020
838.131	3097
838.269	3051
838.406	3074
838.544	3066
838.681	2914
838.819	2864
838.956	2777
839.094	2823
839.231	2887
839.369	2990
839.506	3355
839.643	3245
839.781	3036
839.918	2944
840.055	3032
840.193	3032
840.33	3081
840.467	3097
840.604	3127
840.742	3428
840.879	3051
841.016	3047
841.153	3097
841.29	3336
841.427	3275
841.564	3272
841.701	3294
841.838	3211
841.975	3180
842.112	3226
842.249	3116
842.385	3058
842.522	3253
842.659	3074
842.796	3047
842.933	3127
843.069	3058
843.206	3047
843.343	3173
843.479	3112
843.616	3135
843.752	2883
843.889	2834
844.025	3051
844.162	2895
844.298	3066
844.435	2933
844.571	2891
844.708	3097
844.844	3192
844.98	3226
845.117	3195
845.253	3066
845.389	2998
845.525	3116
845.661	3108
845.798	3013
845.934	3097
846.07	3032
846.206	3233
846.342	3283
846.478	3230
846.614	3100
846.75	3032
846.886	3032
847.022	3237
847.158	3100
847.294	3169
847.429	3211
847.565	3249
847.701	3504
847.837	3062
847.972	2975
848.108	3188
848.244	3108
848.379	2990
848.515	2918
848.65	2956
848.786	2963
848.921	3013
849.057	3104
849.192	3195
849.328	3043
849.463	3104
849.598	3100
849.734	3074
849.869	2925
850.004	2899
850.14	2960
850.275	2902
850.41	2842
850.545	2868
850.68	2929
850.815	2960
850.95	2994
851.085	3176
851.22	3116
851.355	3017
851.49	2990
851.625	2994
851.76	3036
851.895	2902
852.03	2941
852.165	3043
852.299	3119
852.434	3207
852.569	3135
852.703	3157
852.838	3253
852.973	3310
853.107	3344
853.242	3161
853.376	3123
853.511	2986
853.645	3062
853.78	3233
853.914	3104
854.048	3123
854.183	3093
854.317	3119
854.451	3272
854.585	3135
854.72	3089
854.854	3169
854.988	3020
855.122	3085
855.256	2967
855.39	3081
855.524	3199
855.658	3161
855.792	3123
855.926	3195
856.06	3230
856.194	3214
856.327	3188
856.461	3055
856.595	3085
856.729	3097
856.862	3214
856.996	3180
857.13	3203
857.263	3230
857.397	3302
857.53	3112
857.664	3199
857.797	3211
857.931	3214
858.064	3161
858.197	3207
858.331	3138
858.464	3081
858.597	2982
858.731	3161
858.864	3108
858.997	3127
859.13	3150
859.263	3184
859.396	3188
859.529	3039
859.662	3066
859.795	3028
859.928	3150
860.061	3264
860.194	3283
860.327	3127
860.46	3119
860.592	3218
860.725	3279
860.858	3249
860.99	3127
861.123	3047
861.256	3017
861.388	3138
861.521	3869
861.653	2971
861.786	2948
861.918	2967
862.05	3036
862.183	3100
862.315	3161
862.447	3214
862.58	3119
862.712	2956
862.844	2883
862.976	3009
863.108	3005
863.24	3409
863.372	2880
863.504	2979
863.636	2956
863.768	3020
863.9	2990
864.032	2906
864.164	2933
864.296	2998
864.428	3047
864.559	3074
864.691	3097
864.823	3070
864.954	2963
865.086	3058
865.217	2975
865.349	2952
865.48	2933
865.612	3032
865.743	3146
865.875	2982
866.006	2967
866.137	2948
866.269	2925
866.4	2948
866.531	2918
866.662	2914
866.793	2876
866.924	2872
867.055	2971
867.186	2902
867.317	2861
867.448	2830
867.579	2853
867.71	2861
867.841	2861
867.972	2918
868.103	2922
868.233	2891
868.364	2861
868.495	2872
868.625	3058
868.756	3169
868.886	2960
869.017	2990
869.147	3157
869.278	3127
869.408	3055
869.539	3058
869.669	3112
869.799	3051
869.929	3123
870.06	3127
870.19	3325
870.32	3291
870.45	3279
870.58	3355
870.71	3424
870.84	3447
870.97	3260
871.1	3256
871.23	3473
871.36	3435
871.489	3306
871.619	3409
871.749	3393
871.879	3405
872.008	3469
872.138	3370
872.267	3310
872.397	3161
872.526	3089
872.656	2975
872.785	3089
872.915	3233
873.044	3310
873.173	3230
873.303	3226
873.432	3249
873.561	3241
873.69	3188
873.819	3116
873.948	3154
874.077	3112
874.206	3058
874.335	3085
874.464	3230
874.593	3351
874.722	3268
874.851	3405
874.979	3325
875.108	3302
875.237	3188
875.365	3150
875.494	3161
875.623	3260
875.751	3047
875.88	3112
876.008	3138
876.136	3245
876.265	3340
876.393	3515
876.521	3382
876.65	3378
876.778	3321
876.906	3249
877.034	3233
877.162	3218
877.29	3188
877.418	3226
877.546	3264
877.674	3241
877.802	3226
877.93	3222
878.058	3157
878.185	3131
878.313	3188
878.441	3195
878.568	3043
878.696	3184
878.824	3199
878.951	3298
879.079	3420
879.206	3572
879.333	3424
879.461	3256
879.588	3378
879.715	3504
879.842	3587
879.97	3351
880.097	3150
880.224	3138
880.351	3180
880.478	3214
880.605	3192
880.732	3176
880.859	3462
880.986	3317
881.112	3332
881.239	3203
881.366	3093
881.493	3028
881.619	2998
881.746	3074
881.872	3097
881.999	3081
882.125	3161
882.252	3260
882.378	3264
882.505	3420
882.631	3222
882.757	3112
882.883	3173
883.01	3214
883.136	3165
883.262	3077
883.388	3116
883.514	3344
883.64	3389
883.766	3264
883.892	3207
884.018	3188
884.143	3420
884.269	3538
884.395	3222
884.52	3138
884.646	3184
884.772	3089
884.897	3138
885.023	3226
885.148	3313
885.274	3393
885.399	3344
885.524	3256
885.65	3275
885.775	3344
885.9	3268
886.025	3458
886.15	3382
886.275	3272
886.4	3249
886.525	3275
886.65	3245
886.775	3253
886.9	3492
887.025	3660
887.149	3405
887.274	3241
887.399	3184
887.523	3184
887.648	3199
887.773	3176
887.897	3405
888.021	3401
888.146	3321
888.27	3447
888.395	3507
888.519	3450
888.643	3435
888.767	3462
888.891	3298
889.015	3233
889.139	3283
889.263	3222
889.387	3431
889.511	3488
889.635	3439
889.759	3306
889.883	3294
890.006	3363
890.13	3481
890.254	3275
890.377	3370
890.501	3195
890.624	3173
890.748	3287
890.871	3146
890.995	3097
891.118	3051
891.241	3207
891.364	3214
891.488	3344
891.611	3176
891.734	3226
891.857	3317
891.98	3214
892.103	3313
892.226	3260
892.349	3226
892.471	3085
892.594	3245
892.717	3298
892.839	3283
892.962	3272
893.085	3363
893.207	3302
893.33	3165
893.452	3199
893.575	3378
893.697	3233
893.819	3450
893.941	3504
894.064	3447
894.186	3249
894.308	3275
894.43	3454
894.552	3519
894.674	3439
894.796	3268
894.918	3329
895.04	3256
895.161	3416
895.283	3435
895.405	3313
895.526	3401
895.648	3405
895.769	3450
895.891	3431
896.012	3450
896.134	3492
896.255	3382
896.376	3431
896.498	3344
896.619	3458
896.74	3382
896.861	3409
896.982	3660
897.103	3819
897.224	3576
897.345	3458
897.466	3454
897.587	3488
897.708	3648
897.828	3545
897.949	3416
898.07	3351
898.19	3363
898.311	3591
898.431	3409
898.552	3545
898.672	3587
898.792	3542
898.913	3515
899.033	3397
899.153	3249
899.273	3226
899.393	3272
899.513	3329
899.633	3310
899.753	3325
899.873	3336
899.993	3355
900.113	3317
900.232	3405
900.352	3340
900.472	3279
900.591	3199
900.711	3264
900.83	3249
900.95	3462
901.069	3473
901.189	3355
901.308	3184
901.427	3127
901.546	3203
901.665	3310
901.784	3302
901.904	3176
902.023	3127
902.141	3001
902.26	2994
902.379	3131
902.498	3077
902.617	3028
902.735	3218
902.854	3203
902.973	3207
903.091	3032
903.21	3028
903.328	3123
903.446	3097
903.565	3070
903.683	3211
903.801	3112
903.919	3237
904.038	3233
904.156	3165
904.274	3298
904.392	3233
904.51	3249
904.627	3287
904.745	3450
904.863	3450
904.981	3306
905.098	3165
905.216	3207
905.334	3272
905.451	3279
905.569	3313
905.686	3409
905.803	3393
905.921	3279
906.038	3420
906.155	3332
906.272	3260
906.389	3321
906.506	3249
906.623	3214
906.74	3287
906.857	3180
906.974	3245
907.091	3424
907.208	3614
907.324	3473
907.441	3386
907.557	3214
907.674	3226
907.79	3226
907.907	3272
908.023	3340
908.139	3329
908.256	3340
908.372	3378
908.488	3386
908.604	3268
908.72	3211
908.836	3268
908.952	3287
909.068	3359
909.184	3447
909.3	3389
909.415	3500
909.531	3477
909.647	3268
909.762	3268
909.878	3256
909.993	3382
910.108	3336
910.224	3359
910.339	3447
910.454	3313
910.57	3302
910.685	3264
910.8	3584
910.915	3549
911.03	3447
911.145	3256
911.259	3264
911.374	3317
911.489	3241
911.604	3199
911.718	3146
911.833	3169
911.947	3039
912.062	2956
912.176	3169
912.291	3195
912.405	3237
912.519	3416
912.633	3409
912.748	3351
912.862	3291
912.976	3161
913.09	3077
913.204	3135
913.318	3237
913.431	3344
913.545	3313
913.659	3389
913.772	3310
913.886	3188
914	3211
914.113	3344
914.226	3424
914.34	3355
914.453	3203
914.566	3405
914.68	3291
914.793	3306
914.906	3154
915.019	3097
915.132	3100
915.245	3150
915.358	3207
915.47	3272
915.583	3279
915.696	3306
915.809	3393
915.921	3447
916.034	3211
916.146	3245
916.259	3275
916.371	3363
916.483	3340
916.595	3294
916.708	3348
916.82	3321
916.932	3313
917.044	3351
917.156	3332
917.268	3264
917.38	3317
917.491	3283
917.603	3355
917.715	3458
917.826	3443
917.938	3393
918.049	3264
918.161	3428
918.272	3561
918.384	3576
918.495	3492
918.606	3336
918.717	3287
918.828	3363
918.939	3405
919.05	3298
919.161	3348
919.272	3157
919.383	3272
919.494	3500
919.604	3694
919.715	3500
919.826	3428
919.936	3462
920.047	3549
920.157	3530
920.267	3778
920.378	3595
920.488	3553
920.598	3781
920.708	3983
920.818	3808
920.928	3781
921.038	4013
921.148	4002
921.258	3717
921.368	3614
921.477	3526
921.587	3515
921.697	3462
921.806	3641
921.916	3526
922.025	3332
922.134	3397
922.244	3310
922.353	3420
922.462	3237
922.571	3233
922.68	3085
922.789	3100
922.898	3127
923.007	3051
923.116	3207
923.224	3146
923.333	3142
923.442	3077
923.55	3085
923.659	3157
923.767	3222
923.876	3131
923.984	3222
924.092	3135
924.201	3195
924.309	3207
924.417	3264
924.525	3127
924.633	3249
924.741	4036
924.849	3051
924.956	3253
925.064	3066
925.172	3039
925.279	3093
925.387	3195
925.494	3230
925.602	3370
925.709	3317
925.816	3230
925.924	3253
926.031	3363
926.138	3294
926.245	3348
926.352	3237
926.459	3382
926.566	3450
926.673	3325
926.779	3294
926.886	3253
926.993	3169
927.099	3135
927.206	3127
927.312	3093
927.419	3241
927.525	3214
927.631	3256
927.737	3138
927.843	3074
927.95	3055
928.056	3173
928.162	3207
928.267	3218
928.373	3835
928.479	3313
928.585	3081
928.69	3249
928.796	3245
928.901	3161
929.007	3047
929.112	3222
929.218	3211
929.323	3138
929.428	3157
929.533	3306
929.638	3131
929.743	3176
929.848	3260
929.953	3222
930.058	3127
930.163	2982
930.267	3055
930.372	3226
930.477	3024
930.581	3344
930.685	3207
930.79	3039
930.894	3070
930.998	3097
931.103	3310
931.207	2979
931.311	2925
931.415	2922
931.519	2766
931.623	2815
