Data from test_V78500241_1078.txt Node
Date: Fri Mar 25 16:22:40 CST 2022
User: usil
Spectrometer: V785-0024
Trigger mode: 0
Integration Time (sec): 4.000000E-1
Scans to average: 1
Nonlinearity correction enabled: false
Boxcar width: 0
Storing dark spectrum: false
XAxis mode: Wavelengths
Number of Pixels in Spectrum: 1024
>>>>>Begin Spectral Data<<<<<
801.071	2941
801.214	2963
801.356	2895
801.499	2910
801.641	2891
801.783	2952
801.926	3066
802.068	2986
802.211	3036
802.353	3062
802.496	2982
802.638	3005
802.78	3070
802.923	3104
803.065	3001
803.208	2918
803.35	2899
803.492	2929
803.635	2975
803.777	2788
803.919	2880
804.061	3230
804.204	2971
804.346	2929
804.488	2864
804.63	3028
804.773	2864
804.915	2922
805.057	3066
805.199	2952
805.341	3017
805.483	3028
805.626	3039
805.768	2944
805.91	3081
806.052	3123
806.194	3043
806.336	3226
806.478	3074
806.62	2979
806.762	2986
806.904	3085
807.046	3161
807.188	2982
807.33	2963
807.472	2998
807.614	2948
807.756	3017
807.898	2902
808.04	2925
808.182	2994
808.324	2971
808.465	2887
808.607	2902
808.749	2853
808.891	2849
809.033	2998
809.174	2971
809.316	2941
809.458	2929
809.6	2781
809.741	2815
809.883	2769
810.025	2868
810.166	2906
810.308	2796
810.45	2845
810.591	2777
810.733	2788
810.875	2853
811.016	2819
811.158	2766
811.299	2819
811.441	2902
811.582	2883
811.724	2819
811.865	2857
812.007	2929
812.148	2887
812.29	2845
812.431	2891
812.573	2956
812.714	2963
812.855	3062
812.997	3017
813.138	3127
813.279	3020
813.421	2998
813.562	3009
813.703	2887
813.845	2857
813.986	2800
814.127	2762
814.268	2857
814.41	2842
814.551	2868
814.692	2868
814.833	2838
814.974	2891
815.115	2948
815.256	2826
815.397	2777
815.539	2876
815.68	2781
815.821	2788
815.962	2937
816.103	2910
816.244	2899
816.385	2868
816.526	2963
816.666	2918
816.807	2754
816.948	2895
817.089	2914
817.23	2864
817.371	2815
817.512	2804
817.653	2823
817.793	2807
817.934	2906
818.075	2922
818.216	3005
818.356	3024
818.497	2899
818.638	2785
818.778	2845
818.919	2823
819.06	2773
819.2	2914
819.341	2804
819.481	2845
819.622	2902
819.762	3100
819.903	3017
820.043	2929
820.184	2906
820.324	2902
820.465	3066
820.605	3013
820.746	3055
820.886	2933
821.026	3112
821.167	3142
821.307	3226
821.447	3275
821.588	3245
821.728	3226
821.868	3180
822.008	3097
822.149	3157
822.289	3218
822.429	3081
822.569	3066
822.709	3199
822.849	3001
822.99	3089
823.13	3184
823.27	3211
823.41	3119
823.55	3131
823.69	3173
823.83	3192
823.97	3081
824.11	3017
824.25	3036
824.389	3058
824.529	3119
824.669	3074
824.809	3195
824.949	3260
825.089	3214
825.228	3169
825.368	3024
825.508	2963
825.648	2948
825.787	3043
825.927	3024
826.067	2994
826.206	2956
826.346	3051
826.485	3039
826.625	3097
826.765	3237
826.904	3184
827.044	3005
827.183	2944
827.323	2849
827.462	3009
827.601	2910
827.741	2952
827.88	2967
828.02	2887
828.159	3001
828.298	3036
828.437	3138
828.577	3032
828.716	3245
828.855	3112
828.994	2906
829.134	2887
829.273	2929
829.412	2899
829.551	2883
829.69	2933
829.829	3020
829.968	3138
830.107	3058
830.246	3039
830.385	2952
830.524	2933
830.663	2849
830.802	2746
830.941	2689
831.08	2678
831.219	2785
831.357	2788
831.496	2956
831.635	2750
831.774	2674
831.913	2716
832.051	2579
832.19	2621
832.329	2716
832.467	2598
832.606	2526
832.744	2598
832.883	2640
833.022	2606
833.16	2682
833.299	2758
833.437	2735
833.576	2720
833.714	2750
833.852	2781
833.991	2826
834.129	2876
834.267	2853
834.406	2834
834.544	2925
834.682	2925
834.821	2891
834.959	3077
835.097	2963
835.235	3085
835.373	3024
835.511	3074
835.65	3009
835.788	3013
835.926	2880
836.064	2861
836.202	2902
836.34	3161
836.478	3173
836.615	3077
836.753	3161
836.891	3245
837.029	3203
837.167	3154
837.305	3157
837.443	3055
837.58	2975
837.718	3146
837.856	3112
837.993	3062
838.131	3138
838.269	3081
838.406	3157
838.544	3097
838.681	2967
838.819	2952
838.956	2853
839.094	2872
839.231	2925
839.369	3062
839.506	3393
839.643	3249
839.781	3036
839.918	2990
840.055	3089
840.193	3097
840.33	3108
840.467	3138
840.604	3226
840.742	3424
840.879	3127
841.016	3085
841.153	3127
841.29	3431
841.427	3321
841.564	3306
841.701	3351
841.838	3230
841.975	3207
842.112	3268
842.249	3108
842.385	3066
842.522	3313
842.659	3142
842.796	3077
842.933	3146
843.069	3074
843.206	3074
843.343	3211
843.479	3157
843.616	3176
843.752	2975
843.889	2948
844.025	3093
844.162	2910
844.298	3116
844.435	3001
844.571	2933
844.708	3100
844.844	3195
844.98	3253
845.117	3169
845.253	3116
845.389	3051
845.525	3180
845.661	3135
845.798	3039
845.934	3188
846.07	3127
846.206	3268
846.342	3336
846.478	3291
846.614	3112
846.75	3077
846.886	3066
847.022	3283
847.158	3138
847.294	3249
847.429	3291
847.565	3283
847.701	3534
847.837	3055
847.972	3024
848.108	3203
848.244	3222
848.379	2975
848.515	2963
848.65	2944
848.786	3005
848.921	3058
849.057	3165
849.192	3192
849.328	3138
849.463	3123
849.598	3066
849.734	3085
849.869	3017
850.004	2937
850.14	3001
850.275	2937
850.41	2872
850.545	2902
850.68	2948
850.815	2982
850.95	3005
851.085	3218
851.22	3150
851.355	3081
851.49	3028
851.625	3028
851.76	3032
851.895	2960
852.03	2963
852.165	3058
852.299	3127
852.434	3203
852.569	3176
852.703	3184
852.838	3283
852.973	3359
853.107	3401
853.242	3203
853.376	3142
853.511	3028
853.645	3074
853.78	3275
853.914	3157
854.048	3161
854.183	3097
854.317	3222
854.451	3344
854.585	3176
854.72	3108
854.854	3230
854.988	3051
855.122	3100
855.256	2971
855.39	3176
855.524	3298
855.658	3237
855.792	3165
855.926	3195
856.06	3260
856.194	3249
856.327	3165
856.461	3089
856.595	3089
856.729	3119
856.862	3245
856.996	3173
857.13	3203
857.263	3256
857.397	3325
857.53	3157
857.664	3222
857.797	3253
857.931	3245
858.064	3192
858.197	3230
858.331	3146
858.464	3131
858.597	3032
858.731	3154
858.864	3173
858.997	3108
859.13	3180
859.263	3173
859.396	3226
859.529	3112
859.662	3104
859.795	3097
859.928	3211
860.061	3287
860.194	3317
860.327	3161
860.46	3146
860.592	3298
860.725	3275
860.858	3279
860.99	3116
861.123	3085
861.256	3104
861.388	3192
861.521	3816
861.653	3032
861.786	3020
861.918	3066
862.05	3077
862.183	3093
862.315	3176
862.447	3241
862.58	3097
862.712	2990
862.844	2910
862.976	3066
863.108	3039
863.24	3348
863.372	2895
863.504	2975
863.636	2975
863.768	3036
863.9	2990
864.032	2967
864.164	2971
864.296	3043
864.428	3108
864.559	3154
864.691	3081
864.823	3077
864.954	3051
865.086	3055
865.217	3028
865.349	2979
865.48	2986
865.612	3066
865.743	3173
865.875	2982
866.006	2986
866.137	2982
866.269	2979
866.4	2998
866.531	2956
866.662	2925
866.793	2910
866.924	2941
867.055	3005
867.186	2952
867.317	2918
867.448	2864
867.579	2872
867.71	2853
867.841	2849
867.972	2902
868.103	2918
868.233	2929
868.364	2922
868.495	2944
868.625	3146
868.756	3188
868.886	3001
869.017	3051
869.147	3195
869.278	3165
869.408	3112
869.539	3036
869.669	3135
869.799	3043
869.929	3184
870.06	3154
870.19	3386
870.32	3291
870.45	3302
870.58	3431
870.71	3485
870.84	3485
870.97	3340
871.1	3256
871.23	3526
871.36	3462
871.489	3378
871.619	3401
871.749	3416
871.879	3473
872.008	3473
872.138	3363
872.267	3298
872.397	3195
872.526	3138
872.656	3032
872.785	3154
872.915	3294
873.044	3344
873.173	3249
873.303	3245
873.432	3291
873.561	3260
873.69	3176
873.819	3169
873.948	3279
874.077	3142
874.206	3066
874.335	3112
874.464	3233
874.593	3355
874.722	3279
874.851	3397
874.979	3363
875.108	3332
875.237	3199
875.365	3176
875.494	3199
875.623	3245
875.751	3100
875.88	3131
876.008	3211
876.136	3233
876.265	3378
876.393	3496
876.521	3424
876.65	3431
876.778	3329
876.906	3279
877.034	3237
877.162	3241
877.29	3218
877.418	3253
877.546	3283
877.674	3272
877.802	3245
877.93	3260
878.058	3203
878.185	3131
878.313	3233
878.441	3222
878.568	3093
878.696	3173
878.824	3275
878.951	3264
879.079	3462
879.206	3625
879.333	3485
879.461	3386
879.588	3412
879.715	3477
879.842	3599
879.97	3405
880.097	3203
880.224	3127
880.351	3195
880.478	3241
880.605	3207
880.732	3222
880.859	3523
880.986	3325
881.112	3306
881.239	3237
881.366	3097
881.493	3028
881.619	3036
881.746	3119
881.872	3100
881.999	3104
882.125	3188
882.252	3279
882.378	3306
882.505	3447
882.631	3310
882.757	3218
882.883	3203
883.01	3230
883.136	3180
883.262	3119
883.388	3150
883.514	3321
883.64	3405
883.766	3332
883.892	3218
884.018	3230
884.143	3428
884.269	3553
884.395	3218
884.52	3161
884.646	3184
884.772	3165
884.897	3116
885.023	3226
885.148	3344
885.274	3435
885.399	3340
885.524	3306
885.65	3268
885.775	3359
885.9	3291
886.025	3481
886.15	3405
886.275	3306
886.4	3245
886.525	3351
886.65	3287
886.775	3302
886.9	3500
887.025	3652
887.149	3401
887.274	3291
887.399	3207
887.523	3237
887.648	3207
887.773	3192
887.897	3409
888.021	3389
888.146	3302
888.27	3466
888.395	3523
888.519	3428
888.643	3424
888.767	3507
888.891	3340
889.015	3256
889.139	3310
889.263	3279
889.387	3428
889.511	3511
889.635	3488
889.759	3329
889.883	3283
890.006	3412
890.13	3526
890.254	3317
890.377	3329
890.501	3218
890.624	3199
890.748	3283
890.871	3180
890.995	3112
891.118	3131
891.241	3214
891.364	3226
891.488	3332
891.611	3211
891.734	3283
891.857	3302
891.98	3249
892.103	3363
892.226	3287
892.349	3249
892.471	3131
892.594	3253
892.717	3275
892.839	3317
892.962	3272
893.085	3443
893.207	3306
893.33	3165
893.452	3230
893.575	3363
893.697	3264
893.819	3458
893.941	3534
894.064	3428
894.186	3272
894.308	3317
894.43	3431
894.552	3534
894.674	3504
894.796	3283
894.918	3298
895.04	3291
895.161	3447
895.283	3405
895.405	3313
895.526	3412
895.648	3443
895.769	3454
895.891	3496
896.012	3507
896.134	3485
896.255	3412
896.376	3393
896.498	3355
896.619	3431
896.74	3401
896.861	3409
896.982	3724
897.103	3911
897.224	3606
897.345	3538
897.466	3428
897.587	3511
897.708	3591
897.828	3584
897.949	3458
898.07	3325
898.19	3405
898.311	3595
898.431	3469
898.552	3511
898.672	3633
898.792	3618
898.913	3564
899.033	3435
899.153	3302
899.273	3241
899.393	3298
899.513	3317
899.633	3351
899.753	3363
899.873	3313
899.993	3382
900.113	3348
900.232	3435
900.352	3340
900.472	3310
900.591	3192
900.711	3298
900.83	3287
900.95	3420
901.069	3515
901.189	3389
901.308	3207
901.427	3131
901.546	3150
901.665	3294
901.784	3329
901.904	3211
902.023	3138
902.141	3036
902.26	3017
902.379	3146
902.498	3100
902.617	3043
902.735	3199
902.854	3264
902.973	3214
903.091	3047
903.21	3089
903.328	3154
903.446	3127
903.565	3131
903.683	3195
903.801	3142
903.919	3283
904.038	3272
904.156	3161
904.274	3287
904.392	3275
904.51	3275
904.627	3348
904.745	3428
904.863	3492
904.981	3268
905.098	3192
905.216	3207
905.334	3329
905.451	3298
905.569	3291
905.686	3431
905.803	3439
905.921	3272
906.038	3416
906.155	3378
906.272	3287
906.389	3332
906.506	3249
906.623	3272
906.74	3313
906.857	3199
906.974	3272
907.091	3466
907.208	3572
907.324	3481
907.441	3412
907.557	3264
907.674	3207
907.79	3222
907.907	3279
908.023	3336
908.139	3378
908.256	3332
908.372	3416
908.488	3363
908.604	3241
908.72	3249
908.836	3329
908.952	3306
909.068	3332
909.184	3515
909.3	3428
909.415	3496
909.531	3485
909.647	3260
909.762	3310
909.878	3256
909.993	3344
910.108	3329
910.224	3389
910.339	3405
910.454	3325
910.57	3336
910.685	3245
910.8	3606
910.915	3564
911.03	3450
911.145	3249
911.259	3283
911.374	3359
911.489	3291
911.604	3237
911.718	3108
911.833	3176
911.947	3032
912.062	2960
912.176	3161
912.291	3199
912.405	3245
912.519	3477
912.633	3473
912.748	3348
912.862	3264
912.976	3218
913.09	3062
913.204	3188
913.318	3233
913.431	3359
913.545	3355
913.659	3409
913.772	3367
913.886	3249
914	3195
914.113	3397
914.226	3431
914.34	3428
914.453	3245
914.566	3439
914.68	3291
914.793	3317
914.906	3169
915.019	3058
915.132	3100
915.245	3180
915.358	3214
915.47	3211
915.583	3253
915.696	3310
915.809	3389
915.921	3412
916.034	3249
916.146	3260
916.259	3253
916.371	3378
916.483	3351
916.595	3283
916.708	3359
916.82	3389
916.932	3351
917.044	3302
917.156	3355
917.268	3253
917.38	3325
917.491	3325
917.603	3397
917.715	3473
917.826	3466
917.938	3355
918.049	3298
918.161	3409
918.272	3614
918.384	3576
918.495	3504
918.606	3340
918.717	3279
918.828	3363
918.939	3435
919.05	3291
919.161	3355
919.272	3161
919.383	3313
919.494	3515
919.604	3633
919.715	3477
919.826	3420
919.936	3477
920.047	3629
920.157	3511
920.267	3762
920.378	3595
920.488	3580
920.598	3812
920.708	3953
920.818	3781
920.928	3804
921.038	3994
921.148	4013
921.258	3686
921.368	3648
921.477	3564
921.587	3580
921.697	3473
921.806	3625
921.916	3515
922.025	3355
922.134	3367
922.244	3287
922.353	3424
922.462	3287
922.571	3203
922.68	3097
922.789	3066
922.898	3169
923.007	3100
923.116	3230
923.224	3154
923.333	3226
923.442	3138
923.55	3112
923.659	3123
923.767	3249
923.876	3138
923.984	3226
924.092	3100
924.201	3233
924.309	3245
924.417	3249
924.525	3180
924.633	3260
924.741	4036
924.849	3043
924.956	3272
925.064	3066
925.172	3017
925.279	3123
925.387	3249
925.494	3230
925.602	3367
925.709	3325
925.816	3195
925.924	3287
926.031	3370
926.138	3313
926.245	3386
926.352	3294
926.459	3439
926.566	3466
926.673	3336
926.779	3256
926.886	3275
926.993	3112
927.099	3123
927.206	3085
927.312	3112
927.419	3283
927.525	3214
927.631	3279
927.737	3142
927.843	3142
927.95	3017
928.056	3154
928.162	3218
928.267	3237
928.373	3842
928.479	3279
928.585	3085
928.69	3253
928.796	3291
928.901	3161
929.007	3036
929.112	3207
929.218	3176
929.323	3150
929.428	3154
929.533	3332
929.638	3108
929.743	3173
929.848	3294
929.953	3188
930.058	3169
930.163	2956
930.267	3039
930.372	3214
930.477	3036
930.581	3313
930.685	3211
930.79	3009
930.894	3131
930.998	3131
931.103	3256
931.207	2944
931.311	2937
931.415	2925
931.519	2769
931.623	2815
