Data from test_V78500241_543.txt Node
Date: Fri Mar 25 16:18:57 CST 2022
User: usil
Spectrometer: V785-0024
Trigger mode: 0
Integration Time (sec): 4.000000E-1
Scans to average: 1
Nonlinearity correction enabled: false
Boxcar width: 0
Storing dark spectrum: false
XAxis mode: Wavelengths
Number of Pixels in Spectrum: 1024
>>>>>Begin Spectral Data<<<<<
801.071	2887
801.214	2941
801.356	2872
801.499	2906
801.641	2891
801.783	2922
801.926	3032
802.068	2982
802.211	2967
802.353	3028
802.496	2990
802.638	3001
802.78	3039
802.923	3070
803.065	2975
803.208	2922
803.35	2922
803.492	2914
803.635	2910
803.777	2796
803.919	2876
804.061	3161
804.204	2948
804.346	2895
804.488	2826
804.63	2986
804.773	2887
804.915	2891
805.057	3047
805.199	2925
805.341	2975
805.483	3028
805.626	2975
805.768	2982
805.91	3085
806.052	3085
806.194	3074
806.336	3211
806.478	2963
806.62	2986
806.762	2975
806.904	3066
807.046	3138
807.188	2979
807.33	2914
807.472	2986
807.614	2902
807.756	2971
807.898	2891
808.04	2864
808.182	2952
808.324	2948
808.465	2876
808.607	2883
808.749	2826
808.891	2804
809.033	2990
809.174	2941
809.316	2925
809.458	2922
809.6	2769
809.741	2773
809.883	2788
810.025	2838
810.166	2826
810.308	2838
810.45	2876
810.591	2727
810.733	2750
810.875	2838
811.016	2769
811.158	2743
811.299	2800
811.441	2891
811.582	2899
811.724	2811
811.865	2796
812.007	2906
812.148	2853
812.29	2826
812.431	2902
812.573	2910
812.714	2967
812.855	3058
812.997	3009
813.138	3100
813.279	2975
813.421	2956
813.562	2979
813.703	2861
813.845	2887
813.986	2800
814.127	2712
814.268	2819
814.41	2826
814.551	2815
814.692	2906
814.833	2800
814.974	2906
815.115	2941
815.256	2823
815.397	2792
815.539	2857
815.68	2766
815.821	2788
815.962	2979
816.103	2925
816.244	2857
816.385	2845
816.526	2948
816.666	2929
816.807	2758
816.948	2891
817.089	2887
817.23	2853
817.371	2796
817.512	2758
817.653	2834
817.793	2792
817.934	2876
818.075	2933
818.216	3017
818.356	3001
818.497	2895
818.638	2796
818.778	2842
818.919	2788
819.06	2739
819.2	2857
819.341	2792
819.481	2811
819.622	2929
819.762	3055
819.903	3039
820.043	2929
820.184	2902
820.324	2895
820.465	3001
820.605	2982
820.746	3013
820.886	2944
821.026	3077
821.167	3146
821.307	3268
821.447	3245
821.588	3241
821.728	3184
821.868	3195
822.008	3066
822.149	3188
822.289	3192
822.429	3070
822.569	3100
822.709	3154
822.849	3020
822.99	3036
823.13	3154
823.27	3180
823.41	3093
823.55	3123
823.69	3131
823.83	3176
823.97	3100
824.11	3001
824.25	3024
824.389	3066
824.529	3112
824.669	3036
824.809	3176
824.949	3275
825.089	3222
825.228	3146
825.368	2979
825.508	2986
825.648	2998
825.787	3001
825.927	2998
826.067	2979
826.206	2952
826.346	3028
826.485	3062
826.625	3104
826.765	3264
826.904	3169
827.044	2963
827.183	2967
827.323	2849
827.462	2986
827.601	2922
827.741	2937
827.88	2937
828.02	2826
828.159	2952
828.298	3036
828.437	3123
828.577	3032
828.716	3230
828.855	3089
828.994	2967
829.134	2845
829.273	2922
829.412	2857
829.551	2849
829.69	2868
829.829	2956
829.968	3146
830.107	2990
830.246	3001
830.385	2925
830.524	2838
830.663	2773
830.802	2743
830.941	2659
831.08	2617
831.219	2739
831.357	2724
831.496	2941
831.635	2743
831.774	2629
831.913	2613
832.051	2537
832.19	2552
832.329	2678
832.467	2530
832.606	2461
832.744	2568
832.883	2575
833.022	2606
833.16	2644
833.299	2674
833.437	2629
833.576	2670
833.714	2739
833.852	2731
833.991	2758
834.129	2792
834.267	2788
834.406	2754
834.544	2842
834.682	2887
834.821	2857
834.959	3051
835.097	2902
835.235	3039
835.373	3013
835.511	3005
835.65	2952
835.788	2910
835.926	2807
836.064	2807
836.202	2838
836.34	3097
836.478	3135
836.615	3028
836.753	3142
836.891	3157
837.029	3161
837.167	3058
837.305	3081
837.443	3024
837.58	2933
837.718	3108
837.856	3066
837.993	3039
838.131	3100
838.269	3146
838.406	3093
838.544	3093
838.681	2929
838.819	2887
838.956	2819
839.094	2815
839.231	2899
839.369	3017
839.506	3389
839.643	3211
839.781	3013
839.918	2960
840.055	3055
840.193	3024
840.33	3066
840.467	3089
840.604	3131
840.742	3378
840.879	3051
841.016	3036
841.153	3146
841.29	3310
841.427	3310
841.564	3279
841.701	3260
841.838	3195
841.975	3135
842.112	3180
842.249	3074
842.385	3055
842.522	3237
842.659	3043
842.796	3036
842.933	3081
843.069	3028
843.206	3039
843.343	3188
843.479	3077
843.616	3150
843.752	2876
843.889	2925
844.025	3047
844.162	2849
844.298	3047
844.435	2925
844.571	2902
844.708	3074
844.844	3123
844.98	3237
845.117	3203
845.253	3028
845.389	2986
845.525	3100
845.661	3104
845.798	2990
845.934	3081
846.07	3043
846.206	3211
846.342	3294
846.478	3230
846.614	3089
846.75	3047
846.886	3013
847.022	3214
847.158	3100
847.294	3207
847.429	3249
847.565	3207
847.701	3462
847.837	3013
847.972	2956
848.108	3127
848.244	3077
848.379	2967
848.515	2937
848.65	2910
848.786	2956
848.921	3013
849.057	3100
849.192	3112
849.328	3036
849.463	3108
849.598	3051
849.734	3043
849.869	2975
850.004	2902
850.14	2937
850.275	2902
850.41	2830
850.545	2876
850.68	2868
850.815	2895
850.95	3009
851.085	3199
851.22	3043
851.355	2994
851.49	2971
851.625	2971
851.76	3024
851.895	2948
852.03	2960
852.165	2994
852.299	3104
852.434	3195
852.569	3135
852.703	3173
852.838	3249
852.973	3272
853.107	3294
853.242	3150
853.376	3070
853.511	2975
853.645	3024
853.78	3203
853.914	3135
854.048	3119
854.183	3085
854.317	3127
854.451	3253
854.585	3104
854.72	3093
854.854	3214
854.988	2998
855.122	3077
855.256	2979
855.39	3089
855.524	3218
855.658	3192
855.792	3161
855.926	3192
856.06	3150
856.194	3249
856.327	3142
856.461	3070
856.595	3062
856.729	3077
856.862	3218
856.996	3157
857.13	3192
857.263	3233
857.397	3256
857.53	3104
857.664	3222
857.797	3226
857.931	3260
858.064	3180
858.197	3184
858.331	3108
858.464	3089
858.597	3005
858.731	3077
858.864	3089
858.997	3081
859.13	3131
859.263	3119
859.396	3199
859.529	3062
859.662	3055
859.795	3043
859.928	3127
860.061	3268
860.194	3237
860.327	3154
860.46	3100
860.592	3222
860.725	3214
860.858	3222
860.99	3089
861.123	3077
861.256	3047
861.388	3154
861.521	3819
861.653	3024
861.786	2960
861.918	2963
862.05	3085
862.183	3081
862.315	3138
862.447	3211
862.58	3055
862.712	2925
862.844	2872
862.976	3028
863.108	2998
863.24	3469
863.372	2853
863.504	2979
863.636	2910
863.768	2998
863.9	3017
864.032	2883
864.164	2922
864.296	2986
864.428	3043
864.559	3062
864.691	3039
864.823	3055
864.954	3032
865.086	3028
865.217	2982
865.349	2910
865.48	2990
865.612	3009
865.743	3142
865.875	2952
866.006	2971
866.137	2925
866.269	2906
866.4	2918
866.531	2891
866.662	2849
866.793	2861
866.924	2872
867.055	2918
867.186	2918
867.317	2864
867.448	2804
867.579	2826
867.71	2845
867.841	2792
867.972	2868
868.103	2902
868.233	2883
868.364	2857
868.495	2887
868.625	3066
868.756	3142
868.886	2963
869.017	3001
869.147	3116
869.278	3169
869.408	3051
869.539	3005
869.669	3077
869.799	3024
869.929	3138
870.06	3108
870.19	3329
870.32	3298
870.45	3291
870.58	3374
870.71	3462
870.84	3439
870.97	3298
871.1	3249
871.23	3485
871.36	3435
871.489	3359
871.619	3424
871.749	3458
871.879	3447
872.008	3469
872.138	3367
872.267	3302
872.397	3146
872.526	3116
872.656	3001
872.785	3093
872.915	3226
873.044	3348
873.173	3272
873.303	3310
873.432	3302
873.561	3294
873.69	3226
873.819	3165
873.948	3233
874.077	3104
874.206	3093
874.335	3135
874.464	3249
874.593	3344
874.722	3287
874.851	3424
874.979	3344
875.108	3382
875.237	3241
875.365	3199
875.494	3226
875.623	3287
875.751	3119
875.88	3180
876.008	3226
876.136	3241
876.265	3393
876.393	3561
876.521	3485
876.65	3401
876.778	3389
876.906	3302
877.034	3218
877.162	3268
877.29	3226
877.418	3279
877.546	3283
877.674	3298
877.802	3249
877.93	3275
878.058	3218
878.185	3146
878.313	3226
878.441	3207
878.568	3108
878.696	3188
878.824	3283
878.951	3382
879.079	3473
879.206	3625
879.333	3454
879.461	3370
879.588	3428
879.715	3481
879.842	3622
879.97	3431
880.097	3199
880.224	3131
880.351	3256
880.478	3226
880.605	3272
880.732	3192
880.859	3534
880.986	3340
881.112	3370
881.239	3241
881.366	3154
881.493	3074
881.619	3043
881.746	3074
881.872	3135
881.999	3154
882.125	3142
882.252	3287
882.378	3268
882.505	3450
882.631	3298
882.757	3180
882.883	3283
883.01	3264
883.136	3188
883.262	3146
883.388	3161
883.514	3348
883.64	3409
883.766	3291
883.892	3245
884.018	3260
884.143	3469
884.269	3610
884.395	3222
884.52	3199
884.646	3249
884.772	3165
884.897	3127
885.023	3272
885.148	3351
885.274	3462
885.399	3386
885.524	3291
885.65	3302
885.775	3348
885.9	3340
886.025	3447
886.15	3393
886.275	3321
886.4	3275
886.525	3355
886.65	3340
886.775	3310
886.9	3492
887.025	3671
887.149	3466
887.274	3287
887.399	3237
887.523	3253
887.648	3207
887.773	3233
887.897	3386
888.021	3431
888.146	3367
888.27	3450
888.395	3504
888.519	3473
888.643	3488
888.767	3481
888.891	3351
889.015	3260
889.139	3306
889.263	3287
889.387	3420
889.511	3557
889.635	3454
889.759	3344
889.883	3332
890.006	3409
890.13	3542
890.254	3313
890.377	3386
890.501	3245
890.624	3207
890.748	3306
890.871	3184
890.995	3146
891.118	3127
891.241	3207
891.364	3256
891.488	3272
891.611	3184
891.734	3203
891.857	3329
891.98	3253
892.103	3363
892.226	3325
892.349	3203
892.471	3116
892.594	3306
892.717	3294
892.839	3317
892.962	3355
893.085	3351
893.207	3321
893.33	3169
893.452	3245
893.575	3378
893.697	3245
893.819	3477
893.941	3542
894.064	3473
894.186	3302
894.308	3287
894.43	3504
894.552	3530
894.674	3469
894.796	3294
894.918	3363
895.04	3294
895.161	3439
895.283	3424
895.405	3329
895.526	3363
895.648	3450
895.769	3481
895.891	3485
896.012	3515
896.134	3500
896.255	3466
896.376	3405
896.498	3401
896.619	3462
896.74	3389
896.861	3481
896.982	3686
897.103	3884
897.224	3625
897.345	3534
897.466	3443
897.587	3515
897.708	3656
897.828	3561
897.949	3488
898.07	3370
898.19	3443
898.311	3622
898.431	3450
898.552	3538
898.672	3610
898.792	3606
898.913	3542
899.033	3500
899.153	3306
899.273	3275
899.393	3298
899.513	3351
899.633	3367
899.753	3348
899.873	3325
899.993	3401
900.113	3397
900.232	3420
900.352	3409
900.472	3294
900.591	3222
900.711	3321
900.83	3268
900.95	3454
901.069	3534
901.189	3382
901.308	3230
901.427	3142
901.546	3184
901.665	3313
901.784	3363
901.904	3272
902.023	3165
902.141	3013
902.26	3036
902.379	3135
902.498	3112
902.617	3081
902.735	3245
902.854	3253
902.973	3211
903.091	3085
903.21	3150
903.328	3135
903.446	3157
903.565	3093
903.683	3253
903.801	3192
903.919	3264
904.038	3279
904.156	3188
904.274	3332
904.392	3275
904.51	3348
904.627	3374
904.745	3454
904.863	3534
904.981	3260
905.098	3180
905.216	3264
905.334	3275
905.451	3317
905.569	3325
905.686	3450
905.803	3420
905.921	3321
906.038	3454
906.155	3363
906.272	3272
906.389	3359
906.506	3264
906.623	3272
906.74	3321
906.857	3203
906.974	3287
907.091	3462
907.208	3584
907.324	3496
907.441	3420
907.557	3260
907.674	3253
907.79	3222
907.907	3298
908.023	3389
908.139	3374
908.256	3325
908.372	3393
908.488	3401
908.604	3306
908.72	3245
908.836	3329
908.952	3317
909.068	3386
909.184	3507
909.3	3416
909.415	3553
909.531	3469
909.647	3344
909.762	3317
909.878	3260
909.993	3378
910.108	3359
910.224	3329
910.339	3435
910.454	3367
910.57	3310
910.685	3256
910.8	3549
910.915	3614
911.03	3412
911.145	3279
911.259	3264
911.374	3332
911.489	3294
911.604	3218
911.718	3150
911.833	3169
911.947	3043
912.062	3005
912.176	3184
912.291	3211
912.405	3245
912.519	3443
912.633	3477
912.748	3363
912.862	3317
912.976	3211
913.09	3081
913.204	3165
913.318	3230
913.431	3340
913.545	3389
913.659	3431
913.772	3367
913.886	3211
914	3226
914.113	3367
914.226	3447
914.34	3363
914.453	3279
914.566	3439
914.68	3298
914.793	3329
914.906	3173
915.019	3161
915.132	3081
915.245	3176
915.358	3241
915.47	3192
915.583	3298
915.696	3313
915.809	3454
915.921	3435
916.034	3287
916.146	3291
916.259	3241
916.371	3374
916.483	3344
916.595	3313
916.708	3351
916.82	3363
916.932	3370
917.044	3378
917.156	3370
917.268	3272
917.38	3313
917.491	3291
917.603	3378
917.715	3450
917.826	3485
917.938	3374
918.049	3298
918.161	3435
918.272	3580
918.384	3580
918.495	3496
918.606	3348
918.717	3279
918.828	3409
918.939	3428
919.05	3329
919.161	3416
919.272	3188
919.383	3302
919.494	3519
919.604	3732
919.715	3545
919.826	3416
919.936	3447
920.047	3572
920.157	3572
920.267	3793
920.378	3606
920.488	3614
920.598	3797
920.708	3994
920.818	3781
920.928	3838
921.038	4032
921.148	4013
921.258	3701
921.368	3663
921.477	3603
921.587	3580
921.697	3443
921.806	3644
921.916	3564
922.025	3363
922.134	3397
922.244	3329
922.353	3466
922.462	3268
922.571	3275
922.68	3135
922.789	3112
922.898	3135
923.007	3150
923.116	3214
923.224	3154
923.333	3214
923.442	3131
923.55	3081
923.659	3165
923.767	3268
923.876	3161
923.984	3283
924.092	3116
924.201	3214
924.309	3226
924.417	3294
924.525	3195
924.633	3245
924.741	4082
924.849	3097
924.956	3291
925.064	3104
925.172	3051
925.279	3138
925.387	3237
925.494	3245
925.602	3401
925.709	3332
925.816	3180
925.924	3294
926.031	3401
926.138	3329
926.245	3389
926.352	3256
926.459	3439
926.566	3507
926.673	3348
926.779	3279
926.886	3256
926.993	3146
927.099	3119
927.206	3150
927.312	3116
927.419	3241
927.525	3214
927.631	3272
927.737	3165
927.843	3154
927.95	3020
928.056	3135
928.162	3180
928.267	3249
928.373	3831
928.479	3325
928.585	3085
928.69	3218
928.796	3275
928.901	3169
929.007	3055
929.112	3241
929.218	3169
929.323	3165
929.428	3146
929.533	3283
929.638	3100
929.743	3203
929.848	3272
929.953	3230
930.058	3161
930.163	3009
930.267	3066
930.372	3218
930.477	3039
930.581	3321
930.685	3184
930.79	3066
930.894	3081
930.998	3074
931.103	3287
931.207	2975
931.311	2914
931.415	2952
931.519	2762
931.623	2838
