Data from test_V78500241_319.txt Node
Date: Fri Mar 25 16:17:24 CST 2022
User: usil
Spectrometer: V785-0024
Trigger mode: 0
Integration Time (sec): 4.000000E-1
Scans to average: 1
Nonlinearity correction enabled: false
Boxcar width: 0
Storing dark spectrum: false
XAxis mode: Wavelengths
Number of Pixels in Spectrum: 1024
>>>>>Begin Spectral Data<<<<<
801.071	2925
801.214	2960
801.356	2918
801.499	2925
801.641	2899
801.783	2925
801.926	3062
802.068	3005
802.211	3024
802.353	3070
802.496	2952
802.638	3058
802.78	3112
802.923	3051
803.065	3058
803.208	2952
803.35	2937
803.492	2956
803.635	2952
803.777	2777
803.919	2880
804.061	3211
804.204	2986
804.346	2944
804.488	2857
804.63	2998
804.773	2891
804.915	2960
805.057	3135
805.199	2963
805.341	3001
805.483	3089
805.626	3039
805.768	3001
805.91	3119
806.052	3131
806.194	3066
806.336	3253
806.478	3051
806.62	2937
806.762	3009
806.904	3066
807.046	3154
807.188	3001
807.33	2922
807.472	3009
807.614	2933
807.756	3028
807.898	2929
808.04	2925
808.182	2998
808.324	2967
808.465	2864
808.607	2914
808.749	2823
808.891	2845
809.033	3017
809.174	3013
809.316	2902
809.458	2876
809.6	2785
809.741	2804
809.883	2781
810.025	2872
810.166	2826
810.308	2864
810.45	2899
810.591	2796
810.733	2788
810.875	2842
811.016	2826
811.158	2796
811.299	2811
811.441	2937
811.582	2891
811.724	2853
811.865	2857
812.007	2914
812.148	2872
812.29	2861
812.431	2880
812.573	2960
812.714	3009
812.855	3070
812.997	3089
813.138	3154
813.279	3039
813.421	3036
813.562	2990
813.703	2861
813.845	2861
813.986	2777
814.127	2716
814.268	2849
814.41	2868
814.551	2853
814.692	2868
814.833	2864
814.974	2918
815.115	2960
815.256	2861
815.397	2830
815.539	2880
815.68	2819
815.821	2792
815.962	2975
816.103	2998
816.244	2922
816.385	2887
816.526	2963
816.666	2937
816.807	2773
816.948	2914
817.089	2922
817.23	2876
817.371	2804
817.512	2804
817.653	2864
817.793	2826
817.934	2910
818.075	3028
818.216	3020
818.356	3032
818.497	2899
818.638	2815
818.778	2815
818.919	2811
819.06	2746
819.2	2887
819.341	2842
819.481	2834
819.622	2975
819.762	3131
819.903	3085
820.043	2891
820.184	2887
820.324	2891
820.465	3051
820.605	3017
820.746	3036
820.886	2937
821.026	3097
821.167	3161
821.307	3245
821.447	3310
821.588	3245
821.728	3226
821.868	3173
822.008	3085
822.149	3199
822.289	3214
822.429	3085
822.569	3089
822.709	3180
822.849	3074
822.99	3085
823.13	3165
823.27	3199
823.41	3100
823.55	3169
823.69	3138
823.83	3230
823.97	3074
824.11	3009
824.25	3009
824.389	3100
824.529	3123
824.669	3093
824.809	3184
824.949	3249
825.089	3192
825.228	3165
825.368	2982
825.508	2937
825.648	2979
825.787	2982
825.927	3009
826.067	2998
826.206	2982
826.346	3043
826.485	3066
826.625	3127
826.765	3279
826.904	3203
827.044	3032
827.183	2933
827.323	2849
827.462	2998
827.601	2906
827.741	2937
827.88	2948
828.02	2830
828.159	2986
828.298	3062
828.437	3131
828.577	3036
828.716	3272
828.855	3070
828.994	2918
829.134	2887
829.273	2933
829.412	2857
829.551	2880
829.69	2895
829.829	2979
829.968	3138
830.107	3039
830.246	3032
830.385	2922
830.524	2853
830.663	2807
830.802	2731
830.941	2640
831.08	2655
831.219	2777
831.357	2769
831.496	2944
831.635	2674
831.774	2640
831.913	2644
832.051	2526
832.19	2598
832.329	2655
832.467	2560
832.606	2526
832.744	2590
832.883	2602
833.022	2606
833.16	2674
833.299	2682
833.437	2708
833.576	2697
833.714	2735
833.852	2777
833.991	2781
834.129	2880
834.267	2826
834.406	2792
834.544	2880
834.682	2906
834.821	2864
834.959	3039
835.097	2910
835.235	3066
835.373	3005
835.511	3043
835.65	2960
835.788	2956
835.926	2849
836.064	2823
836.202	2834
836.34	3077
836.478	3188
836.615	3097
836.753	3119
836.891	3192
837.029	3135
837.167	3108
837.305	3077
837.443	3024
837.58	2979
837.718	3138
837.856	3047
837.993	3039
838.131	3104
838.269	3108
838.406	3119
838.544	3112
838.681	2941
838.819	2929
838.956	2807
839.094	2823
839.231	2910
839.369	2998
839.506	3378
839.643	3218
839.781	3032
839.918	2967
840.055	3070
840.193	3070
840.33	3116
840.467	3089
840.604	3184
840.742	3370
840.879	3074
841.016	3058
841.153	3123
841.29	3332
841.427	3291
841.564	3310
841.701	3310
841.838	3226
841.975	3188
842.112	3192
842.249	3085
842.385	3051
842.522	3226
842.659	3104
842.796	3066
842.933	3085
843.069	3043
843.206	3062
843.343	3203
843.479	3146
843.616	3146
843.752	2899
843.889	2887
844.025	3081
844.162	2880
844.298	3097
844.435	2975
844.571	2910
844.708	3081
844.844	3161
844.98	3226
845.117	3173
845.253	3055
845.389	2982
845.525	3089
845.661	3093
845.798	2986
845.934	3112
846.07	3032
846.206	3260
846.342	3310
846.478	3241
846.614	3100
846.75	3097
846.886	2998
847.022	3256
847.158	3131
847.294	3192
847.429	3233
847.565	3195
847.701	3492
847.837	3066
847.972	3017
848.108	3127
848.244	3131
848.379	2982
848.515	2952
848.65	2918
848.786	2956
848.921	2990
849.057	3123
849.192	3146
849.328	3089
849.463	3123
849.598	3062
849.734	3020
849.869	2982
850.004	2922
850.14	2963
850.275	2902
850.41	2868
850.545	2902
850.68	2929
850.815	2906
850.95	2982
851.085	3169
851.22	3112
851.355	3043
851.49	2975
851.625	3009
851.76	3020
851.895	2948
852.03	2906
852.165	3051
852.299	3116
852.434	3157
852.569	3154
852.703	3188
852.838	3268
852.973	3348
853.107	3363
853.242	3203
853.376	3108
853.511	3013
853.645	3066
853.78	3241
853.914	3142
854.048	3169
854.183	3097
854.317	3188
854.451	3317
854.585	3203
854.72	3123
854.854	3222
854.988	3074
855.122	3116
855.256	2975
855.39	3176
855.524	3321
855.658	3199
855.792	3142
855.926	3207
856.06	3264
856.194	3275
856.327	3176
856.461	3112
856.595	3112
856.729	3123
856.862	3249
856.996	3207
857.13	3279
857.263	3249
857.397	3310
857.53	3173
857.664	3245
857.797	3264
857.931	3291
858.064	3176
858.197	3211
858.331	3199
858.464	3119
858.597	3077
858.731	3154
858.864	3154
858.997	3150
859.13	3211
859.263	3169
859.396	3256
859.529	3127
859.662	3108
859.795	3100
859.928	3192
860.061	3317
860.194	3321
860.327	3176
860.46	3150
860.592	3302
860.725	3306
860.858	3275
860.99	3135
861.123	3089
861.256	3085
861.388	3184
861.521	3918
861.653	3051
861.786	3032
861.918	3032
862.05	3123
862.183	3112
862.315	3211
862.447	3260
862.58	3123
862.712	3017
862.844	2922
862.976	3066
863.108	3017
863.24	3325
863.372	2906
863.504	3047
863.636	2994
863.768	3077
863.9	3001
864.032	2963
864.164	2998
864.296	3051
864.428	3131
864.559	3142
864.691	3100
864.823	3085
864.954	3074
865.086	3062
865.217	3032
865.349	3009
865.48	3013
865.612	3074
865.743	3180
865.875	3039
866.006	2986
866.137	3017
866.269	2994
866.4	2967
866.531	2986
866.662	2929
866.793	2910
866.924	2929
867.055	3005
867.186	2948
867.317	2887
867.448	2880
867.579	2918
867.71	2883
867.841	2876
867.972	2937
868.103	2933
868.233	2941
868.364	2887
868.495	2937
868.625	3093
868.756	3199
868.886	3024
869.017	3028
869.147	3184
869.278	3195
869.408	3058
869.539	3066
869.669	3138
869.799	3085
869.929	3165
870.06	3138
870.19	3332
870.32	3329
870.45	3359
870.58	3397
870.71	3473
870.84	3450
870.97	3321
871.1	3279
871.23	3507
871.36	3511
871.489	3382
871.619	3416
871.749	3458
871.879	3477
872.008	3523
872.138	3393
872.267	3291
872.397	3184
872.526	3131
872.656	3043
872.785	3135
872.915	3279
873.044	3367
873.173	3260
873.303	3294
873.432	3245
873.561	3268
873.69	3184
873.819	3195
873.948	3233
874.077	3119
874.206	3062
874.335	3165
874.464	3214
874.593	3386
874.722	3287
874.851	3485
874.979	3374
875.108	3348
875.237	3214
875.365	3211
875.494	3214
875.623	3272
875.751	3104
875.88	3161
876.008	3230
876.136	3222
876.265	3416
876.393	3564
876.521	3462
876.65	3450
876.778	3359
876.906	3287
877.034	3237
877.162	3294
877.29	3188
877.418	3310
877.546	3310
877.674	3256
877.802	3268
877.93	3195
878.058	3184
878.185	3123
878.313	3253
878.441	3253
878.568	3077
878.696	3180
878.824	3256
878.951	3321
879.079	3473
879.206	3629
879.333	3458
879.461	3401
879.588	3409
879.715	3500
879.842	3644
879.97	3393
880.097	3192
880.224	3161
880.351	3192
880.478	3237
880.605	3214
880.732	3237
880.859	3523
880.986	3336
881.112	3336
881.239	3272
881.366	3138
881.493	3077
881.619	3066
881.746	3108
881.872	3089
881.999	3142
882.125	3180
882.252	3287
882.378	3321
882.505	3439
882.631	3370
882.757	3203
882.883	3230
883.01	3249
883.136	3161
883.262	3089
883.388	3146
883.514	3340
883.64	3397
883.766	3329
883.892	3233
884.018	3275
884.143	3447
884.269	3549
884.395	3237
884.52	3161
884.646	3233
884.772	3165
884.897	3142
885.023	3245
885.148	3393
885.274	3382
885.399	3443
885.524	3317
885.65	3279
885.775	3359
885.9	3306
886.025	3458
886.15	3405
886.275	3344
886.4	3294
886.525	3340
886.65	3321
886.775	3291
886.9	3504
887.025	3686
887.149	3416
887.274	3264
887.399	3214
887.523	3241
887.648	3192
887.773	3218
887.897	3412
888.021	3420
888.146	3367
888.27	3447
888.395	3545
888.519	3439
888.643	3424
888.767	3447
888.891	3329
889.015	3275
889.139	3317
889.263	3256
889.387	3450
889.511	3500
889.635	3469
889.759	3298
889.883	3321
890.006	3431
890.13	3500
890.254	3268
890.377	3351
890.501	3256
890.624	3207
890.748	3306
890.871	3199
890.995	3161
891.118	3081
891.241	3195
891.364	3241
891.488	3332
891.611	3253
891.734	3287
891.857	3291
891.98	3264
892.103	3336
892.226	3294
892.349	3237
892.471	3135
892.594	3256
892.717	3329
892.839	3294
892.962	3310
893.085	3367
893.207	3283
893.33	3184
893.452	3241
893.575	3378
893.697	3260
893.819	3450
893.941	3515
894.064	3485
894.186	3275
894.308	3344
894.43	3500
894.552	3515
894.674	3523
894.796	3287
894.918	3325
895.04	3344
895.161	3462
895.283	3420
895.405	3332
895.526	3401
895.648	3477
895.769	3477
895.891	3458
896.012	3504
896.134	3500
896.255	3420
896.376	3367
896.498	3401
896.619	3469
896.74	3374
896.861	3469
896.982	3747
897.103	3838
897.224	3625
897.345	3538
897.466	3454
897.587	3549
897.708	3622
897.828	3568
897.949	3447
898.07	3340
898.19	3428
898.311	3595
898.431	3469
898.552	3557
898.672	3618
898.792	3591
898.913	3580
899.033	3409
899.153	3317
899.273	3245
899.393	3294
899.513	3317
899.633	3336
899.753	3386
899.873	3351
899.993	3409
900.113	3370
900.232	3416
900.352	3363
900.472	3313
900.591	3260
900.711	3329
900.83	3249
900.95	3439
901.069	3496
901.189	3363
901.308	3253
901.427	3157
901.546	3230
901.665	3294
901.784	3340
901.904	3226
902.023	3157
902.141	3032
902.26	3039
902.379	3150
902.498	3085
902.617	3058
902.735	3230
902.854	3249
902.973	3230
903.091	3036
903.21	3066
903.328	3173
903.446	3119
903.565	3142
903.683	3218
903.801	3169
903.919	3245
904.038	3306
904.156	3188
904.274	3310
904.392	3218
904.51	3351
904.627	3370
904.745	3469
904.863	3515
904.981	3317
905.098	3226
905.216	3275
905.334	3332
905.451	3332
905.569	3321
905.686	3424
905.803	3485
905.921	3336
906.038	3443
906.155	3374
906.272	3279
906.389	3321
906.506	3226
906.623	3302
906.74	3291
906.857	3222
906.974	3275
907.091	3439
907.208	3591
907.324	3488
907.441	3420
907.557	3253
907.674	3245
907.79	3226
907.907	3291
908.023	3393
908.139	3397
908.256	3344
908.372	3397
908.488	3386
908.604	3283
908.72	3214
908.836	3332
908.952	3302
909.068	3370
909.184	3477
909.3	3420
909.415	3507
909.531	3488
909.647	3294
909.762	3313
909.878	3233
909.993	3325
910.108	3367
910.224	3363
910.339	3409
910.454	3359
910.57	3332
910.685	3268
910.8	3595
910.915	3572
911.03	3458
911.145	3298
911.259	3287
911.374	3317
911.489	3260
911.604	3253
911.718	3112
911.833	3165
911.947	3047
912.062	3009
912.176	3184
912.291	3199
912.405	3233
912.519	3462
912.633	3519
912.748	3374
912.862	3264
912.976	3184
913.09	3058
913.204	3146
913.318	3241
913.431	3313
913.545	3332
913.659	3435
913.772	3329
913.886	3245
914	3226
914.113	3363
914.226	3412
914.34	3386
914.453	3233
914.566	3443
914.68	3329
914.793	3359
914.906	3176
915.019	3104
915.132	3093
915.245	3180
915.358	3180
915.47	3260
915.583	3253
915.696	3298
915.809	3420
915.921	3431
916.034	3253
916.146	3279
916.259	3241
916.371	3397
916.483	3397
916.595	3283
916.708	3321
916.82	3348
916.932	3370
917.044	3382
917.156	3370
917.268	3279
917.38	3329
917.491	3310
917.603	3401
917.715	3500
917.826	3481
917.938	3409
918.049	3313
918.161	3447
918.272	3629
918.384	3595
918.495	3523
918.606	3359
918.717	3336
918.828	3401
918.939	3439
919.05	3313
919.161	3393
919.272	3211
919.383	3306
919.494	3477
919.604	3682
919.715	3511
919.826	3397
919.936	3466
920.047	3603
920.157	3542
920.267	3736
920.378	3622
920.488	3580
920.598	3774
920.708	3975
920.818	3835
920.928	3850
921.038	4032
921.148	3991
921.258	3705
921.368	3641
921.477	3534
921.587	3507
921.697	3443
921.806	3637
921.916	3564
922.025	3378
922.134	3393
922.244	3325
922.353	3443
922.462	3272
922.571	3226
922.68	3108
922.789	3066
922.898	3165
923.007	3100
923.116	3173
923.224	3188
923.333	3169
923.442	3138
923.55	3093
923.659	3154
923.767	3218
923.876	3089
923.984	3253
924.092	3135
924.201	3218
924.309	3230
924.417	3249
924.525	3203
924.633	3203
924.741	4154
924.849	3077
924.956	3279
925.064	3097
925.172	3104
925.279	3131
925.387	3214
925.494	3218
925.602	3359
925.709	3344
925.816	3188
925.924	3298
926.031	3397
926.138	3359
926.245	3344
926.352	3237
926.459	3435
926.566	3519
926.673	3306
926.779	3283
926.886	3272
926.993	3184
927.099	3165
927.206	3135
927.312	3123
927.419	3226
927.525	3218
927.631	3294
927.737	3131
927.843	3176
927.95	3028
928.056	3127
928.162	3195
928.267	3256
928.373	3911
928.479	3329
928.585	3070
928.69	3222
928.796	3332
928.901	3188
929.007	3017
929.112	3211
929.218	3214
929.323	3154
929.428	3169
929.533	3351
929.638	3131
929.743	3154
929.848	3256
929.953	3195
930.058	3157
930.163	2994
930.267	3055
930.372	3207
930.477	3024
930.581	3336
930.685	3214
930.79	3028
930.894	3127
930.998	3093
931.103	3279
931.207	2990
931.311	2960
931.415	2941
931.519	2781
931.623	2804
