Data from test_V78500241_427.txt Node
Date: Fri Mar 25 16:18:09 CST 2022
User: usil
Spectrometer: V785-0024
Trigger mode: 0
Integration Time (sec): 4.000000E-1
Scans to average: 1
Nonlinearity correction enabled: false
Boxcar width: 0
Storing dark spectrum: false
XAxis mode: Wavelengths
Number of Pixels in Spectrum: 1024
>>>>>Begin Spectral Data<<<<<
801.071	2918
801.214	2963
801.356	2868
801.499	2891
801.641	2872
801.783	2902
801.926	3077
802.068	2948
802.211	2963
802.353	3028
802.496	2944
802.638	3001
802.78	3036
802.923	3058
803.065	2994
803.208	2895
803.35	2914
803.492	2941
803.635	2899
803.777	2735
803.919	2849
804.061	3211
804.204	2910
804.346	2960
804.488	2826
804.63	2963
804.773	2868
804.915	2895
805.057	3093
805.199	2937
805.341	2960
805.483	3032
805.626	2986
805.768	2952
805.91	3062
806.052	3097
806.194	3028
806.336	3233
806.478	3009
806.62	2914
806.762	2971
806.904	3085
807.046	3150
807.188	2956
807.33	2941
807.472	2963
807.614	2925
807.756	2925
807.898	2861
808.04	2910
808.182	2990
808.324	2918
808.465	2876
808.607	2830
808.749	2819
808.891	2830
809.033	2948
809.174	2963
809.316	2838
809.458	2887
809.6	2773
809.741	2766
809.883	2769
810.025	2830
810.166	2819
810.308	2842
810.45	2807
810.591	2777
810.733	2758
810.875	2826
811.016	2735
811.158	2735
811.299	2807
811.441	2963
811.582	2906
811.724	2819
811.865	2842
812.007	2918
812.148	2872
812.29	2796
812.431	2864
812.573	2948
812.714	2979
812.855	3081
812.997	3024
813.138	3074
813.279	2994
813.421	2986
813.562	2990
813.703	2830
813.845	2880
813.986	2796
814.127	2689
814.268	2849
814.41	2845
814.551	2838
814.692	2902
814.833	2807
814.974	2902
815.115	2963
815.256	2815
815.397	2807
815.539	2864
815.68	2773
815.821	2762
815.962	2941
816.103	2906
816.244	2891
816.385	2872
816.526	2956
816.666	2906
816.807	2750
816.948	2906
817.089	2883
817.23	2842
817.371	2792
817.512	2800
817.653	2830
817.793	2800
817.934	2891
818.075	2960
818.216	2979
818.356	2979
818.497	2899
818.638	2762
818.778	2823
818.919	2796
819.06	2739
819.2	2872
819.341	2811
819.481	2838
819.622	2902
819.762	3097
819.903	3005
820.043	2922
820.184	2883
820.324	2864
820.465	3043
820.605	3013
820.746	2986
820.886	2906
821.026	3097
821.167	3157
821.307	3241
821.447	3256
821.588	3211
821.728	3184
821.868	3165
822.008	3066
822.149	3138
822.289	3195
822.429	3062
822.569	3074
822.709	3150
822.849	3020
822.99	3013
823.13	3157
823.27	3173
823.41	3070
823.55	3142
823.69	3169
823.83	3165
823.97	3100
824.11	2990
824.25	2971
824.389	3047
824.529	3097
824.669	3055
824.809	3180
824.949	3241
825.089	3173
825.228	3146
825.368	2986
825.508	2899
825.648	2948
825.787	2975
825.927	3024
826.067	2994
826.206	2941
826.346	3036
826.485	3055
826.625	3108
826.765	3249
826.904	3214
827.044	2975
827.183	2960
827.323	2872
827.462	2967
827.601	2918
827.741	2925
827.88	2979
828.02	2823
828.159	2956
828.298	3017
828.437	3116
828.577	3032
828.716	3226
828.855	3074
828.994	2925
829.134	2834
829.273	2914
829.412	2819
829.551	2834
829.69	2883
829.829	2975
829.968	3093
830.107	3020
830.246	3043
830.385	2910
830.524	2880
830.663	2807
830.802	2712
830.941	2636
831.08	2659
831.219	2788
831.357	2773
831.496	2944
831.635	2712
831.774	2640
831.913	2686
832.051	2530
832.19	2602
832.329	2693
832.467	2552
832.606	2492
832.744	2606
832.883	2571
833.022	2579
833.16	2678
833.299	2708
833.437	2720
833.576	2739
833.714	2705
833.852	2754
833.991	2823
834.129	2872
834.267	2868
834.406	2845
834.544	2891
834.682	2906
834.821	2876
834.959	3116
835.097	2925
835.235	3070
835.373	3009
835.511	3062
835.65	2994
835.788	2979
835.926	2914
836.064	2849
836.202	2868
836.34	3093
836.478	3169
836.615	3104
836.753	3142
836.891	3222
837.029	3222
837.167	3131
837.305	3112
837.443	3085
837.58	2998
837.718	3157
837.856	3123
837.993	3074
838.131	3165
838.269	3138
838.406	3138
838.544	3165
838.681	2971
838.819	2952
838.956	2853
839.094	2880
839.231	2971
839.369	3081
839.506	3412
839.643	3268
839.781	3058
839.918	3001
840.055	3089
840.193	3089
840.33	3100
840.467	3188
840.604	3169
840.742	3443
840.879	3074
841.016	3104
841.153	3146
841.29	3382
841.427	3359
841.564	3283
841.701	3344
841.838	3260
841.975	3184
842.112	3291
842.249	3154
842.385	3085
842.522	3287
842.659	3119
842.796	3100
842.933	3131
843.069	3077
843.206	3104
843.343	3218
843.479	3116
843.616	3188
843.752	2906
843.889	2906
844.025	3135
844.162	2933
844.298	3108
844.435	2971
844.571	2956
844.708	3062
844.844	3241
844.98	3279
845.117	3268
845.253	3116
845.389	3070
845.525	3127
845.661	3108
845.798	3055
845.934	3169
846.07	3104
846.206	3264
846.342	3374
846.478	3253
846.614	3138
846.75	3058
846.886	3058
847.022	3294
847.158	3169
847.294	3230
847.429	3260
847.565	3245
847.701	3507
847.837	3081
847.972	3020
848.108	3169
848.244	3222
848.379	3032
848.515	2967
848.65	2975
848.786	2986
848.921	3024
849.057	3173
849.192	3211
849.328	3131
849.463	3176
849.598	3089
849.734	3039
849.869	2998
850.004	2952
850.14	2998
850.275	2952
850.41	2876
850.545	2963
850.68	2952
850.815	3020
850.95	3032
851.085	3241
851.22	3127
851.355	3070
851.49	2990
851.625	3024
851.76	3009
851.895	2975
852.03	2941
852.165	3085
852.299	3127
852.434	3233
852.569	3173
852.703	3188
852.838	3249
852.973	3336
853.107	3359
853.242	3127
853.376	3116
853.511	3001
853.645	3055
853.78	3241
853.914	3119
854.048	3131
854.183	3081
854.317	3169
854.451	3268
854.585	3161
854.72	3089
854.854	3218
854.988	3100
855.122	3116
855.256	3013
855.39	3173
855.524	3310
855.658	3207
855.792	3203
855.926	3192
856.06	3226
856.194	3294
856.327	3184
856.461	3070
856.595	3081
856.729	3119
856.862	3245
856.996	3154
857.13	3241
857.263	3268
857.397	3287
857.53	3119
857.664	3245
857.797	3256
857.931	3298
858.064	3150
858.197	3241
858.331	3180
858.464	3131
858.597	3020
858.731	3150
858.864	3192
858.997	3123
859.13	3214
859.263	3214
859.396	3230
859.529	3131
859.662	3097
859.795	3081
859.928	3154
860.061	3245
860.194	3317
860.327	3142
860.46	3100
860.592	3260
860.725	3275
860.858	3298
860.99	3131
861.123	3062
861.256	3100
861.388	3222
861.521	3987
861.653	3066
861.786	2986
861.918	3039
862.05	3077
862.183	3135
862.315	3199
862.447	3241
862.58	3131
862.712	3001
862.844	2895
862.976	3051
863.108	3024
863.24	3428
863.372	2899
863.504	2975
863.636	2998
863.768	3039
863.9	2982
864.032	2922
864.164	2967
864.296	3043
864.428	3131
864.559	3127
864.691	3108
864.823	3074
864.954	3081
865.086	3066
865.217	3020
865.349	2967
865.48	2967
865.612	3051
865.743	3150
865.875	3005
866.006	2902
866.137	3013
866.269	3005
866.4	2952
866.531	2956
866.662	2929
866.793	2895
866.924	2933
867.055	2990
867.186	2960
867.317	2910
867.448	2868
867.579	2872
867.71	2887
867.841	2834
867.972	2933
868.103	2956
868.233	2899
868.364	2952
868.495	2956
868.625	3116
868.756	3195
868.886	3020
869.017	3089
869.147	3169
869.278	3165
869.408	3051
869.539	3028
869.669	3138
869.799	3070
869.929	3150
870.06	3146
870.19	3329
870.32	3298
870.45	3306
870.58	3397
870.71	3450
870.84	3488
870.97	3325
871.1	3256
871.23	3500
871.36	3477
871.489	3389
871.619	3450
871.749	3378
871.879	3473
872.008	3504
872.138	3355
872.267	3298
872.397	3176
872.526	3161
872.656	3039
872.785	3123
872.915	3279
873.044	3332
873.173	3230
873.303	3310
873.432	3253
873.561	3249
873.69	3199
873.819	3176
873.948	3214
874.077	3093
874.206	3062
874.335	3116
874.464	3260
874.593	3329
874.722	3283
874.851	3424
874.979	3405
875.108	3321
875.237	3211
875.365	3256
875.494	3184
875.623	3245
875.751	3089
875.88	3142
876.008	3226
876.136	3226
876.265	3393
876.393	3507
876.521	3443
876.65	3420
876.778	3374
876.906	3275
877.034	3245
877.162	3218
877.29	3176
877.418	3253
877.546	3268
877.674	3272
877.802	3268
877.93	3245
878.058	3150
878.185	3119
878.313	3222
878.441	3241
878.568	3032
878.696	3154
878.824	3279
878.951	3325
879.079	3450
879.206	3675
879.333	3439
879.461	3351
879.588	3370
879.715	3507
879.842	3606
879.97	3374
880.097	3192
880.224	3188
880.351	3195
880.478	3245
880.605	3214
880.732	3203
880.859	3515
880.986	3298
881.112	3306
881.239	3233
881.366	3070
881.493	3058
881.619	3024
881.746	3093
881.872	3127
881.999	3116
882.125	3161
882.252	3256
882.378	3306
882.505	3447
882.631	3287
882.757	3173
882.883	3241
883.01	3237
883.136	3146
883.262	3104
883.388	3127
883.514	3325
883.64	3367
883.766	3317
883.892	3233
884.018	3233
884.143	3412
884.269	3542
884.395	3173
884.52	3176
884.646	3199
884.772	3142
884.897	3127
885.023	3253
885.148	3332
885.274	3435
885.399	3378
885.524	3275
885.65	3325
885.775	3313
885.9	3310
886.025	3439
886.15	3363
886.275	3317
886.4	3241
886.525	3344
886.65	3325
886.775	3298
886.9	3564
887.025	3656
887.149	3435
887.274	3294
887.399	3192
887.523	3230
887.648	3180
887.773	3214
887.897	3374
888.021	3401
888.146	3302
888.27	3447
888.395	3542
888.519	3450
888.643	3443
888.767	3473
888.891	3340
889.015	3283
889.139	3294
889.263	3260
889.387	3431
889.511	3534
889.635	3477
889.759	3306
889.883	3344
890.006	3397
890.13	3481
890.254	3275
890.377	3382
890.501	3233
890.624	3233
890.748	3302
890.871	3207
890.995	3131
891.118	3085
891.241	3192
891.364	3203
891.488	3310
891.611	3169
891.734	3245
891.857	3264
891.98	3237
892.103	3321
892.226	3302
892.349	3241
892.471	3100
892.594	3283
892.717	3302
892.839	3272
892.962	3313
893.085	3348
893.207	3317
893.33	3165
893.452	3203
893.575	3332
893.697	3264
893.819	3462
893.941	3519
894.064	3469
894.186	3287
894.308	3268
894.43	3477
894.552	3519
894.674	3469
894.796	3287
894.918	3306
895.04	3306
895.161	3431
895.283	3386
895.405	3317
895.526	3355
895.648	3435
895.769	3424
895.891	3469
896.012	3477
896.134	3477
896.255	3450
896.376	3386
896.498	3336
896.619	3431
896.74	3340
896.861	3393
896.982	3679
897.103	3857
897.224	3618
897.345	3496
897.466	3458
897.587	3488
897.708	3633
897.828	3553
897.949	3466
898.07	3367
898.19	3397
898.311	3625
898.431	3477
898.552	3519
898.672	3637
898.792	3553
898.913	3523
899.033	3454
899.153	3279
899.273	3218
899.393	3294
899.513	3329
899.633	3378
899.753	3329
899.873	3287
899.993	3401
900.113	3329
900.232	3401
900.352	3351
900.472	3272
900.591	3184
900.711	3272
900.83	3249
900.95	3409
901.069	3469
901.189	3336
901.308	3218
901.427	3142
901.546	3173
901.665	3325
901.784	3355
901.904	3233
902.023	3142
902.141	3036
902.26	2990
902.379	3146
902.498	3081
902.617	3051
902.735	3237
902.854	3264
902.973	3165
903.091	3032
903.21	3051
903.328	3154
903.446	3123
903.565	3119
903.683	3230
903.801	3127
903.919	3253
904.038	3272
904.156	3173
904.274	3287
904.392	3249
904.51	3283
904.627	3306
904.745	3416
904.863	3542
904.981	3249
905.098	3146
905.216	3241
905.334	3279
905.451	3302
905.569	3317
905.686	3435
905.803	3477
905.921	3317
906.038	3443
906.155	3351
906.272	3279
906.389	3355
906.506	3233
906.623	3272
906.74	3317
906.857	3199
906.974	3283
907.091	3454
907.208	3633
907.324	3481
907.441	3412
907.557	3298
907.674	3283
907.79	3233
907.907	3294
908.023	3447
908.139	3374
908.256	3370
908.372	3393
908.488	3370
908.604	3291
908.72	3287
908.836	3306
908.952	3279
909.068	3378
909.184	3523
909.3	3386
909.415	3553
909.531	3568
909.647	3317
909.762	3344
909.878	3321
909.993	3382
910.108	3405
910.224	3386
910.339	3488
910.454	3386
910.57	3329
910.685	3275
910.8	3618
910.915	3584
911.03	3488
911.145	3302
911.259	3287
911.374	3378
911.489	3256
911.604	3253
911.718	3176
911.833	3226
911.947	3077
912.062	3013
912.176	3226
912.291	3245
912.405	3283
912.519	3466
912.633	3519
912.748	3355
912.862	3321
912.976	3230
913.09	3142
913.204	3169
913.318	3272
913.431	3397
913.545	3378
913.659	3447
913.772	3374
913.886	3230
914	3287
914.113	3397
914.226	3439
914.34	3386
914.453	3275
914.566	3481
914.68	3272
914.793	3336
914.906	3199
915.019	3150
915.132	3066
915.245	3188
915.358	3233
915.47	3249
915.583	3310
915.696	3332
915.809	3435
915.921	3435
916.034	3340
916.146	3302
916.259	3249
916.371	3447
916.483	3389
916.595	3298
916.708	3382
916.82	3351
916.932	3348
917.044	3382
917.156	3382
917.268	3272
917.38	3401
917.491	3340
917.603	3374
917.715	3481
917.826	3515
917.938	3416
918.049	3310
918.161	3481
918.272	3595
918.384	3625
918.495	3530
918.606	3401
918.717	3321
918.828	3393
918.939	3401
919.05	3355
919.161	3405
919.272	3218
919.383	3329
919.494	3534
919.604	3747
919.715	3466
919.826	3424
919.936	3515
920.047	3614
920.157	3622
920.267	3816
920.378	3622
920.488	3606
920.598	3854
920.708	3972
920.818	3892
920.928	3861
921.038	4025
921.148	4055
921.258	3740
921.368	3686
921.477	3591
921.587	3557
921.697	3481
921.806	3648
921.916	3542
922.025	3370
922.134	3412
922.244	3363
922.353	3466
922.462	3302
922.571	3237
922.68	3116
922.789	3127
922.898	3199
923.007	3157
923.116	3237
923.224	3233
923.333	3245
923.442	3104
923.55	3127
923.659	3203
923.767	3230
923.876	3150
923.984	3279
924.092	3135
924.201	3203
924.309	3283
924.417	3287
924.525	3230
924.633	3283
924.741	4211
924.849	3135
924.956	3313
925.064	3116
925.172	3077
925.279	3138
925.387	3195
925.494	3233
925.602	3363
925.709	3348
925.816	3226
925.924	3298
926.031	3431
926.138	3348
926.245	3409
926.352	3253
926.459	3409
926.566	3542
926.673	3359
926.779	3256
926.886	3287
926.993	3180
927.099	3154
927.206	3154
927.312	3146
927.419	3256
927.525	3249
927.631	3256
927.737	3184
927.843	3157
927.95	3074
928.056	3169
928.162	3222
928.267	3272
928.373	3896
928.479	3355
928.585	3119
928.69	3207
928.796	3321
928.901	3218
929.007	3100
929.112	3256
929.218	3192
929.323	3157
929.428	3165
929.533	3329
929.638	3116
929.743	3195
929.848	3298
929.953	3268
930.058	3119
930.163	3074
930.267	3085
930.372	3249
930.477	3032
930.581	3351
930.685	3218
930.79	3085
930.894	3157
930.998	3154
931.103	3302
931.207	2979
931.311	2990
931.415	2937
931.519	2792
931.623	2849
