Data from test_V78500241_643.txt Node
Date: Fri Mar 25 16:19:39 CST 2022
User: usil
Spectrometer: V785-0024
Trigger mode: 0
Integration Time (sec): 4.000000E-1
Scans to average: 1
Nonlinearity correction enabled: false
Boxcar width: 0
Storing dark spectrum: false
XAxis mode: Wavelengths
Number of Pixels in Spectrum: 1024
>>>>>Begin Spectral Data<<<<<
801.071	2948
801.214	3013
801.356	2914
801.499	2914
801.641	2922
801.783	2933
801.926	3127
802.068	3020
802.211	3028
802.353	3062
802.496	2967
802.638	3032
802.78	3074
802.923	3123
803.065	3047
803.208	2925
803.35	2975
803.492	2971
803.635	2956
803.777	2826
803.919	2906
804.061	3230
804.204	2979
804.346	2941
804.488	2899
804.63	3024
804.773	2899
804.915	2941
805.057	3100
805.199	2948
805.341	3009
805.483	3047
805.626	3017
805.768	2979
805.91	3127
806.052	3150
806.194	3032
806.336	3249
806.478	3062
806.62	3001
806.762	2990
806.904	3066
807.046	3154
807.188	3005
807.33	2910
807.472	3009
807.614	2922
807.756	3020
807.898	2929
808.04	2922
808.182	3036
808.324	2952
808.465	2868
808.607	2883
808.749	2807
808.891	2853
809.033	2986
809.174	3001
809.316	2872
809.458	2902
809.6	2792
809.741	2819
809.883	2766
810.025	2868
810.166	2838
810.308	2864
810.45	2880
810.591	2754
810.733	2777
810.875	2857
811.016	2792
811.158	2807
811.299	2815
811.441	2910
811.582	2883
811.724	2834
811.865	2838
812.007	2937
812.148	2895
812.29	2883
812.431	2910
812.573	2986
812.714	2967
812.855	3020
812.997	3055
813.138	3116
813.279	3032
813.421	3005
813.562	2986
813.703	2902
813.845	2906
813.986	2769
814.127	2716
814.268	2815
814.41	2861
814.551	2842
814.692	2891
814.833	2853
814.974	2918
815.115	2963
815.256	2857
815.397	2857
815.539	2868
815.68	2781
815.821	2792
815.962	2971
816.103	2933
816.244	2918
816.385	2872
816.526	2990
816.666	2929
816.807	2746
816.948	2872
817.089	2925
817.23	2887
817.371	2762
817.512	2834
817.653	2861
817.793	2838
817.934	2872
818.075	2975
818.216	3039
818.356	3028
818.497	2914
818.638	2792
818.778	2887
818.919	2815
819.06	2781
819.2	2880
819.341	2826
819.481	2815
819.622	2963
819.762	3108
819.903	3062
820.043	2922
820.184	2899
820.324	2918
820.465	2990
820.605	3062
820.746	3039
820.886	2925
821.026	3070
821.167	3184
821.307	3279
821.447	3287
821.588	3249
821.728	3207
821.868	3214
822.008	3108
822.149	3195
822.289	3237
822.429	3104
822.569	3100
822.709	3192
822.849	3017
822.99	3074
823.13	3195
823.27	3214
823.41	3142
823.55	3150
823.69	3165
823.83	3199
823.97	3104
824.11	3017
824.25	3017
824.389	3089
824.529	3077
824.669	3043
824.809	3192
824.949	3222
825.089	3253
825.228	3161
825.368	3009
825.508	2975
825.648	2967
825.787	3005
825.927	3024
826.067	2952
826.206	2952
826.346	3066
826.485	3085
826.625	3112
826.765	3287
826.904	3218
827.044	2979
827.183	2922
827.323	2880
827.462	3009
827.601	2899
827.741	2971
827.88	2979
828.02	2857
828.159	2963
828.298	3032
828.437	3135
828.577	3066
828.716	3245
828.855	3074
828.994	2906
829.134	2868
829.273	2929
829.412	2857
829.551	2868
829.69	2872
829.829	2982
829.968	3135
830.107	3032
830.246	3028
830.385	2944
830.524	2899
830.663	2845
830.802	2777
830.941	2655
831.08	2659
831.219	2762
831.357	2773
831.496	2952
831.635	2731
831.774	2640
831.913	2667
832.051	2549
832.19	2598
832.329	2705
832.467	2533
832.606	2484
832.744	2587
832.883	2594
833.022	2583
833.16	2659
833.299	2686
833.437	2708
833.576	2731
833.714	2708
833.852	2731
833.991	2743
834.129	2872
834.267	2811
834.406	2796
834.544	2876
834.682	2876
834.821	2914
834.959	3062
835.097	2899
835.235	3043
835.373	3020
835.511	3009
835.65	2975
835.788	2952
835.926	2853
836.064	2769
836.202	2868
836.34	3119
836.478	3146
836.615	3051
836.753	3161
836.891	3203
837.029	3157
837.167	3097
837.305	3058
837.443	3051
837.58	2967
837.718	3165
837.856	3066
837.993	3032
838.131	3142
838.269	3135
838.406	3138
838.544	3085
838.681	2960
838.819	2948
838.956	2796
839.094	2826
839.231	2933
839.369	3020
839.506	3382
839.643	3237
839.781	3005
839.918	2941
840.055	3058
840.193	3093
840.33	3047
840.467	3131
840.604	3154
840.742	3378
840.879	3058
841.016	3039
841.153	3097
841.29	3363
841.427	3313
841.564	3249
841.701	3306
841.838	3241
841.975	3161
842.112	3207
842.249	3043
842.385	3074
842.522	3291
842.659	3089
842.796	3051
842.933	3127
843.069	3020
843.206	3028
843.343	3165
843.479	3093
843.616	3154
843.752	2880
843.889	2891
844.025	3108
844.162	2872
844.298	3104
844.435	2979
844.571	2933
844.708	3066
844.844	3207
844.98	3256
845.117	3161
845.253	3036
845.389	3036
845.525	3097
845.661	3085
845.798	3024
845.934	3138
846.07	3032
846.206	3207
846.342	3317
846.478	3218
846.614	3074
846.75	3047
846.886	3036
847.022	3253
847.158	3161
847.294	3233
847.429	3211
847.565	3203
847.701	3511
847.837	3051
847.972	3020
848.108	3176
848.244	3165
848.379	3020
848.515	2948
848.65	2914
848.786	2952
848.921	3017
849.057	3081
849.192	3165
849.328	3058
849.463	3104
849.598	3089
849.734	3032
849.869	2994
850.004	2918
850.14	2941
850.275	2918
850.41	2868
850.545	2891
850.68	2963
850.815	2963
850.95	3005
851.085	3161
851.22	3100
851.355	3005
851.49	2982
851.625	2975
851.76	2971
851.895	2941
852.03	2933
852.165	3043
852.299	3123
852.434	3146
852.569	3135
852.703	3157
852.838	3253
852.973	3306
853.107	3302
853.242	3157
853.376	3104
853.511	2982
853.645	3032
853.78	3241
853.914	3131
854.048	3112
854.183	3127
854.317	3119
854.451	3249
854.585	3157
854.72	3100
854.854	3180
854.988	3047
855.122	3081
855.256	2982
855.39	3097
855.524	3203
855.658	3203
855.792	3150
855.926	3195
856.06	3230
856.194	3237
856.327	3146
856.461	3070
856.595	3085
856.729	3081
856.862	3180
856.996	3131
857.13	3184
857.263	3222
857.397	3260
857.53	3119
857.664	3222
857.797	3237
857.931	3241
858.064	3226
858.197	3207
858.331	3138
858.464	3085
858.597	3028
858.731	3157
858.864	3108
858.997	3100
859.13	3150
859.263	3150
859.396	3176
859.529	3043
859.662	3093
859.795	3058
859.928	3135
860.061	3310
860.194	3298
860.327	3127
860.46	3104
860.592	3253
860.725	3256
860.858	3245
860.99	3142
861.123	3074
861.256	3055
861.388	3097
861.521	3937
861.653	3032
861.786	2982
861.918	3009
862.05	3051
862.183	3051
862.315	3169
862.447	3214
862.58	3070
862.712	2948
862.844	2880
862.976	3013
863.108	2982
863.24	3435
863.372	2853
863.504	2960
863.636	2929
863.768	3051
863.9	2971
864.032	2899
864.164	2925
864.296	3024
864.428	3024
864.559	3116
864.691	3074
864.823	3036
864.954	3032
865.086	3051
865.217	3009
865.349	2967
865.48	2960
865.612	3020
865.743	3135
865.875	2986
866.006	2956
866.137	2967
866.269	2929
866.4	2922
866.531	2937
866.662	2853
866.793	2880
866.924	2914
867.055	3005
867.186	2899
867.317	2857
867.448	2819
867.579	2845
867.71	2864
867.841	2845
867.972	2902
868.103	2910
868.233	2864
868.364	2845
868.495	2891
868.625	3077
868.756	3169
868.886	2941
869.017	3005
869.147	3161
869.278	3135
869.408	3028
869.539	3055
869.669	3070
869.799	3066
869.929	3176
870.06	3097
870.19	3329
870.32	3272
870.45	3268
870.58	3401
870.71	3458
870.84	3439
870.97	3313
871.1	3218
871.23	3454
871.36	3469
871.489	3351
871.619	3405
871.749	3370
871.879	3454
872.008	3477
872.138	3321
872.267	3279
872.397	3135
872.526	3047
872.656	3013
872.785	3093
872.915	3233
873.044	3310
873.173	3207
873.303	3260
873.432	3241
873.561	3260
873.69	3146
873.819	3131
873.948	3138
874.077	3127
874.206	3036
874.335	3074
874.464	3211
874.593	3302
874.722	3249
874.851	3397
874.979	3351
875.108	3317
875.237	3211
875.365	3123
875.494	3138
875.623	3264
875.751	3051
875.88	3127
876.008	3188
876.136	3241
876.265	3374
876.393	3530
876.521	3431
876.65	3401
876.778	3370
876.906	3237
877.034	3176
877.162	3218
877.29	3157
877.418	3230
877.546	3245
877.674	3249
877.802	3249
877.93	3226
878.058	3116
878.185	3127
878.313	3180
878.441	3233
878.568	3066
878.696	3135
878.824	3253
878.951	3275
879.079	3412
879.206	3637
879.333	3462
879.461	3344
879.588	3340
879.715	3458
879.842	3572
879.97	3393
880.097	3150
880.224	3119
880.351	3176
880.478	3214
880.605	3233
880.732	3169
880.859	3492
880.986	3287
881.112	3317
881.239	3211
881.366	3081
881.493	3024
881.619	3028
881.746	3047
881.872	3058
881.999	3104
882.125	3192
882.252	3260
882.378	3275
882.505	3431
882.631	3241
882.757	3108
882.883	3203
883.01	3192
883.136	3154
883.262	3055
883.388	3093
883.514	3348
883.64	3401
883.766	3302
883.892	3180
884.018	3230
884.143	3397
884.269	3542
884.395	3230
884.52	3180
884.646	3180
884.772	3146
884.897	3108
885.023	3184
885.148	3340
885.274	3416
885.399	3363
885.524	3294
885.65	3264
885.775	3329
885.9	3279
886.025	3477
886.15	3374
886.275	3264
886.4	3241
886.525	3291
886.65	3233
886.775	3283
886.9	3511
887.025	3614
887.149	3405
887.274	3264
887.399	3192
887.523	3150
887.648	3188
887.773	3146
887.897	3340
888.021	3409
888.146	3302
888.27	3458
888.395	3534
888.519	3431
888.643	3412
888.767	3454
888.891	3344
889.015	3253
889.139	3291
889.263	3260
889.387	3363
889.511	3492
889.635	3450
889.759	3294
889.883	3268
890.006	3409
890.13	3477
890.254	3253
890.377	3310
890.501	3230
890.624	3180
890.748	3317
890.871	3173
890.995	3104
891.118	3066
891.241	3184
891.364	3203
891.488	3329
891.611	3169
891.734	3233
891.857	3249
891.98	3233
892.103	3332
892.226	3272
892.349	3233
892.471	3127
892.594	3226
892.717	3298
892.839	3260
892.962	3298
893.085	3355
893.207	3298
893.33	3176
893.452	3195
893.575	3321
893.697	3249
893.819	3466
893.941	3511
894.064	3496
894.186	3249
894.308	3287
894.43	3431
894.552	3530
894.674	3428
894.796	3260
894.918	3313
895.04	3298
895.161	3382
895.283	3359
895.405	3344
895.526	3370
895.648	3409
895.769	3409
895.891	3500
896.012	3515
896.134	3409
896.255	3439
896.376	3359
896.498	3386
896.619	3443
896.74	3389
896.861	3397
896.982	3720
897.103	3816
897.224	3587
897.345	3515
897.466	3416
897.587	3504
897.708	3633
897.828	3534
897.949	3401
898.07	3329
898.19	3393
898.311	3629
898.431	3420
898.552	3496
898.672	3576
898.792	3591
898.913	3519
899.033	3416
899.153	3302
899.273	3214
899.393	3336
899.513	3317
899.633	3317
899.753	3329
899.873	3321
899.993	3424
900.113	3302
900.232	3348
900.352	3332
900.472	3272
900.591	3184
900.711	3237
900.83	3226
900.95	3386
901.069	3477
901.189	3344
901.308	3180
901.427	3146
901.546	3188
901.665	3291
901.784	3298
901.904	3233
902.023	3131
902.141	3017
902.26	3028
902.379	3165
902.498	3066
902.617	3028
902.735	3233
902.854	3180
902.973	3165
903.091	3028
903.21	3047
903.328	3154
903.446	3097
903.565	3157
903.683	3192
903.801	3123
903.919	3214
904.038	3325
904.156	3146
904.274	3294
904.392	3268
904.51	3283
904.627	3340
904.745	3462
904.863	3466
904.981	3241
905.098	3165
905.216	3195
905.334	3287
905.451	3272
905.569	3329
905.686	3435
905.803	3435
905.921	3275
906.038	3420
906.155	3336
906.272	3283
906.389	3367
906.506	3237
906.623	3245
906.74	3298
906.857	3195
906.974	3264
907.091	3431
907.208	3526
907.324	3485
907.441	3363
907.557	3211
907.674	3207
907.79	3245
907.907	3298
908.023	3336
908.139	3370
908.256	3317
908.372	3382
908.488	3317
908.604	3245
908.72	3211
908.836	3260
908.952	3230
909.068	3321
909.184	3504
909.3	3351
909.415	3481
909.531	3469
909.647	3256
909.762	3245
909.878	3256
909.993	3351
910.108	3321
910.224	3321
910.339	3386
910.454	3355
910.57	3310
910.685	3233
910.8	3576
910.915	3553
911.03	3409
911.145	3279
911.259	3260
911.374	3302
911.489	3253
911.604	3218
911.718	3146
911.833	3207
911.947	3024
912.062	2998
912.176	3161
912.291	3192
912.405	3203
912.519	3431
912.633	3447
912.748	3325
912.862	3302
912.976	3173
913.09	3055
913.204	3138
913.318	3214
913.431	3363
913.545	3332
913.659	3412
913.772	3294
913.886	3245
914	3211
914.113	3382
914.226	3431
914.34	3348
914.453	3203
914.566	3431
914.68	3241
914.793	3317
914.906	3131
915.019	3127
915.132	3055
915.245	3192
915.358	3207
915.47	3241
915.583	3226
915.696	3302
915.809	3439
915.921	3454
916.034	3241
916.146	3256
916.259	3237
916.371	3378
916.483	3370
916.595	3256
916.708	3325
916.82	3306
916.932	3317
917.044	3283
917.156	3329
917.268	3249
917.38	3306
917.491	3268
917.603	3367
917.715	3466
917.826	3447
917.938	3393
918.049	3294
918.161	3424
918.272	3572
918.384	3568
918.495	3511
918.606	3321
918.717	3237
918.828	3389
918.939	3420
919.05	3329
919.161	3374
919.272	3169
919.383	3291
919.494	3515
919.604	3690
919.715	3466
919.826	3386
919.936	3473
920.047	3561
920.157	3553
920.267	3743
920.378	3656
920.488	3545
920.598	3736
920.708	3964
920.818	3823
920.928	3850
921.038	4029
921.148	4002
921.258	3762
921.368	3618
921.477	3538
921.587	3549
921.697	3424
921.806	3652
921.916	3538
922.025	3348
922.134	3367
922.244	3310
922.353	3405
922.462	3272
922.571	3237
922.68	3085
922.789	3104
922.898	3161
923.007	3089
923.116	3218
923.224	3173
923.333	3211
923.442	3123
923.55	3055
923.659	3142
923.767	3245
923.876	3161
923.984	3230
924.092	3085
924.201	3199
924.309	3184
924.417	3245
924.525	3176
924.633	3192
924.741	4006
924.849	3085
924.956	3237
925.064	3104
925.172	3055
925.279	3127
925.387	3211
925.494	3195
925.602	3367
925.709	3351
925.816	3203
925.924	3325
926.031	3355
926.138	3306
926.245	3370
926.352	3253
926.459	3370
926.566	3443
926.673	3306
926.779	3230
926.886	3203
926.993	3131
927.099	3089
927.206	3138
927.312	3119
927.419	3245
927.525	3176
927.631	3237
927.737	3135
927.843	3108
927.95	3058
928.056	3100
928.162	3146
928.267	3218
928.373	3785
928.479	3294
928.585	3085
928.69	3184
928.796	3249
928.901	3100
929.007	3036
929.112	3188
929.218	3154
929.323	3123
929.428	3142
929.533	3313
929.638	3123
929.743	3180
929.848	3275
929.953	3214
930.058	3150
930.163	3009
930.267	3013
930.372	3214
930.477	3024
930.581	3313
930.685	3154
930.79	3081
930.894	3062
930.998	3058
931.103	3275
931.207	2986
931.311	2922
931.415	2937
931.519	2758
931.623	2781
