Data from test_V78500241_2041.txt Node
Date: Fri Mar 25 16:29:20 CST 2022
User: usil
Spectrometer: V785-0024
Trigger mode: 0
Integration Time (sec): 4.000000E-1
Scans to average: 1
Nonlinearity correction enabled: false
Boxcar width: 0
Storing dark spectrum: false
XAxis mode: Wavelengths
Number of Pixels in Spectrum: 1024
>>>>>Begin Spectral Data<<<<<
801.071	2952
801.214	2994
801.356	2918
801.499	2922
801.641	2914
801.783	2948
801.926	3074
802.068	2975
802.211	3017
802.353	3066
802.496	2975
802.638	3020
802.78	3066
802.923	3093
803.065	3001
803.208	2876
803.35	2960
803.492	2952
803.635	2956
803.777	2773
803.919	2887
804.061	3226
804.204	2971
804.346	2929
804.488	2899
804.63	3039
804.773	2910
804.915	2918
805.057	3089
805.199	2948
805.341	2975
805.483	3081
805.626	2998
805.768	3020
805.91	3077
806.052	3116
806.194	3074
806.336	3241
806.478	3032
806.62	2982
806.762	2971
806.904	3119
807.046	3169
807.188	2994
807.33	2971
807.472	2998
807.614	2929
807.756	2994
807.898	2960
808.04	2922
808.182	2948
808.324	2956
808.465	2883
808.607	2941
808.749	2800
808.891	2849
809.033	3005
809.174	2971
809.316	2914
809.458	2910
809.6	2796
809.741	2773
809.883	2781
810.025	2842
810.166	2842
810.308	2861
810.45	2872
810.591	2746
810.733	2769
810.875	2834
811.016	2788
811.158	2773
811.299	2807
811.441	2933
811.582	2910
811.724	2830
811.865	2845
812.007	2933
812.148	2887
812.29	2842
812.431	2918
812.573	2937
812.714	2971
812.855	3024
812.997	3047
813.138	3150
813.279	3032
813.421	2967
813.562	2963
813.703	2887
813.845	2944
813.986	2804
814.127	2739
814.268	2857
814.41	2834
814.551	2826
814.692	2910
814.833	2823
814.974	2891
815.115	2982
815.256	2807
815.397	2826
815.539	2864
815.68	2792
815.821	2819
815.962	2933
816.103	2960
816.244	2891
816.385	2872
816.526	2979
816.666	2944
816.807	2773
816.948	2895
817.089	2937
817.23	2880
817.371	2800
817.512	2804
817.653	2853
817.793	2842
817.934	2876
818.075	2990
818.216	3005
818.356	3036
818.497	2895
818.638	2823
818.778	2804
818.919	2819
819.06	2769
819.2	2872
819.341	2861
819.481	2838
819.622	2963
819.762	3112
819.903	3036
820.043	2929
820.184	2922
820.324	2910
820.465	2986
820.605	3043
820.746	3009
820.886	2944
821.026	3112
821.167	3154
821.307	3272
821.447	3302
821.588	3233
821.728	3199
821.868	3176
822.008	3028
822.149	3146
822.289	3222
822.429	3081
822.569	3146
822.709	3211
822.849	3017
822.99	3032
823.13	3226
823.27	3218
823.41	3123
823.55	3184
823.69	3150
823.83	3195
823.97	3131
824.11	3009
824.25	2990
824.389	3074
824.529	3123
824.669	3093
824.809	3214
824.949	3245
825.089	3226
825.228	3226
825.368	3001
825.508	2990
825.648	2979
825.787	2994
825.927	2998
826.067	2960
826.206	2979
826.346	3066
826.485	3070
826.625	3108
826.765	3268
826.904	3222
827.044	3005
827.183	2948
827.323	2906
827.462	3028
827.601	2918
827.741	2944
827.88	2971
828.02	2876
828.159	2979
828.298	3017
828.437	3157
828.577	3032
828.716	3298
828.855	3074
828.994	2922
829.134	2891
829.273	2922
829.412	2864
829.551	2891
829.69	2868
829.829	2986
829.968	3127
830.107	3001
830.246	2994
830.385	2944
830.524	2895
830.663	2815
830.802	2720
830.941	2655
831.08	2670
831.219	2777
831.357	2727
831.496	2952
831.635	2712
831.774	2674
831.913	2674
832.051	2526
832.19	2598
832.329	2674
832.467	2541
832.606	2507
832.744	2575
832.883	2587
833.022	2579
833.16	2636
833.299	2712
833.437	2693
833.576	2689
833.714	2701
833.852	2743
833.991	2766
834.129	2845
834.267	2815
834.406	2766
834.544	2857
834.682	2887
834.821	2887
834.959	3051
835.097	2910
835.235	3077
835.373	2952
835.511	3017
835.65	2933
835.788	2944
835.926	2830
836.064	2800
836.202	2857
836.34	3146
836.478	3127
836.615	3036
836.753	3108
836.891	3211
837.029	3150
837.167	3085
837.305	3081
837.443	3074
837.58	2967
837.718	3123
837.856	3039
837.993	3036
838.131	3104
838.269	3089
838.406	3081
838.544	3081
838.681	2956
838.819	2937
838.956	2807
839.094	2815
839.231	2902
839.369	3039
839.506	3348
839.643	3211
839.781	3020
839.918	2982
840.055	3070
840.193	3039
840.33	3116
840.467	3055
840.604	3161
840.742	3370
840.879	3062
841.016	3066
841.153	3173
841.29	3298
841.427	3291
841.564	3272
841.701	3332
841.838	3226
841.975	3173
842.112	3218
842.249	3070
842.385	3028
842.522	3294
842.659	3097
842.796	3036
842.933	3097
843.069	3005
843.206	3058
843.343	3154
843.479	3093
843.616	3135
843.752	2876
843.889	2861
844.025	3055
844.162	2895
844.298	3100
844.435	2967
844.571	2944
844.708	3081
844.844	3195
844.98	3260
845.117	3165
845.253	3024
845.389	3013
845.525	3097
845.661	3119
845.798	3024
845.934	3119
846.07	3070
846.206	3218
846.342	3344
846.478	3218
846.614	3089
846.75	3047
846.886	3024
847.022	3264
847.158	3135
847.294	3207
847.429	3230
847.565	3180
847.701	3458
847.837	3070
847.972	2994
848.108	3131
848.244	3119
848.379	2944
848.515	2933
848.65	2956
848.786	2925
848.921	3017
849.057	3097
849.192	3127
849.328	3074
849.463	3070
849.598	3085
849.734	3024
849.869	2994
850.004	2922
850.14	2944
850.275	2937
850.41	2861
850.545	2857
850.68	2906
850.815	2975
850.95	3017
851.085	3169
851.22	3104
851.355	3020
851.49	3001
851.625	2986
851.76	3013
851.895	2899
852.03	2922
852.165	3009
852.299	3104
852.434	3207
852.569	3146
852.703	3173
852.838	3275
852.973	3340
853.107	3306
853.242	3116
853.376	3119
853.511	2986
853.645	3058
853.78	3260
853.914	3123
854.048	3108
854.183	3058
854.317	3112
854.451	3268
854.585	3127
854.72	3036
854.854	3199
854.988	3047
855.122	3104
855.256	3005
855.39	3131
855.524	3199
855.658	3199
855.792	3108
855.926	3184
856.06	3233
856.194	3249
856.327	3169
856.461	3055
856.595	3104
856.729	3085
856.862	3192
856.996	3146
857.13	3207
857.263	3222
857.397	3275
857.53	3119
857.664	3176
857.797	3245
857.931	3268
858.064	3154
858.197	3222
858.331	3135
858.464	3043
858.597	3001
858.731	3119
858.864	3142
858.997	3066
859.13	3131
859.263	3203
859.396	3237
859.529	3055
859.662	3066
859.795	3055
859.928	3146
860.061	3241
860.194	3279
860.327	3161
860.46	3112
860.592	3260
860.725	3275
860.858	3245
860.99	3108
861.123	3070
861.256	3089
861.388	3142
861.521	3880
861.653	3017
861.786	2998
861.918	2960
862.05	3074
862.183	3051
862.315	3154
862.447	3150
862.58	3108
862.712	2956
862.844	2864
862.976	3047
863.108	3028
863.24	3275
863.372	2902
863.504	2963
863.636	2948
863.768	3066
863.9	2971
864.032	2895
864.164	2899
864.296	3024
864.428	3085
864.559	3097
864.691	3085
864.823	3097
864.954	3036
865.086	3024
865.217	2998
865.349	2937
865.48	2967
865.612	3051
865.743	3119
865.875	2963
866.006	2941
866.137	2975
866.269	2918
866.4	2922
866.531	2887
866.662	2899
866.793	2864
866.924	2883
867.055	2948
867.186	2887
867.317	2902
867.448	2834
867.579	2819
867.71	2842
867.841	2830
867.972	2933
868.103	2883
868.233	2902
868.364	2880
868.495	2887
868.625	3058
868.756	3142
868.886	2979
869.017	3009
869.147	3135
869.278	3157
869.408	3047
869.539	3028
869.669	3066
869.799	3066
869.929	3169
870.06	3100
870.19	3325
870.32	3253
870.45	3291
870.58	3348
870.71	3439
870.84	3473
870.97	3298
871.1	3226
871.23	3466
871.36	3466
871.489	3389
871.619	3424
871.749	3389
871.879	3454
872.008	3466
872.138	3340
872.267	3268
872.397	3116
872.526	3112
872.656	2975
872.785	3066
872.915	3230
873.044	3306
873.173	3211
873.303	3268
873.432	3233
873.561	3268
873.69	3157
873.819	3138
873.948	3173
874.077	3085
874.206	2994
874.335	3074
874.464	3188
874.593	3340
874.722	3233
874.851	3397
874.979	3302
875.108	3310
875.237	3203
875.365	3169
875.494	3161
875.623	3237
875.751	3074
875.88	3100
876.008	3165
876.136	3211
876.265	3401
876.393	3447
876.521	3412
876.65	3374
876.778	3329
876.906	3207
877.034	3173
877.162	3230
877.29	3154
877.418	3245
877.546	3241
877.674	3233
877.802	3245
877.93	3199
878.058	3112
878.185	3100
878.313	3268
878.441	3192
878.568	3074
878.696	3180
878.824	3260
878.951	3291
879.079	3443
879.206	3614
879.333	3443
879.461	3340
879.588	3363
879.715	3511
879.842	3580
879.97	3359
880.097	3150
880.224	3123
880.351	3146
880.478	3233
880.605	3199
880.732	3192
880.859	3485
880.986	3310
881.112	3325
881.239	3192
881.366	3097
881.493	3032
881.619	2982
881.746	3085
881.872	3062
881.999	3097
882.125	3142
882.252	3249
882.378	3287
882.505	3389
882.631	3272
882.757	3119
882.883	3218
883.01	3169
883.136	3112
883.262	3066
883.388	3135
883.514	3287
883.64	3409
883.766	3313
883.892	3207
884.018	3272
884.143	3424
884.269	3507
884.395	3203
884.52	3165
884.646	3203
884.772	3093
884.897	3116
885.023	3192
885.148	3294
885.274	3393
885.399	3359
885.524	3283
885.65	3249
885.775	3336
885.9	3298
886.025	3424
886.15	3374
886.275	3340
886.4	3211
886.525	3287
886.65	3222
886.775	3256
886.9	3447
887.025	3637
887.149	3405
887.274	3249
887.399	3176
887.523	3150
887.648	3176
887.773	3184
887.897	3355
888.021	3374
888.146	3283
888.27	3397
888.395	3496
888.519	3454
888.643	3424
888.767	3458
888.891	3313
889.015	3233
889.139	3264
889.263	3222
889.387	3439
889.511	3488
889.635	3458
889.759	3313
889.883	3298
890.006	3363
890.13	3473
890.254	3298
890.377	3294
890.501	3199
890.624	3188
890.748	3306
890.871	3176
890.995	3097
891.118	3093
891.241	3180
891.364	3214
891.488	3325
891.611	3169
891.734	3192
891.857	3283
891.98	3222
892.103	3344
892.226	3283
892.349	3226
892.471	3142
892.594	3214
892.717	3302
892.839	3287
892.962	3306
893.085	3378
893.207	3336
893.33	3123
893.452	3184
893.575	3310
893.697	3237
893.819	3488
893.941	3488
894.064	3462
894.186	3272
894.308	3268
894.43	3439
894.552	3564
894.674	3458
894.796	3230
894.918	3329
895.04	3279
895.161	3409
895.283	3389
895.405	3344
895.526	3386
895.648	3409
895.769	3420
895.891	3416
896.012	3454
896.134	3477
896.255	3412
896.376	3405
896.498	3389
896.619	3397
896.74	3416
896.861	3378
896.982	3690
897.103	3846
897.224	3557
897.345	3504
897.466	3428
897.587	3492
897.708	3644
897.828	3523
897.949	3428
898.07	3313
898.19	3412
898.311	3584
898.431	3420
898.552	3492
898.672	3587
898.792	3584
898.913	3481
899.033	3431
899.153	3275
899.273	3230
899.393	3275
899.513	3294
899.633	3344
899.753	3332
899.873	3317
899.993	3374
900.113	3336
900.232	3420
900.352	3298
900.472	3272
900.591	3207
900.711	3291
900.83	3230
900.95	3431
901.069	3492
901.189	3340
901.308	3173
901.427	3123
901.546	3207
901.665	3291
901.784	3344
901.904	3207
902.023	3180
902.141	3001
902.26	2994
902.379	3138
902.498	3036
902.617	3058
902.735	3169
902.854	3245
902.973	3161
903.091	3047
903.21	3081
903.328	3104
903.446	3108
903.565	3085
903.683	3199
903.801	3150
903.919	3253
904.038	3260
904.156	3142
904.274	3264
904.392	3283
904.51	3283
904.627	3340
904.745	3431
904.863	3511
904.981	3233
905.098	3173
905.216	3253
905.334	3313
905.451	3302
905.569	3294
905.686	3431
905.803	3412
905.921	3272
906.038	3454
906.155	3374
906.272	3272
906.389	3313
906.506	3222
906.623	3245
906.74	3241
906.857	3203
906.974	3287
907.091	3466
907.208	3542
907.324	3447
907.441	3401
907.557	3241
907.674	3199
907.79	3203
907.907	3275
908.023	3374
908.139	3367
908.256	3306
908.372	3378
908.488	3291
908.604	3268
908.72	3211
908.836	3291
908.952	3260
909.068	3313
909.184	3447
909.3	3409
909.415	3504
909.531	3466
909.647	3275
909.762	3298
909.878	3241
909.993	3325
910.108	3332
910.224	3336
910.339	3405
910.454	3340
910.57	3275
910.685	3237
910.8	3606
910.915	3538
911.03	3428
911.145	3294
911.259	3245
911.374	3348
911.489	3268
911.604	3249
911.718	3169
911.833	3161
911.947	3032
912.062	2956
912.176	3150
912.291	3165
912.405	3237
912.519	3458
912.633	3420
912.748	3367
912.862	3294
912.976	3173
913.09	3062
913.204	3131
913.318	3241
913.431	3344
913.545	3317
913.659	3409
913.772	3313
913.886	3211
914	3192
914.113	3306
914.226	3443
914.34	3359
914.453	3199
914.566	3389
914.68	3283
914.793	3321
914.906	3180
915.019	3077
915.132	3070
915.245	3173
915.358	3184
915.47	3207
915.583	3230
915.696	3272
915.809	3382
915.921	3424
916.034	3245
916.146	3272
916.259	3241
916.371	3397
916.483	3359
916.595	3256
916.708	3351
916.82	3340
916.932	3344
917.044	3348
917.156	3306
917.268	3237
917.38	3298
917.491	3294
917.603	3340
917.715	3439
917.826	3450
917.938	3378
918.049	3256
918.161	3435
918.272	3549
918.384	3549
918.495	3462
918.606	3306
918.717	3287
918.828	3393
918.939	3393
919.05	3313
919.161	3374
919.272	3199
919.383	3249
919.494	3458
919.604	3694
919.715	3523
919.826	3435
919.936	3431
920.047	3549
920.157	3553
920.267	3751
920.378	3599
920.488	3584
920.598	3759
920.708	3964
920.818	3812
920.928	3854
921.038	4021
921.148	3968
921.258	3717
921.368	3622
921.477	3545
921.587	3515
921.697	3424
921.806	3644
921.916	3538
922.025	3367
922.134	3348
922.244	3302
922.353	3416
922.462	3294
922.571	3245
922.68	3131
922.789	3081
922.898	3142
923.007	3119
923.116	3192
923.224	3165
923.333	3207
923.442	3093
923.55	3077
923.659	3161
923.767	3260
923.876	3097
923.984	3233
924.092	3104
924.201	3165
924.309	3211
924.417	3249
924.525	3203
924.633	3226
924.741	4154
924.849	3020
924.956	3287
925.064	3089
925.172	3028
925.279	3112
925.387	3157
925.494	3203
925.602	3310
925.709	3313
925.816	3192
925.924	3268
926.031	3386
926.138	3298
926.245	3374
926.352	3260
926.459	3397
926.566	3481
926.673	3294
926.779	3222
926.886	3275
926.993	3154
927.099	3154
927.206	3131
927.312	3116
927.419	3226
927.525	3222
927.631	3260
927.737	3135
927.843	3123
927.95	3001
928.056	3161
928.162	3138
928.267	3256
928.373	3876
928.479	3310
928.585	3081
928.69	3188
928.796	3275
928.901	3173
929.007	3058
929.112	3199
929.218	3195
929.323	3116
929.428	3116
929.533	3306
929.638	3123
929.743	3135
929.848	3275
929.953	3233
930.058	3173
930.163	2960
930.267	3055
930.372	3218
930.477	3032
930.581	3306
930.685	3154
930.79	3074
930.894	3146
930.998	3127
931.103	3294
931.207	2941
931.311	2948
931.415	2922
931.519	2788
931.623	2849
