Data from test_V78500241_42.txt Node
Date: Fri Mar 25 16:15:29 CST 2022
User: usil
Spectrometer: V785-0024
Trigger mode: 0
Integration Time (sec): 4.000000E-1
Scans to average: 1
Nonlinearity correction enabled: false
Boxcar width: 0
Storing dark spectrum: false
XAxis mode: Wavelengths
Number of Pixels in Spectrum: 1024
>>>>>Begin Spectral Data<<<<<
801.071	2979
801.214	3001
801.356	2891
801.499	2918
801.641	2872
801.783	2960
801.926	3108
802.068	3009
802.211	3070
802.353	3051
802.496	2986
802.638	3051
802.78	3074
802.923	3104
803.065	3024
803.208	2948
803.35	2944
803.492	2933
803.635	2975
803.777	2777
803.919	2891
804.061	3211
804.204	3001
804.346	2941
804.488	2864
804.63	3036
804.773	2914
804.915	2963
805.057	3104
805.199	2937
805.341	2998
805.483	3074
805.626	3070
805.768	3028
805.91	3138
806.052	3161
806.194	3097
806.336	3287
806.478	3104
806.62	2982
806.762	3047
806.904	3093
807.046	3222
807.188	3032
807.33	2948
807.472	3028
807.614	2967
807.756	3020
807.898	2952
808.04	2922
808.182	3013
808.324	2986
808.465	2899
808.607	2918
808.749	2864
808.891	2880
809.033	2979
809.174	2967
809.316	2933
809.458	2933
809.6	2811
809.741	2819
809.883	2788
810.025	2883
810.166	2910
810.308	2849
810.45	2861
810.591	2792
810.733	2804
810.875	2861
811.016	2845
811.158	2796
811.299	2853
811.441	2952
811.582	2944
811.724	2876
811.865	2823
812.007	2956
812.148	2922
812.29	2876
812.431	2899
812.573	2963
812.714	3013
812.855	3077
812.997	3085
813.138	3154
813.279	3055
813.421	3028
813.562	3005
813.703	2937
813.845	2914
813.986	2842
814.127	2762
814.268	2899
814.41	2876
814.551	2880
814.692	2906
814.833	2842
814.974	2918
815.115	3005
815.256	2857
815.397	2834
815.539	2906
815.68	2830
815.821	2830
815.962	2979
816.103	2982
816.244	2918
816.385	2925
816.526	3017
816.666	2960
816.807	2800
816.948	2910
817.089	2948
817.23	2914
817.371	2804
817.512	2826
817.653	2872
817.793	2876
817.934	2933
818.075	3001
818.216	3028
818.356	3043
818.497	2918
818.638	2807
818.778	2880
818.919	2830
819.06	2766
819.2	2906
819.341	2826
819.481	2830
819.622	2967
819.762	3142
819.903	3051
820.043	2979
820.184	2960
820.324	2982
820.465	3043
820.605	3043
820.746	3074
820.886	2971
821.026	3131
821.167	3180
821.307	3336
821.447	3306
821.588	3256
821.728	3256
821.868	3241
822.008	3104
822.149	3214
822.289	3287
822.429	3142
822.569	3116
822.709	3249
822.849	3036
822.99	3089
823.13	3241
823.27	3237
823.41	3154
823.55	3169
823.69	3180
823.83	3230
823.97	3104
824.11	3062
824.25	3043
824.389	3108
824.529	3150
824.669	3100
824.809	3230
824.949	3313
825.089	3272
825.228	3203
825.368	2990
825.508	3005
825.648	3047
825.787	3058
825.927	3058
826.067	2994
826.206	2994
826.346	3093
826.485	3100
826.625	3169
826.765	3321
826.904	3237
827.044	3020
827.183	2971
827.323	2895
827.462	3036
827.601	2975
827.741	2982
827.88	2979
828.02	2868
828.159	3005
828.298	3066
828.437	3119
828.577	3058
828.716	3283
828.855	3127
828.994	2990
829.134	2929
829.273	2967
829.412	2880
829.551	2842
829.69	2933
829.829	3005
829.968	3150
830.107	3039
830.246	3066
830.385	2933
830.524	2906
830.663	2857
830.802	2743
830.941	2750
831.08	2667
831.219	2811
831.357	2777
831.496	2952
831.635	2781
831.774	2670
831.913	2701
832.051	2602
832.19	2606
832.329	2682
832.467	2568
832.606	2537
832.744	2568
832.883	2594
833.022	2602
833.16	2689
833.299	2705
833.437	2724
833.576	2743
833.714	2758
833.852	2781
833.991	2781
834.129	2868
834.267	2849
834.406	2781
834.544	2891
834.682	2910
834.821	2895
834.959	3119
835.097	2933
835.235	3074
835.373	3066
835.511	3085
835.65	3024
835.788	2982
835.926	2834
836.064	2823
836.202	2876
836.34	3104
836.478	3165
836.615	3100
836.753	3180
836.891	3260
837.029	3230
837.167	3157
837.305	3112
837.443	3058
837.58	2975
837.718	3161
837.856	3142
837.993	3074
838.131	3142
838.269	3119
838.406	3154
838.544	3108
838.681	2971
838.819	2937
838.956	2823
839.094	2868
839.231	2895
839.369	3055
839.506	3409
839.643	3272
839.781	3047
839.918	2982
840.055	3119
840.193	3112
840.33	3131
840.467	3097
840.604	3184
840.742	3420
840.879	3085
841.016	3104
841.153	3150
841.29	3363
841.427	3336
841.564	3310
841.701	3336
841.838	3253
841.975	3207
842.112	3272
842.249	3123
842.385	3104
842.522	3298
842.659	3131
842.796	3089
842.933	3138
843.069	3085
843.206	3074
843.343	3211
843.479	3165
843.616	3176
843.752	2956
843.889	2925
844.025	3104
844.162	2937
844.298	3142
844.435	2979
844.571	2922
844.708	3123
844.844	3218
844.98	3294
845.117	3230
845.253	3074
845.389	3024
845.525	3161
845.661	3131
845.798	3039
845.934	3169
846.07	3100
846.206	3249
846.342	3351
846.478	3272
846.614	3150
846.75	3066
846.886	3043
847.022	3253
847.158	3169
847.294	3260
847.429	3336
847.565	3230
847.701	3542
847.837	3074
847.972	3058
848.108	3199
848.244	3173
848.379	3036
848.515	2967
848.65	2979
848.786	3020
848.921	3062
849.057	3154
849.192	3199
849.328	3123
849.463	3157
849.598	3108
849.734	3093
849.869	3036
850.004	2956
850.14	2994
850.275	2933
850.41	2891
850.545	2899
850.68	2967
850.815	2994
850.95	3047
851.085	3237
851.22	3142
851.355	3043
851.49	3017
851.625	3009
851.76	3055
851.895	3020
852.03	2975
852.165	3093
852.299	3100
852.434	3192
852.569	3161
852.703	3260
852.838	3302
852.973	3416
853.107	3359
853.242	3188
853.376	3127
853.511	3009
853.645	3097
853.78	3241
853.914	3211
854.048	3138
854.183	3119
854.317	3192
854.451	3336
854.585	3150
854.72	3131
854.854	3226
854.988	3036
855.122	3112
855.256	2998
855.39	3146
855.524	3291
855.658	3214
855.792	3195
855.926	3214
856.06	3275
856.194	3332
856.327	3154
856.461	3131
856.595	3127
856.729	3097
856.862	3245
856.996	3195
857.13	3230
857.263	3268
857.397	3332
857.53	3173
857.664	3245
857.797	3287
857.931	3294
858.064	3207
858.197	3253
858.331	3207
858.464	3150
858.597	3043
858.731	3146
858.864	3150
858.997	3142
859.13	3192
859.263	3245
859.396	3226
859.529	3154
859.662	3097
859.795	3070
859.928	3165
860.061	3317
860.194	3336
860.327	3184
860.46	3112
860.592	3294
860.725	3279
860.858	3298
860.99	3146
861.123	3089
861.256	3066
861.388	3169
861.521	3918
861.653	3077
861.786	3020
861.918	2994
862.05	3081
862.183	3112
862.315	3207
862.447	3253
862.58	3104
862.712	2967
862.844	2914
862.976	3036
863.108	3097
863.24	3397
863.372	2922
863.504	2994
863.636	2967
863.768	3051
863.9	3013
864.032	2948
864.164	2956
864.296	3017
864.428	3116
864.559	3123
864.691	3119
864.823	3108
864.954	3058
865.086	3097
865.217	3055
865.349	2975
865.48	3017
865.612	3051
865.743	3161
865.875	3036
866.006	2971
866.137	3017
866.269	3009
866.4	2986
866.531	2960
866.662	2906
866.793	2906
866.924	2967
867.055	3009
867.186	2956
867.317	2944
867.448	2857
867.579	2868
867.71	2868
867.841	2838
867.972	2933
868.103	2963
868.233	2902
868.364	2902
868.495	2929
868.625	3116
868.756	3253
868.886	3032
869.017	3055
869.147	3211
869.278	3195
869.408	3062
869.539	3070
869.669	3138
869.799	3070
869.929	3165
870.06	3165
870.19	3367
870.32	3340
870.45	3367
870.58	3401
870.71	3481
870.84	3488
870.97	3325
871.1	3287
871.23	3500
871.36	3496
871.489	3386
871.619	3443
871.749	3447
871.879	3477
872.008	3542
872.138	3405
872.267	3321
872.397	3195
872.526	3150
872.656	3032
872.785	3131
872.915	3249
873.044	3344
873.173	3287
873.303	3294
873.432	3317
873.561	3268
873.69	3176
873.819	3230
873.948	3199
874.077	3180
874.206	3062
874.335	3135
874.464	3291
874.593	3389
874.722	3256
874.851	3492
874.979	3409
875.108	3310
875.237	3222
875.365	3214
875.494	3161
875.623	3256
875.751	3108
875.88	3192
876.008	3218
876.136	3287
876.265	3405
876.393	3545
876.521	3488
876.65	3450
876.778	3389
876.906	3306
877.034	3256
877.162	3260
877.29	3222
877.418	3264
877.546	3291
877.674	3268
877.802	3253
877.93	3272
878.058	3184
878.185	3131
878.313	3256
878.441	3264
878.568	3085
878.696	3173
878.824	3313
878.951	3351
879.079	3504
879.206	3671
879.333	3454
879.461	3409
879.588	3409
879.715	3511
879.842	3625
879.97	3378
880.097	3207
880.224	3165
880.351	3222
880.478	3268
880.605	3237
880.732	3218
880.859	3545
880.986	3325
881.112	3363
881.239	3237
881.366	3138
881.493	3127
881.619	3066
881.746	3169
881.872	3127
881.999	3127
882.125	3192
882.252	3260
882.378	3310
882.505	3458
882.631	3313
882.757	3237
882.883	3237
883.01	3287
883.136	3230
883.262	3184
883.388	3211
883.514	3344
883.64	3424
883.766	3355
883.892	3245
884.018	3298
884.143	3454
884.269	3584
884.395	3237
884.52	3218
884.646	3211
884.772	3173
884.897	3154
885.023	3226
885.148	3374
885.274	3473
885.399	3439
885.524	3332
885.65	3291
885.775	3351
885.9	3332
886.025	3496
886.15	3458
886.275	3302
886.4	3268
886.525	3336
886.65	3317
886.775	3355
886.9	3511
887.025	3633
887.149	3431
887.274	3283
887.399	3222
887.523	3233
887.648	3233
887.773	3237
887.897	3443
888.021	3443
888.146	3332
888.27	3466
888.395	3618
888.519	3462
888.643	3504
888.767	3526
888.891	3359
889.015	3313
889.139	3355
889.263	3298
889.387	3469
889.511	3557
889.635	3496
889.759	3321
889.883	3306
890.006	3447
890.13	3553
890.254	3336
890.377	3378
890.501	3275
890.624	3211
890.748	3363
890.871	3192
890.995	3154
891.118	3104
891.241	3253
891.364	3256
891.488	3397
891.611	3199
891.734	3256
891.857	3340
891.98	3272
892.103	3428
892.226	3321
892.349	3241
892.471	3169
892.594	3268
892.717	3348
892.839	3332
892.962	3302
893.085	3393
893.207	3348
893.33	3203
893.452	3275
893.575	3386
893.697	3294
893.819	3511
893.941	3576
894.064	3462
894.186	3325
894.308	3332
894.43	3469
894.552	3587
894.674	3538
894.796	3283
894.918	3405
895.04	3317
895.161	3492
895.283	3420
895.405	3317
895.526	3431
895.648	3488
895.769	3458
895.891	3481
896.012	3504
896.134	3492
896.255	3443
896.376	3443
896.498	3412
896.619	3477
896.74	3435
896.861	3477
896.982	3736
897.103	3922
897.224	3675
897.345	3564
897.466	3466
897.587	3561
897.708	3705
897.828	3576
897.949	3534
898.07	3370
898.19	3481
898.311	3644
898.431	3526
898.552	3580
898.672	3587
898.792	3641
898.913	3545
899.033	3439
899.153	3321
899.273	3294
899.393	3340
899.513	3329
899.633	3393
899.753	3355
899.873	3344
899.993	3416
900.113	3363
900.232	3424
900.352	3389
900.472	3321
900.591	3245
900.711	3317
900.83	3272
900.95	3420
901.069	3500
901.189	3401
901.308	3184
901.427	3173
901.546	3256
901.665	3317
901.784	3393
901.904	3233
902.023	3176
902.141	3070
902.26	3058
902.379	3123
902.498	3104
902.617	3074
902.735	3245
902.854	3291
902.973	3245
903.091	3066
903.21	3112
903.328	3173
903.446	3150
903.565	3165
903.683	3245
903.801	3161
903.919	3306
904.038	3336
904.156	3233
904.274	3325
904.392	3279
904.51	3329
904.627	3370
904.745	3443
904.863	3584
904.981	3264
905.098	3226
905.216	3256
905.334	3317
905.451	3336
905.569	3374
905.686	3496
905.803	3466
905.921	3344
906.038	3458
906.155	3378
906.272	3279
906.389	3359
906.506	3291
906.623	3291
906.74	3275
906.857	3230
906.974	3291
907.091	3492
907.208	3644
907.324	3538
907.441	3409
907.557	3321
907.674	3279
907.79	3256
907.907	3321
908.023	3454
908.139	3431
908.256	3420
908.372	3443
908.488	3431
908.604	3302
908.72	3275
908.836	3336
908.952	3291
909.068	3386
909.184	3515
909.3	3428
909.415	3538
909.531	3564
909.647	3321
909.762	3359
909.878	3321
909.993	3412
910.108	3409
910.224	3393
910.339	3458
910.454	3351
910.57	3370
910.685	3294
910.8	3690
910.915	3595
911.03	3469
911.145	3294
911.259	3340
911.374	3355
911.489	3268
911.604	3275
911.718	3192
911.833	3207
911.947	3024
912.062	3001
912.176	3218
912.291	3237
912.405	3245
912.519	3458
912.633	3507
912.748	3397
912.862	3348
912.976	3256
913.09	3089
913.204	3169
913.318	3237
913.431	3409
913.545	3405
913.659	3428
913.772	3378
913.886	3294
914	3237
914.113	3416
914.226	3462
914.34	3412
914.453	3260
914.566	3428
914.68	3340
914.793	3351
914.906	3195
915.019	3173
915.132	3116
915.245	3211
915.358	3253
915.47	3253
915.583	3310
915.696	3348
915.809	3496
915.921	3477
916.034	3306
916.146	3313
916.259	3272
916.371	3424
916.483	3393
916.595	3302
916.708	3374
916.82	3386
916.932	3393
917.044	3378
917.156	3370
917.268	3291
917.38	3329
917.491	3355
917.603	3420
917.715	3496
917.826	3530
917.938	3462
918.049	3298
918.161	3496
918.272	3652
918.384	3595
918.495	3538
918.606	3393
918.717	3344
918.828	3412
918.939	3443
919.05	3329
919.161	3412
919.272	3245
919.383	3291
919.494	3534
919.604	3724
919.715	3523
919.826	3428
919.936	3530
920.047	3660
920.157	3606
920.267	3812
920.378	3675
920.488	3648
920.598	3842
920.708	4044
920.818	3846
920.928	3915
921.038	4071
921.148	4051
921.258	3724
921.368	3709
921.477	3622
921.587	3603
921.697	3481
921.806	3690
921.916	3568
922.025	3374
922.134	3428
922.244	3370
922.353	3485
922.462	3351
922.571	3279
922.68	3176
922.789	3127
922.898	3192
923.007	3116
923.116	3317
923.224	3211
923.333	3222
923.442	3131
923.55	3135
923.659	3161
923.767	3298
923.876	3146
923.984	3302
924.092	3138
924.201	3226
924.309	3260
924.417	3321
924.525	3245
924.633	3287
924.741	4268
924.849	3108
924.956	3306
925.064	3104
925.172	3116
925.279	3142
925.387	3222
925.494	3291
925.602	3386
925.709	3382
925.816	3260
925.924	3336
926.031	3416
926.138	3367
926.245	3378
926.352	3329
926.459	3447
926.566	3538
926.673	3344
926.779	3306
926.886	3298
926.993	3184
927.099	3176
927.206	3135
927.312	3116
927.419	3249
927.525	3218
927.631	3317
927.737	3195
927.843	3135
927.95	3108
928.056	3192
928.162	3203
928.267	3249
928.373	3812
928.479	3344
928.585	3116
928.69	3279
928.796	3302
928.901	3173
929.007	3093
929.112	3249
929.218	3218
929.323	3222
929.428	3165
929.533	3382
929.638	3157
929.743	3203
929.848	3298
929.953	3230
930.058	3157
930.163	3005
930.267	3047
930.372	3211
930.477	3055
930.581	3325
930.685	3226
930.79	3085
930.894	3173
930.998	3112
931.103	3306
931.207	2994
931.311	2979
931.415	2952
931.519	2823
931.623	2807
