Data from test_V78500241_1578.txt Node
Date: Fri Mar 25 16:26:08 CST 2022
User: usil
Spectrometer: V785-0024
Trigger mode: 0
Integration Time (sec): 4.000000E-1
Scans to average: 1
Nonlinearity correction enabled: false
Boxcar width: 0
Storing dark spectrum: false
XAxis mode: Wavelengths
Number of Pixels in Spectrum: 1024
>>>>>Begin Spectral Data<<<<<
801.071	2891
801.214	2975
801.356	2845
801.499	2868
801.641	2887
801.783	2929
801.926	3032
802.068	2982
802.211	2990
802.353	3032
802.496	2948
802.638	2982
802.78	3043
802.923	3077
803.065	2994
803.208	2876
803.35	2918
803.492	2895
803.635	2883
803.777	2766
803.919	2826
804.061	3176
804.204	2963
804.346	2895
804.488	2811
804.63	2956
804.773	2834
804.915	2910
805.057	3062
805.199	2929
805.341	2941
805.483	3032
805.626	2979
805.768	2990
805.91	3077
806.052	3100
806.194	3024
806.336	3180
806.478	3005
806.62	2941
806.762	2960
806.904	3055
807.046	3154
807.188	2944
807.33	2906
807.472	2982
807.614	2922
807.756	3013
807.898	2948
808.04	2910
808.182	2937
808.324	2925
808.465	2899
808.607	2887
808.749	2823
808.891	2853
809.033	2960
809.174	2956
809.316	2872
809.458	2883
809.6	2788
809.741	2769
809.883	2785
810.025	2857
810.166	2864
810.308	2796
810.45	2823
810.591	2750
810.733	2785
810.875	2830
811.016	2773
811.158	2731
811.299	2815
811.441	2952
811.582	2902
811.724	2800
811.865	2819
812.007	2922
812.148	2895
812.29	2853
812.431	2876
812.573	2910
812.714	2948
812.855	3028
812.997	3039
813.138	3077
813.279	3024
813.421	2986
813.562	2941
813.703	2838
813.845	2895
813.986	2746
814.127	2731
814.268	2796
814.41	2819
814.551	2811
814.692	2891
814.833	2804
814.974	2876
815.115	2941
815.256	2811
815.397	2823
815.539	2853
815.68	2762
815.821	2769
815.962	2891
816.103	2910
816.244	2853
816.385	2834
816.526	2952
816.666	2857
816.807	2727
816.948	2857
817.089	2906
817.23	2834
817.371	2750
817.512	2773
817.653	2864
817.793	2826
817.934	2899
818.075	2933
818.216	2994
818.356	3017
818.497	2902
818.638	2762
818.778	2792
818.919	2792
819.06	2746
819.2	2868
819.341	2800
819.481	2792
819.622	2910
819.762	3093
819.903	3032
820.043	2902
820.184	2887
820.324	2880
820.465	3001
820.605	2998
820.746	3001
820.886	2914
821.026	3062
821.167	3157
821.307	3245
821.447	3302
821.588	3233
821.728	3192
821.868	3150
822.008	3051
822.149	3104
822.289	3272
822.429	3104
822.569	3032
822.709	3169
822.849	3001
822.99	3032
823.13	3112
823.27	3195
823.41	3100
823.55	3108
823.69	3127
823.83	3203
823.97	3081
824.11	3001
824.25	2975
824.389	3043
824.529	3047
824.669	3074
824.809	3195
824.949	3199
825.089	3176
825.228	3142
825.368	3009
825.508	2967
825.648	2960
825.787	3017
825.927	3051
826.067	2937
826.206	2948
826.346	3066
826.485	3066
826.625	3097
826.765	3245
826.904	3230
827.044	2963
827.183	2918
827.323	2876
827.462	3017
827.601	2925
827.741	2899
827.88	2982
828.02	2849
828.159	2967
828.298	3055
828.437	3119
828.577	3009
828.716	3237
828.855	3081
828.994	2933
829.134	2883
829.273	2944
829.412	2864
829.551	2868
829.69	2948
829.829	3013
829.968	3127
830.107	3039
830.246	3058
830.385	2967
830.524	2906
830.663	2842
830.802	2754
830.941	2701
831.08	2693
831.219	2773
831.357	2788
831.496	2952
831.635	2777
831.774	2701
831.913	2678
832.051	2598
832.19	2598
832.329	2697
832.467	2583
832.606	2549
832.744	2621
832.883	2617
833.022	2610
833.16	2708
833.299	2712
833.437	2708
833.576	2750
833.714	2773
833.852	2785
833.991	2781
834.129	2876
834.267	2857
834.406	2811
834.544	2872
834.682	2929
834.821	2895
834.959	3093
835.097	2960
835.235	3077
835.373	3024
835.511	3070
835.65	2971
835.788	2948
835.926	2849
836.064	2872
836.202	2944
836.34	3112
836.478	3180
836.615	3104
836.753	3218
836.891	3226
837.029	3180
837.167	3135
837.305	3123
837.443	3077
837.58	2971
837.718	3203
837.856	3062
837.993	3043
838.131	3203
838.269	3127
838.406	3169
838.544	3112
838.681	2963
838.819	2922
838.956	2853
839.094	2895
839.231	2967
839.369	3066
839.506	3389
839.643	3256
839.781	3024
839.918	2998
840.055	3123
840.193	3089
840.33	3062
840.467	3142
840.604	3180
840.742	3431
840.879	3066
841.016	3097
841.153	3150
841.29	3389
841.427	3348
841.564	3268
841.701	3317
841.838	3256
841.975	3230
842.112	3218
842.249	3093
842.385	3058
842.522	3275
842.659	3131
842.796	3131
842.933	3112
843.069	3032
843.206	3070
843.343	3214
843.479	3112
843.616	3161
843.752	2933
843.889	2899
844.025	3100
844.162	2906
844.298	3112
844.435	2982
844.571	2952
844.708	3077
844.844	3222
844.98	3291
845.117	3214
845.253	3085
845.389	3047
845.525	3131
845.661	3135
845.798	3032
845.934	3173
846.07	3093
846.206	3245
846.342	3367
846.478	3222
846.614	3127
846.75	3081
846.886	3039
847.022	3302
847.158	3176
847.294	3218
847.429	3275
847.565	3218
847.701	3473
847.837	3032
847.972	3028
848.108	3218
848.244	3165
848.379	3001
848.515	2963
848.65	3169
848.786	3020
848.921	3001
849.057	3154
849.192	3199
849.328	3077
849.463	3104
849.598	3093
849.734	3062
849.869	2975
850.004	2891
850.14	3017
850.275	2937
850.41	2872
850.545	2948
850.68	2941
850.815	3043
850.95	2994
851.085	3222
851.22	3142
851.355	3058
851.49	3028
851.625	3058
851.76	3047
851.895	2956
852.03	2937
852.165	3043
852.299	3150
852.434	3203
852.569	3135
852.703	3260
852.838	3275
852.973	3386
853.107	3344
853.242	3199
853.376	3108
853.511	2963
853.645	3062
853.78	3222
853.914	3154
854.048	3093
854.183	3112
854.317	3169
854.451	3272
854.585	3146
854.72	3135
854.854	3230
854.988	3043
855.122	3100
855.256	3020
855.39	3131
855.524	3245
855.658	3195
855.792	3211
855.926	3226
856.06	3237
856.194	3310
856.327	3192
856.461	3108
856.595	3085
856.729	3116
856.862	3241
856.996	3188
857.13	3211
857.263	3272
857.397	3306
857.53	3142
857.664	3199
857.797	3279
857.931	3279
858.064	3237
858.197	3226
858.331	3150
858.464	3127
858.597	3047
858.731	3116
858.864	3138
858.997	3104
859.13	3184
859.263	3176
859.396	3233
859.529	3138
859.662	3077
859.795	3116
859.928	3173
860.061	3313
860.194	3332
860.327	3150
860.46	3157
860.592	3233
860.725	3256
860.858	3233
860.99	3108
861.123	3070
861.256	3070
861.388	3150
861.521	3865
861.653	3055
861.786	3020
861.918	3005
862.05	3081
862.183	3123
862.315	3169
862.447	3230
862.58	3127
862.712	2994
862.844	2941
862.976	3047
863.108	3036
863.24	3298
863.372	2880
863.504	2979
863.636	2994
863.768	3005
863.9	3001
864.032	2967
864.164	2948
864.296	3062
864.428	3112
864.559	3123
864.691	3089
864.823	3127
864.954	3093
865.086	3062
865.217	2990
865.349	2963
865.48	3024
865.612	3024
865.743	3131
865.875	2982
866.006	2956
866.137	2986
866.269	2963
866.4	2982
866.531	2941
866.662	2891
866.793	2910
866.924	2899
867.055	2963
867.186	2937
867.317	2906
867.448	2864
867.579	2876
867.71	2887
867.841	2880
867.972	2910
868.103	2933
868.233	2914
868.364	2891
868.495	2883
868.625	3116
868.756	3184
868.886	2990
869.017	3039
869.147	3184
869.278	3203
869.408	3066
869.539	3070
869.669	3146
869.799	3062
869.929	3135
870.06	3169
870.19	3325
870.32	3291
870.45	3310
870.58	3382
870.71	3424
870.84	3466
870.97	3275
871.1	3253
871.23	3469
871.36	3511
871.489	3367
871.619	3439
871.749	3420
871.879	3469
872.008	3534
872.138	3340
872.267	3310
872.397	3169
872.526	3135
872.656	3013
872.785	3123
872.915	3283
873.044	3317
873.173	3230
873.303	3279
873.432	3279
873.561	3260
873.69	3214
873.819	3161
873.948	3207
874.077	3142
874.206	3070
874.335	3097
874.464	3222
874.593	3393
874.722	3260
874.851	3435
874.979	3363
875.108	3332
875.237	3176
875.365	3199
875.494	3161
875.623	3249
875.751	3085
875.88	3119
876.008	3256
876.136	3249
876.265	3378
876.393	3511
876.521	3435
876.65	3409
876.778	3321
876.906	3317
877.034	3226
877.162	3275
877.29	3195
877.418	3268
877.546	3253
877.674	3256
877.802	3279
877.93	3272
878.058	3195
878.185	3180
878.313	3226
878.441	3203
878.568	3093
878.696	3173
878.824	3287
878.951	3325
879.079	3469
879.206	3641
879.333	3473
879.461	3363
879.588	3359
879.715	3515
879.842	3633
879.97	3370
880.097	3161
880.224	3093
880.351	3218
880.478	3203
880.605	3203
880.732	3249
880.859	3466
880.986	3336
881.112	3351
881.239	3230
881.366	3108
881.493	3077
881.619	3001
881.746	3089
881.872	3135
881.999	3135
882.125	3173
882.252	3268
882.378	3298
882.505	3435
882.631	3325
882.757	3214
882.883	3230
883.01	3272
883.136	3211
883.262	3093
883.388	3142
883.514	3355
883.64	3336
883.766	3325
883.892	3165
884.018	3260
884.143	3439
884.269	3568
884.395	3199
884.52	3203
884.646	3180
884.772	3142
884.897	3138
885.023	3199
885.148	3389
885.274	3424
885.399	3382
885.524	3294
885.65	3279
885.775	3351
885.9	3294
886.025	3481
886.15	3374
886.275	3332
886.4	3245
886.525	3279
886.65	3272
886.775	3332
886.9	3500
887.025	3637
887.149	3412
887.274	3275
887.399	3165
887.523	3211
887.648	3226
887.773	3165
887.897	3367
888.021	3431
888.146	3351
888.27	3424
888.395	3542
888.519	3469
888.643	3439
888.767	3519
888.891	3313
889.015	3237
889.139	3317
889.263	3253
889.387	3409
889.511	3511
889.635	3462
889.759	3329
889.883	3294
890.006	3351
890.13	3496
890.254	3294
890.377	3348
890.501	3195
890.624	3180
890.748	3294
890.871	3165
890.995	3108
891.118	3074
891.241	3268
891.364	3279
891.488	3351
891.611	3184
891.734	3222
891.857	3291
891.98	3264
892.103	3367
892.226	3279
892.349	3226
892.471	3150
892.594	3222
892.717	3272
892.839	3279
892.962	3302
893.085	3389
893.207	3287
893.33	3165
893.452	3218
893.575	3367
893.697	3272
893.819	3466
893.941	3523
894.064	3439
894.186	3264
894.308	3275
894.43	3477
894.552	3534
894.674	3469
894.796	3253
894.918	3306
895.04	3245
895.161	3428
895.283	3393
895.405	3283
895.526	3386
895.648	3466
895.769	3454
895.891	3458
896.012	3469
896.134	3462
896.255	3386
896.376	3412
896.498	3340
896.619	3450
896.74	3386
896.861	3428
896.982	3701
897.103	3869
897.224	3587
897.345	3545
897.466	3454
897.587	3477
897.708	3633
897.828	3572
897.949	3397
898.07	3355
898.19	3367
898.311	3545
898.431	3439
898.552	3492
898.672	3618
898.792	3618
898.913	3530
899.033	3416
899.153	3275
899.273	3222
899.393	3298
899.513	3329
899.633	3351
899.753	3340
899.873	3317
899.993	3359
900.113	3310
900.232	3378
900.352	3313
900.472	3272
900.591	3192
900.711	3283
900.83	3222
900.95	3386
901.069	3485
901.189	3370
901.308	3176
901.427	3154
901.546	3207
901.665	3317
901.784	3329
901.904	3203
902.023	3173
902.141	3066
902.26	3001
902.379	3131
902.498	3085
902.617	3085
902.735	3218
902.854	3268
902.973	3203
903.091	3066
903.21	3074
903.328	3150
903.446	3131
903.565	3146
903.683	3218
903.801	3142
903.919	3272
904.038	3310
904.156	3192
904.274	3298
904.392	3291
904.51	3370
904.627	3348
904.745	3450
904.863	3504
904.981	3298
905.098	3214
905.216	3275
905.334	3367
905.451	3272
905.569	3325
905.686	3447
905.803	3458
905.921	3355
906.038	3469
906.155	3412
906.272	3302
906.389	3378
906.506	3272
906.623	3256
906.74	3294
906.857	3260
906.974	3306
907.091	3523
907.208	3553
907.324	3523
907.441	3450
907.557	3306
907.674	3272
907.79	3199
907.907	3302
908.023	3389
908.139	3416
908.256	3363
908.372	3420
908.488	3409
908.604	3306
908.72	3287
908.836	3363
908.952	3313
909.068	3409
909.184	3496
909.3	3420
909.415	3557
909.531	3519
909.647	3317
909.762	3355
909.878	3298
909.993	3420
910.108	3378
910.224	3405
910.339	3458
910.454	3416
910.57	3351
910.685	3310
910.8	3656
910.915	3549
911.03	3473
911.145	3287
911.259	3283
911.374	3329
911.489	3306
911.604	3260
911.718	3195
911.833	3180
911.947	3077
912.062	3047
912.176	3203
912.291	3192
912.405	3241
912.519	3477
912.633	3485
912.748	3409
912.862	3313
912.976	3249
913.09	3127
913.204	3203
913.318	3245
913.431	3386
913.545	3355
913.659	3473
913.772	3386
913.886	3279
914	3226
914.113	3405
914.226	3450
914.34	3409
914.453	3272
914.566	3458
914.68	3336
914.793	3340
914.906	3184
915.019	3104
915.132	3146
915.245	3226
915.358	3275
915.47	3264
915.583	3291
915.696	3310
915.809	3389
915.921	3492
916.034	3298
916.146	3302
916.259	3268
916.371	3393
916.483	3386
916.595	3313
916.708	3393
916.82	3355
916.932	3378
917.044	3386
917.156	3393
917.268	3291
917.38	3351
917.491	3302
917.603	3416
917.715	3485
917.826	3496
917.938	3439
918.049	3294
918.161	3469
918.272	3610
918.384	3606
918.495	3492
918.606	3370
918.717	3302
918.828	3401
918.939	3447
919.05	3332
919.161	3386
919.272	3245
919.383	3317
919.494	3564
919.604	3713
919.715	3477
919.826	3473
919.936	3492
920.047	3606
920.157	3542
920.267	3800
920.378	3682
920.488	3591
920.598	3785
920.708	3994
920.818	3804
920.928	3892
921.038	4067
921.148	4040
921.258	3770
921.368	3656
921.477	3606
921.587	3580
921.697	3492
921.806	3656
921.916	3538
922.025	3447
922.134	3386
922.244	3340
922.353	3481
922.462	3279
922.571	3230
922.68	3138
922.789	3104
922.898	3195
923.007	3081
923.116	3249
923.224	3188
923.333	3199
923.442	3150
923.55	3127
923.659	3184
923.767	3256
923.876	3184
923.984	3291
924.092	3150
924.201	3207
924.309	3241
924.417	3275
924.525	3272
924.633	3294
924.741	4207
924.849	3093
924.956	3348
925.064	3123
925.172	3100
925.279	3150
925.387	3230
925.494	3222
925.602	3401
925.709	3363
925.816	3211
925.924	3325
926.031	3450
926.138	3348
926.245	3401
926.352	3298
926.459	3443
926.566	3485
926.673	3359
926.779	3260
926.886	3260
926.993	3188
927.099	3157
927.206	3157
927.312	3123
927.419	3241
927.525	3253
927.631	3306
927.737	3195
927.843	3138
927.95	3039
928.056	3157
928.162	3195
928.267	3302
928.373	3865
928.479	3378
928.585	3089
928.69	3253
928.796	3302
928.901	3226
929.007	3093
929.112	3211
929.218	3173
929.323	3131
929.428	3226
929.533	3348
929.638	3161
929.743	3222
929.848	3332
929.953	3279
930.058	3195
930.163	3047
930.267	3074
930.372	3214
930.477	3093
930.581	3363
930.685	3237
930.79	3081
930.894	3154
930.998	3131
931.103	3317
931.207	2960
931.311	2967
931.415	3009
931.519	2815
931.623	2807
