Data from test_V78500241_1509.txt Node
Date: Fri Mar 25 16:25:39 CST 2022
User: usil
Spectrometer: V785-0024
Trigger mode: 0
Integration Time (sec): 4.000000E-1
Scans to average: 1
Nonlinearity correction enabled: false
Boxcar width: 0
Storing dark spectrum: false
XAxis mode: Wavelengths
Number of Pixels in Spectrum: 1024
>>>>>Begin Spectral Data<<<<<
801.071	2933
801.214	2925
801.356	2880
801.499	2899
801.641	2868
801.783	2963
801.926	3032
802.068	2982
802.211	3009
802.353	3017
802.496	2963
802.638	3032
802.78	3043
802.923	3108
803.065	3017
803.208	2918
803.35	2971
803.492	2982
803.635	2960
803.777	2792
803.919	2891
804.061	3218
804.204	2956
804.346	2952
804.488	2842
804.63	2990
804.773	2895
804.915	2937
805.057	3116
805.199	2929
805.341	2941
805.483	3123
805.626	3013
805.768	2971
805.91	3077
806.052	3108
806.194	3085
806.336	3241
806.478	3051
806.62	2994
806.762	2998
806.904	3077
807.046	3188
807.188	3009
807.33	2990
807.472	3005
807.614	2960
807.756	2982
807.898	2967
808.04	2902
808.182	2990
808.324	2956
808.465	2918
808.607	2902
808.749	2853
808.891	2868
809.033	2948
809.174	2990
809.316	2910
809.458	2902
809.6	2792
809.741	2781
809.883	2811
810.025	2819
810.166	2868
810.308	2826
810.45	2872
810.591	2800
810.733	2796
810.875	2830
811.016	2788
811.158	2773
811.299	2800
811.441	2906
811.582	2937
811.724	2830
811.865	2845
812.007	2899
812.148	2891
812.29	2853
812.431	2902
812.573	2960
812.714	2960
812.855	3062
812.997	3077
813.138	3161
813.279	2982
813.421	3001
813.562	2948
813.703	2857
813.845	2922
813.986	2766
814.127	2708
814.268	2823
814.41	2842
814.551	2766
814.692	2872
814.833	2788
814.974	2902
815.115	2956
815.256	2826
815.397	2823
815.539	2864
815.68	2766
815.821	2785
815.962	2944
816.103	2948
816.244	2880
816.385	2872
816.526	2960
816.666	2902
816.807	2735
816.948	2914
817.089	2918
817.23	2899
817.371	2788
817.512	2819
817.653	2868
817.793	2830
817.934	2887
818.075	2975
818.216	2956
818.356	3070
818.497	2922
818.638	2811
818.778	2823
818.919	2819
819.06	2743
819.2	2887
819.341	2834
819.481	2842
819.622	2929
819.762	3116
819.903	3070
820.043	2944
820.184	2922
820.324	2910
820.465	3032
820.605	3032
820.746	3043
820.886	2925
821.026	3085
821.167	3173
821.307	3291
821.447	3272
821.588	3256
821.728	3230
821.868	3199
822.008	3097
822.149	3188
822.289	3211
822.429	3062
822.569	3119
822.709	3214
822.849	3051
822.99	3089
823.13	3131
823.27	3226
823.41	3062
823.55	3176
823.69	3161
823.83	3226
823.97	3135
824.11	3001
824.25	3017
824.389	3039
824.529	3119
824.669	3089
824.809	3180
824.949	3256
825.089	3218
825.228	3138
825.368	3024
825.508	2948
825.648	2971
825.787	2994
825.927	3028
826.067	2975
826.206	2971
826.346	3047
826.485	3085
826.625	3142
826.765	3249
826.904	3180
827.044	2975
827.183	2929
827.323	2872
827.462	2967
827.601	2925
827.741	2933
827.88	2944
828.02	2826
828.159	2982
828.298	3081
828.437	3119
828.577	3020
828.716	3256
828.855	3070
828.994	2906
829.134	2933
829.273	2937
829.412	2872
829.551	2857
829.69	2925
829.829	2986
829.968	3150
830.107	3032
830.246	3020
830.385	2910
830.524	2910
830.663	2834
830.802	2766
830.941	2674
831.08	2640
831.219	2781
831.357	2769
831.496	2960
831.635	2678
831.774	2636
831.913	2640
832.051	2613
832.19	2571
832.329	2670
832.467	2533
832.606	2476
832.744	2583
832.883	2575
833.022	2602
833.16	2682
833.299	2678
833.437	2693
833.576	2670
833.714	2731
833.852	2731
833.991	2777
834.129	2853
834.267	2838
834.406	2792
834.544	2883
834.682	2883
834.821	2864
834.959	3062
835.097	2906
835.235	3070
835.373	3020
835.511	3051
835.65	2979
835.788	2994
835.926	2861
836.064	2815
836.202	2849
836.34	3066
836.478	3176
836.615	3062
836.753	3093
836.891	3165
837.029	3173
837.167	3135
837.305	3039
837.443	3036
837.58	2990
837.718	3150
837.856	3081
837.993	3039
838.131	3131
838.269	3135
838.406	3074
838.544	3081
838.681	2929
838.819	2929
838.956	2826
839.094	2788
839.231	2918
839.369	2990
839.506	3340
839.643	3241
839.781	2975
839.918	2967
840.055	3066
840.193	3070
840.33	3081
840.467	3100
840.604	3165
840.742	3420
840.879	3058
841.016	3070
841.153	3081
841.29	3340
841.427	3310
841.564	3249
841.701	3325
841.838	3241
841.975	3157
842.112	3188
842.249	3093
842.385	3032
842.522	3245
842.659	3119
842.796	3066
842.933	3066
843.069	3039
843.206	3013
843.343	3207
843.479	3138
843.616	3176
843.752	2864
843.889	2857
844.025	3081
844.162	2883
844.298	3081
844.435	2933
844.571	2910
844.708	3074
844.844	3176
844.98	3199
845.117	3237
845.253	3085
845.389	2994
845.525	3104
845.661	3093
845.798	2994
845.934	3116
846.07	3024
846.206	3169
846.342	3294
846.478	3188
846.614	3123
846.75	3100
846.886	3024
847.022	3233
847.158	3116
847.294	3199
847.429	3272
847.565	3218
847.701	3454
847.837	3043
847.972	3039
848.108	3116
848.244	3089
848.379	3020
848.515	2948
848.65	2922
848.786	2982
848.921	3017
849.057	3093
849.192	3157
849.328	3077
849.463	3116
849.598	3039
849.734	2998
849.869	2979
850.004	2937
850.14	3009
850.275	2906
850.41	2872
850.545	2906
850.68	2929
850.815	2979
850.95	2956
851.085	3214
851.22	3131
851.355	3058
851.49	2982
851.625	3017
851.76	3005
851.895	2941
852.03	2929
852.165	3055
852.299	3119
852.434	3211
852.569	3135
852.703	3123
852.838	3256
852.973	3310
853.107	3348
853.242	3169
853.376	3100
853.511	2963
853.645	3039
853.78	3192
853.914	3100
854.048	3085
854.183	3097
854.317	3116
854.451	3264
854.585	3112
854.72	3077
854.854	3218
854.988	3043
855.122	3089
855.256	2975
855.39	3154
855.524	3211
855.658	3192
855.792	3131
855.926	3203
856.06	3199
856.194	3283
856.327	3135
856.461	3100
856.595	3085
856.729	3123
856.862	3253
856.996	3165
857.13	3165
857.263	3245
857.397	3310
857.53	3135
857.664	3180
857.797	3226
857.931	3214
858.064	3127
858.197	3226
858.331	3104
858.464	3135
858.597	2982
858.731	3081
858.864	3138
858.997	3074
859.13	3142
859.263	3161
859.396	3207
859.529	3097
859.662	3085
859.795	3062
859.928	3138
860.061	3268
860.194	3287
860.327	3157
860.46	3066
860.592	3260
860.725	3256
860.858	3264
860.99	3085
861.123	3039
861.256	3036
861.388	3169
861.521	3838
861.653	3039
861.786	2944
861.918	3013
862.05	3077
862.183	3085
862.315	3169
862.447	3157
862.58	3074
862.712	2937
862.844	2861
862.976	3055
863.108	3036
863.24	3279
863.372	2914
863.504	2967
863.636	2929
863.768	3005
863.9	2994
864.032	2895
864.164	2975
864.296	2963
864.428	3047
864.559	3100
864.691	3089
864.823	3058
864.954	2990
865.086	3047
865.217	2975
865.349	2952
865.48	2971
865.612	3013
865.743	3157
865.875	2960
866.006	2933
866.137	2963
866.269	2960
866.4	2937
866.531	2918
866.662	2876
866.793	2857
866.924	2918
867.055	2952
867.186	2883
867.317	2887
867.448	2849
867.579	2853
867.71	2842
867.841	2819
867.972	2918
868.103	2891
868.233	2868
868.364	2864
868.495	2899
868.625	3077
868.756	3180
868.886	2994
869.017	3005
869.147	3184
869.278	3135
869.408	3051
869.539	3017
869.669	3119
869.799	3047
869.929	3131
870.06	3108
870.19	3306
870.32	3249
870.45	3275
870.58	3389
870.71	3450
870.84	3409
870.97	3294
871.1	3233
871.23	3435
871.36	3435
871.489	3359
871.619	3397
871.749	3405
871.879	3443
872.008	3458
872.138	3370
872.267	3268
872.397	3161
872.526	3081
872.656	2982
872.785	3097
872.915	3222
873.044	3332
873.173	3222
873.303	3237
873.432	3195
873.561	3192
873.69	3119
873.819	3150
873.948	3188
874.077	3104
874.206	3066
874.335	3062
874.464	3222
874.593	3344
874.722	3256
874.851	3351
874.979	3363
875.108	3313
875.237	3180
875.365	3150
875.494	3173
875.623	3268
875.751	3077
875.88	3112
876.008	3169
876.136	3214
876.265	3317
876.393	3447
876.521	3416
876.65	3397
876.778	3317
876.906	3214
877.034	3188
877.162	3230
877.29	3173
877.418	3253
877.546	3241
877.674	3233
877.802	3214
877.93	3218
878.058	3161
878.185	3085
878.313	3199
878.441	3230
878.568	3062
878.696	3161
878.824	3237
878.951	3310
879.079	3462
879.206	3584
879.333	3454
879.461	3310
879.588	3363
879.715	3466
879.842	3564
879.97	3378
880.097	3192
880.224	3116
880.351	3188
880.478	3199
880.605	3184
880.732	3169
880.859	3477
880.986	3321
881.112	3298
881.239	3184
881.366	3116
881.493	3047
881.619	3062
881.746	3100
881.872	3089
881.999	3074
882.125	3169
882.252	3207
882.378	3268
882.505	3439
882.631	3313
882.757	3116
882.883	3184
883.01	3233
883.136	3127
883.262	3077
883.388	3123
883.514	3313
883.64	3359
883.766	3306
883.892	3226
884.018	3260
884.143	3447
884.269	3561
884.395	3237
884.52	3142
884.646	3157
884.772	3097
884.897	3085
885.023	3165
885.148	3336
885.274	3450
885.399	3359
885.524	3264
885.65	3283
885.775	3294
885.9	3268
886.025	3378
886.15	3378
886.275	3283
886.4	3237
886.525	3348
886.65	3241
886.775	3298
886.9	3534
887.025	3587
887.149	3409
887.274	3233
887.399	3237
887.523	3207
887.648	3161
887.773	3195
887.897	3389
888.021	3397
888.146	3310
888.27	3416
888.395	3515
888.519	3409
888.643	3447
888.767	3466
888.891	3344
889.015	3233
889.139	3249
889.263	3222
889.387	3405
889.511	3534
889.635	3447
889.759	3313
889.883	3279
890.006	3389
890.13	3477
890.254	3275
890.377	3344
890.501	3184
890.624	3176
890.748	3294
890.871	3173
890.995	3104
891.118	3062
891.241	3131
891.364	3203
891.488	3291
891.611	3184
891.734	3207
891.857	3275
891.98	3268
892.103	3310
892.226	3218
892.349	3180
892.471	3127
892.594	3272
892.717	3260
892.839	3302
892.962	3332
893.085	3344
893.207	3310
893.33	3157
893.452	3233
893.575	3344
893.697	3241
893.819	3496
893.941	3492
894.064	3469
894.186	3275
894.308	3241
894.43	3420
894.552	3526
894.674	3458
894.796	3283
894.918	3310
895.04	3294
895.161	3412
895.283	3374
895.405	3298
895.526	3382
895.648	3412
895.769	3393
895.891	3462
896.012	3485
896.134	3473
896.255	3420
896.376	3405
896.498	3378
896.619	3420
896.74	3378
896.861	3389
896.982	3675
897.103	3816
897.224	3599
897.345	3504
897.466	3416
897.587	3530
897.708	3606
897.828	3507
897.949	3447
898.07	3306
898.19	3416
898.311	3591
898.431	3485
898.552	3496
898.672	3595
898.792	3557
898.913	3500
899.033	3416
899.153	3294
899.273	3195
899.393	3272
899.513	3302
899.633	3348
899.753	3313
899.873	3321
899.993	3370
900.113	3355
900.232	3382
900.352	3340
900.472	3317
900.591	3173
900.711	3283
900.83	3279
900.95	3435
901.069	3504
901.189	3332
901.308	3157
901.427	3123
901.546	3188
901.665	3260
901.784	3325
901.904	3211
902.023	3150
902.141	3043
902.26	2960
902.379	3104
902.498	3093
902.617	3020
902.735	3192
902.854	3230
902.973	3192
903.091	3062
903.21	3077
903.328	3142
903.446	3051
903.565	3127
903.683	3211
903.801	3150
903.919	3226
904.038	3325
904.156	3157
904.274	3298
904.392	3275
904.51	3302
904.627	3291
904.745	3424
904.863	3511
904.981	3275
905.098	3165
905.216	3222
905.334	3298
905.451	3329
905.569	3302
905.686	3447
905.803	3439
905.921	3283
906.038	3401
906.155	3386
906.272	3283
906.389	3336
906.506	3249
906.623	3237
906.74	3245
906.857	3157
906.974	3218
907.091	3481
907.208	3545
907.324	3496
907.441	3386
907.557	3222
907.674	3207
907.79	3230
907.907	3233
908.023	3332
908.139	3374
908.256	3306
908.372	3348
908.488	3313
908.604	3241
908.72	3245
908.836	3313
908.952	3291
909.068	3374
909.184	3416
909.3	3393
909.415	3466
909.531	3458
909.647	3291
909.762	3268
909.878	3249
909.993	3332
910.108	3348
910.224	3348
910.339	3386
910.454	3291
910.57	3283
910.685	3275
910.8	3572
910.915	3549
911.03	3439
911.145	3253
911.259	3260
911.374	3329
911.489	3249
911.604	3211
911.718	3127
911.833	3165
911.947	3005
912.062	2986
912.176	3142
912.291	3211
912.405	3180
912.519	3420
912.633	3492
912.748	3325
912.862	3272
912.976	3154
913.09	3070
913.204	3135
913.318	3211
913.431	3306
913.545	3310
913.659	3405
913.772	3321
913.886	3249
914	3199
914.113	3367
914.226	3416
914.34	3332
914.453	3233
914.566	3389
914.68	3313
914.793	3306
914.906	3161
915.019	3123
915.132	3051
915.245	3165
915.358	3207
915.47	3203
915.583	3279
915.696	3291
915.809	3439
915.921	3431
916.034	3253
916.146	3256
916.259	3241
916.371	3359
916.483	3351
916.595	3264
916.708	3325
916.82	3313
916.932	3332
917.044	3325
917.156	3370
917.268	3272
917.38	3310
917.491	3329
917.603	3370
917.715	3439
917.826	3458
917.938	3386
918.049	3275
918.161	3439
918.272	3576
918.384	3564
918.495	3488
918.606	3389
918.717	3321
918.828	3359
918.939	3431
919.05	3302
919.161	3416
919.272	3192
919.383	3268
919.494	3458
919.604	3705
919.715	3488
919.826	3412
919.936	3454
920.047	3545
920.157	3526
920.267	3762
920.378	3614
920.488	3557
920.598	3789
920.708	3934
920.818	3808
920.928	3823
921.038	4059
921.148	4021
921.258	3701
921.368	3622
921.477	3580
921.587	3557
921.697	3439
921.806	3625
921.916	3496
922.025	3351
922.134	3351
922.244	3321
922.353	3393
922.462	3268
922.571	3233
922.68	3097
922.789	3058
922.898	3154
923.007	3058
923.116	3230
923.224	3131
923.333	3230
923.442	3108
923.55	3112
923.659	3123
923.767	3211
923.876	3116
923.984	3207
924.092	3093
924.201	3211
924.309	3253
924.417	3207
924.525	3192
924.633	3226
924.741	4223
924.849	3055
924.956	3275
925.064	3100
925.172	3028
925.279	3097
925.387	3180
925.494	3207
925.602	3359
925.709	3332
925.816	3195
925.924	3237
926.031	3386
926.138	3321
926.245	3351
926.352	3264
926.459	3424
926.566	3496
926.673	3325
926.779	3260
926.886	3245
926.993	3169
927.099	3135
927.206	3123
927.312	3154
927.419	3249
927.525	3207
927.631	3268
927.737	3169
927.843	3093
927.95	3005
928.056	3089
928.162	3188
928.267	3253
928.373	3778
928.479	3272
928.585	3066
928.69	3161
928.796	3249
928.901	3123
929.007	3017
929.112	3169
929.218	3199
929.323	3142
929.428	3131
929.533	3321
929.638	3150
929.743	3150
929.848	3260
929.953	3184
930.058	3138
930.163	3017
930.267	3039
930.372	3135
930.477	3077
930.581	3291
930.685	3188
930.79	3077
930.894	3135
930.998	3112
931.103	3253
931.207	2944
931.311	2899
931.415	2963
931.519	2781
931.623	2830
