Data from test_V78500241_508.txt Node
Date: Fri Mar 25 16:18:43 CST 2022
User: usil
Spectrometer: V785-0024
Trigger mode: 0
Integration Time (sec): 4.000000E-1
Scans to average: 1
Nonlinearity correction enabled: false
Boxcar width: 0
Storing dark spectrum: false
XAxis mode: Wavelengths
Number of Pixels in Spectrum: 1024
>>>>>Begin Spectral Data<<<<<
801.071	2922
801.214	3001
801.356	2918
801.499	2944
801.641	2925
801.783	2975
801.926	3093
802.068	2990
802.211	3028
802.353	3089
802.496	2979
802.638	3036
802.78	3039
802.923	3108
803.065	3020
803.208	2937
803.35	2914
803.492	2952
803.635	2971
803.777	2804
803.919	2887
804.061	3207
804.204	2971
804.346	2933
804.488	2883
804.63	3028
804.773	2910
804.915	2941
805.057	3108
805.199	2952
805.341	3020
805.483	3051
805.626	3062
805.768	3005
805.91	3077
806.052	3127
806.194	3047
806.336	3287
806.478	3058
806.62	2994
806.762	3047
806.904	3081
807.046	3192
807.188	3013
807.33	2922
807.472	3043
807.614	2922
807.756	3013
807.898	2960
808.04	2906
808.182	3013
808.324	2929
808.465	2861
808.607	2906
808.749	2807
808.891	2857
809.033	3001
809.174	3005
809.316	2914
809.458	2914
809.6	2788
809.741	2781
809.883	2785
810.025	2861
810.166	2853
810.308	2830
810.45	2842
810.591	2796
810.733	2800
810.875	2910
811.016	2785
811.158	2758
811.299	2834
811.441	2956
811.582	2891
811.724	2849
811.865	2845
812.007	2925
812.148	2914
812.29	2811
812.431	2899
812.573	2944
812.714	2998
812.855	3055
812.997	3020
813.138	3116
813.279	3013
813.421	2963
813.562	2971
813.703	2868
813.845	2910
813.986	2754
814.127	2739
814.268	2861
814.41	2876
814.551	2842
814.692	2914
814.833	2830
814.974	2883
815.115	2990
815.256	2861
815.397	2815
815.539	2887
815.68	2762
815.821	2804
815.962	2960
816.103	2933
816.244	2922
816.385	2899
816.526	2937
816.666	2929
816.807	2735
816.948	2906
817.089	2914
817.23	2876
817.371	2807
817.512	2785
817.653	2853
817.793	2861
817.934	2895
818.075	2990
818.216	3036
818.356	3062
818.497	2914
818.638	2819
818.778	2842
818.919	2838
819.06	2762
819.2	2925
819.341	2834
819.481	2807
819.622	2929
819.762	3100
819.903	3066
820.043	2944
820.184	2944
820.324	2929
820.465	3070
820.605	3077
820.746	3028
820.886	2956
821.026	3112
821.167	3180
821.307	3256
821.447	3310
821.588	3256
821.728	3233
821.868	3211
822.008	3135
822.149	3222
822.289	3226
822.429	3108
822.569	3116
822.709	3188
822.849	3055
822.99	3055
823.13	3157
823.27	3222
823.41	3123
823.55	3173
823.69	3150
823.83	3203
823.97	3093
824.11	3036
824.25	3017
824.389	3066
824.529	3112
824.669	3119
824.809	3207
824.949	3272
825.089	3226
825.228	3154
825.368	3032
825.508	2998
825.648	2982
825.787	3028
825.927	3062
826.067	2986
826.206	2979
826.346	3062
826.485	3131
826.625	3127
826.765	3310
826.904	3218
827.044	3036
827.183	2979
827.323	2883
827.462	2998
827.601	2918
827.741	2982
827.88	2967
828.02	2842
828.159	2998
828.298	3066
828.437	3119
828.577	3055
828.716	3237
828.855	3039
828.994	2944
829.134	2891
829.273	2922
829.412	2914
829.551	2864
829.69	2929
829.829	2971
829.968	3154
830.107	3001
830.246	3047
830.385	2929
830.524	2883
830.663	2823
830.802	2750
830.941	2655
831.08	2670
831.219	2769
831.357	2735
831.496	2979
831.635	2712
831.774	2640
831.913	2659
832.051	2526
832.19	2590
832.329	2705
832.467	2511
832.606	2499
832.744	2594
832.883	2594
833.022	2629
833.16	2632
833.299	2697
833.437	2708
833.576	2689
833.714	2743
833.852	2727
833.991	2773
834.129	2891
834.267	2830
834.406	2800
834.544	2864
834.682	2872
834.821	2876
834.959	3055
835.097	2914
835.235	3039
835.373	3024
835.511	2998
835.65	2952
835.788	2933
835.926	2857
836.064	2830
836.202	2815
836.34	3062
836.478	3188
836.615	3043
836.753	3154
836.891	3233
837.029	3138
837.167	3104
837.305	3119
837.443	3058
837.58	3005
837.718	3123
837.856	3112
837.993	3043
838.131	3116
838.269	3119
838.406	3074
838.544	3097
838.681	2960
838.819	2891
838.956	2838
839.094	2876
839.231	2902
839.369	3028
839.506	3374
839.643	3195
839.781	3039
839.918	2979
840.055	3062
840.193	3066
840.33	3085
840.467	3116
840.604	3127
840.742	3378
840.879	3077
841.016	3077
841.153	3138
841.29	3336
841.427	3325
841.564	3279
841.701	3329
841.838	3226
841.975	3169
842.112	3222
842.249	3062
842.385	3043
842.522	3275
842.659	3097
842.796	3062
842.933	3157
843.069	3047
843.206	3074
843.343	3203
843.479	3135
843.616	3108
843.752	2925
843.889	2883
844.025	3085
844.162	2853
844.298	3081
844.435	2963
844.571	2902
844.708	3097
844.844	3218
844.98	3233
845.117	3116
845.253	3032
845.389	3013
845.525	3104
845.661	3081
845.798	3036
845.934	3157
846.07	3070
846.206	3184
846.342	3306
846.478	3253
846.614	3085
846.75	3058
846.886	3020
847.022	3260
847.158	3135
847.294	3218
847.429	3241
847.565	3226
847.701	3515
847.837	3013
847.972	2982
848.108	3138
848.244	3146
848.379	3039
848.515	2963
848.65	2925
848.786	2979
848.921	2975
849.057	3108
849.192	3146
849.328	3058
849.463	3112
849.598	3039
849.734	3062
849.869	2971
850.004	2922
850.14	2986
850.275	2937
850.41	2807
850.545	2887
850.68	2910
850.815	2941
850.95	2982
851.085	3214
851.22	3108
851.355	3024
851.49	2986
851.625	2967
851.76	3001
851.895	2929
852.03	2933
852.165	3020
852.299	3112
852.434	3195
852.569	3116
852.703	3176
852.838	3287
852.973	3306
853.107	3306
853.242	3150
853.376	3036
853.511	2975
853.645	3028
853.78	3233
853.914	3108
854.048	3131
854.183	3089
854.317	3127
854.451	3298
854.585	3142
854.72	3066
854.854	3169
854.988	3047
855.122	3097
855.256	2967
855.39	3123
855.524	3253
855.658	3188
855.792	3150
855.926	3184
856.06	3230
856.194	3245
856.327	3146
856.461	3051
856.595	3097
856.729	3062
856.862	3222
856.996	3184
857.13	3199
857.263	3192
857.397	3256
857.53	3097
857.664	3180
857.797	3279
857.931	3245
858.064	3188
858.197	3176
858.331	3100
858.464	3100
858.597	3024
858.731	3097
858.864	3131
858.997	3093
859.13	3165
859.263	3176
859.396	3195
859.529	3119
859.662	3055
859.795	3017
859.928	3150
860.061	3268
860.194	3253
860.327	3108
860.46	3070
860.592	3199
860.725	3226
860.858	3237
860.99	3077
861.123	3043
861.256	3013
861.388	3150
861.521	3896
861.653	3028
861.786	2979
861.918	2998
862.05	3032
862.183	3108
862.315	3173
862.447	3173
862.58	3085
862.712	2956
862.844	2880
862.976	3013
863.108	3028
863.24	3412
863.372	2864
863.504	2956
863.636	2891
863.768	3036
863.9	2971
864.032	2910
864.164	2937
864.296	3013
864.428	3062
864.559	3074
864.691	3077
864.823	3051
864.954	3013
865.086	3032
865.217	2963
865.349	2956
865.48	2994
865.612	2986
865.743	3138
865.875	3009
866.006	2960
866.137	2986
866.269	2918
866.4	2948
866.531	2914
866.662	2902
866.793	2899
866.924	2910
867.055	2944
867.186	2887
867.317	2906
867.448	2868
867.579	2864
867.71	2834
867.841	2804
867.972	2906
868.103	2929
868.233	2864
868.364	2895
868.495	2906
868.625	3028
868.756	3165
868.886	2963
869.017	2990
869.147	3199
869.278	3089
869.408	3047
869.539	3017
869.669	3097
869.799	3055
869.929	3085
870.06	3104
870.19	3355
870.32	3302
870.45	3332
870.58	3386
870.71	3420
870.84	3454
870.97	3256
871.1	3211
871.23	3435
871.36	3454
871.489	3348
871.619	3374
871.749	3439
871.879	3424
872.008	3473
872.138	3378
872.267	3268
872.397	3154
872.526	3085
872.656	3001
872.785	3104
872.915	3249
873.044	3272
873.173	3184
873.303	3241
873.432	3230
873.561	3249
873.69	3157
873.819	3135
873.948	3173
874.077	3108
874.206	3036
874.335	3085
874.464	3207
874.593	3344
874.722	3241
874.851	3382
874.979	3344
875.108	3313
875.237	3203
875.365	3192
875.494	3173
875.623	3222
875.751	3066
875.88	3131
876.008	3169
876.136	3226
876.265	3313
876.393	3507
876.521	3389
876.65	3393
876.778	3313
876.906	3226
877.034	3211
877.162	3218
877.29	3169
877.418	3199
877.546	3241
877.674	3226
877.802	3233
877.93	3199
878.058	3142
878.185	3097
878.313	3188
878.441	3154
878.568	3062
878.696	3146
878.824	3230
878.951	3332
879.079	3439
879.206	3622
879.333	3424
879.461	3336
879.588	3321
879.715	3485
879.842	3545
879.97	3424
880.097	3214
880.224	3119
880.351	3203
880.478	3203
880.605	3165
880.732	3180
880.859	3488
880.986	3279
881.112	3317
881.239	3188
881.366	3051
881.493	3017
881.619	3005
881.746	3043
881.872	3081
881.999	3104
882.125	3131
882.252	3264
882.378	3310
882.505	3416
882.631	3249
882.757	3161
882.883	3207
883.01	3192
883.136	3119
883.262	3070
883.388	3135
883.514	3344
883.64	3378
883.766	3340
883.892	3218
884.018	3264
884.143	3405
884.269	3500
884.395	3214
884.52	3150
884.646	3199
884.772	3093
884.897	3085
885.023	3245
885.148	3294
885.274	3405
885.399	3405
885.524	3317
885.65	3260
885.775	3302
885.9	3272
886.025	3416
886.15	3393
886.275	3260
886.4	3249
886.525	3298
886.65	3256
886.775	3264
886.9	3496
887.025	3641
887.149	3389
887.274	3283
887.399	3184
887.523	3176
887.648	3184
887.773	3188
887.897	3374
888.021	3397
888.146	3287
888.27	3450
888.395	3507
888.519	3458
888.643	3454
888.767	3439
888.891	3298
889.015	3211
889.139	3291
889.263	3218
889.387	3450
889.511	3507
889.635	3439
889.759	3260
889.883	3237
890.006	3386
890.13	3469
890.254	3272
890.377	3340
890.501	3192
890.624	3165
890.748	3275
890.871	3195
890.995	3097
891.118	3066
891.241	3161
891.364	3264
891.488	3325
891.611	3192
891.734	3222
891.857	3245
891.98	3203
892.103	3294
892.226	3260
892.349	3222
892.471	3112
892.594	3241
892.717	3279
892.839	3279
892.962	3260
893.085	3359
893.207	3302
893.33	3176
893.452	3222
893.575	3367
893.697	3264
893.819	3439
893.941	3553
894.064	3443
894.186	3253
894.308	3287
894.43	3454
894.552	3515
894.674	3458
894.796	3306
894.918	3294
895.04	3253
895.161	3431
895.283	3367
895.405	3310
895.526	3351
895.648	3447
895.769	3435
895.891	3420
896.012	3466
896.134	3477
896.255	3393
896.376	3370
896.498	3359
896.619	3454
896.74	3351
896.861	3367
896.982	3717
897.103	3838
897.224	3553
897.345	3511
897.466	3469
897.587	3466
897.708	3599
897.828	3534
897.949	3416
898.07	3287
898.19	3450
898.311	3622
898.431	3439
898.552	3473
898.672	3599
898.792	3542
898.913	3519
899.033	3420
899.153	3302
899.273	3218
899.393	3268
899.513	3325
899.633	3313
899.753	3344
899.873	3294
899.993	3355
900.113	3332
900.232	3397
900.352	3275
900.472	3298
900.591	3218
900.711	3275
900.83	3218
900.95	3389
901.069	3458
901.189	3370
901.308	3176
901.427	3138
901.546	3199
901.665	3298
901.784	3344
901.904	3184
902.023	3146
902.141	3032
902.26	2975
902.379	3112
902.498	3066
902.617	3055
902.735	3226
902.854	3233
902.973	3180
903.091	3047
903.21	3017
903.328	3100
903.446	3089
903.565	3097
903.683	3169
903.801	3127
903.919	3256
904.038	3306
904.156	3169
904.274	3268
904.392	3226
904.51	3230
904.627	3306
904.745	3401
904.863	3488
904.981	3268
905.098	3195
905.216	3260
905.334	3275
905.451	3272
905.569	3294
905.686	3431
905.803	3412
905.921	3268
906.038	3416
906.155	3332
906.272	3253
906.389	3336
906.506	3214
906.623	3260
906.74	3283
906.857	3211
906.974	3279
907.091	3485
907.208	3591
907.324	3523
907.441	3389
907.557	3195
907.674	3249
907.79	3260
907.907	3256
908.023	3340
908.139	3386
908.256	3351
908.372	3363
908.488	3310
908.604	3272
908.72	3199
908.836	3256
908.952	3275
909.068	3321
909.184	3462
909.3	3401
909.415	3477
909.531	3466
909.647	3310
909.762	3268
909.878	3268
909.993	3370
910.108	3355
910.224	3363
910.339	3382
910.454	3355
910.57	3283
910.685	3253
910.8	3599
910.915	3515
911.03	3454
911.145	3207
911.259	3279
911.374	3332
911.489	3233
911.604	3230
911.718	3119
911.833	3157
911.947	3039
912.062	2979
912.176	3131
912.291	3180
912.405	3188
912.519	3363
912.633	3458
912.748	3332
912.862	3302
912.976	3157
913.09	3058
913.204	3104
913.318	3207
913.431	3344
913.545	3340
913.659	3412
913.772	3321
913.886	3195
914	3195
914.113	3363
914.226	3397
914.34	3405
914.453	3226
914.566	3412
914.68	3313
914.793	3306
914.906	3108
915.019	3123
915.132	3055
915.245	3165
915.358	3154
915.47	3184
915.583	3241
915.696	3283
915.809	3401
915.921	3420
916.034	3222
916.146	3253
916.259	3192
916.371	3401
916.483	3420
916.595	3249
916.708	3325
916.82	3313
916.932	3359
917.044	3310
917.156	3355
917.268	3268
917.38	3310
917.491	3302
917.603	3382
917.715	3393
917.826	3435
917.938	3386
918.049	3310
918.161	3416
918.272	3557
918.384	3591
918.495	3492
918.606	3351
918.717	3275
918.828	3409
918.939	3355
919.05	3310
919.161	3317
919.272	3211
919.383	3283
919.494	3496
919.604	3656
919.715	3526
919.826	3420
919.936	3469
920.047	3584
920.157	3564
920.267	3759
920.378	3587
920.488	3542
920.598	3789
920.708	3945
920.818	3869
920.928	3808
921.038	4059
921.148	3983
921.258	3698
921.368	3637
921.477	3568
921.587	3564
921.697	3481
921.806	3625
921.916	3530
922.025	3344
922.134	3355
922.244	3310
922.353	3412
922.462	3272
922.571	3245
922.68	3104
922.789	3055
922.898	3127
923.007	3093
923.116	3207
923.224	3192
923.333	3176
923.442	3077
923.55	3116
923.659	3123
923.767	3211
923.876	3108
923.984	3249
924.092	3074
924.201	3192
924.309	3214
924.417	3222
924.525	3154
924.633	3230
924.741	4188
924.849	3055
924.956	3256
925.064	3089
925.172	3070
925.279	3131
925.387	3176
925.494	3173
925.602	3348
925.709	3325
925.816	3169
925.924	3332
926.031	3405
926.138	3317
926.245	3378
926.352	3287
926.459	3412
926.566	3481
926.673	3332
926.779	3268
926.886	3237
926.993	3165
927.099	3119
927.206	3081
927.312	3116
927.419	3218
927.525	3192
927.631	3294
927.737	3127
927.843	3116
927.95	3013
928.056	3104
928.162	3154
928.267	3218
928.373	3751
928.479	3287
928.585	3047
928.69	3245
928.796	3233
928.901	3180
929.007	3039
929.112	3199
929.218	3188
929.323	3138
929.428	3157
929.533	3325
929.638	3135
929.743	3188
929.848	3237
929.953	3184
930.058	3161
930.163	2986
930.267	3032
930.372	3161
930.477	3001
930.581	3313
930.685	3176
930.79	3028
930.894	3100
930.998	3066
931.103	3302
931.207	2963
931.311	2914
931.415	2910
931.519	2785
931.623	2830
