Data from test_V78500241_1102.txt Node
Date: Fri Mar 25 16:22:50 CST 2022
User: usil
Spectrometer: V785-0024
Trigger mode: 0
Integration Time (sec): 4.000000E-1
Scans to average: 1
Nonlinearity correction enabled: false
Boxcar width: 0
Storing dark spectrum: false
XAxis mode: Wavelengths
Number of Pixels in Spectrum: 1024
>>>>>Begin Spectral Data<<<<<
801.071	2948
801.214	2990
801.356	2876
801.499	2906
801.641	2906
801.783	2963
801.926	3051
802.068	3005
802.211	2967
802.353	3036
802.496	2979
802.638	3055
802.78	3055
802.923	3135
803.065	3028
803.208	2948
803.35	2906
803.492	2960
803.635	2963
803.777	2811
803.919	2842
804.061	3237
804.204	2979
804.346	2929
804.488	2880
804.63	3009
804.773	2895
804.915	2906
805.057	3093
805.199	2941
805.341	2986
805.483	3013
805.626	3013
805.768	2986
805.91	3081
806.052	3119
806.194	3077
806.336	3226
806.478	3058
806.62	2975
806.762	2982
806.904	3081
807.046	3192
807.188	2994
807.33	2937
807.472	3001
807.614	2906
807.756	3013
807.898	2929
808.04	2914
808.182	2963
808.324	2971
808.465	2937
808.607	2899
808.749	2834
808.891	2880
809.033	2956
809.174	3020
809.316	2914
809.458	2918
809.6	2792
809.741	2788
809.883	2762
810.025	2838
810.166	2899
810.308	2815
810.45	2849
810.591	2785
810.733	2804
810.875	2876
811.016	2781
811.158	2769
811.299	2811
811.441	2906
811.582	2918
811.724	2849
811.865	2868
812.007	2902
812.148	2891
812.29	2842
812.431	2891
812.573	2948
812.714	2990
812.855	3017
812.997	3051
813.138	3131
813.279	3047
813.421	2994
813.562	2986
813.703	2910
813.845	2910
813.986	2807
814.127	2735
814.268	2845
814.41	2868
814.551	2819
814.692	2864
814.833	2815
814.974	2880
815.115	2971
815.256	2872
815.397	2823
815.539	2883
815.68	2735
815.821	2800
815.962	2956
816.103	2925
816.244	2922
816.385	2880
816.526	3005
816.666	2963
816.807	2766
816.948	2861
817.089	2906
817.23	2864
817.371	2800
817.512	2815
817.653	2880
817.793	2819
817.934	2914
818.075	3005
818.216	2979
818.356	3028
818.497	2891
818.638	2811
818.778	2842
818.919	2800
819.06	2743
819.2	2891
819.341	2823
819.481	2826
819.622	2937
819.762	3142
819.903	3051
820.043	2948
820.184	2902
820.324	2910
820.465	3009
820.605	3028
820.746	3043
820.886	2963
821.026	3123
821.167	3173
821.307	3249
821.447	3279
821.588	3207
821.728	3233
821.868	3195
822.008	3074
822.149	3195
822.289	3264
822.429	3108
822.569	3116
822.709	3176
822.849	3077
822.99	3089
823.13	3154
823.27	3207
823.41	3123
823.55	3138
823.69	3119
823.83	3199
823.97	3135
824.11	3017
824.25	2994
824.389	3077
824.529	3108
824.669	3100
824.809	3207
824.949	3218
825.089	3249
825.228	3150
825.368	3020
825.508	2982
825.648	2979
825.787	3017
825.927	3062
826.067	2975
826.206	2975
826.346	3013
826.485	3074
826.625	3135
826.765	3283
826.904	3218
827.044	3013
827.183	2994
827.323	2872
827.462	3009
827.601	2902
827.741	2902
827.88	2933
828.02	2853
828.159	2986
828.298	3036
828.437	3142
828.577	3070
828.716	3256
828.855	3112
828.994	2956
829.134	2899
829.273	2906
829.412	2880
829.551	2857
829.69	2929
829.829	3020
829.968	3104
830.107	3013
830.246	3020
830.385	2975
830.524	2906
830.663	2826
830.802	2727
830.941	2686
831.08	2648
831.219	2762
831.357	2781
831.496	2963
831.635	2746
831.774	2659
831.913	2670
832.051	2537
832.19	2636
832.329	2686
832.467	2552
832.606	2499
832.744	2583
832.883	2587
833.022	2602
833.16	2663
833.299	2716
833.437	2720
833.576	2682
833.714	2735
833.852	2746
833.991	2766
834.129	2834
834.267	2804
834.406	2796
834.544	2857
834.682	2891
834.821	2895
834.959	3055
835.097	2937
835.235	3131
835.373	2990
835.511	3043
835.65	2975
835.788	2979
835.926	2845
836.064	2785
836.202	2845
836.34	3108
836.478	3142
836.615	3074
836.753	3142
836.891	3176
837.029	3161
837.167	3127
837.305	3108
837.443	3036
837.58	3005
837.718	3165
837.856	3081
837.993	3013
838.131	3131
838.269	3119
838.406	3104
838.544	3131
838.681	2922
838.819	2952
838.956	2857
839.094	2902
839.231	2929
839.369	3005
839.506	3363
839.643	3230
839.781	3028
839.918	2986
840.055	3036
840.193	3081
840.33	3116
840.467	3089
840.604	3176
840.742	3386
840.879	3066
841.016	3077
841.153	3112
841.29	3332
841.427	3321
841.564	3226
841.701	3336
841.838	3237
841.975	3169
842.112	3226
842.249	3104
842.385	3066
842.522	3264
842.659	3097
842.796	3066
842.933	3108
843.069	3085
843.206	3047
843.343	3161
843.479	3108
843.616	3150
843.752	2906
843.889	2887
844.025	3039
844.162	2864
844.298	3085
844.435	2963
844.571	2910
844.708	3077
844.844	3203
844.98	3226
845.117	3195
845.253	3047
845.389	3028
845.525	3062
845.661	3097
845.798	2998
845.934	3104
846.07	3055
846.206	3218
846.342	3332
846.478	3222
846.614	3097
846.75	3047
846.886	3009
847.022	3253
847.158	3146
847.294	3226
847.429	3233
847.565	3226
847.701	3466
847.837	3051
847.972	3005
848.108	3180
848.244	3188
848.379	2998
848.515	2956
848.65	2910
848.786	2960
848.921	3017
849.057	3089
849.192	3123
849.328	3081
849.463	3089
849.598	3055
849.734	3058
849.869	2998
850.004	2937
850.14	2952
850.275	2887
850.41	2823
850.545	2861
850.68	2910
850.815	2979
850.95	2967
851.085	3184
851.22	3100
851.355	3066
851.49	2990
851.625	3009
851.76	3009
851.895	2952
852.03	2906
852.165	3032
852.299	3112
852.434	3173
852.569	3161
852.703	3192
852.838	3310
852.973	3344
853.107	3355
853.242	3135
853.376	3093
853.511	2967
853.645	3089
853.78	3253
853.914	3108
854.048	3112
854.183	3097
854.317	3180
854.451	3306
854.585	3150
854.72	3097
854.854	3211
854.988	3051
855.122	3104
855.256	2952
855.39	3112
855.524	3199
855.658	3192
855.792	3146
855.926	3184
856.06	3192
856.194	3256
856.327	3131
856.461	3108
856.595	3036
856.729	3081
856.862	3249
856.996	3180
857.13	3180
857.263	3260
857.397	3264
857.53	3108
857.664	3195
857.797	3245
857.931	3272
858.064	3184
858.197	3222
858.331	3112
858.464	3074
858.597	2998
858.731	3119
858.864	3093
858.997	3089
859.13	3173
859.263	3180
859.396	3203
859.529	3074
859.662	3062
859.795	3020
859.928	3138
860.061	3272
860.194	3294
860.327	3146
860.46	3104
860.592	3249
860.725	3249
860.858	3264
860.99	3116
861.123	3077
861.256	3070
861.388	3116
861.521	3724
861.653	3009
861.786	2967
861.918	2975
862.05	3047
862.183	3100
862.315	3146
862.447	3218
862.58	3093
862.712	2937
862.844	2849
862.976	3024
863.108	3024
863.24	3424
863.372	2868
863.504	2990
863.636	2948
863.768	3058
863.9	2998
864.032	2918
864.164	2975
864.296	3001
864.428	3119
864.559	3089
864.691	3058
864.823	3070
864.954	3028
865.086	3058
865.217	2990
865.349	2971
865.48	2967
865.612	3043
865.743	3138
865.875	2960
866.006	2944
866.137	3009
866.269	2914
866.4	2944
866.531	2948
866.662	2902
866.793	2864
866.924	2918
867.055	2971
867.186	2925
867.317	2891
867.448	2887
867.579	2872
867.71	2849
867.841	2853
867.972	2906
868.103	2914
868.233	2880
868.364	2906
868.495	2902
868.625	3077
868.756	3161
868.886	2986
869.017	3013
869.147	3150
869.278	3157
869.408	3017
869.539	3036
869.669	3097
869.799	2986
869.929	3135
870.06	3097
870.19	3359
870.32	3283
870.45	3279
870.58	3370
870.71	3420
870.84	3420
870.97	3268
871.1	3203
871.23	3519
871.36	3447
871.489	3336
871.619	3416
871.749	3389
871.879	3458
872.008	3439
872.138	3374
872.267	3253
872.397	3108
872.526	3104
872.656	2994
872.785	3097
872.915	3222
873.044	3291
873.173	3237
873.303	3249
873.432	3268
873.561	3253
873.69	3127
873.819	3169
873.948	3203
874.077	3112
874.206	3047
874.335	3097
874.464	3195
874.593	3389
874.722	3214
874.851	3397
874.979	3359
875.108	3348
875.237	3184
875.365	3165
875.494	3157
875.623	3241
875.751	3066
875.88	3131
876.008	3188
876.136	3218
876.265	3386
876.393	3477
876.521	3447
876.65	3397
876.778	3291
876.906	3237
877.034	3169
877.162	3233
877.29	3176
877.418	3275
877.546	3245
877.674	3233
877.802	3222
877.93	3211
878.058	3150
878.185	3077
878.313	3188
878.441	3180
878.568	3032
878.696	3138
878.824	3237
878.951	3294
879.079	3458
879.206	3644
879.333	3431
879.461	3336
879.588	3367
879.715	3458
879.842	3622
879.97	3401
880.097	3180
880.224	3104
880.351	3180
880.478	3264
880.605	3233
880.732	3192
880.859	3519
880.986	3348
881.112	3336
881.239	3222
881.366	3077
881.493	3043
881.619	2994
881.746	3058
881.872	3097
881.999	3055
882.125	3142
882.252	3260
882.378	3291
882.505	3424
882.631	3310
882.757	3131
882.883	3203
883.01	3222
883.136	3142
883.262	3070
883.388	3108
883.514	3321
883.64	3355
883.766	3268
883.892	3195
884.018	3203
884.143	3401
884.269	3561
884.395	3127
884.52	3142
884.646	3173
884.772	3077
884.897	3081
885.023	3199
885.148	3298
885.274	3409
885.399	3351
885.524	3291
885.65	3253
885.775	3298
885.9	3287
886.025	3447
886.15	3355
886.275	3294
886.4	3237
886.525	3313
886.65	3226
886.775	3283
886.9	3458
887.025	3595
887.149	3351
887.274	3233
887.399	3173
887.523	3199
887.648	3154
887.773	3211
887.897	3351
888.021	3389
888.146	3279
888.27	3469
888.395	3515
888.519	3431
888.643	3447
888.767	3500
888.891	3287
889.015	3260
889.139	3268
889.263	3291
889.387	3382
889.511	3526
889.635	3424
889.759	3249
889.883	3313
890.006	3389
890.13	3485
890.254	3302
890.377	3332
890.501	3161
890.624	3188
890.748	3279
890.871	3195
890.995	3097
891.118	3066
891.241	3195
891.364	3226
891.488	3306
891.611	3173
891.734	3195
891.857	3245
891.98	3233
892.103	3310
892.226	3279
892.349	3218
892.471	3146
892.594	3230
892.717	3279
892.839	3279
892.962	3287
893.085	3363
893.207	3317
893.33	3173
893.452	3195
893.575	3298
893.697	3275
893.819	3481
893.941	3485
894.064	3431
894.186	3306
894.308	3268
894.43	3466
894.552	3553
894.674	3488
894.796	3275
894.918	3329
895.04	3310
895.161	3447
895.283	3370
895.405	3279
895.526	3393
895.648	3454
895.769	3386
895.891	3424
896.012	3496
896.134	3428
896.255	3405
896.376	3386
896.498	3363
896.619	3386
896.74	3378
896.861	3401
896.982	3682
897.103	3869
897.224	3587
897.345	3519
897.466	3409
897.587	3485
897.708	3625
897.828	3557
897.949	3466
898.07	3344
898.19	3386
898.311	3576
898.431	3431
898.552	3519
898.672	3587
898.792	3595
898.913	3526
899.033	3389
899.153	3294
899.273	3230
899.393	3310
899.513	3325
899.633	3291
899.753	3279
899.873	3313
899.993	3351
900.113	3321
900.232	3389
900.352	3367
900.472	3321
900.591	3184
900.711	3298
900.83	3245
900.95	3428
901.069	3462
901.189	3367
901.308	3203
901.427	3142
901.546	3184
901.665	3294
901.784	3294
901.904	3203
902.023	3154
902.141	3028
902.26	3005
902.379	3150
902.498	3093
902.617	3055
902.735	3214
902.854	3230
902.973	3203
903.091	3032
903.21	3066
903.328	3165
903.446	3119
903.565	3039
903.683	3192
903.801	3108
903.919	3256
904.038	3279
904.156	3142
904.274	3306
904.392	3233
904.51	3279
904.627	3348
904.745	3401
904.863	3496
904.981	3275
905.098	3146
905.216	3218
905.334	3302
905.451	3306
905.569	3272
905.686	3428
905.803	3424
905.921	3279
906.038	3450
906.155	3340
906.272	3264
906.389	3367
906.506	3218
906.623	3245
906.74	3256
906.857	3207
906.974	3275
907.091	3450
907.208	3549
907.324	3485
907.441	3348
907.557	3207
907.674	3241
907.79	3207
907.907	3313
908.023	3393
908.139	3306
908.256	3332
908.372	3374
908.488	3340
908.604	3291
908.72	3233
908.836	3268
908.952	3268
909.068	3336
909.184	3454
909.3	3386
909.415	3462
909.531	3488
909.647	3268
909.762	3291
909.878	3230
909.993	3348
910.108	3313
910.224	3317
910.339	3389
910.454	3344
910.57	3279
910.685	3256
910.8	3587
910.915	3545
911.03	3397
911.145	3260
911.259	3336
911.374	3287
911.489	3222
911.604	3226
911.718	3081
911.833	3127
911.947	3032
912.062	3001
912.176	3165
912.291	3173
912.405	3184
912.519	3424
912.633	3462
912.748	3378
912.862	3260
912.976	3180
913.09	3039
913.204	3161
913.318	3245
913.431	3294
913.545	3321
913.659	3412
913.772	3336
913.886	3241
914	3233
914.113	3367
914.226	3420
914.34	3351
914.453	3211
914.566	3386
914.68	3260
914.793	3294
914.906	3123
915.019	3093
915.132	3066
915.245	3138
915.358	3207
915.47	3214
915.583	3264
915.696	3283
915.809	3382
915.921	3382
916.034	3233
916.146	3298
916.259	3279
916.371	3424
916.483	3355
916.595	3230
916.708	3344
916.82	3302
916.932	3355
917.044	3310
917.156	3329
917.268	3256
917.38	3249
917.491	3302
917.603	3382
917.715	3447
917.826	3439
917.938	3355
918.049	3260
918.161	3405
918.272	3572
918.384	3595
918.495	3496
918.606	3370
918.717	3283
918.828	3351
918.939	3447
919.05	3279
919.161	3367
919.272	3203
919.383	3245
919.494	3485
919.604	3679
919.715	3481
919.826	3386
919.936	3447
920.047	3595
920.157	3564
920.267	3774
920.378	3644
920.488	3530
920.598	3778
920.708	3945
920.818	3778
920.928	3778
921.038	4013
921.148	4006
921.258	3709
921.368	3656
921.477	3622
921.587	3568
921.697	3477
921.806	3656
921.916	3485
922.025	3363
922.134	3363
922.244	3283
922.353	3409
922.462	3260
922.571	3176
922.68	3108
922.789	3055
922.898	3123
923.007	3135
923.116	3199
923.224	3127
923.333	3195
923.442	3058
923.55	3085
923.659	3108
923.767	3207
923.876	3112
923.984	3203
924.092	3100
924.201	3188
924.309	3233
924.417	3253
924.525	3199
924.633	3222
924.741	3991
924.849	3047
924.956	3241
925.064	3131
925.172	3043
925.279	3097
925.387	3230
925.494	3188
925.602	3344
925.709	3332
925.816	3180
925.924	3287
926.031	3393
926.138	3287
926.245	3363
926.352	3264
926.459	3386
926.566	3481
926.673	3291
926.779	3287
926.886	3218
926.993	3131
927.099	3161
927.206	3108
927.312	3123
927.419	3249
927.525	3237
927.631	3256
927.737	3127
927.843	3112
927.95	3005
928.056	3131
928.162	3176
928.267	3264
928.373	3903
928.479	3306
928.585	3055
928.69	3173
928.796	3287
928.901	3146
929.007	3020
929.112	3249
929.218	3176
929.323	3157
929.428	3188
929.533	3294
929.638	3127
929.743	3173
929.848	3268
929.953	3218
930.058	3184
930.163	2990
930.267	3032
930.372	3195
930.477	3020
930.581	3332
930.685	3192
930.79	3066
930.894	3138
930.998	3131
931.103	3294
931.207	2967
931.311	2895
931.415	2906
931.519	2792
931.623	2796
