Data from test_V78500241_1030.txt Node
Date: Fri Mar 25 16:22:20 CST 2022
User: usil
Spectrometer: V785-0024
Trigger mode: 0
Integration Time (sec): 4.000000E-1
Scans to average: 1
Nonlinearity correction enabled: false
Boxcar width: 0
Storing dark spectrum: false
XAxis mode: Wavelengths
Number of Pixels in Spectrum: 1024
>>>>>Begin Spectral Data<<<<<
801.071	2971
801.214	3013
801.356	2933
801.499	2944
801.641	2891
801.783	3001
801.926	3077
802.068	2982
802.211	3074
802.353	3077
802.496	3009
802.638	3043
802.78	3062
802.923	3138
803.065	3020
803.208	2979
803.35	2971
803.492	2937
803.635	2914
803.777	2800
803.919	2902
804.061	3218
804.204	2982
804.346	2971
804.488	2880
804.63	3043
804.773	2887
804.915	2956
805.057	3138
805.199	2960
805.341	3024
805.483	3070
805.626	3036
805.768	2990
805.91	3093
806.052	3184
806.194	3081
806.336	3256
806.478	3089
806.62	2994
806.762	3005
806.904	3089
807.046	3195
807.188	3028
807.33	2937
807.472	3028
807.614	2952
807.756	3024
807.898	2941
808.04	2929
808.182	2990
808.324	2948
808.465	2922
808.607	2922
808.749	2842
808.891	2880
809.033	3013
809.174	3005
809.316	2933
809.458	2887
809.6	2804
809.741	2823
809.883	2796
810.025	2876
810.166	2899
810.308	2902
810.45	2914
810.591	2826
810.733	2815
810.875	2876
811.016	2796
811.158	2796
811.299	2830
811.441	2910
811.582	2948
811.724	2842
811.865	2838
812.007	2944
812.148	2922
812.29	2849
812.431	2937
812.573	2952
812.714	3032
812.855	3058
812.997	3089
813.138	3138
813.279	3051
813.421	3039
813.562	2971
813.703	2868
813.845	2899
813.986	2857
814.127	2743
814.268	2834
814.41	2857
814.551	2864
814.692	2887
814.833	2849
814.974	2895
815.115	2941
815.256	2857
815.397	2880
815.539	2880
815.68	2823
815.821	2819
815.962	2971
816.103	3005
816.244	2914
816.385	2910
816.526	3009
816.666	2914
816.807	2769
816.948	2914
817.089	2952
817.23	2883
817.371	2826
817.512	2796
817.653	2845
817.793	2853
817.934	2918
818.075	3032
818.216	3024
818.356	3028
818.497	2948
818.638	2823
818.778	2864
818.919	2823
819.06	2766
819.2	2895
819.341	2842
819.481	2823
819.622	2986
819.762	3150
819.903	3028
820.043	2941
820.184	2914
820.324	2891
820.465	3058
820.605	2994
820.746	3097
820.886	2952
821.026	3123
821.167	3157
821.307	3287
821.447	3344
821.588	3230
821.728	3226
821.868	3199
822.008	3093
822.149	3192
822.289	3249
822.429	3131
822.569	3085
822.709	3207
822.849	3066
822.99	3097
823.13	3207
823.27	3211
823.41	3127
823.55	3192
823.69	3161
823.83	3173
823.97	3108
824.11	3043
824.25	3017
824.389	3062
824.529	3119
824.669	3058
824.809	3233
824.949	3275
825.089	3233
825.228	3218
825.368	3024
825.508	2990
825.648	3005
825.787	3043
825.927	3039
826.067	2963
826.206	2986
826.346	3074
826.485	3093
826.625	3119
826.765	3313
826.904	3233
827.044	3017
827.183	3001
827.323	2883
827.462	3028
827.601	2914
827.741	2956
827.88	2967
828.02	2891
828.159	2986
828.298	3062
828.437	3135
828.577	3036
828.716	3291
828.855	3097
828.994	2952
829.134	2887
829.273	2929
829.412	2883
829.551	2857
829.69	2941
829.829	2994
829.968	3161
830.107	3032
830.246	3017
830.385	2952
830.524	2925
830.663	2849
830.802	2727
830.941	2705
831.08	2648
831.219	2773
831.357	2804
831.496	2986
831.635	2754
831.774	2629
831.913	2693
832.051	2602
832.19	2579
832.329	2701
832.467	2518
832.606	2518
832.744	2564
832.883	2617
833.022	2632
833.16	2655
833.299	2693
833.437	2693
833.576	2720
833.714	2743
833.852	2731
833.991	2777
834.129	2853
834.267	2845
834.406	2853
834.544	2902
834.682	2899
834.821	2902
834.959	3081
835.097	2929
835.235	3081
835.373	3058
835.511	3047
835.65	2963
835.788	2952
835.926	2849
836.064	2830
836.202	2849
836.34	3089
836.478	3131
836.615	3085
836.753	3142
836.891	3211
837.029	3184
837.167	3081
837.305	3058
837.443	3074
837.58	2971
837.718	3154
837.856	3051
837.993	3062
838.131	3131
838.269	3104
838.406	3123
838.544	3081
838.681	2937
838.819	2948
838.956	2823
839.094	2838
839.231	2952
839.369	3036
839.506	3412
839.643	3207
839.781	3001
839.918	2963
840.055	3051
840.193	3070
840.33	3058
840.467	3112
840.604	3173
840.742	3416
840.879	3058
841.016	3085
841.153	3119
841.29	3359
841.427	3321
841.564	3306
841.701	3294
841.838	3237
841.975	3184
842.112	3237
842.249	3089
842.385	3058
842.522	3253
842.659	3108
842.796	3058
842.933	3112
843.069	3081
843.206	3070
843.343	3203
843.479	3100
843.616	3169
843.752	2910
843.889	2906
844.025	3077
844.162	2922
844.298	3112
844.435	2986
844.571	2925
844.708	3108
844.844	3180
844.98	3245
845.117	3237
845.253	3081
845.389	3009
845.525	3089
845.661	3104
845.798	2994
845.934	3112
846.07	3093
846.206	3268
846.342	3310
846.478	3253
846.614	3116
846.75	3077
846.886	3009
847.022	3233
847.158	3154
847.294	3211
847.429	3256
847.565	3195
847.701	3473
847.837	3039
847.972	3043
848.108	3188
848.244	3123
848.379	3001
848.515	2929
848.65	2998
848.786	2979
848.921	3032
849.057	3116
849.192	3150
849.328	3074
849.463	3157
849.598	3089
849.734	3062
849.869	3009
850.004	2952
850.14	3024
850.275	2929
850.41	2823
850.545	2899
850.68	2952
850.815	2986
850.95	2994
851.085	3218
851.22	3131
851.355	3047
851.49	2994
851.625	3020
851.76	3043
851.895	2960
852.03	2906
852.165	3047
852.299	3097
852.434	3207
852.569	3173
852.703	3142
852.838	3237
852.973	3340
853.107	3355
853.242	3176
853.376	3108
853.511	2986
853.645	3036
853.78	3230
853.914	3154
854.048	3104
854.183	3077
854.317	3180
854.451	3313
854.585	3097
854.72	3077
854.854	3214
854.988	3047
855.122	3062
855.256	2982
855.39	3157
855.524	3233
855.658	3161
855.792	3184
855.926	3211
856.06	3188
856.194	3294
856.327	3184
856.461	3077
856.595	3062
856.729	3104
856.862	3218
856.996	3176
857.13	3211
857.263	3214
857.397	3256
857.53	3131
857.664	3173
857.797	3241
857.931	3279
858.064	3169
858.197	3260
858.331	3146
858.464	3070
858.597	3005
858.731	3173
858.864	3161
858.997	3070
859.13	3173
859.263	3184
859.396	3222
859.529	3112
859.662	3154
859.795	3058
859.928	3146
860.061	3279
860.194	3329
860.327	3176
860.46	3074
860.592	3233
860.725	3264
860.858	3272
860.99	3135
861.123	3051
861.256	3074
861.388	3157
861.521	3800
861.653	3055
861.786	2986
861.918	3001
862.05	3100
862.183	3123
862.315	3150
862.447	3188
862.58	3119
862.712	2967
862.844	2895
862.976	3017
863.108	3036
863.24	3458
863.372	2880
863.504	2979
863.636	2937
863.768	3039
863.9	2982
864.032	2925
864.164	2937
864.296	2998
864.428	3074
864.559	3119
864.691	3119
864.823	3108
864.954	3047
865.086	3058
865.217	3024
865.349	2956
865.48	2960
865.612	3032
865.743	3112
865.875	2990
866.006	2956
866.137	2960
866.269	2948
866.4	2941
866.531	2929
866.662	2922
866.793	2902
866.924	2906
867.055	2956
867.186	2906
867.317	2887
867.448	2883
867.579	2842
867.71	2830
867.841	2838
867.972	2937
868.103	2925
868.233	2906
868.364	2899
868.495	2899
868.625	3070
868.756	3146
868.886	2982
869.017	3039
869.147	3173
869.278	3195
869.408	3062
869.539	3043
869.669	3104
869.799	3013
869.929	3146
870.06	3123
870.19	3351
870.32	3287
870.45	3336
870.58	3329
870.71	3477
870.84	3477
870.97	3256
871.1	3233
871.23	3511
871.36	3469
871.489	3336
871.619	3431
871.749	3424
871.879	3409
872.008	3488
872.138	3359
872.267	3302
872.397	3207
872.526	3097
872.656	3009
872.785	3127
872.915	3241
873.044	3325
873.173	3268
873.303	3230
873.432	3214
873.561	3279
873.69	3146
873.819	3169
873.948	3195
874.077	3108
874.206	3024
874.335	3097
874.464	3199
874.593	3336
874.722	3268
874.851	3374
874.979	3374
875.108	3306
875.237	3211
875.365	3154
875.494	3165
875.623	3245
875.751	3058
875.88	3116
876.008	3165
876.136	3195
876.265	3393
876.393	3523
876.521	3409
876.65	3378
876.778	3351
876.906	3214
877.034	3199
877.162	3214
877.29	3222
877.418	3253
877.546	3211
877.674	3218
877.802	3203
877.93	3226
878.058	3142
878.185	3116
878.313	3241
878.441	3203
878.568	3055
878.696	3131
878.824	3245
878.951	3321
879.079	3435
879.206	3629
879.333	3431
879.461	3321
879.588	3313
879.715	3450
879.842	3557
879.97	3355
880.097	3176
880.224	3112
880.351	3169
880.478	3237
880.605	3184
880.732	3199
880.859	3504
880.986	3359
881.112	3329
881.239	3218
881.366	3100
881.493	3058
881.619	3024
881.746	3070
881.872	3097
881.999	3100
882.125	3142
882.252	3249
882.378	3279
882.505	3443
882.631	3291
882.757	3161
882.883	3199
883.01	3230
883.136	3173
883.262	3093
883.388	3138
883.514	3374
883.64	3359
883.766	3317
883.892	3218
884.018	3245
884.143	3386
884.269	3553
884.395	3226
884.52	3142
884.646	3161
884.772	3123
884.897	3097
885.023	3211
885.148	3344
885.274	3428
885.399	3325
885.524	3275
885.65	3283
885.775	3291
885.9	3275
886.025	3416
886.15	3378
886.275	3298
886.4	3245
886.525	3302
886.65	3241
886.775	3291
886.9	3477
887.025	3606
887.149	3386
887.274	3287
887.399	3165
887.523	3184
887.648	3173
887.773	3226
887.897	3344
888.021	3397
888.146	3294
888.27	3447
888.395	3523
888.519	3393
888.643	3393
888.767	3477
888.891	3294
889.015	3230
889.139	3321
889.263	3233
889.387	3412
889.511	3504
889.635	3439
889.759	3317
889.883	3310
890.006	3355
890.13	3431
890.254	3249
890.377	3355
890.501	3249
890.624	3173
890.748	3272
890.871	3176
890.995	3104
891.118	3028
891.241	3180
891.364	3230
891.488	3302
891.611	3131
891.734	3230
891.857	3264
891.98	3230
892.103	3348
892.226	3291
892.349	3241
892.471	3112
892.594	3264
892.717	3264
892.839	3256
892.962	3310
893.085	3332
893.207	3340
893.33	3161
893.452	3249
893.575	3336
893.697	3233
893.819	3473
893.941	3534
894.064	3431
894.186	3268
894.308	3294
894.43	3431
894.552	3603
894.674	3469
894.796	3245
894.918	3344
895.04	3291
895.161	3435
895.283	3416
895.405	3298
895.526	3370
895.648	3443
895.769	3397
895.891	3450
896.012	3428
896.134	3462
896.255	3409
896.376	3409
896.498	3348
896.619	3374
896.74	3389
896.861	3412
896.982	3675
897.103	3876
897.224	3580
897.345	3477
897.466	3401
897.587	3492
897.708	3656
897.828	3557
897.949	3420
898.07	3348
898.19	3409
898.311	3622
898.431	3462
898.552	3515
898.672	3606
898.792	3580
898.913	3564
899.033	3428
899.153	3306
899.273	3161
899.393	3260
899.513	3264
899.633	3332
899.753	3336
899.873	3306
899.993	3393
900.113	3374
900.232	3409
900.352	3344
900.472	3279
900.591	3176
900.711	3313
900.83	3291
900.95	3458
901.069	3488
901.189	3367
901.308	3192
901.427	3116
901.546	3188
901.665	3298
901.784	3370
901.904	3192
902.023	3150
902.141	3066
902.26	3001
902.379	3131
902.498	3077
902.617	3093
902.735	3199
902.854	3241
902.973	3157
903.091	3051
903.21	3043
903.328	3127
903.446	3127
903.565	3146
903.683	3214
903.801	3135
903.919	3241
904.038	3294
904.156	3211
904.274	3264
904.392	3233
904.51	3268
904.627	3332
904.745	3450
904.863	3477
904.981	3253
905.098	3180
905.216	3237
905.334	3294
905.451	3279
905.569	3272
905.686	3428
905.803	3401
905.921	3260
906.038	3454
906.155	3389
906.272	3294
906.389	3348
906.506	3226
906.623	3218
906.74	3294
906.857	3180
906.974	3268
907.091	3462
907.208	3584
907.324	3462
907.441	3378
907.557	3272
907.674	3214
907.79	3207
907.907	3241
908.023	3359
908.139	3389
908.256	3298
908.372	3355
908.488	3382
908.604	3256
908.72	3203
908.836	3279
908.952	3256
909.068	3348
909.184	3511
909.3	3389
909.415	3526
909.531	3500
909.647	3287
909.762	3268
909.878	3272
909.993	3313
910.108	3310
910.224	3336
910.339	3431
910.454	3325
910.57	3291
910.685	3188
910.8	3591
910.915	3500
911.03	3458
911.145	3306
911.259	3272
911.374	3370
911.489	3237
911.604	3230
911.718	3119
911.833	3161
911.947	2994
912.062	2986
912.176	3154
912.291	3195
912.405	3253
912.519	3447
912.633	3458
912.748	3332
912.862	3272
912.976	3169
913.09	3066
913.204	3112
913.318	3241
913.431	3336
913.545	3310
913.659	3382
913.772	3298
913.886	3214
914	3154
914.113	3313
914.226	3397
914.34	3374
914.453	3188
914.566	3386
914.68	3302
914.793	3268
914.906	3150
915.019	3097
915.132	3081
915.245	3150
915.358	3230
915.47	3226
915.583	3253
915.696	3329
915.809	3431
915.921	3435
916.034	3249
916.146	3294
916.259	3256
916.371	3424
916.483	3348
916.595	3279
916.708	3325
916.82	3325
916.932	3386
917.044	3317
917.156	3336
917.268	3249
917.38	3317
917.491	3291
917.603	3348
917.715	3405
917.826	3477
917.938	3393
918.049	3294
918.161	3405
918.272	3580
918.384	3572
918.495	3485
918.606	3344
918.717	3233
918.828	3409
918.939	3435
919.05	3298
919.161	3348
919.272	3157
919.383	3249
919.494	3477
919.604	3728
919.715	3492
919.826	3431
919.936	3458
920.047	3599
920.157	3576
920.267	3770
920.378	3622
920.488	3564
920.598	3778
920.708	4017
920.818	3838
920.928	3789
921.038	4055
921.148	3983
921.258	3694
921.368	3667
921.477	3549
921.587	3530
921.697	3454
921.806	3622
921.916	3492
922.025	3332
922.134	3351
922.244	3287
922.353	3424
922.462	3230
922.571	3233
922.68	3089
922.789	3089
922.898	3116
923.007	3055
923.116	3176
923.224	3169
923.333	3195
923.442	3093
923.55	3093
923.659	3146
923.767	3226
923.876	3100
923.984	3226
924.092	3093
924.201	3199
924.309	3260
924.417	3249
924.525	3154
924.633	3222
924.741	4169
924.849	3024
924.956	3241
925.064	3112
925.172	3062
925.279	3074
925.387	3192
925.494	3176
925.602	3344
925.709	3302
925.816	3188
925.924	3253
926.031	3397
926.138	3310
926.245	3344
926.352	3233
926.459	3435
926.566	3447
926.673	3298
926.779	3237
926.886	3241
926.993	3180
927.099	3135
927.206	3146
927.312	3108
927.419	3237
927.525	3199
927.631	3275
927.737	3123
927.843	3093
927.95	2982
928.056	3127
928.162	3173
928.267	3275
928.373	3873
928.479	3321
928.585	3097
928.69	3192
928.796	3275
928.901	3169
929.007	3043
929.112	3192
929.218	3188
929.323	3150
929.428	3150
929.533	3313
929.638	3104
929.743	3142
929.848	3230
929.953	3214
930.058	3142
930.163	3001
930.267	3085
930.372	3165
930.477	3047
930.581	3332
930.685	3157
930.79	3032
930.894	3097
930.998	3097
931.103	3264
931.207	2925
931.311	2941
931.415	2918
931.519	2777
931.623	2796
