Data from test_V78500241_225.txt Node
Date: Fri Mar 25 16:16:45 CST 2022
User: usil
Spectrometer: V785-0024
Trigger mode: 0
Integration Time (sec): 4.000000E-1
Scans to average: 1
Nonlinearity correction enabled: false
Boxcar width: 0
Storing dark spectrum: false
XAxis mode: Wavelengths
Number of Pixels in Spectrum: 1024
>>>>>Begin Spectral Data<<<<<
801.071	2891
801.214	2929
801.356	2868
801.499	2910
801.641	2857
801.783	2910
801.926	3009
802.068	2982
802.211	3001
802.353	3036
802.496	2975
802.638	2971
802.78	3009
802.923	3104
803.065	2982
803.208	2895
803.35	2891
803.492	2895
803.635	2933
803.777	2746
803.919	2826
804.061	3161
804.204	2967
804.346	2906
804.488	2842
804.63	2971
804.773	2899
804.915	2914
805.057	3104
805.199	2929
805.341	2941
805.483	3062
805.626	2975
805.768	2994
805.91	3089
806.052	3116
806.194	3009
806.336	3249
806.478	3020
806.62	2982
806.762	3013
806.904	3043
807.046	3146
807.188	2967
807.33	2956
807.472	2982
807.614	2918
807.756	2982
807.898	2941
808.04	2914
808.182	2994
808.324	2967
808.465	2941
808.607	2925
808.749	2826
808.891	2849
809.033	2990
809.174	2971
809.316	2929
809.458	2948
809.6	2788
809.741	2834
809.883	2804
810.025	2880
810.166	2887
810.308	2868
810.45	2887
810.591	2861
810.733	2857
810.875	2864
811.016	2826
811.158	2777
811.299	2868
811.441	2982
811.582	2956
811.724	2895
811.865	2895
812.007	2971
812.148	2941
812.29	2883
812.431	2918
812.573	3020
812.714	3013
812.855	3077
812.997	3070
813.138	3138
813.279	3077
813.421	3028
813.562	3020
813.703	2853
813.845	2933
813.986	2819
814.127	2766
814.268	2868
814.41	2880
814.551	2842
814.692	2918
814.833	2826
814.974	2929
815.115	2963
815.256	2868
815.397	2868
815.539	2914
815.68	2834
815.821	2842
815.962	3005
816.103	2971
816.244	2899
816.385	2880
816.526	3013
816.666	2979
816.807	2811
816.948	2914
817.089	2933
817.23	2891
817.371	2815
817.512	2830
817.653	2872
817.793	2864
817.934	2902
818.075	3032
818.216	3024
818.356	3051
818.497	2902
818.638	2826
818.778	2849
818.919	2826
819.06	2785
819.2	2918
819.341	2834
819.481	2895
819.622	2990
819.762	3104
819.903	3081
820.043	2948
820.184	2922
820.324	2963
820.465	3028
820.605	3024
820.746	3055
820.886	2948
821.026	3127
821.167	3161
821.307	3313
821.447	3306
821.588	3256
821.728	3260
821.868	3192
822.008	3146
822.149	3203
822.289	3260
822.429	3089
822.569	3123
822.709	3260
822.849	3085
822.99	3100
823.13	3199
823.27	3237
823.41	3154
823.55	3180
823.69	3169
823.83	3226
823.97	3119
824.11	3028
824.25	3017
824.389	3089
824.529	3131
824.669	3077
824.809	3237
824.949	3302
825.089	3199
825.228	3173
825.368	3051
825.508	3009
825.648	3013
825.787	2994
825.927	3009
826.067	2998
826.206	3013
826.346	3089
826.485	3112
826.625	3112
826.765	3291
826.904	3256
827.044	2998
827.183	2933
827.323	2910
827.462	3013
827.601	2948
827.741	2914
827.88	2982
828.02	2853
828.159	2986
828.298	3047
828.437	3108
828.577	3066
828.716	3298
828.855	3127
828.994	2956
829.134	2922
829.273	2971
829.412	2914
829.551	2899
829.69	2948
829.829	3005
829.968	3161
830.107	3066
830.246	3066
830.385	2963
830.524	2902
830.663	2796
830.802	2769
830.941	2674
831.08	2651
831.219	2804
831.357	2769
831.496	2971
831.635	2792
831.774	2689
831.913	2693
832.051	2575
832.19	2602
832.329	2739
832.467	2579
832.606	2514
832.744	2625
832.883	2636
833.022	2651
833.16	2686
833.299	2701
833.437	2762
833.576	2720
833.714	2773
833.852	2762
833.991	2792
834.129	2883
834.267	2830
834.406	2826
834.544	2906
834.682	2906
834.821	2906
834.959	3097
835.097	2952
835.235	3119
835.373	3051
835.511	3028
835.65	2975
835.788	2994
835.926	2857
836.064	2868
836.202	2883
836.34	3119
836.478	3169
836.615	3100
836.753	3157
836.891	3214
837.029	3192
837.167	3157
837.305	3093
837.443	3081
837.58	2979
837.718	3131
837.856	3089
837.993	3093
838.131	3131
838.269	3108
838.406	3131
838.544	3123
838.681	2963
838.819	2967
838.956	2842
839.094	2876
839.231	2967
839.369	3058
839.506	3420
839.643	3237
839.781	3036
839.918	3009
840.055	3055
840.193	3062
840.33	3123
840.467	3135
840.604	3135
840.742	3450
840.879	3058
841.016	3066
841.153	3119
841.29	3367
841.427	3348
841.564	3310
841.701	3340
841.838	3226
841.975	3226
842.112	3237
842.249	3119
842.385	3074
842.522	3317
842.659	3093
842.796	3066
842.933	3138
843.069	3051
843.206	3062
843.343	3207
843.479	3161
843.616	3150
843.752	2944
843.889	2880
844.025	3108
844.162	2914
844.298	3104
844.435	2994
844.571	2906
844.708	3123
844.844	3222
844.98	3302
845.117	3199
845.253	3074
845.389	3074
845.525	3150
845.661	3131
845.798	3036
845.934	3131
846.07	3104
846.206	3226
846.342	3340
846.478	3249
846.614	3104
846.75	3062
846.886	3039
847.022	3298
847.158	3173
847.294	3279
847.429	3298
847.565	3230
847.701	3481
847.837	3043
847.972	3043
848.108	3195
848.244	3169
848.379	3001
848.515	2960
848.65	2948
848.786	3036
848.921	2998
849.057	3142
849.192	3161
849.328	3081
849.463	3138
849.598	3104
849.734	3055
849.869	3043
850.004	2925
850.14	2998
850.275	2948
850.41	2887
850.545	2925
850.68	2937
850.815	2971
850.95	2967
851.085	3256
851.22	3138
851.355	3055
851.49	3009
851.625	3024
851.76	3039
851.895	2960
852.03	2960
852.165	3047
852.299	3123
852.434	3188
852.569	3157
852.703	3188
852.838	3256
852.973	3420
853.107	3370
853.242	3207
853.376	3146
853.511	2998
853.645	3013
853.78	3260
853.914	3127
854.048	3157
854.183	3123
854.317	3214
854.451	3294
854.585	3195
854.72	3123
854.854	3233
854.988	3104
855.122	3112
855.256	3001
855.39	3157
855.524	3245
855.658	3192
855.792	3180
855.926	3249
856.06	3264
856.194	3294
856.327	3184
856.461	3112
856.595	3093
856.729	3085
856.862	3241
856.996	3203
857.13	3241
857.263	3241
857.397	3298
857.53	3165
857.664	3230
857.797	3245
857.931	3279
858.064	3207
858.197	3249
858.331	3135
858.464	3112
858.597	3001
858.731	3093
858.864	3146
858.997	3119
859.13	3195
859.263	3222
859.396	3237
859.529	3123
859.662	3100
859.795	3051
859.928	3165
860.061	3268
860.194	3287
860.327	3138
860.46	3085
860.592	3275
860.725	3275
860.858	3230
860.99	3169
861.123	3100
861.256	3074
861.388	3123
861.521	3907
861.653	3032
861.786	2994
861.918	3005
862.05	3097
862.183	3081
862.315	3211
862.447	3199
862.58	3127
862.712	2990
862.844	2929
862.976	3081
863.108	3017
863.24	3351
863.372	2899
863.504	2990
863.636	2963
863.768	3024
863.9	3009
864.032	2933
864.164	2975
864.296	3028
864.428	3131
864.559	3116
864.691	3077
864.823	3104
864.954	3055
865.086	3051
865.217	3017
865.349	2960
865.48	2990
865.612	3085
865.743	3176
865.875	2986
866.006	2967
866.137	2971
866.269	2971
866.4	2944
866.531	2944
866.662	2906
866.793	2971
866.924	2918
867.055	3001
867.186	2948
867.317	2910
867.448	2876
867.579	2899
867.71	2891
867.841	2849
867.972	2963
868.103	2925
868.233	2891
868.364	2902
868.495	2899
868.625	3089
868.756	3165
868.886	2975
869.017	3032
869.147	3188
869.278	3173
869.408	3066
869.539	3074
869.669	3119
869.799	3043
869.929	3135
870.06	3123
870.19	3340
870.32	3317
870.45	3321
870.58	3378
870.71	3450
870.84	3485
870.97	3306
871.1	3283
871.23	3504
871.36	3481
871.489	3378
871.619	3412
871.749	3409
871.879	3492
872.008	3500
872.138	3405
872.267	3256
872.397	3192
872.526	3119
872.656	3051
872.785	3135
872.915	3249
873.044	3325
873.173	3180
873.303	3302
873.432	3268
873.561	3272
873.69	3131
873.819	3161
873.948	3192
874.077	3104
874.206	3097
874.335	3100
874.464	3256
874.593	3340
874.722	3275
874.851	3401
874.979	3378
875.108	3325
875.237	3222
875.365	3218
875.494	3188
875.623	3245
875.751	3093
875.88	3142
876.008	3214
876.136	3237
876.265	3351
876.393	3553
876.521	3466
876.65	3454
876.778	3355
876.906	3275
877.034	3260
877.162	3237
877.29	3180
877.418	3310
877.546	3306
877.674	3279
877.802	3275
877.93	3260
878.058	3184
878.185	3173
878.313	3226
878.441	3233
878.568	3112
878.696	3192
878.824	3245
878.951	3378
879.079	3458
879.206	3667
879.333	3454
879.461	3367
879.588	3401
879.715	3523
879.842	3641
879.97	3405
880.097	3230
880.224	3150
880.351	3275
880.478	3264
880.605	3279
880.732	3272
880.859	3557
880.986	3344
881.112	3359
881.239	3256
881.366	3127
881.493	3093
881.619	3062
881.746	3116
881.872	3142
881.999	3188
882.125	3195
882.252	3272
882.378	3351
882.505	3454
882.631	3363
882.757	3233
882.883	3272
883.01	3283
883.136	3192
883.262	3161
883.388	3184
883.514	3389
883.64	3428
883.766	3332
883.892	3222
884.018	3253
884.143	3473
884.269	3595
884.395	3275
884.52	3230
884.646	3233
884.772	3176
884.897	3131
885.023	3275
885.148	3378
885.274	3488
885.399	3416
885.524	3317
885.65	3317
885.775	3363
885.9	3329
886.025	3485
886.15	3435
886.275	3340
886.4	3294
886.525	3378
886.65	3344
886.775	3367
886.9	3572
887.025	3698
887.149	3477
887.274	3268
887.399	3211
887.523	3291
887.648	3279
887.773	3272
887.897	3420
888.021	3431
888.146	3363
888.27	3488
888.395	3618
888.519	3447
888.643	3473
888.767	3542
888.891	3382
889.015	3260
889.139	3367
889.263	3294
889.387	3454
889.511	3515
889.635	3473
889.759	3336
889.883	3325
890.006	3386
890.13	3572
890.254	3321
890.377	3386
890.501	3264
890.624	3214
890.748	3378
890.871	3207
890.995	3138
891.118	3097
891.241	3253
891.364	3287
891.488	3348
891.611	3214
891.734	3256
891.857	3344
891.98	3313
892.103	3382
892.226	3283
892.349	3264
892.471	3150
892.594	3294
892.717	3332
892.839	3298
892.962	3344
893.085	3428
893.207	3332
893.33	3173
893.452	3279
893.575	3389
893.697	3268
893.819	3534
893.941	3523
894.064	3496
894.186	3310
894.308	3355
894.43	3473
894.552	3549
894.674	3549
894.796	3332
894.918	3332
895.04	3367
895.161	3462
895.283	3424
895.405	3374
895.526	3405
895.648	3500
895.769	3466
895.891	3492
896.012	3511
896.134	3485
896.255	3454
896.376	3458
896.498	3428
896.619	3466
896.74	3409
896.861	3450
896.982	3717
897.103	3896
897.224	3698
897.345	3549
897.466	3485
897.587	3545
897.708	3682
897.828	3587
897.949	3507
898.07	3359
898.19	3462
898.311	3644
898.431	3485
898.552	3572
898.672	3599
898.792	3633
898.913	3561
899.033	3458
899.153	3336
899.273	3218
899.393	3325
899.513	3340
899.633	3382
899.753	3409
899.873	3359
899.993	3424
900.113	3420
900.232	3428
900.352	3412
900.472	3332
900.591	3245
900.711	3359
900.83	3256
900.95	3447
901.069	3534
901.189	3374
901.308	3195
901.427	3165
901.546	3226
901.665	3355
901.784	3351
901.904	3256
902.023	3203
902.141	3070
902.26	3032
902.379	3199
902.498	3108
902.617	3074
902.735	3226
902.854	3275
902.973	3272
903.091	3123
903.21	3112
903.328	3173
903.446	3123
903.565	3127
903.683	3214
903.801	3188
903.919	3272
904.038	3321
904.156	3173
904.274	3348
904.392	3294
904.51	3329
904.627	3389
904.745	3488
904.863	3511
904.981	3306
905.098	3211
905.216	3291
905.334	3302
905.451	3351
905.569	3332
905.686	3450
905.803	3450
905.921	3344
906.038	3439
906.155	3386
906.272	3291
906.389	3367
906.506	3287
906.623	3302
906.74	3321
906.857	3260
906.974	3291
907.091	3511
907.208	3599
907.324	3523
907.441	3428
907.557	3283
907.674	3260
907.79	3317
907.907	3336
908.023	3378
908.139	3393
908.256	3370
908.372	3412
908.488	3397
908.604	3317
908.72	3275
908.836	3329
908.952	3310
909.068	3393
909.184	3519
909.3	3412
909.415	3519
909.531	3485
909.647	3310
909.762	3344
909.878	3340
909.993	3378
910.108	3363
910.224	3344
910.339	3466
910.454	3363
910.57	3359
910.685	3256
910.8	3633
910.915	3553
911.03	3485
911.145	3317
911.259	3302
911.374	3359
911.489	3275
911.604	3268
911.718	3142
911.833	3188
911.947	3055
912.062	3013
912.176	3226
912.291	3226
912.405	3268
912.519	3466
912.633	3485
912.748	3348
912.862	3329
912.976	3180
913.09	3085
913.204	3176
913.318	3199
913.431	3374
913.545	3367
913.659	3462
913.772	3348
913.886	3230
914	3241
914.113	3401
914.226	3428
914.34	3393
914.453	3237
914.566	3428
914.68	3317
914.793	3340
914.906	3192
915.019	3135
915.132	3108
915.245	3222
915.358	3264
915.47	3279
915.583	3253
915.696	3378
915.809	3447
915.921	3447
916.034	3275
916.146	3317
916.259	3272
916.371	3431
916.483	3382
916.595	3294
916.708	3401
916.82	3351
916.932	3348
917.044	3370
917.156	3359
917.268	3306
917.38	3306
917.491	3355
917.603	3382
917.715	3488
917.826	3496
917.938	3431
918.049	3321
918.161	3462
918.272	3614
918.384	3568
918.495	3545
918.606	3393
918.717	3310
918.828	3428
918.939	3454
919.05	3325
919.161	3382
919.272	3199
919.383	3332
919.494	3515
919.604	3724
919.715	3534
919.826	3447
919.936	3469
920.047	3622
920.157	3606
920.267	3789
920.378	3633
920.488	3614
920.598	3812
920.708	3968
920.818	3846
920.928	3880
921.038	4120
921.148	4040
921.258	3762
921.368	3629
921.477	3599
921.587	3584
921.697	3469
921.806	3675
921.916	3538
922.025	3378
922.134	3378
922.244	3348
922.353	3469
922.462	3302
922.571	3241
922.68	3138
922.789	3119
922.898	3165
923.007	3135
923.116	3264
923.224	3211
923.333	3226
923.442	3097
923.55	3146
923.659	3165
923.767	3272
923.876	3135
923.984	3291
924.092	3150
924.201	3222
924.309	3214
924.417	3218
924.525	3226
924.633	3287
924.741	4215
924.849	3077
924.956	3298
925.064	3154
925.172	3070
925.279	3150
925.387	3230
925.494	3207
925.602	3336
925.709	3378
925.816	3199
925.924	3321
926.031	3397
926.138	3329
926.245	3397
926.352	3249
926.459	3439
926.566	3481
926.673	3344
926.779	3302
926.886	3294
926.993	3176
927.099	3161
927.206	3131
927.312	3138
927.419	3283
927.525	3218
927.631	3329
927.737	3142
927.843	3146
927.95	3085
928.056	3135
928.162	3195
928.267	3283
928.373	3949
928.479	3302
928.585	3085
928.69	3233
928.796	3275
928.901	3180
929.007	3093
929.112	3237
929.218	3157
929.323	3173
929.428	3207
929.533	3340
929.638	3119
929.743	3222
929.848	3287
929.953	3214
930.058	3180
930.163	3047
930.267	3093
930.372	3249
930.477	3047
930.581	3329
930.685	3211
930.79	3062
930.894	3157
930.998	3123
931.103	3325
931.207	2967
931.311	2998
931.415	2971
931.519	2823
931.623	2845
