Data from test_V78500241_51.txt Node
Date: Fri Mar 25 16:15:33 CST 2022
User: usil
Spectrometer: V785-0024
Trigger mode: 0
Integration Time (sec): 4.000000E-1
Scans to average: 1
Nonlinearity correction enabled: false
Boxcar width: 0
Storing dark spectrum: false
XAxis mode: Wavelengths
Number of Pixels in Spectrum: 1024
>>>>>Begin Spectral Data<<<<<
801.071	2941
801.214	2998
801.356	2960
801.499	2971
801.641	2895
801.783	2998
801.926	3108
802.068	2998
802.211	3028
802.353	3093
802.496	3017
802.638	3058
802.78	3135
802.923	3100
803.065	3051
803.208	2937
803.35	2948
803.492	2998
803.635	2986
803.777	2804
803.919	2925
804.061	3275
804.204	3020
804.346	2986
804.488	2872
804.63	3081
804.773	2937
804.915	2990
805.057	3161
805.199	3032
805.341	2998
805.483	3062
805.626	3074
805.768	3043
805.91	3142
806.052	3180
806.194	3085
806.336	3279
806.478	3089
806.62	3017
806.762	3036
806.904	3100
807.046	3226
807.188	3013
807.33	2971
807.472	3039
807.614	2986
807.756	3051
807.898	2998
808.04	2956
808.182	3009
808.324	3013
808.465	2914
808.607	2918
808.749	2864
808.891	2887
809.033	3058
809.174	3032
809.316	2925
809.458	2948
809.6	2819
809.741	2823
809.883	2826
810.025	2914
810.166	2899
810.308	2891
810.45	2925
810.591	2849
810.733	2815
810.875	2895
811.016	2849
811.158	2781
811.299	2861
811.441	3001
811.582	2925
811.724	2853
811.865	2880
812.007	2967
812.148	2933
812.29	2895
812.431	2922
812.573	2986
812.714	3013
812.855	3104
812.997	3097
813.138	3173
813.279	3081
813.421	3028
813.562	2979
813.703	2902
813.845	2906
813.986	2788
814.127	2773
814.268	2853
814.41	2868
814.551	2819
814.692	2925
814.833	2880
814.974	2960
815.115	3043
815.256	2895
815.397	2880
815.539	2925
815.68	2845
815.821	2830
815.962	2994
816.103	2979
816.244	2944
816.385	2922
816.526	3024
816.666	2994
816.807	2769
816.948	2956
817.089	2933
817.23	2937
817.371	2887
817.512	2834
817.653	2887
817.793	2868
817.934	2899
818.075	3032
818.216	3005
818.356	3074
818.497	2902
818.638	2815
818.778	2906
818.919	2853
819.06	2845
819.2	2952
819.341	2842
819.481	2899
819.622	2967
819.762	3142
819.903	3074
820.043	2967
820.184	2914
820.324	2960
820.465	3085
820.605	3081
820.746	3089
820.886	2971
821.026	3116
821.167	3245
821.307	3264
821.447	3340
821.588	3264
821.728	3245
821.868	3226
822.008	3142
822.149	3241
822.289	3287
822.429	3131
822.569	3138
822.709	3218
822.849	3089
822.99	3131
823.13	3195
823.27	3233
823.41	3146
823.55	3226
823.69	3184
823.83	3165
823.97	3180
824.11	3062
824.25	3051
824.389	3097
824.529	3154
824.669	3135
824.809	3245
824.949	3302
825.089	3279
825.228	3222
825.368	3058
825.508	2967
825.648	3005
825.787	3036
825.927	3055
826.067	3024
826.206	3001
826.346	3039
826.485	3154
826.625	3180
826.765	3313
826.904	3218
827.044	3032
827.183	2979
827.323	2868
827.462	3017
827.601	2971
827.741	2952
827.88	3001
828.02	2883
828.159	3017
828.298	3097
828.437	3154
828.577	3108
828.716	3279
828.855	3131
828.994	2971
829.134	2929
829.273	2948
829.412	2933
829.551	2925
829.69	2929
829.829	3039
829.968	3180
830.107	3062
830.246	3051
830.385	2956
830.524	2922
830.663	2895
830.802	2796
830.941	2701
831.08	2682
831.219	2796
831.357	2785
831.496	3013
831.635	2788
831.774	2693
831.913	2682
832.051	2579
832.19	2636
832.329	2731
832.467	2583
832.606	2522
832.744	2602
832.883	2617
833.022	2648
833.16	2655
833.299	2727
833.437	2750
833.576	2697
833.714	2750
833.852	2773
833.991	2792
834.129	2883
834.267	2876
834.406	2815
834.544	2899
834.682	2944
834.821	2902
834.959	3123
835.097	2914
835.235	3135
835.373	3039
835.511	3074
835.65	2982
835.788	3036
835.926	2861
836.064	2830
836.202	2883
836.34	3108
836.478	3203
836.615	3093
836.753	3184
836.891	3237
837.029	3173
837.167	3157
837.305	3138
837.443	3119
837.58	3009
837.718	3161
837.856	3131
837.993	3047
838.131	3142
838.269	3161
838.406	3161
838.544	3119
838.681	2952
838.819	2963
838.956	2849
839.094	2845
839.231	2971
839.369	3077
839.506	3424
839.643	3268
839.781	3032
839.918	2979
840.055	3112
840.193	3066
840.33	3123
840.467	3131
840.604	3188
840.742	3416
840.879	3070
841.016	3097
841.153	3135
841.29	3370
841.427	3321
841.564	3336
841.701	3302
841.838	3260
841.975	3214
842.112	3279
842.249	3112
842.385	3085
842.522	3306
842.659	3127
842.796	3138
842.933	3131
843.069	3085
843.206	3081
843.343	3222
843.479	3127
843.616	3176
843.752	2941
843.889	2891
844.025	3119
844.162	2922
844.298	3108
844.435	3020
844.571	2990
844.708	3089
844.844	3237
844.98	3283
845.117	3272
845.253	3070
845.389	3058
845.525	3169
845.661	3138
845.798	3081
845.934	3150
846.07	3085
846.206	3260
846.342	3382
846.478	3291
846.614	3119
846.75	3055
846.886	3066
847.022	3287
847.158	3214
847.294	3237
847.429	3291
847.565	3256
847.701	3564
847.837	3093
847.972	3032
848.108	3192
848.244	3165
848.379	3043
848.515	2963
848.65	2971
848.786	2982
848.921	3070
849.057	3142
849.192	3203
849.328	3112
849.463	3157
849.598	3112
849.734	3070
849.869	2998
850.004	2986
850.14	3039
850.275	2933
850.41	2883
850.545	2902
850.68	2975
850.815	2986
850.95	2998
851.085	3207
851.22	3161
851.355	3036
851.49	3032
851.625	3005
851.76	3043
851.895	3020
852.03	2971
852.165	3062
852.299	3157
852.434	3230
852.569	3161
852.703	3203
852.838	3283
852.973	3409
853.107	3351
853.242	3176
853.376	3123
853.511	3009
853.645	3081
853.78	3283
853.914	3154
854.048	3161
854.183	3135
854.317	3165
854.451	3359
854.585	3176
854.72	3081
854.854	3241
854.988	3085
855.122	3108
855.256	3039
855.39	3116
855.524	3275
855.658	3233
855.792	3176
855.926	3230
856.06	3249
856.194	3310
856.327	3184
856.461	3135
856.595	3135
856.729	3142
856.862	3275
856.996	3233
857.13	3218
857.263	3272
857.397	3325
857.53	3192
857.664	3237
857.797	3237
857.931	3294
858.064	3207
858.197	3253
858.331	3161
858.464	3116
858.597	3020
858.731	3100
858.864	3165
858.997	3108
859.13	3199
859.263	3226
859.396	3230
859.529	3157
859.662	3085
859.795	3047
859.928	3195
860.061	3344
860.194	3351
860.327	3195
860.46	3138
860.592	3287
860.725	3313
860.858	3291
860.99	3165
861.123	3104
861.256	3119
861.388	3169
861.521	3896
861.653	3051
861.786	3013
861.918	3081
862.05	3123
862.183	3119
862.315	3222
862.447	3241
862.58	3123
862.712	3005
862.844	2922
862.976	3085
863.108	3039
863.24	3401
863.372	2906
863.504	2979
863.636	2963
863.768	3104
863.9	2986
864.032	2929
864.164	2971
864.296	3058
864.428	3108
864.559	3135
864.691	3093
864.823	3104
864.954	3062
865.086	3081
865.217	3062
865.349	3024
865.48	3028
865.612	3081
865.743	3207
865.875	3032
866.006	2967
866.137	3009
866.269	3001
866.4	2994
866.531	2982
866.662	2899
866.793	2937
866.924	2952
867.055	2975
867.186	2986
867.317	2868
867.448	2849
867.579	2872
867.71	2849
867.841	2864
867.972	2944
868.103	2937
868.233	2910
868.364	2906
868.495	2944
868.625	3150
868.756	3192
868.886	2998
869.017	3066
869.147	3214
869.278	3180
869.408	3058
869.539	3058
869.669	3154
869.799	3070
869.929	3165
870.06	3161
870.19	3340
870.32	3321
870.45	3329
870.58	3405
870.71	3534
870.84	3492
870.97	3317
871.1	3260
871.23	3561
871.36	3507
871.489	3367
871.619	3416
871.749	3435
871.879	3530
872.008	3500
872.138	3401
872.267	3294
872.397	3192
872.526	3169
872.656	3055
872.785	3123
872.915	3291
873.044	3340
873.173	3245
873.303	3275
873.432	3241
873.561	3237
873.69	3180
873.819	3192
873.948	3199
874.077	3150
874.206	3047
874.335	3127
874.464	3245
874.593	3397
874.722	3279
874.851	3409
874.979	3405
875.108	3313
875.237	3218
875.365	3218
875.494	3203
875.623	3313
875.751	3138
875.88	3188
876.008	3226
876.136	3264
876.265	3401
876.393	3542
876.521	3447
876.65	3416
876.778	3393
876.906	3294
877.034	3253
877.162	3260
877.29	3211
877.418	3306
877.546	3279
877.674	3321
877.802	3218
877.93	3264
878.058	3214
878.185	3119
878.313	3237
878.441	3249
878.568	3100
878.696	3207
878.824	3249
878.951	3317
879.079	3454
879.206	3656
879.333	3485
879.461	3355
879.588	3416
879.715	3549
879.842	3641
879.97	3393
880.097	3222
880.224	3180
880.351	3207
880.478	3275
880.605	3195
880.732	3245
880.859	3538
880.986	3374
881.112	3348
881.239	3249
881.366	3135
881.493	3047
881.619	3077
881.746	3066
881.872	3135
881.999	3154
882.125	3161
882.252	3313
882.378	3336
882.505	3496
882.631	3329
882.757	3207
882.883	3222
883.01	3264
883.136	3230
883.262	3077
883.388	3169
883.514	3378
883.64	3412
883.766	3378
883.892	3211
884.018	3268
884.143	3462
884.269	3599
884.395	3199
884.52	3214
884.646	3214
884.772	3157
884.897	3116
885.023	3222
885.148	3397
885.274	3378
885.399	3382
885.524	3306
885.65	3298
885.775	3367
885.9	3317
886.025	3469
886.15	3370
886.275	3329
886.4	3313
886.525	3374
886.65	3310
886.775	3336
886.9	3576
887.025	3720
887.149	3428
887.274	3321
887.399	3241
887.523	3233
887.648	3237
887.773	3211
887.897	3412
888.021	3443
888.146	3329
888.27	3485
888.395	3587
888.519	3492
888.643	3519
888.767	3511
888.891	3351
889.015	3313
889.139	3367
889.263	3291
889.387	3439
889.511	3545
889.635	3511
889.759	3367
889.883	3321
890.006	3409
890.13	3545
890.254	3291
890.377	3370
890.501	3241
890.624	3207
890.748	3348
890.871	3245
890.995	3116
891.118	3081
891.241	3245
891.364	3264
891.488	3344
891.611	3188
891.734	3256
891.857	3310
891.98	3264
892.103	3367
892.226	3317
892.349	3218
892.471	3169
892.594	3249
892.717	3313
892.839	3329
892.962	3340
893.085	3393
893.207	3359
893.33	3241
893.452	3268
893.575	3378
893.697	3313
893.819	3500
893.941	3504
894.064	3454
894.186	3287
894.308	3325
894.43	3450
894.552	3576
894.674	3473
894.796	3272
894.918	3302
895.04	3329
895.161	3481
895.283	3420
895.405	3336
895.526	3412
895.648	3485
895.769	3458
895.891	3511
896.012	3477
896.134	3500
896.255	3450
896.376	3435
896.498	3420
896.619	3450
896.74	3401
896.861	3409
896.982	3717
897.103	3896
897.224	3614
897.345	3553
897.466	3477
897.587	3545
897.708	3637
897.828	3648
897.949	3481
898.07	3370
898.19	3443
898.311	3644
898.431	3492
898.552	3549
898.672	3667
898.792	3572
898.913	3542
899.033	3431
899.153	3367
899.273	3256
899.393	3306
899.513	3393
899.633	3359
899.753	3370
899.873	3340
899.993	3443
900.113	3332
900.232	3393
900.352	3359
900.472	3302
900.591	3233
900.711	3313
900.83	3291
900.95	3469
901.069	3523
901.189	3389
901.308	3211
901.427	3150
901.546	3211
901.665	3340
901.784	3378
901.904	3249
902.023	3192
902.141	3047
902.26	3051
902.379	3142
902.498	3093
902.617	3089
902.735	3268
902.854	3264
902.973	3272
903.091	3051
903.21	3108
903.328	3195
903.446	3131
903.565	3180
903.683	3233
903.801	3173
903.919	3291
904.038	3302
904.156	3192
904.274	3291
904.392	3287
904.51	3359
904.627	3382
904.745	3473
904.863	3561
904.981	3313
905.098	3222
905.216	3256
905.334	3363
905.451	3355
905.569	3325
905.686	3492
905.803	3424
905.921	3359
906.038	3458
906.155	3412
906.272	3329
906.389	3386
906.506	3253
906.623	3306
906.74	3298
906.857	3195
906.974	3302
907.091	3485
907.208	3618
907.324	3492
907.441	3412
907.557	3260
907.674	3272
907.79	3253
907.907	3332
908.023	3424
908.139	3401
908.256	3359
908.372	3382
908.488	3382
908.604	3298
908.72	3306
908.836	3336
908.952	3351
909.068	3412
909.184	3542
909.3	3409
909.415	3584
909.531	3564
909.647	3321
909.762	3329
909.878	3321
909.993	3412
910.108	3397
910.224	3389
910.339	3428
910.454	3397
910.57	3336
910.685	3294
910.8	3618
910.915	3568
911.03	3428
911.145	3317
911.259	3332
911.374	3397
911.489	3306
911.604	3291
911.718	3207
911.833	3195
911.947	3051
912.062	2990
912.176	3211
912.291	3253
912.405	3275
912.519	3481
912.633	3504
912.748	3367
912.862	3287
912.976	3211
913.09	3104
913.204	3150
913.318	3272
913.431	3374
913.545	3386
913.659	3443
913.772	3393
913.886	3287
914	3256
914.113	3420
914.226	3420
914.34	3458
914.453	3283
914.566	3416
914.68	3332
914.793	3374
914.906	3188
915.019	3199
915.132	3142
915.245	3233
915.358	3184
915.47	3275
915.583	3249
915.696	3306
915.809	3454
915.921	3462
916.034	3325
916.146	3294
916.259	3268
916.371	3447
916.483	3412
916.595	3302
916.708	3363
916.82	3409
916.932	3386
917.044	3378
917.156	3378
917.268	3313
917.38	3336
917.491	3321
917.603	3405
917.715	3515
917.826	3485
917.938	3439
918.049	3344
918.161	3504
918.272	3622
918.384	3622
918.495	3523
918.606	3370
918.717	3313
918.828	3420
918.939	3473
919.05	3382
919.161	3439
919.272	3222
919.383	3325
919.494	3519
919.604	3720
919.715	3523
919.826	3454
919.936	3523
920.047	3637
920.157	3568
920.267	3850
920.378	3644
920.488	3629
920.598	3800
920.708	4032
920.818	3838
920.928	3865
921.038	4093
921.148	4021
921.258	3774
921.368	3717
921.477	3656
921.587	3587
921.697	3511
921.806	3648
921.916	3553
922.025	3401
922.134	3409
922.244	3389
922.353	3466
922.462	3279
922.571	3279
922.68	3169
922.789	3108
922.898	3199
923.007	3081
923.116	3249
923.224	3203
923.333	3256
923.442	3146
923.55	3119
923.659	3165
923.767	3253
923.876	3100
923.984	3321
924.092	3104
924.201	3230
924.309	3279
924.417	3268
924.525	3256
924.633	3268
924.741	4211
924.849	3100
924.956	3329
925.064	3131
925.172	3066
925.279	3157
925.387	3241
925.494	3233
925.602	3386
925.709	3370
925.816	3256
925.924	3313
926.031	3420
926.138	3382
926.245	3397
926.352	3291
926.459	3485
926.566	3561
926.673	3363
926.779	3287
926.886	3283
926.993	3173
927.099	3188
927.206	3112
927.312	3142
927.419	3283
927.525	3233
927.631	3294
927.737	3184
927.843	3169
927.95	3089
928.056	3169
928.162	3245
928.267	3272
928.373	3854
928.479	3355
928.585	3093
928.69	3241
928.796	3310
928.901	3233
929.007	3081
929.112	3275
929.218	3214
929.323	3218
929.428	3207
929.533	3393
929.638	3161
929.743	3214
929.848	3283
929.953	3253
930.058	3173
930.163	3032
930.267	3081
930.372	3260
930.477	3058
930.581	3329
930.685	3214
930.79	3093
930.894	3150
930.998	3123
931.103	3325
931.207	2975
931.311	2994
931.415	2914
931.519	2819
931.623	2849
