Data from test_V78500241_1304.txt Node
Date: Fri Mar 25 16:24:14 CST 2022
User: usil
Spectrometer: V785-0024
Trigger mode: 0
Integration Time (sec): 4.000000E-1
Scans to average: 1
Nonlinearity correction enabled: false
Boxcar width: 0
Storing dark spectrum: false
XAxis mode: Wavelengths
Number of Pixels in Spectrum: 1024
>>>>>Begin Spectral Data<<<<<
801.071	2937
801.214	2963
801.356	2883
801.499	2941
801.641	2887
801.783	2918
801.926	3024
802.068	2963
802.211	3017
802.353	3062
802.496	2952
802.638	3020
802.78	3051
802.923	3093
803.065	2990
803.208	2914
803.35	2918
803.492	2922
803.635	2948
803.777	2746
803.919	2857
804.061	3203
804.204	2963
804.346	2922
804.488	2842
804.63	2971
804.773	2902
804.915	2891
805.057	3070
805.199	2937
805.341	2975
805.483	3043
805.626	2971
805.768	2956
805.91	3081
806.052	3104
806.194	3024
806.336	3226
806.478	3005
806.62	2952
806.762	2963
806.904	3077
807.046	3161
807.188	2956
807.33	2933
807.472	2979
807.614	2895
807.756	2990
807.898	2941
808.04	2872
808.182	2948
808.324	2967
808.465	2925
808.607	2880
808.749	2838
808.891	2872
809.033	2963
809.174	2944
809.316	2902
809.458	2922
809.6	2735
809.741	2731
809.883	2788
810.025	2845
810.166	2857
810.308	2849
810.45	2857
810.591	2792
810.733	2754
810.875	2853
811.016	2769
811.158	2746
811.299	2796
811.441	2925
811.582	2853
811.724	2781
811.865	2819
812.007	2895
812.148	2895
812.29	2807
812.431	2853
812.573	2918
812.714	2948
812.855	3024
812.997	3058
813.138	3135
813.279	3024
813.421	2967
813.562	2990
813.703	2849
813.845	2880
813.986	2788
814.127	2746
814.268	2826
814.41	2830
814.551	2804
814.692	2838
814.833	2804
814.974	2891
815.115	2956
815.256	2815
815.397	2830
815.539	2868
815.68	2800
815.821	2773
815.962	2922
816.103	2876
816.244	2861
816.385	2887
816.526	2971
816.666	2895
816.807	2746
816.948	2891
817.089	2899
817.23	2868
817.371	2762
817.512	2815
817.653	2819
817.793	2807
817.934	2899
818.075	2922
818.216	2994
818.356	2990
818.497	2842
818.638	2762
818.778	2792
818.919	2769
819.06	2746
819.2	2883
819.341	2796
819.481	2823
819.622	2895
819.762	3043
819.903	3100
820.043	2895
820.184	2876
820.324	2933
820.465	2990
820.605	3013
820.746	3009
820.886	2918
821.026	3097
821.167	3150
821.307	3302
821.447	3317
821.588	3188
821.728	3218
821.868	3237
822.008	3077
822.149	3176
822.289	3241
822.429	3093
822.569	3116
822.709	3203
822.849	3055
822.99	3116
823.13	3154
823.27	3226
823.41	3119
823.55	3169
823.69	3161
823.83	3192
823.97	3116
824.11	3032
824.25	3032
824.389	3108
824.529	3138
824.669	3070
824.809	3207
824.949	3283
825.089	3222
825.228	3154
825.368	3066
825.508	3013
825.648	2982
825.787	3066
825.927	3013
826.067	2998
826.206	2990
826.346	3070
826.485	3119
826.625	3161
826.765	3294
826.904	3233
827.044	3013
827.183	2986
827.323	2922
827.462	3020
827.601	2971
827.741	2971
827.88	2975
828.02	2887
828.159	3013
828.298	3047
828.437	3192
828.577	3089
828.716	3291
828.855	3142
828.994	2971
829.134	2922
829.273	2971
829.412	2899
829.551	2864
829.69	2914
829.829	3028
829.968	3127
830.107	3066
830.246	3097
830.385	2960
830.524	2933
830.663	2891
830.802	2781
830.941	2670
831.08	2708
831.219	2792
831.357	2800
831.496	2975
831.635	2758
831.774	2670
831.913	2682
832.051	2568
832.19	2613
832.329	2750
832.467	2571
832.606	2507
832.744	2621
832.883	2613
833.022	2610
833.16	2697
833.299	2712
833.437	2720
833.576	2743
833.714	2785
833.852	2746
833.991	2800
834.129	2895
834.267	2902
834.406	2838
834.544	2899
834.682	2914
834.821	2918
834.959	3093
835.097	2937
835.235	3089
835.373	3043
835.511	3055
835.65	3017
835.788	2990
835.926	2876
836.064	2842
836.202	2842
836.34	3150
836.478	3195
836.615	3077
836.753	3146
836.891	3260
837.029	3207
837.167	3123
837.305	3108
837.443	3058
837.58	3013
837.718	3195
837.856	3123
837.993	3093
838.131	3131
838.269	3116
838.406	3131
838.544	3119
838.681	2944
838.819	2952
838.956	2804
839.094	2876
839.231	2925
839.369	3047
839.506	3397
839.643	3249
839.781	3058
839.918	3001
840.055	3081
840.193	3062
840.33	3138
840.467	3127
840.604	3169
840.742	3447
840.879	3108
841.016	3051
841.153	3123
841.29	3367
841.427	3317
841.564	3291
841.701	3329
841.838	3214
841.975	3180
842.112	3253
842.249	3161
842.385	3104
842.522	3298
842.659	3097
842.796	3085
842.933	3119
843.069	3047
843.206	3085
843.343	3222
843.479	3116
843.616	3138
843.752	2918
843.889	2902
844.025	3142
844.162	2902
844.298	3100
844.435	2967
844.571	2952
844.708	3100
844.844	3241
844.98	3264
845.117	3199
845.253	3074
845.389	3001
845.525	3142
845.661	3127
845.798	3047
845.934	3127
846.07	3112
846.206	3245
846.342	3344
846.478	3241
846.614	3119
846.75	3097
846.886	3070
847.022	3260
847.158	3165
847.294	3188
847.429	3279
847.565	3214
847.701	3515
847.837	3020
847.972	3043
848.108	3154
848.244	3142
848.379	2979
848.515	2948
848.65	2967
848.786	2982
848.921	3062
849.057	3119
849.192	3180
849.328	3074
849.463	3116
849.598	3051
849.734	3062
849.869	3024
850.004	2941
850.14	2979
850.275	2918
850.41	2857
850.545	2918
850.68	2941
850.815	2986
850.95	2990
851.085	3226
851.22	3104
851.355	3097
851.49	2979
851.625	3039
851.76	3062
851.895	2960
852.03	2952
852.165	3047
852.299	3138
852.434	3195
852.569	3184
852.703	3211
852.838	3256
852.973	3363
853.107	3367
853.242	3180
853.376	3131
853.511	2979
853.645	3081
853.78	3260
853.914	3138
854.048	3119
854.183	3100
854.317	3165
854.451	3283
854.585	3146
854.72	3081
854.854	3199
854.988	3085
855.122	3127
855.256	2982
855.39	3150
855.524	3291
855.658	3214
855.792	3157
855.926	3214
856.06	3222
856.194	3310
856.327	3184
856.461	3112
856.595	3131
856.729	3100
856.862	3241
856.996	3146
857.13	3199
857.263	3264
857.397	3291
857.53	3161
857.664	3188
857.797	3249
857.931	3283
858.064	3230
858.197	3230
858.331	3165
858.464	3104
858.597	3039
858.731	3081
858.864	3142
858.997	3116
859.13	3138
859.263	3142
859.396	3218
859.529	3127
859.662	3112
859.795	3032
859.928	3195
860.061	3310
860.194	3302
860.327	3142
860.46	3138
860.592	3275
860.725	3214
860.858	3264
860.99	3093
861.123	3077
861.256	3100
861.388	3154
861.521	3743
861.653	3066
861.786	3055
861.918	3043
862.05	3093
862.183	3138
862.315	3195
862.447	3192
862.58	3116
862.712	2963
862.844	2906
862.976	3043
863.108	3051
863.24	3344
863.372	2853
863.504	3009
863.636	3009
863.768	3005
863.9	3020
864.032	2941
864.164	2998
864.296	3032
864.428	3081
864.559	3116
864.691	3093
864.823	3077
864.954	3089
865.086	3028
865.217	2994
865.349	2956
865.48	2956
865.612	3051
865.743	3154
865.875	2994
866.006	2944
866.137	3013
866.269	2967
866.4	2960
866.531	2971
866.662	2910
866.793	2906
866.924	2937
867.055	2967
867.186	2929
867.317	2914
867.448	2842
867.579	2872
867.71	2868
867.841	2830
867.972	2906
868.103	2922
868.233	2902
868.364	2891
868.495	2944
868.625	3085
868.756	3199
868.886	2990
869.017	3001
869.147	3207
869.278	3146
869.408	3097
869.539	3005
869.669	3119
869.799	3074
869.929	3142
870.06	3131
870.19	3340
870.32	3268
870.45	3329
870.58	3420
870.71	3447
870.84	3466
870.97	3302
871.1	3253
871.23	3477
871.36	3492
871.489	3397
871.619	3401
871.749	3420
871.879	3466
872.008	3488
872.138	3393
872.267	3260
872.397	3184
872.526	3116
872.656	3028
872.785	3089
872.915	3260
873.044	3283
873.173	3272
873.303	3253
873.432	3272
873.561	3272
873.69	3188
873.819	3150
873.948	3195
874.077	3108
874.206	3062
874.335	3119
874.464	3195
874.593	3367
874.722	3256
874.851	3405
874.979	3386
875.108	3336
875.237	3203
875.365	3214
875.494	3169
875.623	3287
875.751	3123
875.88	3157
876.008	3207
876.136	3218
876.265	3405
876.393	3545
876.521	3416
876.65	3412
876.778	3336
876.906	3233
877.034	3275
877.162	3199
877.29	3184
877.418	3275
877.546	3241
877.674	3233
877.802	3214
877.93	3214
878.058	3157
878.185	3112
878.313	3207
878.441	3173
878.568	3081
878.696	3165
878.824	3233
878.951	3329
879.079	3458
879.206	3637
879.333	3462
879.461	3355
879.588	3363
879.715	3481
879.842	3622
879.97	3389
880.097	3214
880.224	3131
880.351	3169
880.478	3237
880.605	3192
880.732	3211
880.859	3507
880.986	3291
881.112	3382
881.239	3218
881.366	3085
881.493	3077
881.619	3039
881.746	3085
881.872	3138
881.999	3085
882.125	3169
882.252	3241
882.378	3302
882.505	3431
882.631	3302
882.757	3154
882.883	3268
883.01	3222
883.136	3169
883.262	3127
883.388	3142
883.514	3272
883.64	3382
883.766	3321
883.892	3188
884.018	3230
884.143	3378
884.269	3496
884.395	3161
884.52	3146
884.646	3180
884.772	3119
884.897	3116
885.023	3199
885.148	3321
885.274	3397
885.399	3344
885.524	3310
885.65	3253
885.775	3329
885.9	3283
886.025	3397
886.15	3348
886.275	3298
886.4	3245
886.525	3359
886.65	3272
886.775	3291
886.9	3466
887.025	3648
887.149	3416
887.274	3256
887.399	3188
887.523	3192
887.648	3192
887.773	3188
887.897	3405
888.021	3424
888.146	3325
888.27	3454
888.395	3519
888.519	3412
888.643	3420
888.767	3447
888.891	3313
889.015	3272
889.139	3287
889.263	3260
889.387	3435
889.511	3538
889.635	3458
889.759	3329
889.883	3306
890.006	3382
890.13	3534
890.254	3260
890.377	3367
890.501	3218
890.624	3150
890.748	3287
890.871	3173
890.995	3081
891.118	3093
891.241	3207
891.364	3256
891.488	3302
891.611	3203
891.734	3199
891.857	3256
891.98	3241
892.103	3359
892.226	3214
892.349	3203
892.471	3135
892.594	3253
892.717	3306
892.839	3264
892.962	3264
893.085	3359
893.207	3260
893.33	3161
893.452	3195
893.575	3313
893.697	3233
893.819	3504
893.941	3507
894.064	3481
894.186	3256
894.308	3310
894.43	3447
894.552	3496
894.674	3473
894.796	3272
894.918	3313
895.04	3310
895.161	3443
895.283	3359
895.405	3340
895.526	3401
895.648	3447
895.769	3409
895.891	3466
896.012	3504
896.134	3450
896.255	3386
896.376	3363
896.498	3332
896.619	3450
896.74	3374
896.861	3393
896.982	3705
897.103	3854
897.224	3595
897.345	3500
897.466	3466
897.587	3481
897.708	3614
897.828	3564
897.949	3439
898.07	3332
898.19	3428
898.311	3599
898.431	3454
898.552	3515
898.672	3606
898.792	3542
898.913	3542
899.033	3420
899.153	3294
899.273	3256
899.393	3287
899.513	3317
899.633	3321
899.753	3317
899.873	3275
899.993	3389
900.113	3310
900.232	3344
900.352	3340
900.472	3287
900.591	3230
900.711	3302
900.83	3211
900.95	3405
901.069	3492
901.189	3351
901.308	3161
901.427	3142
901.546	3195
901.665	3306
901.784	3283
901.904	3176
902.023	3135
902.141	3013
902.26	3001
902.379	3138
902.498	3047
902.617	3017
902.735	3211
902.854	3249
902.973	3214
903.091	3024
903.21	3093
903.328	3157
903.446	3138
903.565	3138
903.683	3173
903.801	3150
903.919	3253
904.038	3287
904.156	3161
904.274	3283
904.392	3245
904.51	3287
904.627	3363
904.745	3466
904.863	3511
904.981	3310
905.098	3161
905.216	3211
905.334	3298
905.451	3332
905.569	3310
905.686	3439
905.803	3412
905.921	3275
906.038	3439
906.155	3397
906.272	3268
906.389	3367
906.506	3260
906.623	3287
906.74	3256
906.857	3176
906.974	3226
907.091	3458
907.208	3580
907.324	3511
907.441	3386
907.557	3241
907.674	3253
907.79	3214
907.907	3260
908.023	3359
908.139	3359
908.256	3317
908.372	3386
908.488	3367
908.604	3268
908.72	3264
908.836	3291
908.952	3302
909.068	3355
909.184	3485
909.3	3416
909.415	3511
909.531	3492
909.647	3302
909.762	3272
909.878	3272
909.993	3382
910.108	3329
910.224	3325
910.339	3382
910.454	3329
910.57	3268
910.685	3260
910.8	3549
910.915	3523
911.03	3435
911.145	3272
911.259	3268
911.374	3306
911.489	3256
911.604	3192
911.718	3074
911.833	3173
911.947	3028
912.062	2960
912.176	3165
912.291	3165
912.405	3245
912.519	3458
912.633	3481
912.748	3340
912.862	3272
912.976	3150
913.09	3062
913.204	3173
913.318	3218
913.431	3317
913.545	3344
913.659	3431
913.772	3332
913.886	3230
914	3199
914.113	3370
914.226	3428
914.34	3348
914.453	3199
914.566	3401
914.68	3279
914.793	3302
914.906	3131
915.019	3085
915.132	3039
915.245	3165
915.358	3161
915.47	3226
915.583	3245
915.696	3272
915.809	3401
915.921	3412
916.034	3287
916.146	3241
916.259	3222
916.371	3405
916.483	3359
916.595	3256
916.708	3359
916.82	3302
916.932	3348
917.044	3336
917.156	3355
917.268	3211
917.38	3313
917.491	3268
917.603	3336
917.715	3428
917.826	3431
917.938	3348
918.049	3253
918.161	3412
918.272	3549
918.384	3591
918.495	3492
918.606	3317
918.717	3283
918.828	3344
918.939	3405
919.05	3313
919.161	3340
919.272	3207
919.383	3256
919.494	3500
919.604	3675
919.715	3500
919.826	3424
919.936	3443
920.047	3606
920.157	3530
920.267	3759
920.378	3580
920.488	3549
920.598	3785
920.708	4029
920.818	3800
920.928	3823
921.038	4006
921.148	3975
921.258	3694
921.368	3633
921.477	3534
921.587	3572
921.697	3504
921.806	3610
921.916	3530
922.025	3336
922.134	3351
922.244	3340
922.353	3397
922.462	3302
922.571	3192
922.68	3119
922.789	3112
922.898	3131
923.007	3097
923.116	3195
923.224	3180
923.333	3157
923.442	3104
923.55	3108
923.659	3127
923.767	3222
923.876	3127
923.984	3233
924.092	3085
924.201	3188
924.309	3241
924.417	3260
924.525	3195
924.633	3241
924.741	4013
924.849	3081
924.956	3241
925.064	3089
925.172	3028
925.279	3051
925.387	3169
925.494	3180
925.602	3363
925.709	3310
925.816	3207
925.924	3268
926.031	3351
926.138	3275
926.245	3351
926.352	3275
926.459	3428
926.566	3477
926.673	3344
926.779	3241
926.886	3249
926.993	3192
927.099	3116
927.206	3097
927.312	3089
927.419	3226
927.525	3222
927.631	3291
927.737	3184
927.843	3127
927.95	3013
928.056	3180
928.162	3157
928.267	3272
928.373	3861
928.479	3291
928.585	3047
928.69	3226
928.796	3253
928.901	3157
929.007	3039
929.112	3176
929.218	3218
929.323	3138
929.428	3131
929.533	3359
929.638	3146
929.743	3180
929.848	3241
929.953	3199
930.058	3131
930.163	2979
930.267	3051
930.372	3199
930.477	3058
930.581	3310
930.685	3230
930.79	3077
930.894	3112
930.998	3062
931.103	3275
931.207	2986
931.311	2963
931.415	2906
931.519	2758
931.623	2781
