Data from test_V78500241_496.txt Node
Date: Fri Mar 25 16:18:38 CST 2022
User: usil
Spectrometer: V785-0024
Trigger mode: 0
Integration Time (sec): 4.000000E-1
Scans to average: 1
Nonlinearity correction enabled: false
Boxcar width: 0
Storing dark spectrum: false
XAxis mode: Wavelengths
Number of Pixels in Spectrum: 1024
>>>>>Begin Spectral Data<<<<<
801.071	2922
801.214	2948
801.356	2902
801.499	2868
801.641	2864
801.783	2952
801.926	3028
802.068	2952
802.211	2998
802.353	3017
802.496	2971
802.638	3009
802.78	3032
802.923	3100
803.065	3001
803.208	2899
803.35	2887
803.492	2960
803.635	2956
803.777	2762
803.919	2830
804.061	3161
804.204	2952
804.346	2895
804.488	2834
804.63	2956
804.773	2868
804.915	2918
805.057	3077
805.199	2941
805.341	2967
805.483	3047
805.626	2986
805.768	2944
805.91	3085
806.052	3066
806.194	3013
806.336	3233
806.478	3017
806.62	2956
806.762	2960
806.904	3039
807.046	3116
807.188	2994
807.33	2883
807.472	2960
807.614	2929
807.756	2994
807.898	2925
808.04	2872
808.182	2925
808.324	2971
808.465	2887
808.607	2853
808.749	2735
808.891	2830
809.033	2975
809.174	2944
809.316	2872
809.458	2857
809.6	2781
809.741	2788
809.883	2766
810.025	2853
810.166	2811
810.308	2842
810.45	2834
810.591	2800
810.733	2792
810.875	2800
811.016	2758
811.158	2731
811.299	2796
811.441	2906
811.582	2887
811.724	2804
811.865	2823
812.007	2902
812.148	2872
812.29	2826
812.431	2872
812.573	2979
812.714	2971
812.855	3043
812.997	3085
813.138	3116
813.279	2990
813.421	2929
813.562	2941
813.703	2891
813.845	2872
813.986	2766
814.127	2720
814.268	2796
814.41	2830
814.551	2838
814.692	2883
814.833	2834
814.974	2887
815.115	2960
815.256	2842
815.397	2830
815.539	2880
815.68	2762
815.821	2811
815.962	2929
816.103	2918
816.244	2857
816.385	2880
816.526	2956
816.666	2937
816.807	2739
816.948	2872
817.089	2880
817.23	2838
817.371	2781
817.512	2792
817.653	2868
817.793	2811
817.934	2876
818.075	2963
818.216	3001
818.356	3017
818.497	2876
818.638	2804
818.778	2845
818.919	2785
819.06	2750
819.2	2864
819.341	2826
819.481	2773
819.622	2906
819.762	3058
819.903	3066
820.043	2910
820.184	2887
820.324	2861
820.465	3005
820.605	2990
820.746	3036
820.886	2899
821.026	3081
821.167	3142
821.307	3214
821.447	3279
821.588	3253
821.728	3222
821.868	3154
822.008	3097
822.149	3192
822.289	3241
822.429	3066
822.569	3077
822.709	3180
822.849	3051
822.99	3077
823.13	3150
823.27	3180
823.41	3066
823.55	3116
823.69	3123
823.83	3195
823.97	3104
824.11	2971
824.25	2960
824.389	3062
824.529	3112
824.669	3058
824.809	3176
824.949	3233
825.089	3188
825.228	3173
825.368	3024
825.508	2982
825.648	2948
825.787	3020
825.927	3009
826.067	2948
826.206	2929
826.346	3077
826.485	3112
826.625	3093
826.765	3249
826.904	3218
827.044	2979
827.183	2952
827.323	2876
827.462	2960
827.601	2902
827.741	2899
827.88	2952
828.02	2815
828.159	2990
828.298	3039
828.437	3089
828.577	3036
828.716	3195
828.855	3058
828.994	2918
829.134	2887
829.273	2933
829.412	2868
829.551	2849
829.69	2876
829.829	2975
829.968	3077
830.107	2982
830.246	3039
830.385	2883
830.524	2902
830.663	2804
830.802	2708
830.941	2625
831.08	2644
831.219	2758
831.357	2739
831.496	2944
831.635	2712
831.774	2648
831.913	2659
832.051	2545
832.19	2564
832.329	2648
832.467	2552
832.606	2469
832.744	2549
832.883	2594
833.022	2579
833.16	2644
833.299	2682
833.437	2663
833.576	2701
833.714	2708
833.852	2735
833.991	2754
834.129	2811
834.267	2807
834.406	2800
834.544	2857
834.682	2868
834.821	2861
834.959	3047
835.097	2887
835.235	3058
835.373	2986
835.511	2990
835.65	2937
835.788	2941
835.926	2823
836.064	2823
836.202	2807
836.34	3093
836.478	3184
836.615	3013
836.753	3127
836.891	3199
837.029	3123
837.167	3093
837.305	3043
837.443	3028
837.58	2994
837.718	3112
837.856	3062
837.993	3039
838.131	3108
838.269	3100
838.406	3089
838.544	3085
838.681	2910
838.819	2906
838.956	2811
839.094	2823
839.231	2883
839.369	3017
839.506	3294
839.643	3211
839.781	2994
839.918	2944
840.055	3009
840.193	3024
840.33	3058
840.467	3077
840.604	3154
840.742	3370
840.879	3062
841.016	3047
841.153	3081
841.29	3340
841.427	3268
841.564	3291
841.701	3306
841.838	3199
841.975	3169
842.112	3184
842.249	3077
842.385	3020
842.522	3222
842.659	3058
842.796	3013
842.933	3097
843.069	3058
843.206	3043
843.343	3161
843.479	3104
843.616	3119
843.752	2902
843.889	2842
844.025	3074
844.162	2864
844.298	3051
844.435	2910
844.571	2929
844.708	3039
844.844	3192
844.98	3218
845.117	3195
845.253	3001
845.389	2971
845.525	3047
845.661	3070
845.798	3039
845.934	3089
846.07	3077
846.206	3184
846.342	3310
846.478	3218
846.614	3055
846.75	3036
846.886	3017
847.022	3207
847.158	3108
847.294	3161
847.429	3207
847.565	3214
847.701	3462
847.837	2994
847.972	2986
848.108	3142
848.244	3123
848.379	2956
848.515	2910
848.65	2929
848.786	2975
848.921	2948
849.057	3062
849.192	3116
849.328	3028
849.463	3097
849.598	3051
849.734	3024
849.869	2960
850.004	2902
850.14	2963
850.275	2906
850.41	2815
850.545	2861
850.68	2948
850.815	2956
850.95	2967
851.085	3184
851.22	3077
851.355	2975
851.49	2960
851.625	2963
851.76	2986
851.895	2910
852.03	2918
852.165	3020
852.299	3070
852.434	3157
852.569	3142
852.703	3176
852.838	3203
852.973	3336
853.107	3317
853.242	3131
853.376	3081
853.511	2971
853.645	3074
853.78	3207
853.914	3123
854.048	3081
854.183	3074
854.317	3154
854.451	3275
854.585	3142
854.72	3100
854.854	3218
854.988	3055
855.122	3070
855.256	2971
855.39	3150
855.524	3264
855.658	3184
855.792	3161
855.926	3199
856.06	3199
856.194	3264
856.327	3150
856.461	3089
856.595	3081
856.729	3135
856.862	3214
856.996	3173
857.13	3241
857.263	3275
857.397	3279
857.53	3165
857.664	3226
857.797	3233
857.931	3321
858.064	3157
858.197	3260
858.331	3142
858.464	3116
858.597	3051
858.731	3131
858.864	3150
858.997	3116
859.13	3218
859.263	3222
859.396	3241
859.529	3119
859.662	3154
859.795	3089
859.928	3211
860.061	3317
860.194	3310
860.327	3157
860.46	3161
860.592	3249
860.725	3222
860.858	3272
860.99	3138
861.123	3100
861.256	3089
861.388	3154
861.521	3831
861.653	3032
861.786	3024
861.918	3058
862.05	3108
862.183	3157
862.315	3184
862.447	3260
862.58	3161
862.712	2963
862.844	2918
862.976	3047
863.108	3039
863.24	3355
863.372	2933
863.504	3005
863.636	2971
863.768	3062
863.9	3017
864.032	2929
864.164	2963
864.296	3047
864.428	3112
864.559	3157
864.691	3093
864.823	3085
864.954	3020
865.086	3093
865.217	3024
865.349	2975
865.48	2994
865.612	3032
865.743	3154
865.875	3005
866.006	2990
866.137	3039
866.269	2963
866.4	2979
866.531	2952
866.662	2933
866.793	2937
866.924	2902
867.055	3009
867.186	2941
867.317	2895
867.448	2876
867.579	2872
867.71	2868
867.841	2872
867.972	2925
868.103	2967
868.233	2895
868.364	2876
868.495	2925
868.625	3104
868.756	3169
868.886	2998
869.017	3055
869.147	3203
869.278	3184
869.408	3085
869.539	3036
869.669	3123
869.799	3055
869.929	3169
870.06	3131
870.19	3351
870.32	3310
870.45	3329
870.58	3386
870.71	3435
870.84	3504
870.97	3313
871.1	3310
871.23	3511
871.36	3485
871.489	3370
871.619	3424
871.749	3424
871.879	3431
872.008	3466
872.138	3367
872.267	3298
872.397	3188
872.526	3150
872.656	3028
872.785	3142
872.915	3233
873.044	3325
873.173	3245
873.303	3291
873.432	3275
873.561	3237
873.69	3169
873.819	3173
873.948	3230
874.077	3104
874.206	3100
874.335	3116
874.464	3237
874.593	3370
874.722	3245
874.851	3405
874.979	3378
875.108	3340
875.237	3184
875.365	3176
875.494	3157
875.623	3313
875.751	3074
875.88	3176
876.008	3253
876.136	3230
876.265	3355
876.393	3519
876.521	3477
876.65	3389
876.778	3336
876.906	3291
877.034	3195
877.162	3256
877.29	3207
877.418	3306
877.546	3302
877.674	3275
877.802	3226
877.93	3291
878.058	3165
878.185	3123
878.313	3249
878.441	3230
878.568	3100
878.696	3180
878.824	3275
878.951	3321
879.079	3450
879.206	3637
879.333	3435
879.461	3382
879.588	3401
879.715	3504
879.842	3580
879.97	3424
880.097	3214
880.224	3157
880.351	3226
880.478	3260
880.605	3188
880.732	3207
880.859	3515
880.986	3313
881.112	3367
881.239	3226
881.366	3116
881.493	3043
881.619	3066
881.746	3093
881.872	3119
881.999	3081
882.125	3157
882.252	3283
882.378	3317
882.505	3473
882.631	3306
882.757	3161
882.883	3249
883.01	3249
883.136	3241
883.262	3154
883.388	3161
883.514	3313
883.64	3405
883.766	3348
883.892	3184
884.018	3275
884.143	3386
884.269	3564
884.395	3237
884.52	3199
884.646	3180
884.772	3154
884.897	3127
885.023	3211
885.148	3321
885.274	3458
885.399	3420
885.524	3344
885.65	3287
885.775	3340
885.9	3268
886.025	3458
886.15	3428
886.275	3306
886.4	3272
886.525	3321
886.65	3298
886.775	3317
886.9	3492
887.025	3701
887.149	3443
887.274	3313
887.399	3207
887.523	3249
887.648	3203
887.773	3245
887.897	3378
888.021	3443
888.146	3359
888.27	3485
888.395	3511
888.519	3454
888.643	3424
888.767	3523
888.891	3321
889.015	3287
889.139	3313
889.263	3272
889.387	3393
889.511	3564
889.635	3439
889.759	3336
889.883	3310
890.006	3431
890.13	3519
890.254	3317
890.377	3386
890.501	3237
890.624	3176
890.748	3272
890.871	3214
890.995	3154
891.118	3066
891.241	3195
891.364	3249
891.488	3336
891.611	3218
891.734	3214
891.857	3283
891.98	3268
892.103	3370
892.226	3283
892.349	3260
892.471	3146
892.594	3237
892.717	3336
892.839	3298
892.962	3313
893.085	3355
893.207	3272
893.33	3161
893.452	3249
893.575	3348
893.697	3237
893.819	3515
893.941	3530
894.064	3473
894.186	3256
894.308	3302
894.43	3458
894.552	3564
894.674	3488
894.796	3275
894.918	3348
895.04	3310
895.161	3481
895.283	3363
895.405	3348
895.526	3389
895.648	3412
895.769	3431
895.891	3481
896.012	3504
896.134	3496
896.255	3420
896.376	3386
896.498	3363
896.619	3477
896.74	3389
896.861	3420
896.982	3724
897.103	3846
897.224	3625
897.345	3507
897.466	3443
897.587	3526
897.708	3667
897.828	3576
897.949	3496
898.07	3367
898.19	3416
898.311	3584
898.431	3469
898.552	3511
898.672	3637
898.792	3576
898.913	3584
899.033	3428
899.153	3279
899.273	3272
899.393	3294
899.513	3310
899.633	3363
899.753	3294
899.873	3336
899.993	3405
900.113	3363
900.232	3424
900.352	3370
900.472	3317
900.591	3245
900.711	3344
900.83	3253
900.95	3420
901.069	3466
901.189	3386
901.308	3188
901.427	3161
901.546	3173
901.665	3310
901.784	3389
901.904	3195
902.023	3176
902.141	3055
902.26	3028
902.379	3146
902.498	3097
902.617	3039
902.735	3211
902.854	3272
902.973	3226
903.091	3077
903.21	3085
903.328	3169
903.446	3138
903.565	3131
903.683	3233
903.801	3138
903.919	3245
904.038	3310
904.156	3211
904.274	3317
904.392	3279
904.51	3283
904.627	3359
904.745	3435
904.863	3538
904.981	3291
905.098	3203
905.216	3211
905.334	3298
905.451	3348
905.569	3348
905.686	3443
905.803	3447
905.921	3325
906.038	3450
906.155	3340
906.272	3260
906.389	3348
906.506	3237
906.623	3241
906.74	3287
906.857	3233
906.974	3233
907.091	3409
907.208	3576
907.324	3507
907.441	3386
907.557	3264
907.674	3298
907.79	3230
907.907	3310
908.023	3367
908.139	3405
908.256	3355
908.372	3386
908.488	3393
908.604	3264
908.72	3249
908.836	3310
908.952	3249
909.068	3378
909.184	3515
909.3	3405
909.415	3504
909.531	3492
909.647	3306
909.762	3298
909.878	3294
909.993	3348
910.108	3351
910.224	3355
910.339	3435
910.454	3321
910.57	3325
910.685	3256
910.8	3603
910.915	3557
911.03	3416
911.145	3241
911.259	3272
911.374	3321
911.489	3275
911.604	3253
911.718	3146
911.833	3165
911.947	3051
912.062	2990
912.176	3192
912.291	3173
912.405	3233
912.519	3409
912.633	3458
912.748	3355
912.862	3294
912.976	3203
913.09	3081
913.204	3218
913.318	3230
913.431	3370
913.545	3340
913.659	3386
913.772	3336
913.886	3233
914	3207
914.113	3370
914.226	3416
914.34	3389
914.453	3260
914.566	3443
914.68	3283
914.793	3336
914.906	3161
915.019	3131
915.132	3066
915.245	3192
915.358	3256
915.47	3226
915.583	3253
915.696	3313
915.809	3428
915.921	3409
916.034	3256
916.146	3275
916.259	3230
916.371	3386
916.483	3378
916.595	3306
916.708	3340
916.82	3325
916.932	3367
917.044	3351
917.156	3355
917.268	3233
917.38	3321
917.491	3313
917.603	3355
917.715	3450
917.826	3473
917.938	3378
918.049	3287
918.161	3454
918.272	3587
918.384	3523
918.495	3500
918.606	3363
918.717	3291
918.828	3386
918.939	3435
919.05	3325
919.161	3367
919.272	3146
919.383	3287
919.494	3488
919.604	3694
919.715	3496
919.826	3450
919.936	3466
920.047	3606
920.157	3576
920.267	3747
920.378	3633
920.488	3545
920.598	3774
920.708	3956
920.818	3869
920.928	3831
921.038	4021
921.148	3964
921.258	3751
921.368	3637
921.477	3614
921.587	3542
921.697	3447
921.806	3694
921.916	3519
922.025	3355
922.134	3359
922.244	3310
922.353	3428
922.462	3287
922.571	3249
922.68	3157
922.789	3085
922.898	3161
923.007	3097
923.116	3207
923.224	3199
923.333	3188
923.442	3112
923.55	3100
923.659	3165
923.767	3260
923.876	3165
923.984	3249
924.092	3138
924.201	3207
924.309	3222
924.417	3287
924.525	3272
924.633	3287
924.741	4010
924.849	3066
924.956	3294
925.064	3150
925.172	3116
925.279	3093
925.387	3245
925.494	3237
925.602	3420
925.709	3416
925.816	3237
925.924	3355
926.031	3443
926.138	3332
926.245	3378
926.352	3317
926.459	3466
926.566	3534
926.673	3378
926.779	3287
926.886	3317
926.993	3195
927.099	3188
927.206	3157
927.312	3173
927.419	3241
927.525	3241
927.631	3329
927.737	3226
927.843	3169
927.95	3047
928.056	3207
928.162	3203
928.267	3249
928.373	3823
928.479	3382
928.585	3089
928.69	3237
928.796	3336
928.901	3222
929.007	3093
929.112	3260
929.218	3195
929.323	3184
929.428	3199
929.533	3344
929.638	3161
929.743	3207
929.848	3302
929.953	3264
930.058	3214
930.163	3024
930.267	3119
930.372	3218
930.477	3100
930.581	3329
930.685	3233
930.79	3089
930.894	3100
930.998	3165
931.103	3329
931.207	2998
931.311	2998
931.415	2944
931.519	2819
931.623	2864
