Data from test_V78500241_667.txt Node
Date: Fri Mar 25 16:19:49 CST 2022
User: usil
Spectrometer: V785-0024
Trigger mode: 0
Integration Time (sec): 4.000000E-1
Scans to average: 1
Nonlinearity correction enabled: false
Boxcar width: 0
Storing dark spectrum: false
XAxis mode: Wavelengths
Number of Pixels in Spectrum: 1024
>>>>>Begin Spectral Data<<<<<
801.071	2925
801.214	2910
801.356	2868
801.499	2922
801.641	2861
801.783	2944
801.926	3089
802.068	2986
802.211	3017
802.353	3017
802.496	2960
802.638	3036
802.78	3081
802.923	3093
803.065	3024
803.208	2944
803.35	2948
803.492	2944
803.635	2948
803.777	2781
803.919	2849
804.061	3226
804.204	3005
804.346	2956
804.488	2857
804.63	2994
804.773	2918
804.915	2963
805.057	3119
805.199	2994
805.341	2979
805.483	3066
805.626	3058
805.768	3005
805.91	3100
806.052	3176
806.194	3055
806.336	3294
806.478	3081
806.62	2994
806.762	2998
806.904	3089
807.046	3249
807.188	2998
807.33	2986
807.472	3036
807.614	2941
807.756	3009
807.898	2948
808.04	2944
808.182	2982
808.324	2998
808.465	2944
808.607	2918
808.749	2819
808.891	2861
809.033	2998
809.174	3024
809.316	2937
809.458	2963
809.6	2781
809.741	2792
809.883	2800
810.025	2880
810.166	2929
810.308	2849
810.45	2910
810.591	2781
810.733	2766
810.875	2853
811.016	2773
811.158	2777
811.299	2857
811.441	2975
811.582	2944
811.724	2830
811.865	2883
812.007	2906
812.148	2918
812.29	2853
812.431	2910
812.573	2929
812.714	2986
812.855	3062
812.997	3085
813.138	3138
813.279	3047
813.421	3017
813.562	2998
813.703	2891
813.845	2952
813.986	2788
814.127	2746
814.268	2857
814.41	2834
814.551	2838
814.692	2880
814.833	2826
814.974	2918
815.115	3024
815.256	2849
815.397	2845
815.539	2918
815.68	2800
815.821	2823
815.962	2994
816.103	2933
816.244	2906
816.385	2891
816.526	3001
816.666	2925
816.807	2792
816.948	2891
817.089	2948
817.23	2895
817.371	2819
817.512	2792
817.653	2899
817.793	2876
817.934	2899
818.075	2979
818.216	3009
818.356	3036
818.497	2937
818.638	2800
818.778	2880
818.919	2811
819.06	2823
819.2	2902
819.341	2815
819.481	2842
819.622	2960
819.762	3138
819.903	3081
820.043	2910
820.184	2922
820.324	2925
820.465	3047
820.605	3062
820.746	3051
820.886	2952
821.026	3116
821.167	3176
821.307	3264
821.447	3306
821.588	3237
821.728	3214
821.868	3237
822.008	3097
822.149	3188
822.289	3253
822.429	3104
822.569	3077
822.709	3199
822.849	3039
822.99	3070
823.13	3253
823.27	3199
823.41	3127
823.55	3173
823.69	3131
823.83	3211
823.97	3112
824.11	3051
824.25	3024
824.389	3093
824.529	3127
824.669	3135
824.809	3233
824.949	3237
825.089	3222
825.228	3169
825.368	3043
825.508	2990
825.648	3024
825.787	2998
825.927	3036
826.067	2990
826.206	2986
826.346	3081
826.485	3104
826.625	3184
826.765	3264
826.904	3233
827.044	3024
827.183	2979
827.323	2883
827.462	2990
827.601	2948
827.741	2937
827.88	2994
828.02	2902
828.159	3039
828.298	3081
828.437	3097
828.577	3058
828.716	3287
828.855	3074
828.994	2941
829.134	2906
829.273	2963
829.412	2937
829.551	2891
829.69	2933
829.829	3013
829.968	3123
830.107	3039
830.246	3017
830.385	2925
830.524	2868
830.663	2834
830.802	2758
830.941	2663
831.08	2689
831.219	2811
831.357	2788
831.496	2941
831.635	2731
831.774	2640
831.913	2670
832.051	2575
832.19	2598
832.329	2708
832.467	2549
832.606	2530
832.744	2583
832.883	2610
833.022	2606
833.16	2682
833.299	2720
833.437	2686
833.576	2720
833.714	2739
833.852	2769
833.991	2762
834.129	2864
834.267	2861
834.406	2785
834.544	2933
834.682	2883
834.821	2883
834.959	3085
835.097	2933
835.235	3077
835.373	3036
835.511	3028
835.65	2956
835.788	2994
835.926	2864
836.064	2876
836.202	2826
836.34	3142
836.478	3180
836.615	3047
836.753	3157
836.891	3233
837.029	3218
837.167	3127
837.305	3097
837.443	3062
837.58	3017
837.718	3157
837.856	3062
837.993	3058
838.131	3157
838.269	3138
838.406	3116
838.544	3112
838.681	2941
838.819	2963
838.956	2861
839.094	2849
839.231	2922
839.369	3024
839.506	3382
839.643	3233
839.781	3009
839.918	2975
840.055	3066
840.193	3032
840.33	3074
840.467	3112
840.604	3131
840.742	3431
840.879	3066
841.016	3070
841.153	3123
841.29	3351
841.427	3370
841.564	3329
841.701	3348
841.838	3260
841.975	3169
842.112	3245
842.249	3074
842.385	3051
842.522	3253
842.659	3195
842.796	3070
842.933	3146
843.069	3047
843.206	3013
843.343	3207
843.479	3108
843.616	3123
843.752	2925
843.889	2895
844.025	3154
844.162	2872
844.298	3077
844.435	2967
844.571	2944
844.708	3062
844.844	3180
844.98	3203
845.117	3230
845.253	3051
845.389	2963
845.525	3142
845.661	3127
845.798	3039
845.934	3138
846.07	3074
846.206	3245
846.342	3348
846.478	3222
846.614	3093
846.75	3055
846.886	3020
847.022	3226
847.158	3123
847.294	3256
847.429	3279
847.565	3199
847.701	3530
847.837	3062
847.972	3024
848.108	3161
848.244	3161
848.379	3001
848.515	2956
848.65	2914
848.786	3009
848.921	3024
849.057	3154
849.192	3161
849.328	3112
849.463	3123
849.598	3047
849.734	3020
849.869	3009
850.004	2948
850.14	2971
850.275	2922
850.41	2868
850.545	2899
850.68	2979
850.815	3013
850.95	2971
851.085	3192
851.22	3135
851.355	3070
851.49	2998
851.625	3017
851.76	3036
851.895	2967
852.03	2925
852.165	3055
852.299	3119
852.434	3184
852.569	3173
852.703	3195
852.838	3256
852.973	3367
853.107	3359
853.242	3184
853.376	3051
853.511	3001
853.645	3024
853.78	3253
853.914	3131
854.048	3127
854.183	3116
854.317	3176
854.451	3283
854.585	3131
854.72	3123
854.854	3207
854.988	3089
855.122	3074
855.256	2994
855.39	3146
855.524	3260
855.658	3226
855.792	3142
855.926	3222
856.06	3214
856.194	3260
856.327	3169
856.461	3051
856.595	3142
856.729	3074
856.862	3226
856.996	3184
857.13	3207
857.263	3237
857.397	3268
857.53	3142
857.664	3218
857.797	3230
857.931	3283
858.064	3203
858.197	3233
858.331	3127
858.464	3104
858.597	3005
858.731	3135
858.864	3165
858.997	3116
859.13	3150
859.263	3211
859.396	3161
859.529	3089
859.662	3089
859.795	3093
859.928	3157
860.061	3272
860.194	3275
860.327	3150
860.46	3100
860.592	3256
860.725	3260
860.858	3275
860.99	3108
861.123	3043
861.256	3062
861.388	3161
861.521	3819
861.653	3013
861.786	2979
861.918	3047
862.05	3055
862.183	3085
862.315	3161
862.447	3195
862.58	3093
862.712	2944
862.844	2868
862.976	3036
863.108	2979
863.24	3431
863.372	2899
863.504	2979
863.636	2960
863.768	3039
863.9	2998
864.032	2929
864.164	2956
864.296	3051
864.428	3074
864.559	3112
864.691	3089
864.823	3100
864.954	3039
865.086	3032
865.217	3013
865.349	2975
865.48	2998
865.612	3020
865.743	3150
865.875	3009
866.006	2960
866.137	3013
866.269	2941
866.4	2960
866.531	2906
866.662	2929
866.793	2910
866.924	2902
867.055	3009
867.186	2933
867.317	2864
867.448	2876
867.579	2838
867.71	2834
867.841	2819
867.972	2910
868.103	2918
868.233	2902
868.364	2910
868.495	2918
868.625	3074
868.756	3154
868.886	2971
869.017	3009
869.147	3161
869.278	3180
869.408	3108
869.539	3036
869.669	3097
869.799	3089
869.929	3119
870.06	3108
870.19	3344
870.32	3291
870.45	3317
870.58	3370
870.71	3462
870.84	3504
870.97	3355
871.1	3222
871.23	3481
871.36	3473
871.489	3393
871.619	3389
871.749	3382
871.879	3405
872.008	3504
872.138	3393
872.267	3256
872.397	3142
872.526	3131
872.656	3009
872.785	3104
872.915	3233
873.044	3344
873.173	3233
873.303	3226
873.432	3241
873.561	3268
873.69	3180
873.819	3161
873.948	3180
874.077	3119
874.206	3043
874.335	3070
874.464	3249
874.593	3363
874.722	3226
874.851	3397
874.979	3340
875.108	3306
875.237	3233
875.365	3192
875.494	3173
875.623	3241
875.751	3089
875.88	3093
876.008	3188
876.136	3195
876.265	3363
876.393	3485
876.521	3412
876.65	3370
876.778	3378
876.906	3237
877.034	3203
877.162	3241
877.29	3176
877.418	3237
877.546	3253
877.674	3272
877.802	3222
877.93	3233
878.058	3146
878.185	3119
878.313	3226
878.441	3203
878.568	3051
878.696	3138
878.824	3268
878.951	3291
879.079	3477
879.206	3622
879.333	3439
879.461	3336
879.588	3382
879.715	3481
879.842	3599
879.97	3378
880.097	3188
880.224	3123
880.351	3222
880.478	3233
880.605	3249
880.732	3195
880.859	3485
880.986	3310
881.112	3294
881.239	3157
881.366	3104
881.493	3028
881.619	2994
881.746	3043
881.872	3123
881.999	3089
882.125	3173
882.252	3214
882.378	3291
882.505	3420
882.631	3291
882.757	3161
882.883	3222
883.01	3249
883.136	3150
883.262	3055
883.388	3142
883.514	3348
883.64	3370
883.766	3321
883.892	3192
884.018	3245
884.143	3401
884.269	3553
884.395	3195
884.52	3154
884.646	3176
884.772	3131
884.897	3112
885.023	3195
885.148	3348
885.274	3416
885.399	3389
885.524	3298
885.65	3233
885.775	3306
885.9	3279
886.025	3435
886.15	3370
886.275	3275
886.4	3222
886.525	3306
886.65	3279
886.775	3302
886.9	3500
887.025	3625
887.149	3386
887.274	3264
887.399	3173
887.523	3192
887.648	3199
887.773	3161
887.897	3370
888.021	3382
888.146	3275
888.27	3431
888.395	3523
888.519	3447
888.643	3412
888.767	3462
888.891	3321
889.015	3226
889.139	3332
889.263	3260
889.387	3401
889.511	3458
889.635	3488
889.759	3287
889.883	3306
890.006	3424
890.13	3473
890.254	3283
890.377	3340
890.501	3211
890.624	3199
890.748	3287
890.871	3192
890.995	3100
891.118	3066
891.241	3195
891.364	3226
891.488	3272
891.611	3188
891.734	3279
891.857	3298
891.98	3249
892.103	3336
892.226	3279
892.349	3173
892.471	3123
892.594	3222
892.717	3287
892.839	3237
892.962	3294
893.085	3321
893.207	3344
893.33	3104
893.452	3214
893.575	3348
893.697	3233
893.819	3504
893.941	3507
894.064	3405
894.186	3287
894.308	3298
894.43	3439
894.552	3526
894.674	3485
894.796	3264
894.918	3306
895.04	3264
895.161	3443
895.283	3367
895.405	3313
895.526	3340
895.648	3485
895.769	3431
895.891	3447
896.012	3492
896.134	3447
896.255	3363
896.376	3420
896.498	3348
896.619	3401
896.74	3359
896.861	3412
896.982	3641
897.103	3854
897.224	3606
897.345	3511
897.466	3431
897.587	3507
897.708	3656
897.828	3519
897.949	3439
898.07	3367
898.19	3389
898.311	3633
898.431	3473
898.552	3515
898.672	3568
898.792	3568
898.913	3561
899.033	3401
899.153	3279
899.273	3203
899.393	3317
899.513	3302
899.633	3340
899.753	3313
899.873	3310
899.993	3370
900.113	3351
900.232	3355
900.352	3355
900.472	3279
900.591	3199
900.711	3279
900.83	3230
900.95	3428
901.069	3473
901.189	3378
901.308	3165
901.427	3108
901.546	3173
901.665	3287
901.784	3340
901.904	3173
902.023	3161
902.141	2979
902.26	2979
902.379	3127
902.498	3070
902.617	3066
902.735	3226
902.854	3226
902.973	3192
903.091	3039
903.21	3074
903.328	3097
903.446	3116
903.565	3085
903.683	3237
903.801	3081
903.919	3272
904.038	3298
904.156	3199
904.274	3260
904.392	3218
904.51	3294
904.627	3332
904.745	3424
904.863	3504
904.981	3268
905.098	3173
905.216	3222
905.334	3291
905.451	3260
905.569	3283
905.686	3409
905.803	3428
905.921	3294
906.038	3428
906.155	3313
906.272	3287
906.389	3370
906.506	3260
906.623	3218
906.74	3253
906.857	3161
906.974	3256
907.091	3420
907.208	3587
907.324	3473
907.441	3355
907.557	3211
907.674	3245
907.79	3226
907.907	3313
908.023	3378
908.139	3355
908.256	3294
908.372	3340
908.488	3329
908.604	3253
908.72	3203
908.836	3260
908.952	3291
909.068	3351
909.184	3458
909.3	3405
909.415	3515
909.531	3481
909.647	3306
909.762	3287
909.878	3287
909.993	3378
910.108	3329
910.224	3348
910.339	3393
910.454	3302
910.57	3291
910.685	3233
910.8	3633
910.915	3538
911.03	3412
911.145	3279
911.259	3268
911.374	3317
911.489	3245
911.604	3222
911.718	3123
911.833	3146
911.947	3074
912.062	2944
912.176	3150
912.291	3218
912.405	3211
912.519	3397
912.633	3458
912.748	3359
912.862	3249
912.976	3192
913.09	3036
913.204	3108
913.318	3222
913.431	3317
913.545	3325
913.659	3412
913.772	3294
913.886	3268
914	3176
914.113	3344
914.226	3401
914.34	3344
914.453	3184
914.566	3447
914.68	3272
914.793	3321
914.906	3157
915.019	3108
915.132	3074
915.245	3161
915.358	3222
915.47	3222
915.583	3264
915.696	3218
915.809	3412
915.921	3428
916.034	3272
916.146	3233
916.259	3207
916.371	3370
916.483	3389
916.595	3241
916.708	3317
916.82	3348
916.932	3355
917.044	3291
917.156	3325
917.268	3241
917.38	3287
917.491	3291
917.603	3389
917.715	3454
917.826	3454
917.938	3374
918.049	3226
918.161	3412
918.272	3557
918.384	3557
918.495	3519
918.606	3298
918.717	3268
918.828	3382
918.939	3386
919.05	3306
919.161	3359
919.272	3199
919.383	3272
919.494	3477
919.604	3679
919.715	3469
919.826	3412
919.936	3462
920.047	3576
920.157	3526
920.267	3755
920.378	3599
920.488	3580
920.598	3781
920.708	3911
920.818	3823
920.928	3823
921.038	4017
921.148	3979
921.258	3717
921.368	3633
921.477	3580
921.587	3580
921.697	3492
921.806	3614
921.916	3496
922.025	3370
922.134	3344
922.244	3351
922.353	3431
922.462	3279
922.571	3222
922.68	3089
922.789	3047
922.898	3161
923.007	3066
923.116	3195
923.224	3157
923.333	3169
923.442	3097
923.55	3051
923.659	3138
923.767	3195
923.876	3123
923.984	3249
924.092	3108
924.201	3214
924.309	3214
924.417	3260
924.525	3165
924.633	3245
924.741	3994
924.849	3043
924.956	3249
925.064	3085
925.172	3028
925.279	3100
925.387	3245
925.494	3192
925.602	3317
925.709	3367
925.816	3131
925.924	3260
926.031	3374
926.138	3317
926.245	3367
926.352	3218
926.459	3409
926.566	3477
926.673	3340
926.779	3233
926.886	3245
926.993	3169
927.099	3146
927.206	3104
927.312	3123
927.419	3230
927.525	3192
927.631	3287
927.737	3127
927.843	3123
927.95	3051
928.056	3154
928.162	3154
928.267	3256
928.373	3781
928.479	3313
928.585	3074
928.69	3199
928.796	3275
928.901	3157
929.007	3036
929.112	3199
929.218	3176
929.323	3154
929.428	3154
929.533	3291
929.638	3097
929.743	3199
929.848	3241
929.953	3192
930.058	3085
930.163	3009
930.267	3009
930.372	3199
930.477	3043
930.581	3302
930.685	3176
930.79	3066
930.894	3104
930.998	3077
931.103	3283
931.207	2994
931.311	2979
931.415	2906
931.519	2766
931.623	2800
