Data from test_V78500241_702.txt Node
Date: Fri Mar 25 16:20:03 CST 2022
User: usil
Spectrometer: V785-0024
Trigger mode: 0
Integration Time (sec): 4.000000E-1
Scans to average: 1
Nonlinearity correction enabled: false
Boxcar width: 0
Storing dark spectrum: false
XAxis mode: Wavelengths
Number of Pixels in Spectrum: 1024
>>>>>Begin Spectral Data<<<<<
801.071	2937
801.214	2952
801.356	2857
801.499	2880
801.641	2849
801.783	2937
801.926	3051
802.068	2960
802.211	2967
802.353	3001
802.496	2918
802.638	2994
802.78	3020
802.923	3032
803.065	2971
803.208	2868
803.35	2941
803.492	2918
803.635	2922
803.777	2750
803.919	2876
804.061	3203
804.204	2937
804.346	2887
804.488	2826
804.63	2960
804.773	2872
804.915	2872
805.057	3074
805.199	2922
805.341	2933
805.483	3043
805.626	2967
805.768	2948
805.91	3043
806.052	3093
806.194	2979
806.336	3184
806.478	2986
806.62	2933
806.762	2952
806.904	3043
807.046	3142
807.188	2971
807.33	2910
807.472	2925
807.614	2887
807.756	2952
807.898	2880
808.04	2834
808.182	2963
808.324	2929
808.465	2849
808.607	2845
808.749	2746
808.891	2811
809.033	2952
809.174	2960
809.316	2864
809.458	2857
809.6	2758
809.741	2735
809.883	2762
810.025	2796
810.166	2807
810.308	2842
810.45	2788
810.591	2712
810.733	2739
810.875	2804
811.016	2792
811.158	2701
811.299	2781
811.441	2910
811.582	2845
811.724	2823
811.865	2785
812.007	2876
812.148	2883
812.29	2834
812.431	2864
812.573	2929
812.714	2929
812.855	3028
812.997	3047
813.138	3093
813.279	2967
813.421	2933
813.562	2967
813.703	2819
813.845	2845
813.986	2777
814.127	2712
814.268	2826
814.41	2811
814.551	2785
814.692	2853
814.833	2838
814.974	2880
815.115	2922
815.256	2849
815.397	2834
815.539	2876
815.68	2754
815.821	2819
815.962	2941
816.103	2944
816.244	2891
816.385	2883
816.526	2994
816.666	2960
816.807	2746
816.948	2895
817.089	2914
817.23	2876
817.371	2788
817.512	2792
817.653	2823
817.793	2826
817.934	2918
818.075	3001
818.216	3005
818.356	3024
818.497	2937
818.638	2830
818.778	2823
818.919	2815
819.06	2754
819.2	2941
819.341	2823
819.481	2823
819.622	2944
819.762	3112
819.903	3093
820.043	2975
820.184	2941
820.324	2910
820.465	3043
820.605	3077
820.746	3058
820.886	2956
821.026	3154
821.167	3188
821.307	3279
821.447	3336
821.588	3298
821.728	3237
821.868	3260
822.008	3138
822.149	3165
822.289	3253
822.429	3131
822.569	3127
822.709	3192
822.849	3051
822.99	3135
823.13	3173
823.27	3214
823.41	3104
823.55	3218
823.69	3169
823.83	3253
823.97	3093
824.11	3055
824.25	3074
824.389	3116
824.529	3138
824.669	3108
824.809	3211
824.949	3321
825.089	3237
825.228	3199
825.368	3047
825.508	3001
825.648	2986
825.787	3036
825.927	3032
826.067	3020
826.206	3043
826.346	3089
826.485	3116
826.625	3146
826.765	3321
826.904	3237
827.044	3024
827.183	2982
827.323	2891
827.462	3032
827.601	2967
827.741	2952
827.88	2971
828.02	2868
828.159	3017
828.298	3039
828.437	3142
828.577	3062
828.716	3264
828.855	3112
828.994	2899
829.134	2914
829.273	2948
829.412	2914
829.551	2883
829.69	2933
829.829	3017
829.968	3131
830.107	3043
830.246	3085
830.385	2994
830.524	2914
830.663	2861
830.802	2762
830.941	2659
831.08	2655
831.219	2785
831.357	2788
831.496	3001
831.635	2773
831.774	2667
831.913	2667
832.051	2606
832.19	2598
832.329	2712
832.467	2545
832.606	2526
832.744	2587
832.883	2613
833.022	2613
833.16	2648
833.299	2739
833.437	2731
833.576	2739
833.714	2773
833.852	2750
833.991	2777
834.129	2834
834.267	2861
834.406	2788
834.544	2925
834.682	2899
834.821	2849
834.959	3081
835.097	2933
835.235	3100
835.373	3017
835.511	3028
835.65	2986
835.788	2948
835.926	2823
836.064	2804
836.202	2876
836.34	3123
836.478	3150
836.615	3081
836.753	3169
836.891	3275
837.029	3184
837.167	3097
837.305	3104
837.443	3077
837.58	3001
837.718	3169
837.856	3077
837.993	3043
838.131	3169
838.269	3127
838.406	3097
838.544	3089
838.681	2944
838.819	2937
838.956	2842
839.094	2845
839.231	2975
839.369	3039
839.506	3420
839.643	3256
839.781	3043
839.918	3028
840.055	3070
840.193	3085
840.33	3081
840.467	3104
840.604	3135
840.742	3443
840.879	3070
841.016	3104
841.153	3150
841.29	3355
841.427	3329
841.564	3256
841.701	3317
841.838	3233
841.975	3169
842.112	3237
842.249	3089
842.385	3024
842.522	3294
842.659	3081
842.796	3085
842.933	3127
843.069	3074
843.206	3058
843.343	3203
843.479	3131
843.616	3112
843.752	2933
843.889	2880
844.025	3108
844.162	2895
844.298	3097
844.435	2994
844.571	2948
844.708	3081
844.844	3218
844.98	3241
845.117	3241
845.253	3066
845.389	3055
845.525	3138
845.661	3123
845.798	3066
845.934	3195
846.07	3055
846.206	3214
846.342	3340
846.478	3237
846.614	3074
846.75	3085
846.886	3036
847.022	3268
847.158	3165
847.294	3237
847.429	3253
847.565	3249
847.701	3488
847.837	3043
847.972	3009
848.108	3218
848.244	3184
848.379	3039
848.515	2979
848.65	2944
848.786	3009
848.921	3051
849.057	3119
849.192	3188
849.328	3081
849.463	3188
849.598	3093
849.734	3070
849.869	3020
850.004	2956
850.14	2948
850.275	2922
850.41	2902
850.545	2914
850.68	2960
850.815	2979
850.95	3032
851.085	3214
851.22	3127
851.355	3085
851.49	3013
851.625	3032
851.76	3017
851.895	2956
852.03	2948
852.165	3055
852.299	3127
852.434	3192
852.569	3173
852.703	3184
852.838	3264
852.973	3336
853.107	3325
853.242	3180
853.376	3085
853.511	2986
853.645	3077
853.78	3264
853.914	3131
854.048	3138
854.183	3104
854.317	3146
854.451	3272
854.585	3119
854.72	3112
854.854	3214
854.988	3081
855.122	3089
855.256	3017
855.39	3146
855.524	3264
855.658	3233
855.792	3169
855.926	3195
856.06	3264
856.194	3313
856.327	3138
856.461	3074
856.595	3066
856.729	3104
856.862	3275
856.996	3165
857.13	3226
857.263	3226
857.397	3336
857.53	3142
857.664	3176
857.797	3264
857.931	3260
858.064	3241
858.197	3268
858.331	3138
858.464	3123
858.597	3024
858.731	3150
858.864	3161
858.997	3093
859.13	3157
859.263	3207
859.396	3272
859.529	3146
859.662	3108
859.795	3058
859.928	3142
860.061	3245
860.194	3249
860.327	3157
860.46	3116
860.592	3302
860.725	3272
860.858	3249
860.99	3123
861.123	3055
861.256	3032
861.388	3161
861.521	3949
861.653	3066
861.786	3005
861.918	3047
862.05	3066
862.183	3104
862.315	3154
862.447	3184
862.58	3116
862.712	2971
862.844	2918
862.976	3066
863.108	3009
863.24	3405
863.372	2887
863.504	2971
863.636	2963
863.768	3036
863.9	3005
864.032	2929
864.164	2979
864.296	3058
864.428	3104
864.559	3119
864.691	3097
864.823	3097
864.954	3058
865.086	3070
865.217	3020
865.349	2979
865.48	3005
865.612	3032
865.743	3165
865.875	3024
866.006	2963
866.137	3001
866.269	2979
866.4	2941
866.531	2910
866.662	2872
866.793	2906
866.924	2918
867.055	3005
867.186	2906
867.317	2906
867.448	2880
867.579	2868
867.71	2849
867.841	2834
867.972	2902
868.103	2895
868.233	2948
868.364	2891
868.495	2960
868.625	3127
868.756	3180
868.886	2994
869.017	3024
869.147	3199
869.278	3161
869.408	3028
869.539	3013
869.669	3100
869.799	3055
869.929	3154
870.06	3142
870.19	3374
870.32	3298
870.45	3310
870.58	3382
870.71	3450
870.84	3443
870.97	3291
871.1	3249
871.23	3466
871.36	3523
871.489	3363
871.619	3359
871.749	3409
871.879	3481
872.008	3477
872.138	3397
872.267	3275
872.397	3157
872.526	3108
872.656	3020
872.785	3112
872.915	3233
873.044	3291
873.173	3272
873.303	3218
873.432	3256
873.561	3268
873.69	3180
873.819	3135
873.948	3199
874.077	3097
874.206	3058
874.335	3116
874.464	3222
874.593	3351
874.722	3245
874.851	3401
874.979	3382
875.108	3298
875.237	3199
875.365	3184
875.494	3146
875.623	3226
875.751	3077
875.88	3127
876.008	3245
876.136	3264
876.265	3401
876.393	3523
876.521	3447
876.65	3431
876.778	3344
876.906	3245
877.034	3207
877.162	3256
877.29	3180
877.418	3279
877.546	3218
877.674	3226
877.802	3237
877.93	3233
878.058	3176
878.185	3131
878.313	3218
878.441	3199
878.568	3085
878.696	3173
878.824	3249
878.951	3310
879.079	3462
879.206	3675
879.333	3454
879.461	3370
879.588	3359
879.715	3504
879.842	3622
879.97	3412
880.097	3195
880.224	3138
880.351	3203
880.478	3214
880.605	3230
880.732	3199
880.859	3507
880.986	3272
881.112	3367
881.239	3268
881.366	3085
881.493	3039
881.619	3009
881.746	3081
881.872	3074
881.999	3097
882.125	3169
882.252	3253
882.378	3329
882.505	3435
882.631	3325
882.757	3150
882.883	3203
883.01	3188
883.136	3199
883.262	3097
883.388	3123
883.514	3340
883.64	3382
883.766	3302
883.892	3218
884.018	3249
884.143	3424
884.269	3557
884.395	3245
884.52	3169
884.646	3169
884.772	3138
884.897	3123
885.023	3184
885.148	3401
885.274	3389
885.399	3397
885.524	3302
885.65	3287
885.775	3351
885.9	3298
886.025	3412
886.15	3397
886.275	3306
886.4	3237
886.525	3298
886.65	3272
886.775	3275
886.9	3492
887.025	3606
887.149	3393
887.274	3283
887.399	3188
887.523	3165
887.648	3192
887.773	3237
887.897	3405
888.021	3450
888.146	3329
888.27	3393
888.395	3507
888.519	3462
888.643	3428
888.767	3435
888.891	3306
889.015	3233
889.139	3279
889.263	3294
889.387	3405
889.511	3481
889.635	3454
889.759	3313
889.883	3313
890.006	3401
890.13	3542
890.254	3275
890.377	3378
890.501	3233
890.624	3203
890.748	3291
890.871	3211
890.995	3138
891.118	3077
891.241	3184
891.364	3241
891.488	3321
891.611	3184
891.734	3199
891.857	3298
891.98	3241
892.103	3359
892.226	3298
892.349	3226
892.471	3119
892.594	3272
892.717	3313
892.839	3272
892.962	3245
893.085	3370
893.207	3298
893.33	3142
893.452	3188
893.575	3386
893.697	3211
893.819	3477
893.941	3481
894.064	3454
894.186	3256
894.308	3294
894.43	3469
894.552	3553
894.674	3454
894.796	3272
894.918	3302
895.04	3306
895.161	3393
895.283	3378
895.405	3260
895.526	3389
895.648	3378
895.769	3439
895.891	3431
896.012	3473
896.134	3485
896.255	3439
896.376	3389
896.498	3348
896.619	3420
896.74	3351
896.861	3424
896.982	3694
897.103	3838
897.224	3603
897.345	3496
897.466	3481
897.587	3507
897.708	3625
897.828	3564
897.949	3416
898.07	3370
898.19	3393
898.311	3568
898.431	3443
898.552	3534
898.672	3561
898.792	3587
898.913	3549
899.033	3393
899.153	3302
899.273	3233
899.393	3294
899.513	3256
899.633	3291
899.753	3325
899.873	3325
899.993	3367
900.113	3351
900.232	3393
900.352	3344
900.472	3275
900.591	3207
900.711	3344
900.83	3226
900.95	3416
901.069	3519
901.189	3378
901.308	3199
901.427	3127
901.546	3184
901.665	3283
901.784	3317
901.904	3214
902.023	3165
902.141	3039
902.26	2971
902.379	3142
902.498	3081
902.617	3077
902.735	3211
902.854	3287
902.973	3180
903.091	3058
903.21	3055
903.328	3165
903.446	3112
903.565	3108
903.683	3207
903.801	3108
903.919	3245
904.038	3272
904.156	3138
904.274	3283
904.392	3253
904.51	3325
904.627	3325
904.745	3447
904.863	3534
904.981	3279
905.098	3154
905.216	3272
905.334	3325
905.451	3325
905.569	3321
905.686	3458
905.803	3447
905.921	3264
906.038	3439
906.155	3363
906.272	3275
906.389	3351
906.506	3226
906.623	3279
906.74	3256
906.857	3169
906.974	3268
907.091	3454
907.208	3553
907.324	3477
907.441	3386
907.557	3233
907.674	3249
907.79	3222
907.907	3355
908.023	3374
908.139	3386
908.256	3332
908.372	3378
908.488	3351
908.604	3264
908.72	3241
908.836	3294
908.952	3260
909.068	3340
909.184	3488
909.3	3370
909.415	3542
909.531	3507
909.647	3272
909.762	3294
909.878	3249
909.993	3340
910.108	3321
910.224	3329
910.339	3389
910.454	3363
910.57	3344
910.685	3272
910.8	3580
910.915	3587
911.03	3431
911.145	3268
911.259	3291
911.374	3310
911.489	3272
911.604	3211
911.718	3138
911.833	3184
911.947	3017
912.062	3020
912.176	3180
912.291	3218
912.405	3237
912.519	3420
912.633	3496
912.748	3359
912.862	3306
912.976	3180
913.09	3104
913.204	3138
913.318	3230
913.431	3340
913.545	3321
913.659	3374
913.772	3313
913.886	3233
914	3226
914.113	3378
914.226	3439
914.34	3378
914.453	3218
914.566	3416
914.68	3317
914.793	3313
914.906	3150
915.019	3104
915.132	3028
915.245	3173
915.358	3214
915.47	3226
915.583	3348
915.696	3275
915.809	3412
915.921	3420
916.034	3207
916.146	3222
916.259	3203
916.371	3370
916.483	3370
916.595	3218
916.708	3348
916.82	3351
916.932	3321
917.044	3329
917.156	3363
917.268	3275
917.38	3298
917.491	3325
917.603	3355
917.715	3450
917.826	3431
917.938	3374
918.049	3237
918.161	3397
918.272	3580
918.384	3599
918.495	3458
918.606	3344
918.717	3325
918.828	3389
918.939	3382
919.05	3260
919.161	3363
919.272	3161
919.383	3268
919.494	3488
919.604	3671
919.715	3504
919.826	3409
919.936	3462
920.047	3591
920.157	3526
920.267	3781
920.378	3622
920.488	3576
920.598	3816
920.708	3960
920.818	3835
920.928	3827
921.038	4002
921.148	3991
921.258	3705
921.368	3614
921.477	3576
921.587	3568
921.697	3473
921.806	3648
921.916	3511
922.025	3374
922.134	3321
922.244	3325
922.353	3424
922.462	3256
922.571	3253
922.68	3138
922.789	3081
922.898	3150
923.007	3070
923.116	3233
923.224	3188
923.333	3180
923.442	3077
923.55	3116
923.659	3123
923.767	3180
923.876	3097
923.984	3268
924.092	3097
924.201	3169
924.309	3214
924.417	3256
924.525	3165
924.633	3241
924.741	4211
924.849	3013
924.956	3226
925.064	3100
925.172	3020
925.279	3116
925.387	3199
925.494	3211
925.602	3351
925.709	3348
925.816	3192
925.924	3260
926.031	3374
926.138	3332
926.245	3428
926.352	3249
926.459	3382
926.566	3462
926.673	3313
926.779	3241
926.886	3222
926.993	3138
927.099	3146
927.206	3081
927.312	3146
927.419	3230
927.525	3195
927.631	3260
927.737	3108
927.843	3097
927.95	3032
928.056	3165
928.162	3169
928.267	3253
928.373	3854
928.479	3283
928.585	3058
928.69	3199
928.796	3294
928.901	3176
929.007	3039
929.112	3226
929.218	3188
929.323	3150
929.428	3176
929.533	3306
929.638	3108
929.743	3218
929.848	3237
929.953	3245
930.058	3154
930.163	2982
930.267	3066
930.372	3214
930.477	3039
930.581	3310
930.685	3154
930.79	3058
930.894	3123
930.998	3097
931.103	3275
931.207	2990
931.311	2948
931.415	2933
931.519	2754
931.623	2823
