Data from test_V78500241_63.txt Node
Date: Fri Mar 25 16:15:38 CST 2022
User: usil
Spectrometer: V785-0024
Trigger mode: 0
Integration Time (sec): 4.000000E-1
Scans to average: 1
Nonlinearity correction enabled: false
Boxcar width: 0
Storing dark spectrum: false
XAxis mode: Wavelengths
Number of Pixels in Spectrum: 1024
>>>>>Begin Spectral Data<<<<<
801.071	2891
801.214	2998
801.356	2902
801.499	2929
801.641	2883
801.783	2922
801.926	3081
802.068	3017
802.211	3009
802.353	3077
802.496	3062
802.638	3039
802.78	3081
802.923	3112
803.065	3001
803.208	2933
803.35	2956
803.492	2956
803.635	2941
803.777	2773
803.919	2880
804.061	3230
804.204	2944
804.346	2933
804.488	2887
804.63	3009
804.773	2902
804.915	2975
805.057	3119
805.199	2944
805.341	3017
805.483	3074
805.626	3020
805.768	3001
805.91	3100
806.052	3112
806.194	3055
806.336	3260
806.478	3051
806.62	2994
806.762	3005
806.904	3062
807.046	3169
807.188	3032
807.33	2925
807.472	3013
807.614	2937
807.756	3001
807.898	2971
808.04	2899
808.182	2998
808.324	2960
808.465	2944
808.607	2910
808.749	2830
808.891	2883
809.033	3017
809.174	2990
809.316	2922
809.458	2922
809.6	2777
809.741	2849
809.883	2785
810.025	2853
810.166	2925
810.308	2876
810.45	2883
810.591	2800
810.733	2796
810.875	2880
811.016	2804
811.158	2750
811.299	2861
811.441	2994
811.582	2937
811.724	2823
811.865	2838
812.007	2922
812.148	2902
812.29	2857
812.431	2986
812.573	3013
812.714	3039
812.855	3089
812.997	3097
813.138	3154
813.279	3051
813.421	3017
813.562	2948
813.703	2918
813.845	2918
813.986	2785
814.127	2758
814.268	2845
814.41	2891
814.551	2876
814.692	2876
814.833	2864
814.974	2937
815.115	2971
815.256	2868
815.397	2876
815.539	2895
815.68	2830
815.821	2838
815.962	2998
816.103	2922
816.244	2941
816.385	2902
816.526	3013
816.666	2937
816.807	2781
816.948	2925
817.089	2952
817.23	2910
817.371	2796
817.512	2815
817.653	2872
817.793	2838
817.934	2956
818.075	3017
818.216	3013
818.356	3066
818.497	2922
818.638	2845
818.778	2826
818.919	2842
819.06	2796
819.2	2929
819.341	2868
819.481	2861
819.622	2922
819.762	3154
819.903	3066
820.043	2933
820.184	2906
820.324	2929
820.465	3043
820.605	3062
820.746	3058
820.886	2933
821.026	3119
821.167	3207
821.307	3279
821.447	3283
821.588	3264
821.728	3226
821.868	3226
822.008	3104
822.149	3241
822.289	3275
822.429	3108
822.569	3127
822.709	3241
822.849	3089
822.99	3077
823.13	3150
823.27	3241
823.41	3135
823.55	3169
823.69	3184
823.83	3237
823.97	3131
824.11	3036
824.25	2979
824.389	3089
824.529	3142
824.669	3066
824.809	3230
824.949	3291
825.089	3260
825.228	3192
825.368	3039
825.508	2937
825.648	3017
825.787	3020
825.927	3074
826.067	2998
826.206	2956
826.346	3062
826.485	3036
826.625	3195
826.765	3336
826.904	3237
827.044	3047
827.183	2941
827.323	2872
827.462	3028
827.601	2967
827.741	2956
827.88	2986
828.02	2910
828.159	2982
828.298	3066
828.437	3173
828.577	3055
828.716	3279
828.855	3066
828.994	2952
829.134	2895
829.273	2971
829.412	2902
829.551	2891
829.69	2941
829.829	3009
829.968	3154
830.107	3055
830.246	3058
830.385	2925
830.524	2883
830.663	2834
830.802	2743
830.941	2670
831.08	2712
831.219	2754
831.357	2750
831.496	2998
831.635	2727
831.774	2701
831.913	2686
832.051	2579
832.19	2598
832.329	2708
832.467	2556
832.606	2465
832.744	2617
832.883	2587
833.022	2602
833.16	2636
833.299	2693
833.437	2735
833.576	2716
833.714	2750
833.852	2739
833.991	2804
834.129	2872
834.267	2823
834.406	2807
834.544	2883
834.682	2902
834.821	2902
834.959	3116
835.097	2922
835.235	3119
835.373	3051
835.511	3047
835.65	3009
835.788	2967
835.926	2857
836.064	2834
836.202	2887
836.34	3127
836.478	3157
836.615	3070
836.753	3173
836.891	3230
837.029	3203
837.167	3176
837.305	3070
837.443	3062
837.58	3009
837.718	3165
837.856	3066
837.993	3100
838.131	3138
838.269	3161
838.406	3142
838.544	3097
838.681	2982
838.819	2933
838.956	2857
839.094	2861
839.231	2948
839.369	3066
839.506	3412
839.643	3249
839.781	3036
839.918	2979
840.055	3062
840.193	3093
840.33	3093
840.467	3116
840.604	3173
840.742	3428
840.879	3070
841.016	3055
841.153	3154
841.29	3382
841.427	3363
841.564	3291
841.701	3321
841.838	3260
841.975	3207
842.112	3253
842.249	3142
842.385	3074
842.522	3313
842.659	3119
842.796	3074
842.933	3150
843.069	3093
843.206	3093
843.343	3233
843.479	3131
843.616	3161
843.752	2902
843.889	2876
844.025	3131
844.162	2883
844.298	3123
844.435	2952
844.571	2971
844.708	3093
844.844	3218
844.98	3283
845.117	3237
845.253	3066
845.389	3058
845.525	3146
845.661	3127
845.798	3032
845.934	3161
846.07	3100
846.206	3226
846.342	3344
846.478	3233
846.614	3108
846.75	3116
846.886	3058
847.022	3287
847.158	3165
847.294	3226
847.429	3256
847.565	3249
847.701	3507
847.837	3058
847.972	3058
848.108	3195
848.244	3211
848.379	3036
848.515	2960
848.65	2975
848.786	3001
848.921	3058
849.057	3135
849.192	3199
849.328	3127
849.463	3161
849.598	3074
849.734	3058
849.869	2998
850.004	2963
850.14	2990
850.275	2933
850.41	2891
850.545	2910
850.68	2982
850.815	2963
850.95	3005
851.085	3211
851.22	3150
851.355	3081
851.49	3009
851.625	3013
851.76	3039
851.895	2941
852.03	2937
852.165	3055
852.299	3123
852.434	3226
852.569	3173
852.703	3188
852.838	3302
852.973	3348
853.107	3378
853.242	3161
853.376	3112
853.511	2975
853.645	3058
853.78	3283
853.914	3169
854.048	3157
854.183	3119
854.317	3146
854.451	3317
854.585	3146
854.72	3108
854.854	3230
854.988	3074
855.122	3093
855.256	3013
855.39	3142
855.524	3230
855.658	3195
855.792	3226
855.926	3237
856.06	3199
856.194	3279
856.327	3150
856.461	3085
856.595	3112
856.729	3093
856.862	3245
856.996	3203
857.13	3233
857.263	3237
857.397	3306
857.53	3157
857.664	3279
857.797	3275
857.931	3325
858.064	3233
858.197	3253
858.331	3176
858.464	3135
858.597	3024
858.731	3127
858.864	3173
858.997	3123
859.13	3192
859.263	3173
859.396	3245
859.529	3077
859.662	3116
859.795	3093
859.928	3180
860.061	3306
860.194	3283
860.327	3157
860.46	3089
860.592	3241
860.725	3268
860.858	3306
860.99	3157
861.123	3077
861.256	3077
861.388	3142
861.521	3903
861.653	3043
861.786	3028
861.918	2990
862.05	3112
862.183	3104
862.315	3165
862.447	3241
862.58	3131
862.712	2994
862.844	2872
862.976	3062
863.108	3024
863.24	3378
863.372	2944
863.504	2971
863.636	2979
863.768	3055
863.9	2986
864.032	2941
864.164	3013
864.296	3032
864.428	3081
864.559	3112
864.691	3066
864.823	3127
864.954	3093
865.086	3097
865.217	3001
865.349	2975
865.48	3047
865.612	3013
865.743	3226
865.875	2994
866.006	2971
866.137	3020
866.269	2967
866.4	2979
866.531	2899
866.662	2914
866.793	2944
866.924	2925
867.055	2963
867.186	2914
867.317	2899
867.448	2887
867.579	2899
867.71	2853
867.841	2838
867.972	2948
868.103	2933
868.233	2853
868.364	2899
868.495	2937
868.625	3077
868.756	3226
868.886	2975
869.017	3013
869.147	3214
869.278	3203
869.408	3043
869.539	3066
869.669	3154
869.799	3062
869.929	3176
870.06	3085
870.19	3363
870.32	3367
870.45	3340
870.58	3431
870.71	3485
870.84	3500
870.97	3317
871.1	3302
871.23	3488
871.36	3492
871.489	3420
871.619	3412
871.749	3458
871.879	3504
872.008	3511
872.138	3389
872.267	3272
872.397	3188
872.526	3161
872.656	3024
872.785	3138
872.915	3264
873.044	3336
873.173	3272
873.303	3245
873.432	3260
873.561	3298
873.69	3203
873.819	3199
873.948	3180
874.077	3161
874.206	3055
874.335	3123
874.464	3264
874.593	3378
874.722	3241
874.851	3412
874.979	3363
875.108	3374
875.237	3222
875.365	3173
875.494	3165
875.623	3253
875.751	3135
875.88	3127
876.008	3207
876.136	3253
876.265	3409
876.393	3572
876.521	3507
876.65	3351
876.778	3370
876.906	3268
877.034	3241
877.162	3264
877.29	3173
877.418	3306
877.546	3245
877.674	3245
877.802	3302
877.93	3279
878.058	3203
878.185	3150
878.313	3245
878.441	3256
878.568	3112
878.696	3165
878.824	3317
878.951	3325
879.079	3492
879.206	3641
879.333	3492
879.461	3412
879.588	3386
879.715	3466
879.842	3629
879.97	3454
880.097	3230
880.224	3169
880.351	3214
880.478	3279
880.605	3230
880.732	3245
880.859	3534
880.986	3321
881.112	3370
881.239	3211
881.366	3135
881.493	3066
881.619	3062
881.746	3081
881.872	3112
881.999	3138
882.125	3176
882.252	3279
882.378	3355
882.505	3473
882.631	3306
882.757	3154
882.883	3222
883.01	3275
883.136	3233
883.262	3142
883.388	3112
883.514	3351
883.64	3428
883.766	3344
883.892	3188
884.018	3256
884.143	3469
884.269	3561
884.395	3226
884.52	3161
884.646	3256
884.772	3135
884.897	3138
885.023	3214
885.148	3386
885.274	3473
885.399	3412
885.524	3313
885.65	3260
885.775	3321
885.9	3313
886.025	3477
886.15	3382
886.275	3336
886.4	3256
886.525	3317
886.65	3279
886.775	3332
886.9	3557
887.025	3663
887.149	3443
887.274	3275
887.399	3195
887.523	3226
887.648	3199
887.773	3256
887.897	3412
888.021	3424
888.146	3302
888.27	3500
888.395	3576
888.519	3466
888.643	3492
888.767	3496
888.891	3359
889.015	3313
889.139	3329
889.263	3268
889.387	3431
889.511	3511
889.635	3496
889.759	3329
889.883	3321
890.006	3401
890.13	3545
890.254	3329
890.377	3382
890.501	3260
890.624	3207
890.748	3306
890.871	3230
890.995	3127
891.118	3108
891.241	3211
891.364	3245
891.488	3382
891.611	3226
891.734	3218
891.857	3317
891.98	3256
892.103	3374
892.226	3283
892.349	3226
892.471	3104
892.594	3298
892.717	3344
892.839	3306
892.962	3329
893.085	3424
893.207	3336
893.33	3211
893.452	3245
893.575	3393
893.697	3287
893.819	3507
893.941	3561
894.064	3485
894.186	3313
894.308	3279
894.43	3450
894.552	3576
894.674	3504
894.796	3332
894.918	3325
895.04	3340
895.161	3454
895.283	3435
895.405	3344
895.526	3370
895.648	3477
895.769	3469
895.891	3492
896.012	3511
896.134	3542
896.255	3447
896.376	3393
896.498	3405
896.619	3485
896.74	3386
896.861	3477
896.982	3743
897.103	3850
897.224	3663
897.345	3603
897.466	3485
897.587	3526
897.708	3667
897.828	3587
897.949	3458
898.07	3359
898.19	3435
898.311	3663
898.431	3469
898.552	3553
898.672	3633
898.792	3663
898.913	3561
899.033	3458
899.153	3340
899.273	3253
899.393	3329
899.513	3401
899.633	3340
899.753	3370
899.873	3359
899.993	3447
900.113	3374
900.232	3409
900.352	3363
900.472	3348
900.591	3253
900.711	3351
900.83	3291
900.95	3488
901.069	3538
901.189	3370
901.308	3161
901.427	3180
901.546	3226
901.665	3340
901.784	3382
901.904	3237
902.023	3138
902.141	3036
902.26	3028
902.379	3150
902.498	3104
902.617	3089
902.735	3283
902.854	3264
902.973	3222
903.091	3097
903.21	3074
903.328	3180
903.446	3131
903.565	3142
903.683	3268
903.801	3146
903.919	3287
904.038	3348
904.156	3237
904.274	3298
904.392	3287
904.51	3332
904.627	3351
904.745	3481
904.863	3530
904.981	3272
905.098	3218
905.216	3249
905.334	3348
905.451	3340
905.569	3340
905.686	3504
905.803	3500
905.921	3291
906.038	3462
906.155	3374
906.272	3313
906.389	3382
906.506	3291
906.623	3279
906.74	3298
906.857	3249
906.974	3264
907.091	3473
907.208	3606
907.324	3488
907.441	3405
907.557	3287
907.674	3291
907.79	3207
907.907	3306
908.023	3412
908.139	3412
908.256	3405
908.372	3374
908.488	3401
908.604	3294
908.72	3245
908.836	3310
908.952	3302
909.068	3340
909.184	3504
909.3	3424
909.415	3545
909.531	3492
909.647	3329
909.762	3317
909.878	3313
909.993	3397
910.108	3363
910.224	3412
910.339	3454
910.454	3367
910.57	3386
910.685	3272
910.8	3591
910.915	3587
911.03	3469
911.145	3329
911.259	3302
911.374	3367
911.489	3287
911.604	3237
911.718	3150
911.833	3214
911.947	3100
912.062	3028
912.176	3192
912.291	3199
912.405	3253
912.519	3458
912.633	3523
912.748	3393
912.862	3302
912.976	3184
913.09	3081
913.204	3180
913.318	3233
913.431	3374
913.545	3374
913.659	3439
913.772	3386
913.886	3245
914	3233
914.113	3405
914.226	3443
914.34	3405
914.453	3245
914.566	3431
914.68	3302
914.793	3351
914.906	3195
915.019	3112
915.132	3093
915.245	3253
915.358	3192
915.47	3268
915.583	3306
915.696	3294
915.809	3443
915.921	3462
916.034	3283
916.146	3272
916.259	3298
916.371	3416
916.483	3401
916.595	3306
916.708	3355
916.82	3374
916.932	3412
917.044	3378
917.156	3416
917.268	3298
917.38	3336
917.491	3363
917.603	3405
917.715	3473
917.826	3507
917.938	3405
918.049	3306
918.161	3466
918.272	3625
918.384	3595
918.495	3553
918.606	3344
918.717	3272
918.828	3405
918.939	3466
919.05	3351
919.161	3409
919.272	3230
919.383	3313
919.494	3526
919.604	3701
919.715	3526
919.826	3462
919.936	3500
920.047	3690
920.157	3614
920.267	3785
920.378	3660
920.488	3637
920.598	3793
920.708	3991
920.818	3842
920.928	3861
921.038	4078
921.148	4044
921.258	3724
921.368	3660
921.477	3629
921.587	3584
921.697	3485
921.806	3663
921.916	3526
922.025	3401
922.134	3420
922.244	3344
922.353	3469
922.462	3287
922.571	3272
922.68	3150
922.789	3112
922.898	3161
923.007	3169
923.116	3184
923.224	3226
923.333	3253
923.442	3161
923.55	3119
923.659	3165
923.767	3264
923.876	3138
923.984	3272
924.092	3146
924.201	3199
924.309	3256
924.417	3294
924.525	3195
924.633	3313
924.741	4276
924.849	3097
924.956	3325
925.064	3112
925.172	3085
925.279	3131
925.387	3233
925.494	3180
925.602	3355
925.709	3344
925.816	3214
925.924	3332
926.031	3477
926.138	3370
926.245	3397
926.352	3291
926.459	3420
926.566	3519
926.673	3359
926.779	3275
926.886	3268
926.993	3195
927.099	3154
927.206	3146
927.312	3165
927.419	3245
927.525	3237
927.631	3344
927.737	3173
927.843	3142
927.95	3020
928.056	3131
928.162	3226
928.267	3268
928.373	3831
928.479	3351
928.585	3104
928.69	3260
928.796	3310
928.901	3203
929.007	3074
929.112	3256
929.218	3260
929.323	3241
929.428	3180
929.533	3351
929.638	3188
929.743	3203
929.848	3332
929.953	3260
930.058	3211
930.163	3028
930.267	3077
930.372	3222
930.477	3051
930.581	3351
930.685	3207
930.79	3123
930.894	3123
930.998	3119
931.103	3306
931.207	3017
931.311	2990
931.415	2990
931.519	2792
931.623	2861
