Data from test_V78500241_27.txt Node
Date: Fri Mar 25 16:15:23 CST 2022
User: usil
Spectrometer: V785-0024
Trigger mode: 0
Integration Time (sec): 4.000000E-1
Scans to average: 1
Nonlinearity correction enabled: false
Boxcar width: 0
Storing dark spectrum: false
XAxis mode: Wavelengths
Number of Pixels in Spectrum: 1024
>>>>>Begin Spectral Data<<<<<
801.071	3001
801.214	3051
801.356	2963
801.499	2979
801.641	2998
801.783	3005
801.926	3138
802.068	3062
802.211	3077
802.353	3157
802.496	3020
802.638	3123
802.78	3116
802.923	3154
803.065	3097
803.208	2994
803.35	3043
803.492	3032
803.635	3039
803.777	2823
803.919	2982
804.061	3279
804.204	3032
804.346	2982
804.488	2948
804.63	3074
804.773	2967
804.915	2975
805.057	3154
805.199	3005
805.341	3074
805.483	3138
805.626	3081
805.768	3032
805.91	3180
806.052	3169
806.194	3127
806.336	3336
806.478	3100
806.62	3055
806.762	2990
806.904	3112
807.046	3203
807.188	3032
807.33	3028
807.472	3070
807.614	2994
807.756	3024
807.898	3020
808.04	2967
808.182	3047
808.324	3009
808.465	2979
808.607	2944
808.749	2842
808.891	2910
809.033	3039
809.174	3043
809.316	2944
809.458	2941
809.6	2880
809.741	2842
809.883	2838
810.025	2960
810.166	2914
810.308	2922
810.45	2929
810.591	2842
810.733	2853
810.875	2944
811.016	2857
811.158	2815
811.299	2887
811.441	2994
811.582	2975
811.724	2914
811.865	2895
812.007	2979
812.148	2963
812.29	2922
812.431	2952
812.573	3009
812.714	3039
812.855	3116
812.997	3131
813.138	3214
813.279	3055
813.421	3028
813.562	3024
813.703	2948
813.845	2960
813.986	2864
814.127	2823
814.268	2906
814.41	2872
814.551	2853
814.692	2937
814.833	2876
814.974	2967
815.115	3085
815.256	2902
815.397	2883
815.539	2906
815.68	2845
815.821	2857
815.962	3020
816.103	2998
816.244	2960
816.385	2956
816.526	3013
816.666	2986
816.807	2838
816.948	2929
817.089	2960
817.23	2899
817.371	2845
817.512	2823
817.653	2937
817.793	2906
817.934	2975
818.075	3043
818.216	3028
818.356	3100
818.497	2956
818.638	2826
818.778	2922
818.919	2906
819.06	2853
819.2	2937
819.341	2842
819.481	2876
819.622	2990
819.762	3176
819.903	3131
820.043	2998
820.184	2971
820.324	2963
820.465	3077
820.605	3108
820.746	3097
820.886	2994
821.026	3173
821.167	3226
821.307	3306
821.447	3359
821.588	3317
821.728	3332
821.868	3264
822.008	3165
822.149	3245
822.289	3268
822.429	3150
822.569	3161
822.709	3230
822.849	3104
822.99	3131
823.13	3241
823.27	3325
823.41	3157
823.55	3233
823.69	3207
823.83	3207
823.97	3169
824.11	3062
824.25	3097
824.389	3146
824.529	3142
824.669	3142
824.809	3253
824.949	3306
825.089	3275
825.228	3237
825.368	3062
825.508	3017
825.648	3055
825.787	3062
825.927	3081
826.067	3039
826.206	3017
826.346	3112
826.485	3138
826.625	3161
826.765	3370
826.904	3245
827.044	3043
827.183	3032
827.323	2925
827.462	3036
827.601	2975
827.741	3005
827.88	2990
828.02	2933
828.159	3032
828.298	3108
828.437	3237
828.577	3104
828.716	3325
828.855	3161
828.994	2986
829.134	2967
829.273	3005
829.412	2922
829.551	2918
829.69	2982
829.829	3081
829.968	3192
830.107	3081
830.246	3070
830.385	3001
830.524	2967
830.663	2906
830.802	2773
830.941	2693
831.08	2678
831.219	2830
831.357	2823
831.496	3013
831.635	2785
831.774	2727
831.913	2716
832.051	2610
832.19	2629
832.329	2766
832.467	2594
832.606	2545
832.744	2613
832.883	2648
833.022	2644
833.16	2739
833.299	2766
833.437	2773
833.576	2727
833.714	2800
833.852	2792
833.991	2823
834.129	2902
834.267	2876
834.406	2842
834.544	2899
834.682	2902
834.821	2933
834.959	3135
835.097	2979
835.235	3077
835.373	3077
835.511	3093
835.65	3009
835.788	3017
835.926	2880
836.064	2864
836.202	2876
836.34	3165
836.478	3180
836.615	3123
836.753	3211
836.891	3294
837.029	3211
837.167	3192
837.305	3169
837.443	3089
837.58	3013
837.718	3188
837.856	3138
837.993	3104
838.131	3207
838.269	3203
838.406	3188
838.544	3154
838.681	3036
838.819	2994
838.956	2853
839.094	2876
839.231	2990
839.369	3039
839.506	3469
839.643	3298
839.781	3093
839.918	3043
840.055	3062
840.193	3097
840.33	3119
840.467	3192
840.604	3176
840.742	3481
840.879	3142
841.016	3116
841.153	3161
841.29	3431
841.427	3355
841.564	3332
841.701	3405
841.838	3321
841.975	3268
842.112	3291
842.249	3142
842.385	3104
842.522	3359
842.659	3135
842.796	3146
842.933	3138
843.069	3085
843.206	3089
843.343	3245
843.479	3188
843.616	3192
843.752	3001
843.889	2933
844.025	3142
844.162	2975
844.298	3116
844.435	3013
844.571	2967
844.708	3089
844.844	3195
844.98	3302
845.117	3260
845.253	3142
845.389	3066
845.525	3157
845.661	3161
845.798	3051
845.934	3176
846.07	3150
846.206	3268
846.342	3405
846.478	3313
846.614	3142
846.75	3131
846.886	3104
847.022	3317
847.158	3184
847.294	3241
847.429	3340
847.565	3302
847.701	3561
847.837	3104
847.972	3058
848.108	3241
848.244	3214
848.379	3032
848.515	2967
848.65	2963
848.786	3032
848.921	3055
849.057	3154
849.192	3199
849.328	3116
849.463	3173
849.598	3097
849.734	3104
849.869	3036
850.004	2963
850.14	3043
850.275	2941
850.41	2910
850.545	2963
850.68	3013
850.815	3024
850.95	3028
851.085	3249
851.22	3150
851.355	3112
851.49	3074
851.625	3055
851.76	3097
851.895	3009
852.03	2963
852.165	3104
852.299	3161
852.434	3275
852.569	3157
852.703	3214
852.838	3310
852.973	3424
853.107	3401
853.242	3233
853.376	3146
853.511	3028
853.645	3077
853.78	3287
853.914	3184
854.048	3142
854.183	3161
854.317	3199
854.451	3351
854.585	3195
854.72	3154
854.854	3287
854.988	3142
855.122	3138
855.256	3009
855.39	3161
855.524	3275
855.658	3222
855.792	3226
855.926	3256
856.06	3287
856.194	3279
856.327	3218
856.461	3154
856.595	3154
856.729	3138
856.862	3253
856.996	3218
857.13	3275
857.263	3264
857.397	3344
857.53	3207
857.664	3233
857.797	3298
857.931	3344
858.064	3237
858.197	3283
858.331	3199
858.464	3146
858.597	3047
858.731	3195
858.864	3207
858.997	3119
859.13	3207
859.263	3207
859.396	3253
859.529	3112
859.662	3097
859.795	3081
859.928	3199
860.061	3313
860.194	3367
860.327	3165
860.46	3161
860.592	3302
860.725	3325
860.858	3313
860.99	3176
861.123	3112
861.256	3085
861.388	3195
861.521	3793
861.653	3116
861.786	3043
861.918	3066
862.05	3131
862.183	3165
862.315	3237
862.447	3279
862.58	3150
862.712	3013
862.844	2933
862.976	3131
863.108	3058
863.24	3454
863.372	2906
863.504	3047
863.636	2979
863.768	3062
863.9	3074
864.032	2982
864.164	2975
864.296	3055
864.428	3150
864.559	3154
864.691	3169
864.823	3108
864.954	3074
865.086	3070
865.217	3058
865.349	2979
865.48	3036
865.612	3036
865.743	3233
865.875	3051
866.006	2994
866.137	3005
866.269	3032
866.4	2967
866.531	2963
866.662	2960
866.793	2929
866.924	2979
867.055	3024
867.186	2986
867.317	2918
867.448	2906
867.579	2895
867.71	2910
867.841	2845
867.972	2944
868.103	2941
868.233	2963
868.364	2922
868.495	2941
868.625	3146
868.756	3249
868.886	3036
869.017	3074
869.147	3192
869.278	3192
869.408	3119
869.539	3089
869.669	3135
869.799	3112
869.929	3169
870.06	3161
870.19	3393
870.32	3355
870.45	3355
870.58	3397
870.71	3538
870.84	3515
870.97	3313
871.1	3279
871.23	3553
871.36	3530
871.489	3447
871.619	3450
871.749	3488
871.879	3481
872.008	3549
872.138	3424
872.267	3336
872.397	3184
872.526	3146
872.656	3081
872.785	3154
872.915	3283
873.044	3363
873.173	3298
873.303	3336
873.432	3260
873.561	3298
873.69	3214
873.819	3176
873.948	3226
874.077	3116
874.206	3085
874.335	3123
874.464	3256
874.593	3412
874.722	3317
874.851	3477
874.979	3378
875.108	3374
875.237	3268
875.365	3195
875.494	3218
875.623	3310
875.751	3154
875.88	3222
876.008	3253
876.136	3264
876.265	3450
876.393	3557
876.521	3481
876.65	3420
876.778	3405
876.906	3329
877.034	3253
877.162	3256
877.29	3241
877.418	3272
877.546	3287
877.674	3325
877.802	3283
877.93	3306
878.058	3173
878.185	3157
878.313	3264
878.441	3256
878.568	3112
878.696	3222
878.824	3310
878.951	3332
879.079	3458
879.206	3686
879.333	3488
879.461	3409
879.588	3405
879.715	3534
879.842	3671
879.97	3450
880.097	3199
880.224	3203
880.351	3226
880.478	3256
880.605	3207
880.732	3211
880.859	3549
880.986	3340
881.112	3370
881.239	3226
881.366	3138
881.493	3077
881.619	3077
881.746	3112
881.872	3100
881.999	3127
882.125	3173
882.252	3329
882.378	3306
882.505	3492
882.631	3313
882.757	3199
882.883	3279
883.01	3256
883.136	3199
883.262	3131
883.388	3154
883.514	3378
883.64	3450
883.766	3378
883.892	3245
884.018	3313
884.143	3450
884.269	3561
884.395	3214
884.52	3192
884.646	3256
884.772	3150
884.897	3119
885.023	3218
885.148	3359
885.274	3466
885.399	3424
885.524	3340
885.65	3321
885.775	3382
885.9	3355
886.025	3500
886.15	3405
886.275	3313
886.4	3313
886.525	3359
886.65	3287
886.775	3325
886.9	3576
887.025	3701
887.149	3447
887.274	3340
887.399	3203
887.523	3211
887.648	3260
887.773	3245
887.897	3428
888.021	3458
888.146	3348
888.27	3488
888.395	3595
888.519	3447
888.643	3519
888.767	3545
888.891	3378
889.015	3294
889.139	3317
889.263	3302
889.387	3443
889.511	3576
889.635	3462
889.759	3363
889.883	3363
890.006	3473
890.13	3549
890.254	3325
890.377	3355
890.501	3268
890.624	3275
890.748	3374
890.871	3207
890.995	3154
891.118	3123
891.241	3291
891.364	3283
891.488	3370
891.611	3241
891.734	3253
891.857	3313
891.98	3268
892.103	3405
892.226	3313
892.349	3268
892.471	3173
892.594	3272
892.717	3329
892.839	3329
892.962	3351
893.085	3412
893.207	3344
893.33	3176
893.452	3306
893.575	3397
893.697	3313
893.819	3545
893.941	3534
894.064	3473
894.186	3313
894.308	3332
894.43	3473
894.552	3591
894.674	3568
894.796	3317
894.918	3367
895.04	3332
895.161	3454
895.283	3405
895.405	3409
895.526	3443
895.648	3481
895.769	3481
895.891	3530
896.012	3530
896.134	3511
896.255	3492
896.376	3435
896.498	3378
896.619	3492
896.74	3416
896.861	3416
896.982	3720
897.103	3934
897.224	3629
897.345	3553
897.466	3519
897.587	3534
897.708	3682
897.828	3610
897.949	3477
898.07	3389
898.19	3439
898.311	3698
898.431	3469
898.552	3591
898.672	3660
898.792	3656
898.913	3519
899.033	3485
899.153	3310
899.273	3264
899.393	3294
899.513	3359
899.633	3382
899.753	3397
899.873	3374
899.993	3466
900.113	3378
900.232	3439
900.352	3435
900.472	3340
900.591	3222
900.711	3351
900.83	3340
900.95	3458
901.069	3549
901.189	3405
901.308	3180
901.427	3161
901.546	3237
901.665	3317
901.784	3374
901.904	3245
902.023	3211
902.141	3074
902.26	3036
902.379	3203
902.498	3085
902.617	3138
902.735	3199
902.854	3260
902.973	3253
903.091	3119
903.21	3100
903.328	3176
903.446	3165
903.565	3180
903.683	3256
903.801	3154
903.919	3283
904.038	3302
904.156	3203
904.274	3336
904.392	3321
904.51	3329
904.627	3386
904.745	3450
904.863	3523
904.981	3344
905.098	3192
905.216	3302
905.334	3374
905.451	3378
905.569	3374
905.686	3473
905.803	3515
905.921	3332
906.038	3462
906.155	3397
906.272	3306
906.389	3351
906.506	3298
906.623	3294
906.74	3348
906.857	3249
906.974	3291
907.091	3511
907.208	3618
907.324	3538
907.441	3420
907.557	3306
907.674	3287
907.79	3268
907.907	3332
908.023	3374
908.139	3424
908.256	3412
908.372	3412
908.488	3409
908.604	3336
908.72	3272
908.836	3348
908.952	3306
909.068	3416
909.184	3511
909.3	3428
909.415	3542
909.531	3523
909.647	3317
909.762	3378
909.878	3294
909.993	3374
910.108	3378
910.224	3393
910.339	3466
910.454	3386
910.57	3325
910.685	3275
910.8	3656
910.915	3561
911.03	3504
911.145	3336
911.259	3340
911.374	3359
911.489	3294
911.604	3302
911.718	3173
911.833	3226
911.947	3055
912.062	3013
912.176	3245
912.291	3272
912.405	3306
912.519	3485
912.633	3526
912.748	3397
912.862	3313
912.976	3188
913.09	3116
913.204	3184
913.318	3275
913.431	3393
913.545	3370
913.659	3439
913.772	3386
913.886	3272
914	3260
914.113	3428
914.226	3466
914.34	3443
914.453	3313
914.566	3443
914.68	3332
914.793	3351
914.906	3173
915.019	3127
915.132	3093
915.245	3214
915.358	3279
915.47	3310
915.583	3294
915.696	3374
915.809	3454
915.921	3435
916.034	3279
916.146	3321
916.259	3298
916.371	3412
916.483	3428
916.595	3313
916.708	3378
916.82	3405
916.932	3409
917.044	3389
917.156	3405
917.268	3298
917.38	3370
917.491	3348
917.603	3412
917.715	3485
917.826	3496
917.938	3439
918.049	3298
918.161	3500
918.272	3641
918.384	3618
918.495	3511
918.606	3389
918.717	3332
918.828	3401
918.939	3488
919.05	3382
919.161	3405
919.272	3256
919.383	3317
919.494	3603
919.604	3740
919.715	3542
919.826	3447
919.936	3553
920.047	3629
920.157	3610
920.267	3846
920.378	3660
920.488	3663
920.598	3808
920.708	3994
920.818	3869
920.928	3934
921.038	4086
921.148	4044
921.258	3740
921.368	3663
921.477	3625
921.587	3648
921.697	3519
921.806	3686
921.916	3534
922.025	3393
922.134	3348
922.244	3370
922.353	3488
922.462	3332
922.571	3268
922.68	3154
922.789	3142
922.898	3230
923.007	3119
923.116	3245
923.224	3184
923.333	3241
923.442	3173
923.55	3184
923.659	3199
923.767	3256
923.876	3161
923.984	3256
924.092	3131
924.201	3233
924.309	3302
924.417	3283
924.525	3237
924.633	3275
924.741	4238
924.849	3070
924.956	3340
925.064	3146
925.172	3074
925.279	3165
925.387	3260
925.494	3268
925.602	3367
925.709	3389
925.816	3245
925.924	3294
926.031	3443
926.138	3348
926.245	3389
926.352	3317
926.459	3424
926.566	3564
926.673	3355
926.779	3321
926.886	3329
926.993	3203
927.099	3176
927.206	3138
927.312	3161
927.419	3306
927.525	3264
927.631	3321
927.737	3180
927.843	3192
927.95	3081
928.056	3173
928.162	3214
928.267	3283
928.373	3857
928.479	3405
928.585	3161
928.69	3207
928.796	3321
928.901	3256
929.007	3081
929.112	3245
929.218	3203
929.323	3161
929.428	3241
929.533	3389
929.638	3146
929.743	3180
929.848	3310
929.953	3260
930.058	3173
930.163	3074
930.267	3055
930.372	3241
930.477	3062
930.581	3363
930.685	3230
930.79	3081
930.894	3112
930.998	3169
931.103	3340
931.207	2998
931.311	2979
931.415	2963
931.519	2834
931.623	2842
