Data from test_V78500241_1858.txt Node
Date: Fri Mar 25 16:28:04 CST 2022
User: usil
Spectrometer: V785-0024
Trigger mode: 0
Integration Time (sec): 4.000000E-1
Scans to average: 1
Nonlinearity correction enabled: false
Boxcar width: 0
Storing dark spectrum: false
XAxis mode: Wavelengths
Number of Pixels in Spectrum: 1024
>>>>>Begin Spectral Data<<<<<
801.071	2883
801.214	2944
801.356	2838
801.499	2922
801.641	2891
801.783	2937
801.926	3058
802.068	2979
802.211	2944
802.353	3013
802.496	2944
802.638	3020
802.78	3032
802.923	3100
803.065	3009
803.208	2918
803.35	2872
803.492	2929
803.635	2910
803.777	2758
803.919	2864
804.061	3195
804.204	2922
804.346	2876
804.488	2857
804.63	2975
804.773	2880
804.915	2906
805.057	3051
805.199	2910
805.341	2971
805.483	3032
805.626	2960
805.768	2963
805.91	3081
806.052	3116
806.194	3028
806.336	3211
806.478	3009
806.62	2963
806.762	2948
806.904	3013
807.046	3104
807.188	2982
807.33	2899
807.472	2975
807.614	2880
807.756	2990
807.898	2914
808.04	2914
808.182	2990
808.324	2998
808.465	2899
808.607	2887
808.749	2819
808.891	2834
809.033	2986
809.174	2941
809.316	2883
809.458	2872
809.6	2766
809.741	2781
809.883	2754
810.025	2834
810.166	2853
810.308	2830
810.45	2845
810.591	2800
810.733	2758
810.875	2834
811.016	2773
811.158	2735
811.299	2777
811.441	2895
811.582	2918
811.724	2781
811.865	2807
812.007	2880
812.148	2853
812.29	2842
812.431	2845
812.573	2937
812.714	2963
812.855	3039
812.997	3036
813.138	3119
813.279	2994
813.421	2994
813.562	2933
813.703	2849
813.845	2880
813.986	2739
814.127	2743
814.268	2826
814.41	2842
814.551	2811
814.692	2868
814.833	2868
814.974	2876
815.115	2956
815.256	2849
815.397	2807
815.539	2861
815.68	2758
815.821	2746
815.962	2948
816.103	2933
816.244	2876
816.385	2834
816.526	2975
816.666	2902
816.807	2788
816.948	2876
817.089	2899
817.23	2876
817.371	2735
817.512	2804
817.653	2823
817.793	2830
817.934	2876
818.075	2963
818.216	2967
818.356	3055
818.497	2872
818.638	2788
818.778	2807
818.919	2750
819.06	2788
819.2	2899
819.341	2804
819.481	2838
819.622	2914
819.762	3100
819.903	3001
820.043	2925
820.184	2902
820.324	2902
820.465	3001
820.605	2994
820.746	3013
820.886	2902
821.026	3081
821.167	3154
821.307	3253
821.447	3272
821.588	3226
821.728	3207
821.868	3142
822.008	3051
822.149	3165
822.289	3214
822.429	3093
822.569	3108
822.709	3195
822.849	3024
822.99	3039
823.13	3150
823.27	3199
823.41	3119
823.55	3119
823.69	3131
823.83	3188
823.97	3081
824.11	3017
824.25	3017
824.389	3062
824.529	3104
824.669	3070
824.809	3176
824.949	3253
825.089	3180
825.228	3138
825.368	2994
825.508	2933
825.648	2979
825.787	2998
825.927	2975
826.067	2975
826.206	2956
826.346	3032
826.485	3039
826.625	3104
826.765	3256
826.904	3180
827.044	2979
827.183	2899
827.323	2819
827.462	3020
827.601	2910
827.741	2925
827.88	2929
828.02	2872
828.159	2979
828.298	3024
828.437	3119
828.577	3036
828.716	3199
828.855	3066
828.994	2902
829.134	2891
829.273	2891
829.412	2861
829.551	2849
829.69	2891
829.829	2956
829.968	3119
830.107	3005
830.246	3017
830.385	2899
830.524	2880
830.663	2807
830.802	2701
830.941	2667
831.08	2640
831.219	2769
831.357	2727
831.496	2952
831.635	2731
831.774	2655
831.913	2667
832.051	2522
832.19	2590
832.329	2697
832.467	2530
832.606	2450
832.744	2571
832.883	2587
833.022	2613
833.16	2659
833.299	2678
833.437	2686
833.576	2712
833.714	2705
833.852	2720
833.991	2758
834.129	2811
834.267	2819
834.406	2781
834.544	2876
834.682	2872
834.821	2864
834.959	3036
835.097	2887
835.235	3055
835.373	2960
835.511	3009
835.65	2960
835.788	2967
835.926	2796
836.064	2788
836.202	2842
836.34	3119
836.478	3089
836.615	3020
836.753	3104
836.891	3195
837.029	3104
837.167	3085
837.305	3070
837.443	3005
837.58	2944
837.718	3119
837.856	3081
837.993	3036
838.131	3104
838.269	3131
838.406	3066
838.544	3066
838.681	2948
838.819	2902
838.956	2819
839.094	2811
839.231	2922
839.369	3009
839.506	3336
839.643	3199
839.781	3009
839.918	2998
840.055	3062
840.193	3062
840.33	3055
840.467	3093
840.604	3142
840.742	3405
840.879	3074
841.016	3024
841.153	3123
841.29	3317
841.427	3264
841.564	3245
841.701	3321
841.838	3184
841.975	3165
842.112	3192
842.249	3081
842.385	3024
842.522	3237
842.659	3047
842.796	3039
842.933	3119
843.069	3051
843.206	3020
843.343	3169
843.479	3108
843.616	3154
843.752	2872
843.889	2853
844.025	3081
844.162	2853
844.298	3066
844.435	2944
844.571	2914
844.708	3020
844.844	3169
844.98	3230
845.117	3176
845.253	3017
845.389	2982
845.525	3112
845.661	3093
845.798	3036
845.934	3097
846.07	3062
846.206	3195
846.342	3268
846.478	3237
846.614	3100
846.75	3024
846.886	3024
847.022	3214
847.158	3146
847.294	3157
847.429	3245
847.565	3218
847.701	3488
847.837	3009
847.972	2979
848.108	3119
848.244	3138
848.379	3001
848.515	2925
848.65	2918
848.786	2971
848.921	3001
849.057	3100
849.192	3127
849.328	3066
849.463	3039
849.598	3074
849.734	3009
849.869	2990
850.004	2899
850.14	2979
850.275	2910
850.41	2838
850.545	2861
850.68	2922
850.815	2952
850.95	2952
851.085	3195
851.22	3138
851.355	3013
851.49	2971
851.625	2990
851.76	2967
851.895	2922
852.03	2906
852.165	3013
852.299	3089
852.434	3176
852.569	3131
852.703	3161
852.838	3218
852.973	3340
853.107	3332
853.242	3150
853.376	3074
853.511	2971
853.645	3051
853.78	3222
853.914	3089
854.048	3104
854.183	3123
854.317	3119
854.451	3275
854.585	3150
854.72	3104
854.854	3214
854.988	3043
855.122	3097
855.256	2975
855.39	3100
855.524	3207
855.658	3173
855.792	3176
855.926	3180
856.06	3214
856.194	3268
856.327	3138
856.461	3081
856.595	3077
856.729	3077
856.862	3176
856.996	3157
857.13	3214
857.263	3264
857.397	3203
857.53	3104
857.664	3176
857.797	3249
857.931	3264
858.064	3138
858.197	3203
858.331	3116
858.464	3070
858.597	3024
858.731	3123
858.864	3138
858.997	3108
859.13	3123
859.263	3180
859.396	3176
859.529	3089
859.662	3062
859.795	3066
859.928	3161
860.061	3264
860.194	3283
860.327	3138
860.46	3097
860.592	3226
860.725	3226
860.858	3237
860.99	3112
861.123	3017
861.256	3032
861.388	3138
861.521	3785
861.653	3028
861.786	2956
861.918	2994
862.05	3055
862.183	3043
862.315	3131
862.447	3249
862.58	3066
862.712	2941
862.844	2861
862.976	2982
863.108	3001
863.24	3424
863.372	2853
863.504	2944
863.636	2918
863.768	3017
863.9	2937
864.032	2933
864.164	2941
864.296	3020
864.428	3055
864.559	3081
864.691	3058
864.823	3081
864.954	2986
865.086	3074
865.217	3001
865.349	2944
865.48	2986
865.612	2986
865.743	3116
865.875	2994
866.006	2925
866.137	2979
866.269	2925
866.4	2914
866.531	2914
866.662	2906
866.793	2868
866.924	2880
867.055	2982
867.186	2899
867.317	2883
867.448	2849
867.579	2826
867.71	2838
867.841	2785
867.972	2922
868.103	2845
868.233	2872
868.364	2864
868.495	2880
868.625	3085
868.756	3154
868.886	2952
869.017	2971
869.147	3146
869.278	3146
869.408	3077
869.539	3055
869.669	3093
869.799	3020
869.929	3089
870.06	3085
870.19	3321
870.32	3260
870.45	3287
870.58	3355
870.71	3416
870.84	3420
870.97	3275
871.1	3199
871.23	3469
871.36	3481
871.489	3367
871.619	3378
871.749	3393
871.879	3397
872.008	3504
872.138	3344
872.267	3264
872.397	3135
872.526	3085
872.656	2994
872.785	3119
872.915	3253
873.044	3306
873.173	3222
873.303	3230
873.432	3233
873.561	3154
873.69	3176
873.819	3146
873.948	3195
874.077	3089
874.206	3051
874.335	3100
874.464	3211
874.593	3336
874.722	3256
874.851	3382
874.979	3336
875.108	3313
875.237	3218
875.365	3157
875.494	3180
875.623	3253
875.751	3081
875.88	3093
876.008	3173
876.136	3203
876.265	3332
876.393	3469
876.521	3386
876.65	3374
876.778	3291
876.906	3264
877.034	3214
877.162	3207
877.29	3176
877.418	3214
877.546	3199
877.674	3199
877.802	3211
877.93	3226
878.058	3131
878.185	3116
878.313	3180
878.441	3218
878.568	3089
878.696	3154
878.824	3203
878.951	3268
879.079	3439
879.206	3603
879.333	3458
879.461	3329
879.588	3325
879.715	3515
879.842	3564
879.97	3332
880.097	3157
880.224	3089
880.351	3146
880.478	3176
880.605	3184
880.732	3161
880.859	3496
880.986	3298
881.112	3340
881.239	3188
881.366	3077
881.493	3013
881.619	2982
881.746	3085
881.872	3074
881.999	3077
882.125	3081
882.252	3218
882.378	3264
882.505	3439
882.631	3279
882.757	3169
882.883	3214
883.01	3184
883.136	3150
883.262	3066
883.388	3104
883.514	3298
883.64	3359
883.766	3302
883.892	3150
884.018	3195
884.143	3416
884.269	3534
884.395	3173
884.52	3176
884.646	3135
884.772	3116
884.897	3085
885.023	3192
885.148	3302
885.274	3431
885.399	3359
885.524	3294
885.65	3279
885.775	3332
885.9	3313
886.025	3458
886.15	3340
886.275	3313
886.4	3226
886.525	3275
886.65	3272
886.775	3283
886.9	3519
887.025	3610
887.149	3401
887.274	3272
887.399	3180
887.523	3180
887.648	3169
887.773	3207
887.897	3370
888.021	3431
888.146	3317
888.27	3431
888.395	3568
888.519	3428
888.643	3477
888.767	3504
888.891	3310
889.015	3275
889.139	3313
889.263	3291
889.387	3420
889.511	3561
889.635	3496
889.759	3313
889.883	3329
890.006	3386
890.13	3492
890.254	3287
890.377	3401
890.501	3218
890.624	3214
890.748	3329
890.871	3176
890.995	3157
891.118	3119
891.241	3230
891.364	3237
891.488	3363
891.611	3222
891.734	3249
891.857	3302
891.98	3253
892.103	3378
892.226	3287
892.349	3241
892.471	3157
892.594	3287
892.717	3332
892.839	3317
892.962	3367
893.085	3405
893.207	3344
893.33	3211
893.452	3226
893.575	3359
893.697	3302
893.819	3530
893.941	3515
894.064	3447
894.186	3321
894.308	3317
894.43	3435
894.552	3584
894.674	3530
894.796	3325
894.918	3329
895.04	3310
895.161	3473
895.283	3447
895.405	3325
895.526	3393
895.648	3473
895.769	3462
895.891	3477
896.012	3481
896.134	3526
896.255	3477
896.376	3450
896.498	3412
896.619	3492
896.74	3450
896.861	3435
896.982	3713
897.103	3850
897.224	3622
897.345	3542
897.466	3428
897.587	3542
897.708	3656
897.828	3633
897.949	3469
898.07	3359
898.19	3435
898.311	3622
898.431	3496
898.552	3492
898.672	3641
898.792	3641
898.913	3534
899.033	3447
899.153	3302
899.273	3249
899.393	3302
899.513	3378
899.633	3382
899.753	3378
899.873	3325
899.993	3420
900.113	3340
900.232	3416
900.352	3344
900.472	3302
900.591	3230
900.711	3321
900.83	3233
900.95	3443
901.069	3534
901.189	3405
901.308	3195
901.427	3142
901.546	3237
901.665	3340
901.784	3374
901.904	3222
902.023	3165
902.141	3051
902.26	3017
902.379	3169
902.498	3089
902.617	3051
902.735	3230
902.854	3260
902.973	3214
903.091	3081
903.21	3100
903.328	3150
903.446	3157
903.565	3119
903.683	3214
903.801	3154
903.919	3294
904.038	3302
904.156	3211
904.274	3336
904.392	3283
904.51	3283
904.627	3355
904.745	3466
904.863	3530
904.981	3287
905.098	3214
905.216	3249
905.334	3298
905.451	3306
905.569	3340
905.686	3435
905.803	3469
905.921	3313
906.038	3454
906.155	3370
906.272	3287
906.389	3351
906.506	3249
906.623	3321
906.74	3253
906.857	3195
906.974	3275
907.091	3519
907.208	3603
907.324	3488
907.441	3401
907.557	3249
907.674	3256
907.79	3211
907.907	3359
908.023	3393
908.139	3412
908.256	3367
908.372	3386
908.488	3359
908.604	3313
908.72	3272
908.836	3294
908.952	3348
909.068	3370
909.184	3534
909.3	3401
909.415	3515
909.531	3504
909.647	3268
909.762	3329
909.878	3344
909.993	3401
910.108	3367
910.224	3412
910.339	3450
910.454	3367
910.57	3287
910.685	3298
910.8	3633
910.915	3561
911.03	3477
911.145	3260
911.259	3298
911.374	3340
911.489	3245
911.604	3253
911.718	3165
911.833	3195
911.947	3028
912.062	3036
912.176	3207
912.291	3237
912.405	3230
912.519	3488
912.633	3481
912.748	3386
912.862	3272
912.976	3222
913.09	3108
913.204	3192
913.318	3253
913.431	3374
913.545	3367
913.659	3420
913.772	3344
913.886	3233
914	3241
914.113	3397
914.226	3428
914.34	3370
914.453	3245
914.566	3428
914.68	3317
914.793	3367
914.906	3157
915.019	3093
915.132	3093
915.245	3230
915.358	3192
915.47	3268
915.583	3321
915.696	3321
915.809	3409
915.921	3450
916.034	3325
916.146	3287
916.259	3275
916.371	3401
916.483	3389
916.595	3287
916.708	3321
916.82	3370
916.932	3386
917.044	3397
917.156	3363
917.268	3294
917.38	3325
917.491	3336
917.603	3363
917.715	3500
917.826	3504
917.938	3416
918.049	3310
918.161	3450
918.272	3610
918.384	3599
918.495	3534
918.606	3363
918.717	3336
918.828	3431
918.939	3420
919.05	3321
919.161	3409
919.272	3218
919.383	3306
919.494	3519
919.604	3663
919.715	3511
919.826	3450
919.936	3492
920.047	3595
920.157	3591
920.267	3755
920.378	3648
920.488	3622
920.598	3804
920.708	3998
920.818	3865
920.928	3861
921.038	4032
921.148	4029
921.258	3747
921.368	3660
921.477	3644
921.587	3568
921.697	3481
921.806	3663
921.916	3545
922.025	3344
922.134	3401
922.244	3355
922.353	3420
922.462	3245
922.571	3241
922.68	3123
922.789	3089
922.898	3157
923.007	3154
923.116	3241
923.224	3184
923.333	3203
923.442	3119
923.55	3097
923.659	3165
923.767	3218
923.876	3161
923.984	3298
924.092	3135
924.201	3203
924.309	3256
924.417	3291
924.525	3157
924.633	3260
924.741	4036
924.849	3077
924.956	3283
925.064	3085
925.172	3055
925.279	3093
925.387	3230
925.494	3218
925.602	3367
925.709	3329
925.816	3218
925.924	3306
926.031	3412
926.138	3351
926.245	3378
926.352	3313
926.459	3420
926.566	3466
926.673	3317
926.779	3245
926.886	3287
926.993	3154
927.099	3127
927.206	3146
927.312	3154
927.419	3260
927.525	3230
927.631	3272
927.737	3214
927.843	3123
927.95	3032
928.056	3180
928.162	3241
928.267	3253
928.373	3781
928.479	3332
928.585	3097
928.69	3272
928.796	3287
928.901	3154
929.007	3077
929.112	3233
929.218	3176
929.323	3173
929.428	3169
929.533	3332
929.638	3142
929.743	3203
929.848	3306
929.953	3226
930.058	3169
930.163	3028
930.267	3066
930.372	3222
930.477	3074
930.581	3340
930.685	3222
930.79	3066
930.894	3123
930.998	3108
931.103	3302
931.207	3001
931.311	2986
931.415	2990
931.519	2819
931.623	2842
