Data from test_V78500241_75.txt Node
Date: Fri Mar 25 16:15:43 CST 2022
User: usil
Spectrometer: V785-0024
Trigger mode: 0
Integration Time (sec): 4.000000E-1
Scans to average: 1
Nonlinearity correction enabled: false
Boxcar width: 0
Storing dark spectrum: false
XAxis mode: Wavelengths
Number of Pixels in Spectrum: 1024
>>>>>Begin Spectral Data<<<<<
801.071	2994
801.214	2986
801.356	2925
801.499	2979
801.641	2929
801.783	3001
801.926	3074
802.068	3024
802.211	3108
802.353	3116
802.496	3055
802.638	3047
802.78	3104
802.923	3157
803.065	3020
803.208	2982
803.35	2979
803.492	3001
803.635	2998
803.777	2792
803.919	2952
804.061	3230
804.204	2982
804.346	2941
804.488	2914
804.63	3024
804.773	2967
804.915	2998
805.057	3138
805.199	3005
805.341	3024
805.483	3135
805.626	3062
805.768	3020
805.91	3169
806.052	3150
806.194	3070
806.336	3233
806.478	3081
806.62	3001
806.762	3020
806.904	3127
807.046	3233
807.188	3047
807.33	2929
807.472	2990
807.614	2963
807.756	3051
807.898	2979
808.04	2956
808.182	3028
808.324	3039
808.465	2944
808.607	2910
808.749	2868
808.891	2906
809.033	3024
809.174	3013
809.316	2952
809.458	2963
809.6	2830
809.741	2819
809.883	2838
810.025	2925
810.166	2918
810.308	2906
810.45	2895
810.591	2853
810.733	2834
810.875	2922
811.016	2815
811.158	2830
811.299	2861
811.441	2979
811.582	2937
811.724	2834
811.865	2868
812.007	2960
812.148	2929
812.29	2902
812.431	2941
812.573	2975
812.714	3005
812.855	3062
812.997	3104
813.138	3154
813.279	3058
813.421	3036
813.562	2971
813.703	2883
813.845	2948
813.986	2868
814.127	2762
814.268	2861
814.41	2918
814.551	2845
814.692	2975
814.833	2872
814.974	2952
815.115	2998
815.256	2902
815.397	2868
815.539	2910
815.68	2830
815.821	2842
815.962	3009
816.103	2975
816.244	2971
816.385	2910
816.526	3005
816.666	2960
816.807	2792
816.948	2971
817.089	2979
817.23	2937
817.371	2792
817.512	2861
817.653	2880
817.793	2891
817.934	2944
818.075	3009
818.216	3051
818.356	3089
818.497	2929
818.638	2868
818.778	2861
818.919	2857
819.06	2792
819.2	2937
819.341	2853
819.481	2868
819.622	2963
819.762	3127
819.903	3100
820.043	2982
820.184	2944
820.324	2929
820.465	3051
820.605	3062
820.746	3081
820.886	2994
821.026	3161
821.167	3211
821.307	3294
821.447	3367
821.588	3272
821.728	3249
821.868	3245
822.008	3135
822.149	3222
822.289	3272
822.429	3135
822.569	3165
822.709	3272
822.849	3077
822.99	3116
823.13	3226
823.27	3241
823.41	3169
823.55	3192
823.69	3226
823.83	3275
823.97	3154
824.11	3043
824.25	3020
824.389	3108
824.529	3131
824.669	3089
824.809	3245
824.949	3310
825.089	3302
825.228	3207
825.368	3043
825.508	3013
825.648	3005
825.787	3077
825.927	3123
826.067	3024
826.206	3024
826.346	3077
826.485	3097
826.625	3142
826.765	3325
826.904	3279
827.044	3020
827.183	3013
827.323	2941
827.462	3055
827.601	2982
827.741	2952
827.88	3001
828.02	2956
828.159	3043
828.298	3104
828.437	3150
828.577	3135
828.716	3287
828.855	3146
828.994	2982
829.134	2918
829.273	2952
829.412	2918
829.551	2910
829.69	2918
829.829	3043
829.968	3161
830.107	3051
830.246	3062
830.385	2944
830.524	2922
830.663	2876
830.802	2735
830.941	2712
831.08	2697
831.219	2788
831.357	2804
831.496	2998
831.635	2766
831.774	2682
831.913	2708
832.051	2606
832.19	2625
832.329	2689
832.467	2602
832.606	2530
832.744	2617
832.883	2629
833.022	2644
833.16	2663
833.299	2746
833.437	2762
833.576	2727
833.714	2739
833.852	2762
833.991	2769
834.129	2899
834.267	2853
834.406	2853
834.544	2910
834.682	2891
834.821	2925
834.959	3093
835.097	2937
835.235	3104
835.373	3066
835.511	3089
835.65	3024
835.788	3001
835.926	2872
836.064	2872
836.202	2887
836.34	3131
836.478	3195
836.615	3119
836.753	3203
836.891	3245
837.029	3192
837.167	3146
837.305	3089
837.443	3085
837.58	3020
837.718	3138
837.856	3093
837.993	3081
838.131	3161
838.269	3165
838.406	3176
838.544	3081
838.681	2971
838.819	2963
838.956	2887
839.094	2872
839.231	2941
839.369	3070
839.506	3439
839.643	3283
839.781	3081
839.918	2990
840.055	3108
840.193	3093
840.33	3055
840.467	3161
840.604	3173
840.742	3466
840.879	3104
841.016	3119
841.153	3138
841.29	3374
841.427	3336
841.564	3325
841.701	3355
841.838	3275
841.975	3226
842.112	3264
842.249	3127
842.385	3097
842.522	3283
842.659	3165
842.796	3062
842.933	3176
843.069	3077
843.206	3077
843.343	3253
843.479	3119
843.616	3184
843.752	2963
843.889	2864
844.025	3135
844.162	2918
844.298	3173
844.435	3017
844.571	2952
844.708	3058
844.844	3188
844.98	3279
845.117	3256
845.253	3089
845.389	3058
845.525	3142
845.661	3123
845.798	3089
845.934	3173
846.07	3058
846.206	3222
846.342	3351
846.478	3291
846.614	3146
846.75	3089
846.886	3070
847.022	3287
847.158	3203
847.294	3279
847.429	3287
847.565	3214
847.701	3561
847.837	3062
847.972	2990
848.108	3173
848.244	3195
848.379	3051
848.515	2979
848.65	2982
848.786	3005
848.921	3047
849.057	3169
849.192	3222
849.328	3081
849.463	3150
849.598	3089
849.734	3100
849.869	2986
850.004	2952
850.14	3028
850.275	2944
850.41	2845
850.545	2922
850.68	2990
850.815	3009
850.95	2971
851.085	3241
851.22	3127
851.355	3051
851.49	3005
851.625	3039
851.76	3043
851.895	2922
852.03	2967
852.165	3062
852.299	3165
852.434	3226
852.569	3176
852.703	3169
852.838	3287
852.973	3363
853.107	3382
853.242	3161
853.376	3116
853.511	2998
853.645	3085
853.78	3253
853.914	3135
854.048	3138
854.183	3131
854.317	3192
854.451	3351
854.585	3169
854.72	3138
854.854	3260
854.988	3119
855.122	3138
855.256	3005
855.39	3157
855.524	3279
855.658	3226
855.792	3184
855.926	3207
856.06	3226
856.194	3287
856.327	3203
856.461	3131
856.595	3131
856.729	3131
856.862	3245
856.996	3199
857.13	3203
857.263	3302
857.397	3313
857.53	3123
857.664	3253
857.797	3260
857.931	3272
858.064	3226
858.197	3268
858.331	3188
858.464	3184
858.597	3036
858.731	3169
858.864	3157
858.997	3154
859.13	3184
859.263	3241
859.396	3207
859.529	3135
859.662	3131
859.795	3081
859.928	3154
860.061	3344
860.194	3340
860.327	3161
860.46	3108
860.592	3294
860.725	3313
860.858	3283
860.99	3138
861.123	3074
861.256	3081
861.388	3195
861.521	3785
861.653	3024
861.786	2994
861.918	3028
862.05	3089
862.183	3157
862.315	3127
862.447	3237
862.58	3093
862.712	2979
862.844	2876
862.976	3051
863.108	3043
863.24	3336
863.372	2910
863.504	2994
863.636	2960
863.768	3062
863.9	2975
864.032	2941
864.164	3032
864.296	3043
864.428	3119
864.559	3150
864.691	3146
864.823	3119
864.954	3066
865.086	3047
865.217	3024
865.349	2994
865.48	2994
865.612	3089
865.743	3207
865.875	2990
866.006	2971
866.137	3032
866.269	3013
866.4	2982
866.531	2960
866.662	2948
866.793	2937
866.924	2910
867.055	3009
867.186	2960
867.317	2914
867.448	2876
867.579	2891
867.71	2872
867.841	2853
867.972	2963
868.103	2975
868.233	2914
868.364	2891
868.495	2979
868.625	3089
868.756	3237
868.886	2990
869.017	3047
869.147	3222
869.278	3169
869.408	3100
869.539	3070
869.669	3116
869.799	3066
869.929	3180
870.06	3138
870.19	3317
870.32	3329
870.45	3336
870.58	3401
870.71	3519
870.84	3485
870.97	3306
871.1	3325
871.23	3534
871.36	3481
871.489	3363
871.619	3412
871.749	3416
871.879	3469
872.008	3507
872.138	3367
872.267	3344
872.397	3123
872.526	3135
872.656	3020
872.785	3123
872.915	3233
873.044	3344
873.173	3241
873.303	3321
873.432	3256
873.561	3279
873.69	3195
873.819	3184
873.948	3245
874.077	3154
874.206	3123
874.335	3127
874.464	3256
874.593	3409
874.722	3253
874.851	3431
874.979	3363
875.108	3348
875.237	3230
875.365	3199
875.494	3188
875.623	3230
875.751	3093
875.88	3138
876.008	3203
876.136	3260
876.265	3405
876.393	3557
876.521	3504
876.65	3435
876.778	3344
876.906	3283
877.034	3249
877.162	3302
877.29	3199
877.418	3287
877.546	3256
877.674	3283
877.802	3264
877.93	3260
878.058	3180
878.185	3119
878.313	3237
878.441	3260
878.568	3089
878.696	3207
878.824	3310
878.951	3313
879.079	3504
879.206	3637
879.333	3466
879.461	3363
879.588	3420
879.715	3526
879.842	3671
879.97	3443
880.097	3165
880.224	3135
880.351	3253
880.478	3226
880.605	3203
880.732	3237
880.859	3523
880.986	3310
881.112	3359
881.239	3218
881.366	3116
881.493	3070
881.619	3062
881.746	3119
881.872	3093
881.999	3157
882.125	3180
882.252	3249
882.378	3332
882.505	3447
882.631	3283
882.757	3207
882.883	3245
883.01	3294
883.136	3157
883.262	3119
883.388	3184
883.514	3363
883.64	3409
883.766	3355
883.892	3256
884.018	3253
884.143	3439
884.269	3545
884.395	3203
884.52	3211
884.646	3222
884.772	3169
884.897	3142
885.023	3230
885.148	3359
885.274	3443
885.399	3397
885.524	3264
885.65	3340
885.775	3374
885.9	3313
886.025	3488
886.15	3401
886.275	3294
886.4	3275
886.525	3344
886.65	3298
886.775	3287
886.9	3561
887.025	3682
887.149	3405
887.274	3279
887.399	3211
887.523	3230
887.648	3211
887.773	3249
887.897	3416
888.021	3450
888.146	3317
888.27	3511
888.395	3587
888.519	3454
888.643	3481
888.767	3466
888.891	3325
889.015	3226
889.139	3260
889.263	3245
889.387	3443
889.511	3587
889.635	3473
889.759	3325
889.883	3332
890.006	3363
890.13	3523
890.254	3302
890.377	3382
890.501	3260
890.624	3192
890.748	3317
890.871	3245
890.995	3173
891.118	3116
891.241	3184
891.364	3260
891.488	3363
891.611	3192
891.734	3245
891.857	3336
891.98	3279
892.103	3393
892.226	3313
892.349	3226
892.471	3138
892.594	3287
892.717	3340
892.839	3367
892.962	3332
893.085	3401
893.207	3336
893.33	3199
893.452	3245
893.575	3401
893.697	3287
893.819	3504
893.941	3549
894.064	3481
894.186	3268
894.308	3329
894.43	3450
894.552	3561
894.674	3511
894.796	3302
894.918	3393
895.04	3344
895.161	3485
895.283	3420
895.405	3351
895.526	3428
895.648	3435
895.769	3447
895.891	3450
896.012	3511
896.134	3477
896.255	3435
896.376	3405
896.498	3378
896.619	3485
896.74	3378
896.861	3435
896.982	3701
897.103	3873
897.224	3614
897.345	3492
897.466	3447
897.587	3523
897.708	3656
897.828	3553
897.949	3447
898.07	3351
898.19	3405
898.311	3648
898.431	3492
898.552	3515
898.672	3610
898.792	3580
898.913	3557
899.033	3420
899.153	3329
899.273	3230
899.393	3325
899.513	3370
899.633	3332
899.753	3374
899.873	3332
899.993	3431
900.113	3355
900.232	3435
900.352	3382
900.472	3344
900.591	3268
900.711	3279
900.83	3294
900.95	3439
901.069	3538
901.189	3389
901.308	3195
901.427	3169
901.546	3195
901.665	3268
901.784	3397
901.904	3245
902.023	3199
902.141	3070
902.26	3058
902.379	3195
902.498	3116
902.617	3089
902.735	3272
902.854	3287
902.973	3233
903.091	3055
903.21	3104
903.328	3188
903.446	3154
903.565	3161
903.683	3226
903.801	3184
903.919	3272
904.038	3294
904.156	3241
904.274	3344
904.392	3249
904.51	3310
904.627	3325
904.745	3485
904.863	3523
904.981	3298
905.098	3207
905.216	3268
905.334	3359
905.451	3340
905.569	3317
905.686	3428
905.803	3488
905.921	3336
906.038	3515
906.155	3405
906.272	3302
906.389	3336
906.506	3260
906.623	3283
906.74	3313
906.857	3237
906.974	3340
907.091	3450
907.208	3625
907.324	3500
907.441	3435
907.557	3283
907.674	3279
907.79	3256
907.907	3313
908.023	3416
908.139	3424
908.256	3321
908.372	3405
908.488	3412
908.604	3268
908.72	3298
908.836	3321
908.952	3325
909.068	3363
909.184	3511
909.3	3435
909.415	3553
909.531	3481
909.647	3317
909.762	3340
909.878	3275
909.993	3332
910.108	3370
910.224	3386
910.339	3416
910.454	3393
910.57	3321
910.685	3287
910.8	3656
910.915	3576
911.03	3488
911.145	3310
911.259	3313
911.374	3351
911.489	3294
911.604	3283
911.718	3161
911.833	3199
911.947	3047
912.062	3013
912.176	3203
912.291	3211
912.405	3245
912.519	3458
912.633	3458
912.748	3378
912.862	3268
912.976	3180
913.09	3108
913.204	3169
913.318	3279
913.431	3386
913.545	3389
913.659	3435
913.772	3412
913.886	3264
914	3245
914.113	3397
914.226	3454
914.34	3431
914.453	3230
914.566	3469
914.68	3359
914.793	3302
914.906	3230
915.019	3176
915.132	3070
915.245	3211
915.358	3241
915.47	3298
915.583	3268
915.696	3317
915.809	3450
915.921	3466
916.034	3291
916.146	3287
916.259	3268
916.371	3405
916.483	3443
916.595	3317
916.708	3355
916.82	3367
916.932	3386
917.044	3340
917.156	3386
917.268	3279
917.38	3325
917.491	3340
917.603	3450
917.715	3462
917.826	3526
917.938	3435
918.049	3302
918.161	3488
918.272	3656
918.384	3610
918.495	3564
918.606	3405
918.717	3306
918.828	3420
918.939	3458
919.05	3313
919.161	3401
919.272	3207
919.383	3302
919.494	3526
919.604	3717
919.715	3507
919.826	3450
919.936	3473
920.047	3610
920.157	3610
920.267	3808
920.378	3641
920.488	3644
920.598	3857
920.708	3979
920.818	3880
920.928	3857
921.038	4048
921.148	4029
921.258	3736
921.368	3709
921.477	3641
921.587	3580
921.697	3500
921.806	3660
921.916	3545
922.025	3393
922.134	3363
922.244	3306
922.353	3431
922.462	3298
922.571	3268
922.68	3161
922.789	3127
922.898	3165
923.007	3104
923.116	3218
923.224	3176
923.333	3214
923.442	3138
923.55	3135
923.659	3150
923.767	3245
923.876	3169
923.984	3275
924.092	3108
924.201	3211
924.309	3245
924.417	3279
924.525	3222
924.633	3260
924.741	4223
924.849	3089
924.956	3302
925.064	3104
925.172	3066
925.279	3157
925.387	3218
925.494	3260
925.602	3359
925.709	3393
925.816	3249
925.924	3340
926.031	3374
926.138	3359
926.245	3401
926.352	3256
926.459	3450
926.566	3504
926.673	3393
926.779	3260
926.886	3294
926.993	3207
927.099	3203
927.206	3112
927.312	3135
927.419	3253
927.525	3226
927.631	3287
927.737	3176
927.843	3150
927.95	3024
928.056	3161
928.162	3180
928.267	3264
928.373	3823
928.479	3363
928.585	3051
928.69	3260
928.796	3325
928.901	3161
929.007	3032
929.112	3214
929.218	3203
929.323	3150
929.428	3161
929.533	3367
929.638	3116
929.743	3218
929.848	3310
929.953	3233
930.058	3188
930.163	3024
930.267	3097
930.372	3256
930.477	3043
930.581	3367
930.685	3195
930.79	3119
930.894	3173
930.998	3150
931.103	3302
931.207	2975
931.311	2998
931.415	2952
931.519	2754
931.623	2842
