Data from test_V78500241_627.txt Node
Date: Fri Mar 25 16:19:32 CST 2022
User: usil
Spectrometer: V785-0024
Trigger mode: 0
Integration Time (sec): 4.000000E-1
Scans to average: 1
Nonlinearity correction enabled: false
Boxcar width: 0
Storing dark spectrum: false
XAxis mode: Wavelengths
Number of Pixels in Spectrum: 1024
>>>>>Begin Spectral Data<<<<<
801.071	2891
801.214	2944
801.356	2891
801.499	2895
801.641	2910
801.783	2937
801.926	3043
802.068	2975
802.211	3001
802.353	3043
802.496	3005
802.638	2990
802.78	3028
802.923	3047
803.065	3020
803.208	2902
803.35	2895
803.492	2910
803.635	2941
803.777	2762
803.919	2872
804.061	3165
804.204	2899
804.346	2910
804.488	2868
804.63	2990
804.773	2853
804.915	2925
805.057	3036
805.199	2944
805.341	2944
805.483	3047
805.626	2986
805.768	2937
805.91	3093
806.052	3131
806.194	3051
806.336	3256
806.478	2998
806.62	2922
806.762	2990
806.904	3032
807.046	3146
807.188	2967
807.33	2914
807.472	2952
807.614	2887
807.756	2956
807.898	2918
808.04	2891
808.182	2956
808.324	2902
808.465	2910
808.607	2887
808.749	2758
808.891	2826
809.033	2994
809.174	2994
809.316	2880
809.458	2883
809.6	2750
809.741	2785
809.883	2746
810.025	2838
810.166	2872
810.308	2796
810.45	2849
810.591	2746
810.733	2773
810.875	2819
811.016	2773
811.158	2743
811.299	2796
811.441	2933
811.582	2887
811.724	2804
811.865	2838
812.007	2929
812.148	2891
812.29	2834
812.431	2864
812.573	2960
812.714	2956
812.855	3017
812.997	3039
813.138	3089
813.279	3001
813.421	2948
813.562	2933
813.703	2857
813.845	2880
813.986	2766
814.127	2697
814.268	2815
814.41	2834
814.551	2773
814.692	2842
814.833	2815
814.974	2864
815.115	2933
815.256	2826
815.397	2830
815.539	2849
815.68	2800
815.821	2777
815.962	2933
816.103	2910
816.244	2887
816.385	2834
816.526	2948
816.666	2887
816.807	2724
816.948	2914
817.089	2910
817.23	2857
817.371	2796
817.512	2800
817.653	2834
817.793	2796
817.934	2887
818.075	2967
818.216	3013
818.356	3005
818.497	2880
818.638	2773
818.778	2811
818.919	2796
819.06	2746
819.2	2864
819.341	2750
819.481	2807
819.622	2906
819.762	3089
819.903	3047
820.043	2914
820.184	2891
820.324	2910
820.465	2994
820.605	3020
820.746	3032
820.886	2929
821.026	3097
821.167	3150
821.307	3268
821.447	3241
821.588	3199
821.728	3211
821.868	3184
822.008	3085
822.149	3131
822.289	3226
822.429	3108
822.569	3100
822.709	3146
822.849	2990
822.99	3039
823.13	3157
823.27	3176
823.41	3123
823.55	3161
823.69	3161
823.83	3180
823.97	3070
824.11	3020
824.25	3001
824.389	3093
824.529	3112
824.669	3058
824.809	3150
824.949	3226
825.089	3199
825.228	3131
825.368	2963
825.508	3001
825.648	2960
825.787	2998
825.927	2998
826.067	2982
826.206	2956
826.346	3009
826.485	3066
826.625	3081
826.765	3230
826.904	3222
827.044	2967
827.183	2922
827.323	2887
827.462	2994
827.601	2899
827.741	2956
827.88	2910
828.02	2838
828.159	2990
828.298	3051
828.437	3089
828.577	3009
828.716	3249
828.855	3085
828.994	2891
829.134	2853
829.273	2922
829.412	2838
829.551	2876
829.69	2842
829.829	2963
829.968	3123
830.107	3039
830.246	3017
830.385	2925
830.524	2853
830.663	2823
830.802	2686
830.941	2663
831.08	2651
831.219	2739
831.357	2750
831.496	2922
831.635	2716
831.774	2625
831.913	2659
832.051	2518
832.19	2568
832.329	2678
832.467	2518
832.606	2484
832.744	2530
832.883	2568
833.022	2560
833.16	2640
833.299	2686
833.437	2697
833.576	2697
833.714	2697
833.852	2724
833.991	2769
834.129	2823
834.267	2781
834.406	2731
834.544	2849
834.682	2842
834.821	2849
834.959	3055
835.097	2887
835.235	3032
835.373	3024
835.511	3024
835.65	2956
835.788	2925
835.926	2788
836.064	2762
836.202	2861
836.34	3097
836.478	3150
836.615	3043
836.753	3135
836.891	3150
837.029	3112
837.167	3116
837.305	3077
837.443	3009
837.58	2956
837.718	3093
837.856	3055
837.993	3005
838.131	3085
838.269	3093
838.406	3047
838.544	3058
838.681	2941
838.819	2933
838.956	2800
839.094	2807
839.231	2902
839.369	3001
839.506	3340
839.643	3169
839.781	3001
839.918	2929
840.055	3032
840.193	3074
840.33	3058
840.467	3089
840.604	3138
840.742	3386
840.879	3047
841.016	3028
841.153	3104
841.29	3310
841.427	3279
841.564	3233
841.701	3287
841.838	3176
841.975	3203
842.112	3146
842.249	3074
842.385	3036
842.522	3283
842.659	3070
842.796	3085
842.933	3074
843.069	3051
843.206	3024
843.343	3169
843.479	3104
843.616	3104
843.752	2891
843.889	2864
844.025	3058
844.162	2868
844.298	3028
844.435	2906
844.571	2895
844.708	3058
844.844	3123
844.98	3199
845.117	3180
845.253	3039
845.389	2979
845.525	3119
845.661	3028
845.798	3005
845.934	3138
846.07	3066
846.206	3211
846.342	3302
846.478	3192
846.614	3039
846.75	3051
846.886	2990
847.022	3211
847.158	3062
847.294	3211
847.429	3195
847.565	3203
847.701	3500
847.837	3024
847.972	3001
848.108	3135
848.244	3119
848.379	2967
848.515	2887
848.65	2899
848.786	2960
848.921	2956
849.057	3123
849.192	3135
849.328	3020
849.463	3112
849.598	3047
849.734	3005
849.869	2952
850.004	2899
850.14	2967
850.275	2899
850.41	2800
850.545	2857
850.68	2914
850.815	2891
850.95	2994
851.085	3142
851.22	3081
851.355	3013
851.49	2982
851.625	2990
851.76	2994
851.895	2895
852.03	2864
852.165	3028
852.299	3108
852.434	3123
852.569	3127
852.703	3165
852.838	3218
852.973	3298
853.107	3302
853.242	3131
853.376	3062
853.511	2948
853.645	3024
853.78	3165
853.914	3089
854.048	3093
854.183	3043
854.317	3131
854.451	3279
854.585	3093
854.72	3055
854.854	3192
854.988	3039
855.122	3070
855.256	2975
855.39	3116
855.524	3233
855.658	3165
855.792	3169
855.926	3180
856.06	3214
856.194	3237
856.327	3108
856.461	3047
856.595	3097
856.729	3077
856.862	3207
856.996	3188
857.13	3150
857.263	3218
857.397	3291
857.53	3176
857.664	3226
857.797	3184
857.931	3256
858.064	3207
858.197	3211
858.331	3127
858.464	3108
858.597	3013
858.731	3116
858.864	3146
858.997	3093
859.13	3195
859.263	3207
859.396	3218
859.529	3138
859.662	3116
859.795	3036
859.928	3173
860.061	3287
860.194	3253
860.327	3146
860.46	3112
860.592	3279
860.725	3272
860.858	3287
860.99	3127
861.123	3097
861.256	3051
861.388	3165
861.521	3751
861.653	3081
861.786	2990
861.918	3051
862.05	3097
862.183	3127
862.315	3180
862.447	3233
862.58	3161
862.712	2975
862.844	2902
862.976	3032
863.108	3032
863.24	3466
863.372	2910
863.504	3001
863.636	2990
863.768	3062
863.9	3001
864.032	2941
864.164	2990
864.296	3039
864.428	3119
864.559	3169
864.691	3108
864.823	3108
864.954	3047
865.086	3089
865.217	3028
865.349	2982
865.48	3005
865.612	3066
865.743	3199
865.875	3005
866.006	2971
866.137	3013
866.269	2979
866.4	2956
866.531	2963
866.662	2918
866.793	2883
866.924	2910
867.055	3001
867.186	2933
867.317	2891
867.448	2895
867.579	2872
867.71	2868
867.841	2834
867.972	2914
868.103	2937
868.233	2956
868.364	2868
868.495	2929
868.625	3119
868.756	3184
868.886	3009
869.017	3028
869.147	3222
869.278	3173
869.408	3058
869.539	3074
869.669	3169
869.799	3108
869.929	3154
870.06	3119
870.19	3367
870.32	3351
870.45	3313
870.58	3367
870.71	3477
870.84	3469
870.97	3313
871.1	3260
871.23	3469
871.36	3447
871.489	3405
871.619	3409
871.749	3428
871.879	3454
872.008	3488
872.138	3370
872.267	3313
872.397	3184
872.526	3119
872.656	3036
872.785	3135
872.915	3272
873.044	3363
873.173	3294
873.303	3287
873.432	3268
873.561	3249
873.69	3157
873.819	3161
873.948	3256
874.077	3104
874.206	3020
874.335	3127
874.464	3264
874.593	3393
874.722	3268
874.851	3447
874.979	3355
875.108	3321
875.237	3260
875.365	3207
875.494	3226
875.623	3226
875.751	3089
875.88	3123
876.008	3233
876.136	3264
876.265	3393
876.393	3534
876.521	3439
876.65	3412
876.778	3386
876.906	3264
877.034	3176
877.162	3256
877.29	3188
877.418	3260
877.546	3275
877.674	3245
877.802	3275
877.93	3268
878.058	3184
878.185	3116
878.313	3249
878.441	3211
878.568	3104
878.696	3199
878.824	3302
878.951	3291
879.079	3466
879.206	3606
879.333	3473
879.461	3359
879.588	3382
879.715	3500
879.842	3629
879.97	3466
880.097	3214
880.224	3161
880.351	3230
880.478	3275
880.605	3195
880.732	3245
880.859	3549
880.986	3329
881.112	3363
881.239	3222
881.366	3123
881.493	3062
881.619	3032
881.746	3116
881.872	3112
881.999	3104
882.125	3150
882.252	3294
882.378	3329
882.505	3466
882.631	3313
882.757	3195
882.883	3268
883.01	3241
883.136	3203
883.262	3123
883.388	3112
883.514	3348
883.64	3424
883.766	3332
883.892	3241
884.018	3283
884.143	3439
884.269	3580
884.395	3207
884.52	3184
884.646	3264
884.772	3161
884.897	3100
885.023	3264
885.148	3355
885.274	3450
885.399	3348
885.524	3306
885.65	3298
885.775	3336
885.9	3233
886.025	3450
886.15	3397
886.275	3302
886.4	3283
886.525	3306
886.65	3340
886.775	3344
886.9	3530
887.025	3679
887.149	3428
887.274	3268
887.399	3203
887.523	3249
887.648	3195
887.773	3237
887.897	3393
888.021	3393
888.146	3340
888.27	3492
888.395	3530
888.519	3462
888.643	3500
888.767	3458
888.891	3329
889.015	3287
889.139	3287
889.263	3287
889.387	3439
889.511	3500
889.635	3473
889.759	3317
889.883	3336
890.006	3409
890.13	3515
890.254	3291
890.377	3363
890.501	3275
890.624	3199
890.748	3332
890.871	3195
890.995	3131
891.118	3116
891.241	3233
891.364	3233
891.488	3340
891.611	3199
891.734	3260
891.857	3336
891.98	3298
892.103	3340
892.226	3279
892.349	3233
892.471	3104
892.594	3264
892.717	3306
892.839	3355
892.962	3310
893.085	3370
893.207	3306
893.33	3161
893.452	3226
893.575	3355
893.697	3283
893.819	3477
893.941	3534
894.064	3488
894.186	3313
894.308	3325
894.43	3447
894.552	3584
894.674	3477
894.796	3329
894.918	3294
895.04	3306
895.161	3477
895.283	3412
895.405	3310
895.526	3409
895.648	3435
895.769	3447
895.891	3458
896.012	3507
896.134	3473
896.255	3428
896.376	3389
896.498	3363
896.619	3412
896.74	3378
896.861	3370
896.982	3690
897.103	3861
897.224	3587
897.345	3542
897.466	3481
897.587	3466
897.708	3637
897.828	3584
897.949	3462
898.07	3329
898.19	3431
898.311	3568
898.431	3485
898.552	3507
898.672	3641
898.792	3572
898.913	3542
899.033	3424
899.153	3275
899.273	3203
899.393	3283
899.513	3348
899.633	3351
899.753	3363
899.873	3351
899.993	3431
900.113	3382
900.232	3416
900.352	3382
900.472	3317
900.591	3180
900.711	3321
900.83	3237
900.95	3439
901.069	3526
901.189	3332
901.308	3211
901.427	3180
901.546	3218
901.665	3298
901.784	3389
901.904	3253
902.023	3157
902.141	3043
902.26	3005
902.379	3169
902.498	3093
902.617	3104
902.735	3226
902.854	3272
902.973	3207
903.091	3070
903.21	3066
903.328	3131
903.446	3131
903.565	3093
903.683	3226
903.801	3146
903.919	3291
904.038	3313
904.156	3195
904.274	3310
904.392	3256
904.51	3359
904.627	3348
904.745	3473
904.863	3488
904.981	3272
905.098	3173
905.216	3249
905.334	3268
905.451	3355
905.569	3344
905.686	3462
905.803	3466
905.921	3306
906.038	3450
906.155	3370
906.272	3287
906.389	3367
906.506	3245
906.623	3279
906.74	3287
906.857	3222
906.974	3283
907.091	3450
907.208	3591
907.324	3492
907.441	3428
907.557	3279
907.674	3279
907.79	3214
907.907	3283
908.023	3382
908.139	3409
908.256	3344
908.372	3386
908.488	3393
908.604	3237
908.72	3199
908.836	3325
908.952	3332
909.068	3344
909.184	3492
909.3	3412
909.415	3530
909.531	3526
909.647	3275
909.762	3336
909.878	3279
909.993	3401
910.108	3336
910.224	3351
910.339	3443
910.454	3351
910.57	3310
910.685	3264
910.8	3629
910.915	3523
911.03	3454
911.145	3287
911.259	3264
911.374	3321
911.489	3256
911.604	3211
911.718	3157
911.833	3192
911.947	3020
912.062	2990
912.176	3184
912.291	3188
912.405	3245
912.519	3473
912.633	3466
912.748	3374
912.862	3294
912.976	3207
913.09	3058
913.204	3135
913.318	3249
913.431	3332
913.545	3359
913.659	3428
913.772	3325
913.886	3203
914	3218
914.113	3344
914.226	3428
914.34	3386
914.453	3218
914.566	3431
914.68	3332
914.793	3340
914.906	3135
915.019	3116
915.132	3074
915.245	3195
915.358	3222
915.47	3253
915.583	3260
915.696	3310
915.809	3409
915.921	3374
916.034	3249
916.146	3249
916.259	3226
916.371	3386
916.483	3389
916.595	3298
916.708	3340
916.82	3317
916.932	3336
917.044	3351
917.156	3336
917.268	3310
917.38	3310
917.491	3313
917.603	3409
917.715	3507
917.826	3431
917.938	3378
918.049	3317
918.161	3424
918.272	3553
918.384	3576
918.495	3492
918.606	3294
918.717	3298
918.828	3374
918.939	3458
919.05	3332
919.161	3367
919.272	3165
919.383	3268
919.494	3526
919.604	3694
919.715	3458
919.826	3424
919.936	3481
920.047	3584
920.157	3564
920.267	3778
920.378	3584
920.488	3561
920.598	3789
920.708	3934
920.818	3846
920.928	3804
921.038	4021
921.148	4010
921.258	3709
921.368	3686
921.477	3561
921.587	3553
921.697	3473
921.806	3637
921.916	3519
922.025	3359
922.134	3370
922.244	3382
922.353	3447
922.462	3279
922.571	3222
922.68	3108
922.789	3081
922.898	3131
923.007	3116
923.116	3211
923.224	3207
923.333	3192
923.442	3116
923.55	3112
923.659	3207
923.767	3207
923.876	3100
923.984	3241
924.092	3150
924.201	3237
924.309	3218
924.417	3268
924.525	3245
924.633	3272
924.741	4055
924.849	3089
924.956	3253
925.064	3127
925.172	3077
925.279	3123
925.387	3207
925.494	3245
925.602	3378
925.709	3344
925.816	3233
925.924	3389
926.031	3378
926.138	3370
926.245	3389
926.352	3275
926.459	3454
926.566	3488
926.673	3317
926.779	3294
926.886	3241
926.993	3211
927.099	3195
927.206	3192
927.312	3154
927.419	3321
927.525	3245
927.631	3306
927.737	3184
927.843	3173
927.95	3077
928.056	3173
928.162	3207
928.267	3272
928.373	3793
928.479	3363
928.585	3135
928.69	3268
928.796	3340
928.901	3233
929.007	3097
929.112	3245
929.218	3233
929.323	3211
929.428	3188
929.533	3355
929.638	3169
929.743	3203
929.848	3336
929.953	3268
930.058	3188
930.163	3028
930.267	3119
930.372	3264
930.477	3089
930.581	3344
930.685	3222
930.79	3100
930.894	3211
930.998	3135
931.103	3329
931.207	2971
931.311	3005
931.415	2979
931.519	2819
931.623	2899
