Data from test_V78500241_1521.txt Node
Date: Fri Mar 25 16:25:44 CST 2022
User: usil
Spectrometer: V785-0024
Trigger mode: 0
Integration Time (sec): 4.000000E-1
Scans to average: 1
Nonlinearity correction enabled: false
Boxcar width: 0
Storing dark spectrum: false
XAxis mode: Wavelengths
Number of Pixels in Spectrum: 1024
>>>>>Begin Spectral Data<<<<<
801.071	2925
801.214	2948
801.356	2861
801.499	2925
801.641	2914
801.783	2922
801.926	3055
802.068	3001
802.211	3047
802.353	3070
802.496	2979
802.638	3020
802.78	3077
802.923	3131
803.065	3005
803.208	2906
803.35	2925
803.492	2990
803.635	2933
803.777	2785
803.919	2895
804.061	3230
804.204	2979
804.346	2925
804.488	2838
804.63	3009
804.773	2887
804.915	2906
805.057	3127
805.199	2922
805.341	2994
805.483	3077
805.626	3024
805.768	2944
805.91	3077
806.052	3112
806.194	3058
806.336	3222
806.478	3047
806.62	2952
806.762	3024
806.904	3058
807.046	3142
807.188	2994
807.33	2918
807.472	3024
807.614	2941
807.756	2956
807.898	2952
808.04	2895
808.182	2990
808.324	2975
808.465	2910
808.607	2861
808.749	2823
808.891	2868
809.033	2967
809.174	3013
809.316	2872
809.458	2895
809.6	2796
809.741	2762
809.883	2796
810.025	2864
810.166	2864
810.308	2864
810.45	2853
810.591	2823
810.733	2781
810.875	2872
811.016	2781
811.158	2781
811.299	2781
811.441	2952
811.582	2929
811.724	2842
811.865	2876
812.007	2918
812.148	2883
812.29	2868
812.431	2918
812.573	2952
812.714	2982
812.855	3074
812.997	3066
813.138	3108
813.279	3039
813.421	2998
813.562	3001
813.703	2864
813.845	2902
813.986	2815
814.127	2750
814.268	2842
814.41	2868
814.551	2826
814.692	2929
814.833	2845
814.974	2906
815.115	2971
815.256	2838
815.397	2838
815.539	2891
815.68	2785
815.821	2781
815.962	2948
816.103	2937
816.244	2937
816.385	2899
816.526	3013
816.666	2902
816.807	2781
816.948	2914
817.089	2887
817.23	2872
817.371	2792
817.512	2807
817.653	2826
817.793	2811
817.934	2891
818.075	2998
818.216	3009
818.356	3039
818.497	2872
818.638	2823
818.778	2857
818.919	2792
819.06	2792
819.2	2868
819.341	2853
819.481	2830
819.622	2906
819.762	3089
819.903	3039
820.043	2979
820.184	2910
820.324	2902
820.465	3013
820.605	3032
820.746	3081
820.886	2937
821.026	3108
821.167	3165
821.307	3268
821.447	3249
821.588	3268
821.728	3207
821.868	3188
822.008	3085
822.149	3188
822.289	3226
822.429	3097
822.569	3097
822.709	3188
822.849	3024
822.99	3055
823.13	3142
823.27	3180
823.41	3119
823.55	3157
823.69	3150
823.83	3218
823.97	3123
824.11	3017
824.25	3009
824.389	3100
824.529	3146
824.669	3085
824.809	3222
824.949	3241
825.089	3199
825.228	3173
825.368	3005
825.508	2975
825.648	3001
825.787	3036
825.927	3058
826.067	2975
826.206	2933
826.346	3047
826.485	3077
826.625	3142
826.765	3317
826.904	3176
827.044	2975
827.183	2956
827.323	2891
827.462	2998
827.601	2956
827.741	2925
827.88	2975
828.02	2830
828.159	3013
828.298	3055
828.437	3123
828.577	3055
828.716	3249
828.855	3142
828.994	2910
829.134	2899
829.273	2937
829.412	2868
829.551	2872
829.69	2902
829.829	3005
829.968	3131
830.107	2986
830.246	3024
830.385	2952
830.524	2857
830.663	2834
830.802	2735
830.941	2659
831.08	2670
831.219	2735
831.357	2731
831.496	2971
831.635	2724
831.774	2648
831.913	2651
832.051	2552
832.19	2587
832.329	2670
832.467	2537
832.606	2511
832.744	2575
832.883	2598
833.022	2617
833.16	2686
833.299	2682
833.437	2697
833.576	2682
833.714	2762
833.852	2731
833.991	2800
834.129	2868
834.267	2830
834.406	2800
834.544	2880
834.682	2842
834.821	2902
834.959	3058
835.097	2864
835.235	3077
835.373	2998
835.511	3013
835.65	2967
835.788	2975
835.926	2792
836.064	2815
836.202	2861
836.34	3062
836.478	3138
836.615	3066
836.753	3161
836.891	3173
837.029	3157
837.167	3123
837.305	3097
837.443	3032
837.58	2975
837.718	3127
837.856	3066
837.993	3028
838.131	3161
838.269	3077
838.406	3077
838.544	3097
838.681	2933
838.819	2929
838.956	2788
839.094	2823
839.231	2922
839.369	2998
839.506	3409
839.643	3245
839.781	3036
839.918	2979
840.055	3055
840.193	3062
840.33	3055
840.467	3104
840.604	3176
840.742	3386
840.879	3081
841.016	3051
841.153	3142
841.29	3279
841.427	3298
841.564	3336
841.701	3310
841.838	3230
841.975	3138
842.112	3184
842.249	3074
842.385	3024
842.522	3256
842.659	3123
842.796	3036
842.933	3093
843.069	3039
843.206	3036
843.343	3195
843.479	3093
843.616	3146
843.752	2887
843.889	2887
844.025	3085
844.162	2872
844.298	3077
844.435	2960
844.571	2891
844.708	3047
844.844	3180
844.98	3256
845.117	3211
845.253	3097
845.389	3009
845.525	3112
845.661	3131
845.798	2986
845.934	3108
846.07	3039
846.206	3214
846.342	3317
846.478	3195
846.614	3058
846.75	3074
846.886	3024
847.022	3230
847.158	3112
847.294	3214
847.429	3199
847.565	3211
847.701	3477
847.837	3093
847.972	2990
848.108	3161
848.244	3169
848.379	2982
848.515	2967
848.65	2914
848.786	2948
848.921	3028
849.057	3119
849.192	3169
849.328	3051
849.463	3108
849.598	3074
849.734	3039
849.869	3001
850.004	2906
850.14	2956
850.275	2891
850.41	2861
850.545	2895
850.68	2952
850.815	2929
850.95	2971
851.085	3180
851.22	3089
851.355	3058
851.49	2975
851.625	3001
851.76	3032
851.895	2952
852.03	2941
852.165	3051
852.299	3119
852.434	3173
852.569	3131
852.703	3203
852.838	3249
852.973	3332
853.107	3332
853.242	3165
853.376	3081
853.511	2979
853.645	3039
853.78	3268
853.914	3131
854.048	3093
854.183	3074
854.317	3123
854.451	3291
854.585	3112
854.72	3058
854.854	3192
854.988	3043
855.122	3077
855.256	2971
855.39	3119
855.524	3237
855.658	3150
855.792	3169
855.926	3157
856.06	3233
856.194	3264
856.327	3142
856.461	3055
856.595	3074
856.729	3100
856.862	3195
856.996	3157
857.13	3188
857.263	3211
857.397	3310
857.53	3123
857.664	3222
857.797	3226
857.931	3214
858.064	3180
858.197	3237
858.331	3119
858.464	3089
858.597	2998
858.731	3093
858.864	3100
858.997	3112
859.13	3184
859.263	3165
859.396	3245
859.529	3100
859.662	3081
859.795	3062
859.928	3138
860.061	3233
860.194	3256
860.327	3150
860.46	3100
860.592	3245
860.725	3241
860.858	3287
860.99	3108
861.123	3020
861.256	3066
861.388	3135
861.521	3903
861.653	3024
861.786	3009
861.918	2998
862.05	3062
862.183	3116
862.315	3180
862.447	3230
862.58	3108
862.712	2960
862.844	2864
862.976	3028
863.108	2998
863.24	3298
863.372	2895
863.504	2967
863.636	2967
863.768	3028
863.9	2986
864.032	2914
864.164	2960
864.296	2990
864.428	3074
864.559	3097
864.691	3062
864.823	3066
864.954	3055
865.086	3043
865.217	3001
865.349	2941
865.48	2960
865.612	3039
865.743	3161
865.875	2956
866.006	2960
866.137	2998
866.269	2914
866.4	2925
866.531	2929
866.662	2883
866.793	2868
866.924	2887
867.055	2948
867.186	2941
867.317	2895
867.448	2838
867.579	2796
867.71	2826
867.841	2826
867.972	2899
868.103	2887
868.233	2891
868.364	2868
868.495	2895
868.625	3085
868.756	3165
868.886	2971
869.017	2990
869.147	3150
869.278	3146
869.408	3051
869.539	3009
869.669	3108
869.799	3017
869.929	3138
870.06	3100
870.19	3317
870.32	3294
870.45	3310
870.58	3359
870.71	3454
870.84	3435
870.97	3294
871.1	3264
871.23	3511
871.36	3416
871.489	3370
871.619	3374
871.749	3374
871.879	3447
872.008	3526
872.138	3367
872.267	3275
872.397	3146
872.526	3089
872.656	3032
872.785	3104
872.915	3256
873.044	3302
873.173	3184
873.303	3260
873.432	3253
873.561	3214
873.69	3154
873.819	3123
873.948	3165
874.077	3123
874.206	3043
874.335	3055
874.464	3214
874.593	3359
874.722	3203
874.851	3370
874.979	3359
875.108	3302
875.237	3199
875.365	3146
875.494	3142
875.623	3249
875.751	3085
875.88	3127
876.008	3195
876.136	3253
876.265	3302
876.393	3587
876.521	3447
876.65	3374
876.778	3272
876.906	3275
877.034	3180
877.162	3222
877.29	3199
877.418	3275
877.546	3195
877.674	3237
877.802	3226
877.93	3214
878.058	3169
878.185	3127
878.313	3211
878.441	3222
878.568	3036
878.696	3135
878.824	3253
878.951	3302
879.079	3435
879.206	3606
879.333	3477
879.461	3332
879.588	3378
879.715	3466
879.842	3587
879.97	3393
880.097	3157
880.224	3131
880.351	3195
880.478	3199
880.605	3142
880.732	3195
880.859	3504
880.986	3291
881.112	3283
881.239	3165
881.366	3043
881.493	3070
881.619	2960
881.746	3055
881.872	3097
881.999	3085
882.125	3157
882.252	3260
882.378	3291
882.505	3462
882.631	3275
882.757	3119
882.883	3237
883.01	3207
883.136	3192
883.262	3089
883.388	3146
883.514	3313
883.64	3374
883.766	3332
883.892	3195
884.018	3230
884.143	3401
884.269	3515
884.395	3222
884.52	3195
884.646	3165
884.772	3142
884.897	3100
885.023	3195
885.148	3325
885.274	3405
885.399	3336
885.524	3306
885.65	3260
885.775	3294
885.9	3264
886.025	3454
886.15	3348
886.275	3294
886.4	3218
886.525	3287
886.65	3241
886.775	3260
886.9	3511
887.025	3633
887.149	3397
887.274	3230
887.399	3165
887.523	3180
887.648	3150
887.773	3184
887.897	3355
888.021	3420
888.146	3275
888.27	3443
888.395	3507
888.519	3389
888.643	3397
888.767	3458
888.891	3275
889.015	3214
889.139	3264
889.263	3241
889.387	3378
889.511	3481
889.635	3458
889.759	3268
889.883	3283
890.006	3378
890.13	3412
890.254	3275
890.377	3355
890.501	3222
890.624	3188
890.748	3241
890.871	3192
890.995	3093
891.118	3055
891.241	3207
891.364	3226
891.488	3348
891.611	3131
891.734	3203
891.857	3283
891.98	3226
892.103	3351
892.226	3279
892.349	3199
892.471	3112
892.594	3233
892.717	3279
892.839	3264
892.962	3306
893.085	3378
893.207	3291
893.33	3180
893.452	3233
893.575	3351
893.697	3226
893.819	3443
893.941	3500
894.064	3447
894.186	3233
894.308	3256
894.43	3416
894.552	3545
894.674	3473
894.796	3264
894.918	3321
895.04	3313
895.161	3420
895.283	3382
895.405	3298
895.526	3351
895.648	3435
895.769	3443
895.891	3431
896.012	3458
896.134	3466
896.255	3405
896.376	3378
896.498	3332
896.619	3416
896.74	3367
896.861	3397
896.982	3679
897.103	3789
897.224	3610
897.345	3530
897.466	3439
897.587	3500
897.708	3610
897.828	3580
897.949	3469
898.07	3321
898.19	3374
898.311	3564
898.431	3450
898.552	3492
898.672	3572
898.792	3564
898.913	3538
899.033	3405
899.153	3222
899.273	3199
899.393	3306
899.513	3298
899.633	3351
899.753	3363
899.873	3344
899.993	3416
900.113	3313
900.232	3405
900.352	3359
900.472	3329
900.591	3184
900.711	3306
900.83	3256
900.95	3428
901.069	3477
901.189	3321
901.308	3203
901.427	3131
901.546	3192
901.665	3329
901.784	3313
901.904	3199
902.023	3142
902.141	3020
902.26	2994
902.379	3127
902.498	3093
902.617	3043
902.735	3180
902.854	3218
902.973	3203
903.091	3028
903.21	3039
903.328	3123
903.446	3116
903.565	3089
903.683	3199
903.801	3119
903.919	3253
904.038	3306
904.156	3180
904.274	3253
904.392	3230
904.51	3268
904.627	3336
904.745	3401
904.863	3473
904.981	3226
905.098	3203
905.216	3222
905.334	3310
905.451	3291
905.569	3279
905.686	3443
905.803	3405
905.921	3275
906.038	3420
906.155	3329
906.272	3291
906.389	3325
906.506	3188
906.623	3237
906.74	3245
906.857	3135
906.974	3256
907.091	3447
907.208	3599
907.324	3481
907.441	3378
907.557	3233
907.674	3211
907.79	3184
907.907	3241
908.023	3355
908.139	3348
908.256	3291
908.372	3363
908.488	3344
908.604	3241
908.72	3207
908.836	3302
908.952	3291
909.068	3351
909.184	3454
909.3	3401
909.415	3469
909.531	3454
909.647	3226
909.762	3279
909.878	3306
909.993	3306
910.108	3313
910.224	3329
910.339	3412
910.454	3378
910.57	3287
910.685	3245
910.8	3553
910.915	3542
911.03	3405
911.145	3256
911.259	3275
911.374	3298
911.489	3237
911.604	3207
911.718	3108
911.833	3138
911.947	3058
912.062	3009
912.176	3180
912.291	3157
912.405	3199
912.519	3443
912.633	3466
912.748	3344
912.862	3302
912.976	3161
913.09	3043
913.204	3135
913.318	3222
913.431	3351
913.545	3344
913.659	3405
913.772	3310
913.886	3203
914	3222
914.113	3359
914.226	3435
914.34	3378
914.453	3241
914.566	3443
914.68	3294
914.793	3291
914.906	3150
915.019	3070
915.132	3055
915.245	3195
915.358	3222
915.47	3211
915.583	3264
915.696	3287
915.809	3378
915.921	3439
916.034	3272
916.146	3245
916.259	3226
916.371	3363
916.483	3378
916.595	3283
916.708	3336
916.82	3340
916.932	3355
917.044	3317
917.156	3310
917.268	3272
917.38	3279
917.491	3298
917.603	3397
917.715	3454
917.826	3504
917.938	3389
918.049	3287
918.161	3435
918.272	3584
918.384	3545
918.495	3492
918.606	3359
918.717	3268
918.828	3351
918.939	3389
919.05	3310
919.161	3382
919.272	3180
919.383	3294
919.494	3504
919.604	3679
919.715	3538
919.826	3401
919.936	3435
920.047	3580
920.157	3557
920.267	3743
920.378	3584
920.488	3599
920.598	3793
920.708	3941
920.818	3808
920.928	3823
921.038	4021
921.148	3998
921.258	3717
921.368	3622
921.477	3530
921.587	3564
921.697	3439
921.806	3675
921.916	3530
922.025	3332
922.134	3340
922.244	3329
922.353	3435
922.462	3268
922.571	3226
922.68	3154
922.789	3081
922.898	3131
923.007	3116
923.116	3195
923.224	3142
923.333	3211
923.442	3077
923.55	3112
923.659	3161
923.767	3188
923.876	3138
923.984	3249
924.092	3100
924.201	3184
924.309	3241
924.417	3256
924.525	3154
924.633	3241
924.741	4169
924.849	3009
924.956	3283
925.064	3112
925.172	3066
925.279	3089
925.387	3222
925.494	3180
925.602	3351
925.709	3298
925.816	3199
925.924	3287
926.031	3382
926.138	3329
926.245	3401
926.352	3218
926.459	3416
926.566	3466
926.673	3359
926.779	3256
926.886	3237
926.993	3165
927.099	3074
927.206	3127
927.312	3097
927.419	3245
927.525	3192
927.631	3268
927.737	3154
927.843	3135
927.95	3047
928.056	3138
928.162	3188
928.267	3226
928.373	3781
928.479	3279
928.585	3066
928.69	3188
928.796	3302
928.901	3173
929.007	3055
929.112	3180
929.218	3161
929.323	3119
929.428	3142
929.533	3321
929.638	3135
929.743	3165
929.848	3256
929.953	3222
930.058	3173
930.163	3013
930.267	3036
930.372	3195
930.477	3036
930.581	3306
930.685	3154
930.79	3055
930.894	3104
930.998	3093
931.103	3302
931.207	2979
931.311	2944
931.415	2937
931.519	2826
931.623	2800
