Data from test_V78500241_622.txt Node
Date: Fri Mar 25 16:19:30 CST 2022
User: usil
Spectrometer: V785-0024
Trigger mode: 0
Integration Time (sec): 4.000000E-1
Scans to average: 1
Nonlinearity correction enabled: false
Boxcar width: 0
Storing dark spectrum: false
XAxis mode: Wavelengths
Number of Pixels in Spectrum: 1024
>>>>>Begin Spectral Data<<<<<
801.071	2899
801.214	2922
801.356	2895
801.499	2891
801.641	2868
801.783	2944
801.926	3055
802.068	2975
802.211	3009
802.353	3036
802.496	2982
802.638	2990
802.78	3032
802.923	3070
803.065	3013
803.208	2891
803.35	2910
803.492	2922
803.635	2914
803.777	2762
803.919	2834
804.061	3226
804.204	2922
804.346	2868
804.488	2826
804.63	2967
804.773	2891
804.915	2929
805.057	3051
805.199	2941
805.341	2952
805.483	3039
805.626	3009
805.768	2914
805.91	3093
806.052	3108
806.194	3028
806.336	3207
806.478	3032
806.62	2941
806.762	2960
806.904	3085
807.046	3180
807.188	2960
807.33	2902
807.472	2960
807.614	2918
807.756	2986
807.898	2952
808.04	2891
808.182	3005
808.324	2971
808.465	2887
808.607	2872
808.749	2796
808.891	2845
809.033	2986
809.174	2971
809.316	2880
809.458	2876
809.6	2769
809.741	2788
809.883	2758
810.025	2876
810.166	2857
810.308	2834
810.45	2857
810.591	2785
810.733	2754
810.875	2838
811.016	2800
811.158	2766
811.299	2815
811.441	2944
811.582	2899
811.724	2872
811.865	2845
812.007	2918
812.148	2883
812.29	2861
812.431	2876
812.573	2937
812.714	2986
812.855	3062
812.997	3055
813.138	3112
813.279	3032
813.421	2971
813.562	2960
813.703	2883
813.845	2868
813.986	2792
814.127	2724
814.268	2804
814.41	2838
814.551	2796
814.692	2868
814.833	2849
814.974	2914
815.115	2929
815.256	2785
815.397	2849
815.539	2861
815.68	2769
815.821	2804
815.962	2933
816.103	2937
816.244	2872
816.385	2864
816.526	2944
816.666	2956
816.807	2773
816.948	2868
817.089	2902
817.23	2876
817.371	2746
817.512	2781
817.653	2853
817.793	2804
817.934	2849
818.075	2975
818.216	2990
818.356	3028
818.497	2887
818.638	2796
818.778	2792
818.919	2766
819.06	2766
819.2	2902
819.341	2777
819.481	2807
819.622	2925
819.762	3085
819.903	3043
820.043	2910
820.184	2880
820.324	2891
820.465	2960
820.605	3032
820.746	3013
820.886	2899
821.026	3085
821.167	3165
821.307	3291
821.447	3253
821.588	3253
821.728	3203
821.868	3165
822.008	3085
822.149	3176
822.289	3199
822.429	3074
822.569	3100
822.709	3154
822.849	3039
822.99	3062
823.13	3150
823.27	3211
823.41	3119
823.55	3150
823.69	3123
823.83	3195
823.97	3074
824.11	3017
824.25	3020
824.389	3070
824.529	3100
824.669	3058
824.809	3203
824.949	3287
825.089	3233
825.228	3150
825.368	3001
825.508	2963
825.648	3005
825.787	3017
825.927	3020
826.067	2952
826.206	2960
826.346	3020
826.485	3070
826.625	3146
826.765	3264
826.904	3203
827.044	3020
827.183	2941
827.323	2838
827.462	3009
827.601	2906
827.741	2933
827.88	2933
828.02	2864
828.159	2933
828.298	3047
828.437	3127
828.577	3009
828.716	3256
828.855	3116
828.994	2895
829.134	2842
829.273	2933
829.412	2876
829.551	2853
829.69	2887
829.829	2944
829.968	3097
830.107	3036
830.246	3001
830.385	2918
830.524	2857
830.663	2777
830.802	2727
830.941	2659
831.08	2667
831.219	2773
831.357	2720
831.496	2963
831.635	2746
831.774	2632
831.913	2693
832.051	2541
832.19	2560
832.329	2655
832.467	2514
832.606	2492
832.744	2613
832.883	2579
833.022	2556
833.16	2636
833.299	2708
833.437	2697
833.576	2724
833.714	2716
833.852	2735
833.991	2731
834.129	2845
834.267	2845
834.406	2804
834.544	2864
834.682	2838
834.821	2887
834.959	3070
835.097	2929
835.235	3085
835.373	3024
835.511	3020
835.65	2967
835.788	2914
835.926	2815
836.064	2811
836.202	2800
836.34	3100
836.478	3165
836.615	3017
836.753	3123
836.891	3195
837.029	3188
837.167	3100
837.305	3051
837.443	3032
837.58	2944
837.718	3131
837.856	3032
837.993	3020
838.131	3116
838.269	3081
838.406	3146
838.544	3077
838.681	2910
838.819	2944
838.956	2819
839.094	2838
839.231	2922
839.369	3005
839.506	3344
839.643	3188
839.781	2994
839.918	2982
840.055	3093
840.193	3062
840.33	3074
840.467	3077
840.604	3131
840.742	3397
840.879	3032
841.016	3028
841.153	3108
841.29	3329
841.427	3237
841.564	3233
841.701	3321
841.838	3222
841.975	3154
842.112	3222
842.249	3142
842.385	3032
842.522	3241
842.659	3097
842.796	3062
842.933	3051
843.069	3070
843.206	3020
843.343	3173
843.479	3119
843.616	3154
843.752	2891
843.889	2861
844.025	3039
844.162	2861
844.298	3074
844.435	2971
844.571	2925
844.708	3077
844.844	3218
844.98	3237
845.117	3180
845.253	3089
845.389	3005
845.525	3108
845.661	3070
845.798	3005
845.934	3119
846.07	3028
846.206	3211
846.342	3317
846.478	3264
846.614	3081
846.75	3062
846.886	3032
847.022	3222
847.158	3119
847.294	3203
847.429	3241
847.565	3203
847.701	3515
847.837	3066
847.972	2952
848.108	3138
848.244	3116
848.379	3009
848.515	2933
848.65	2933
848.786	2963
848.921	2990
849.057	3047
849.192	3154
849.328	3066
849.463	3138
849.598	3051
849.734	3051
849.869	2967
850.004	2929
850.14	2979
850.275	2914
850.41	2838
850.545	2868
850.68	2944
850.815	2925
850.95	2963
851.085	3233
851.22	3089
851.355	3013
851.49	2975
851.625	3020
851.76	3009
851.895	2952
852.03	2922
852.165	3024
852.299	3127
852.434	3218
852.569	3112
852.703	3199
852.838	3230
852.973	3351
853.107	3336
853.242	3127
853.376	3070
853.511	2956
853.645	3020
853.78	3226
853.914	3131
854.048	3058
854.183	3097
854.317	3119
854.451	3302
854.585	3127
854.72	3112
854.854	3199
854.988	3085
855.122	3074
855.256	2960
855.39	3108
855.524	3218
855.658	3165
855.792	3165
855.926	3207
856.06	3195
856.194	3249
856.327	3138
856.461	3089
856.595	3085
856.729	3081
856.862	3241
856.996	3173
857.13	3207
857.263	3222
857.397	3264
857.53	3108
857.664	3203
857.797	3249
857.931	3264
858.064	3142
858.197	3214
858.331	3085
858.464	3131
858.597	2994
858.731	3104
858.864	3123
858.997	3081
859.13	3131
859.263	3203
859.396	3199
859.529	3055
859.662	3058
859.795	3051
859.928	3119
860.061	3230
860.194	3294
860.327	3116
860.46	3154
860.592	3222
860.725	3237
860.858	3279
860.99	3116
861.123	3093
861.256	3047
861.388	3161
861.521	3701
861.653	3036
861.786	2979
861.918	2986
862.05	3077
862.183	3081
862.315	3142
862.447	3192
862.58	3100
862.712	2899
862.844	2876
862.976	2998
863.108	3001
863.24	3393
863.372	2876
863.504	2990
863.636	2956
863.768	3017
863.9	2963
864.032	2910
864.164	2975
864.296	3013
864.428	3051
864.559	3131
864.691	3058
864.823	3051
864.954	3028
865.086	3028
865.217	2967
865.349	2941
865.48	2979
865.612	3017
865.743	3131
865.875	2979
866.006	2986
866.137	2979
866.269	2952
866.4	2944
866.531	2902
866.662	2880
866.793	2887
866.924	2880
867.055	2960
867.186	2883
867.317	2914
867.448	2845
867.579	2834
867.71	2834
867.841	2792
867.972	2887
868.103	2868
868.233	2876
868.364	2864
868.495	2857
868.625	3074
868.756	3146
868.886	2994
869.017	2990
869.147	3199
869.278	3161
869.408	3032
869.539	3055
869.669	3097
869.799	3024
869.929	3089
870.06	3116
870.19	3329
870.32	3241
870.45	3287
870.58	3363
870.71	3450
870.84	3420
870.97	3321
871.1	3222
871.23	3462
871.36	3450
871.489	3393
871.619	3386
871.749	3416
871.879	3477
872.008	3435
872.138	3359
872.267	3275
872.397	3097
872.526	3097
872.656	2990
872.785	3070
872.915	3207
873.044	3283
873.173	3207
873.303	3249
873.432	3233
873.561	3272
873.69	3192
873.819	3112
873.948	3173
874.077	3093
874.206	3013
874.335	3085
874.464	3192
874.593	3344
874.722	3279
874.851	3393
874.979	3329
875.108	3306
875.237	3195
875.365	3142
875.494	3142
875.623	3230
875.751	3074
875.88	3085
876.008	3188
876.136	3253
876.265	3340
876.393	3519
876.521	3439
876.65	3416
876.778	3317
876.906	3291
877.034	3207
877.162	3226
877.29	3146
877.418	3268
877.546	3218
877.674	3211
877.802	3226
877.93	3188
878.058	3157
878.185	3066
878.313	3222
878.441	3199
878.568	3074
878.696	3173
878.824	3241
878.951	3294
879.079	3382
879.206	3622
879.333	3443
879.461	3340
879.588	3359
879.715	3473
879.842	3576
879.97	3359
880.097	3150
880.224	3138
880.351	3214
880.478	3211
880.605	3195
880.732	3154
880.859	3492
880.986	3298
881.112	3340
881.239	3222
881.366	3097
881.493	3005
881.619	3032
881.746	3043
881.872	3093
881.999	3108
882.125	3184
882.252	3226
882.378	3253
882.505	3428
882.631	3253
882.757	3119
882.883	3161
883.01	3180
883.136	3131
883.262	3062
883.388	3123
883.514	3332
883.64	3363
883.766	3294
883.892	3241
884.018	3218
884.143	3412
884.269	3519
884.395	3180
884.52	3192
884.646	3157
884.772	3081
884.897	3093
885.023	3230
885.148	3332
885.274	3374
885.399	3348
885.524	3275
885.65	3226
885.775	3298
885.9	3268
886.025	3431
886.15	3351
886.275	3302
886.4	3253
886.525	3287
886.65	3256
886.775	3287
886.9	3469
887.025	3663
887.149	3355
887.274	3253
887.399	3176
887.523	3211
887.648	3184
887.773	3192
887.897	3340
888.021	3370
888.146	3298
888.27	3424
888.395	3549
888.519	3435
888.643	3488
888.767	3466
888.891	3306
889.015	3291
889.139	3294
889.263	3203
889.387	3374
889.511	3530
889.635	3462
889.759	3291
889.883	3268
890.006	3397
890.13	3450
890.254	3256
890.377	3336
890.501	3207
890.624	3173
890.748	3298
890.871	3195
890.995	3104
891.118	3074
891.241	3161
891.364	3245
891.488	3302
891.611	3157
891.734	3203
891.857	3275
891.98	3264
892.103	3302
892.226	3275
892.349	3264
892.471	3093
892.594	3233
892.717	3279
892.839	3310
892.962	3272
893.085	3401
893.207	3291
893.33	3142
893.452	3233
893.575	3321
893.697	3256
893.819	3454
893.941	3481
894.064	3458
894.186	3253
894.308	3298
894.43	3382
894.552	3523
894.674	3469
894.796	3256
894.918	3306
895.04	3283
895.161	3443
895.283	3389
895.405	3272
895.526	3370
895.648	3420
895.769	3435
895.891	3431
896.012	3469
896.134	3454
896.255	3424
896.376	3367
896.498	3348
896.619	3420
896.74	3344
896.861	3405
896.982	3660
897.103	3827
897.224	3572
897.345	3485
897.466	3424
897.587	3466
897.708	3618
897.828	3538
897.949	3431
898.07	3348
898.19	3428
898.311	3610
898.431	3431
898.552	3549
898.672	3591
898.792	3564
898.913	3530
899.033	3412
899.153	3283
899.273	3237
899.393	3264
899.513	3302
899.633	3329
899.753	3325
899.873	3340
899.993	3389
900.113	3317
900.232	3336
900.352	3348
900.472	3294
900.591	3211
900.711	3321
900.83	3214
900.95	3424
901.069	3492
901.189	3367
901.308	3161
901.427	3127
901.546	3169
901.665	3298
901.784	3351
901.904	3253
902.023	3150
902.141	3043
902.26	3001
902.379	3104
902.498	3074
902.617	3032
902.735	3192
902.854	3222
902.973	3173
903.091	3058
903.21	3013
903.328	3157
903.446	3123
903.565	3112
903.683	3203
903.801	3146
903.919	3222
904.038	3287
904.156	3184
904.274	3260
904.392	3241
904.51	3279
904.627	3317
904.745	3420
904.863	3473
904.981	3268
905.098	3192
905.216	3241
905.334	3279
905.451	3302
905.569	3302
905.686	3416
905.803	3462
905.921	3313
906.038	3466
906.155	3367
906.272	3306
906.389	3348
906.506	3195
906.623	3264
906.74	3226
906.857	3188
906.974	3264
907.091	3431
907.208	3561
907.324	3469
907.441	3386
907.557	3192
907.674	3241
907.79	3195
907.907	3226
908.023	3370
908.139	3382
908.256	3329
908.372	3348
908.488	3329
908.604	3241
908.72	3230
908.836	3283
908.952	3260
909.068	3340
909.184	3530
909.3	3397
909.415	3500
909.531	3462
909.647	3237
909.762	3256
909.878	3268
909.993	3351
910.108	3348
910.224	3313
910.339	3370
910.454	3389
910.57	3272
910.685	3256
910.8	3576
910.915	3519
911.03	3435
911.145	3253
911.259	3260
911.374	3340
911.489	3230
911.604	3237
911.718	3119
911.833	3142
911.947	3020
912.062	2982
912.176	3169
912.291	3203
912.405	3211
912.519	3424
912.633	3477
912.748	3310
912.862	3256
912.976	3169
913.09	3089
913.204	3089
913.318	3218
913.431	3348
913.545	3325
913.659	3393
913.772	3302
913.886	3218
914	3226
914.113	3321
914.226	3405
914.34	3332
914.453	3180
914.566	3386
914.68	3302
914.793	3298
914.906	3146
915.019	3108
915.132	3108
915.245	3157
915.358	3230
915.47	3241
915.583	3275
915.696	3241
915.809	3416
915.921	3420
916.034	3268
916.146	3245
916.259	3230
916.371	3405
916.483	3359
916.595	3233
916.708	3367
916.82	3321
916.932	3336
917.044	3325
917.156	3348
917.268	3241
917.38	3294
917.491	3264
917.603	3348
917.715	3447
917.826	3466
917.938	3386
918.049	3310
918.161	3382
918.272	3542
918.384	3526
918.495	3473
918.606	3359
918.717	3283
918.828	3351
918.939	3370
919.05	3313
919.161	3401
919.272	3184
919.383	3279
919.494	3500
919.604	3671
919.715	3469
919.826	3370
919.936	3435
920.047	3610
920.157	3511
920.267	3759
920.378	3599
920.488	3545
920.598	3736
920.708	3937
920.818	3842
920.928	3823
921.038	4021
921.148	3994
921.258	3686
921.368	3622
921.477	3545
921.587	3557
921.697	3454
921.806	3641
921.916	3507
922.025	3340
922.134	3363
922.244	3302
922.353	3447
922.462	3233
922.571	3207
922.68	3089
922.789	3043
922.898	3131
923.007	3085
923.116	3203
923.224	3176
923.333	3161
923.442	3100
923.55	3093
923.659	3127
923.767	3195
923.876	3093
923.984	3233
924.092	3058
924.201	3192
924.309	3237
924.417	3249
924.525	3173
924.633	3237
924.741	3998
924.849	3074
924.956	3253
925.064	3085
925.172	3062
925.279	3089
925.387	3195
925.494	3245
925.602	3386
925.709	3359
925.816	3207
925.924	3272
926.031	3367
926.138	3344
926.245	3405
926.352	3256
926.459	3393
926.566	3500
926.673	3329
926.779	3279
926.886	3253
926.993	3188
927.099	3108
927.206	3127
927.312	3112
927.419	3260
927.525	3207
927.631	3275
927.737	3131
927.843	3097
927.95	3009
928.056	3138
928.162	3199
928.267	3256
928.373	3774
928.479	3287
928.585	3039
928.69	3237
928.796	3249
928.901	3173
929.007	3055
929.112	3214
929.218	3173
929.323	3142
929.428	3131
929.533	3268
929.638	3131
929.743	3146
929.848	3260
929.953	3214
930.058	3142
930.163	3009
930.267	3093
930.372	3226
930.477	3043
930.581	3302
930.685	3165
930.79	3043
930.894	3131
930.998	3081
931.103	3294
931.207	2929
931.311	2933
931.415	2902
931.519	2766
931.623	2792
