Data from test_V78500241_1120.txt Node
Date: Fri Mar 25 16:22:57 CST 2022
User: usil
Spectrometer: V785-0024
Trigger mode: 0
Integration Time (sec): 4.000000E-1
Scans to average: 1
Nonlinearity correction enabled: false
Boxcar width: 0
Storing dark spectrum: false
XAxis mode: Wavelengths
Number of Pixels in Spectrum: 1024
>>>>>Begin Spectral Data<<<<<
801.071	2925
801.214	2963
801.356	2933
801.499	2925
801.641	2883
801.783	2967
801.926	3032
802.068	2982
802.211	3005
802.353	3036
802.496	2960
802.638	3009
802.78	3024
802.923	3089
803.065	2986
803.208	2933
803.35	2944
803.492	2933
803.635	2929
803.777	2781
803.919	2880
804.061	3195
804.204	2937
804.346	2933
804.488	2868
804.63	3013
804.773	2891
804.915	2891
805.057	3093
805.199	2925
805.341	2956
805.483	3028
805.626	3009
805.768	2971
805.91	3066
806.052	3119
806.194	3043
806.336	3253
806.478	3005
806.62	2937
806.762	2944
806.904	3051
807.046	3176
807.188	3005
807.33	2948
807.472	2982
807.614	2902
807.756	2960
807.898	2906
808.04	2872
808.182	2990
808.324	2986
808.465	2880
808.607	2868
808.749	2796
808.891	2853
809.033	2960
809.174	2990
809.316	2922
809.458	2922
809.6	2781
809.741	2758
809.883	2777
810.025	2842
810.166	2864
810.308	2845
810.45	2880
810.591	2777
810.733	2777
810.875	2838
811.016	2800
811.158	2754
811.299	2800
811.441	2914
811.582	2906
811.724	2796
811.865	2842
812.007	2906
812.148	2861
812.29	2830
812.431	2899
812.573	2941
812.714	2967
812.855	3017
812.997	3032
813.138	3066
813.279	2982
813.421	2986
813.562	2918
813.703	2849
813.845	2872
813.986	2781
814.127	2735
814.268	2804
814.41	2815
814.551	2807
814.692	2883
814.833	2781
814.974	2887
815.115	2971
815.256	2868
815.397	2834
815.539	2876
815.68	2769
815.821	2815
815.962	2948
816.103	2925
816.244	2864
816.385	2845
816.526	2952
816.666	2925
816.807	2731
816.948	2880
817.089	2895
817.23	2864
817.371	2811
817.512	2830
817.653	2834
817.793	2796
817.934	2891
818.075	2960
818.216	2963
818.356	3032
818.497	2883
818.638	2792
818.778	2807
818.919	2785
819.06	2750
819.2	2868
819.341	2811
819.481	2804
819.622	2906
819.762	3097
819.903	3001
820.043	2895
820.184	2914
820.324	2853
820.465	3017
820.605	3032
820.746	3013
820.886	2952
821.026	3077
821.167	3116
821.307	3237
821.447	3279
821.588	3233
821.728	3214
821.868	3192
822.008	3089
822.149	3180
822.289	3222
822.429	3062
822.569	3077
822.709	3203
822.849	3001
822.99	3085
823.13	3138
823.27	3192
823.41	3097
823.55	3138
823.69	3146
823.83	3203
823.97	3089
824.11	3028
824.25	3009
824.389	3077
824.529	3104
824.669	3066
824.809	3199
824.949	3268
825.089	3245
825.228	3161
825.368	3047
825.508	2967
825.648	3028
825.787	3013
825.927	3066
826.067	2982
826.206	3009
826.346	3070
826.485	3116
826.625	3119
826.765	3237
826.904	3245
827.044	3020
827.183	2990
827.323	2887
827.462	3005
827.601	2933
827.741	2967
827.88	3028
828.02	2876
828.159	3005
828.298	3062
828.437	3161
828.577	3070
828.716	3260
828.855	3085
828.994	2967
829.134	2902
829.273	2956
829.412	2922
829.551	2902
829.69	2925
829.829	3013
829.968	3192
830.107	3047
830.246	3051
830.385	2960
830.524	2906
830.663	2857
830.802	2769
830.941	2727
831.08	2716
831.219	2777
831.357	2800
831.496	2998
831.635	2754
831.774	2701
831.913	2705
832.051	2552
832.19	2613
832.329	2724
832.467	2571
832.606	2541
832.744	2621
832.883	2610
833.022	2587
833.16	2678
833.299	2705
833.437	2720
833.576	2762
833.714	2769
833.852	2792
833.991	2800
834.129	2853
834.267	2834
834.406	2792
834.544	2895
834.682	2899
834.821	2864
834.959	3100
835.097	2925
835.235	3138
835.373	3013
835.511	3093
835.65	2975
835.788	2986
835.926	2849
836.064	2872
836.202	2910
836.34	3116
836.478	3192
836.615	3074
836.753	3161
836.891	3272
837.029	3173
837.167	3161
837.305	3116
837.443	3058
837.58	2990
837.718	3135
837.856	3108
837.993	3104
838.131	3180
838.269	3154
838.406	3154
838.544	3116
838.681	2975
838.819	2998
838.956	2834
839.094	2872
839.231	2952
839.369	3032
839.506	3382
839.643	3279
839.781	3043
839.918	3028
840.055	3070
840.193	3085
840.33	3104
840.467	3135
840.604	3192
840.742	3397
840.879	3100
841.016	3085
841.153	3165
841.29	3332
841.427	3317
841.564	3264
841.701	3325
841.838	3253
841.975	3211
842.112	3214
842.249	3116
842.385	3089
842.522	3283
842.659	3127
842.796	3142
842.933	3135
843.069	3081
843.206	3085
843.343	3272
843.479	3161
843.616	3157
843.752	2937
843.889	2880
844.025	3104
844.162	2899
844.298	3138
844.435	2975
844.571	2960
844.708	3085
844.844	3211
844.98	3222
845.117	3249
845.253	3070
845.389	3036
845.525	3085
845.661	3146
845.798	3036
845.934	3142
846.07	3108
846.206	3264
846.342	3336
846.478	3268
846.614	3112
846.75	3074
846.886	3093
847.022	3249
847.158	3127
847.294	3230
847.429	3256
847.565	3256
847.701	3538
847.837	3051
847.972	3039
848.108	3184
848.244	3192
848.379	3032
848.515	2998
848.65	2956
848.786	3001
848.921	3001
849.057	3138
849.192	3154
849.328	3097
849.463	3138
849.598	3104
849.734	3051
849.869	3028
850.004	2971
850.14	2986
850.275	2914
850.41	2853
850.545	2925
850.68	2948
850.815	2998
850.95	2971
851.085	3253
851.22	3131
851.355	3097
851.49	2998
851.625	3024
851.76	3043
851.895	2963
852.03	2956
852.165	3081
852.299	3165
852.434	3188
852.569	3169
852.703	3173
852.838	3275
852.973	3382
853.107	3367
853.242	3154
853.376	3127
853.511	3001
853.645	3119
853.78	3260
853.914	3131
854.048	3161
854.183	3116
854.317	3165
854.451	3302
854.585	3138
854.72	3123
854.854	3207
854.988	3055
855.122	3085
855.256	2994
855.39	3169
855.524	3211
855.658	3218
855.792	3169
855.926	3188
856.06	3214
856.194	3294
856.327	3157
856.461	3089
856.595	3116
856.729	3093
856.862	3256
856.996	3173
857.13	3214
857.263	3249
857.397	3291
857.53	3138
857.664	3195
857.797	3256
857.931	3302
858.064	3184
858.197	3264
858.331	3188
858.464	3119
858.597	3032
858.731	3108
858.864	3135
858.997	3104
859.13	3146
859.263	3214
859.396	3226
859.529	3104
859.662	3074
859.795	3055
859.928	3169
860.061	3332
860.194	3355
860.327	3180
860.46	3119
860.592	3283
860.725	3249
860.858	3264
860.99	3146
861.123	3108
861.256	3100
861.388	3207
861.521	3774
861.653	3055
861.786	3058
861.918	3024
862.05	3104
862.183	3131
862.315	3176
862.447	3226
862.58	3138
862.712	3017
862.844	2899
862.976	3051
863.108	3024
863.24	3355
863.372	2899
863.504	2990
863.636	2971
863.768	3036
863.9	3001
864.032	2960
864.164	2963
864.296	3017
864.428	3146
864.559	3119
864.691	3085
864.823	3085
864.954	2998
865.086	3039
865.217	3028
865.349	2956
865.48	3013
865.612	3051
865.743	3207
865.875	3001
866.006	2986
866.137	3013
866.269	2971
866.4	2975
866.531	2929
866.662	2902
866.793	2902
866.924	2937
867.055	2990
867.186	2960
867.317	2883
867.448	2857
867.579	2853
867.71	2857
867.841	2804
867.972	2967
868.103	2910
868.233	2902
868.364	2906
868.495	2876
868.625	3081
868.756	3146
868.886	2990
869.017	3039
869.147	3188
869.278	3169
869.408	3085
869.539	3024
869.669	3146
869.799	3097
869.929	3135
870.06	3123
870.19	3355
870.32	3317
870.45	3336
870.58	3389
870.71	3443
870.84	3458
870.97	3291
871.1	3291
871.23	3526
871.36	3485
871.489	3348
871.619	3428
871.749	3462
871.879	3454
872.008	3481
872.138	3374
872.267	3260
872.397	3184
872.526	3051
872.656	3047
872.785	3116
872.915	3256
873.044	3329
873.173	3249
873.303	3253
873.432	3256
873.561	3264
873.69	3135
873.819	3173
873.948	3218
874.077	3138
874.206	3093
874.335	3093
874.464	3241
874.593	3355
874.722	3268
874.851	3367
874.979	3370
875.108	3359
875.237	3233
875.365	3169
875.494	3173
875.623	3237
875.751	3097
875.88	3150
876.008	3218
876.136	3256
876.265	3378
876.393	3492
876.521	3412
876.65	3409
876.778	3382
876.906	3287
877.034	3211
877.162	3237
877.29	3222
877.418	3268
877.546	3233
877.674	3253
877.802	3253
877.93	3233
878.058	3154
878.185	3116
878.313	3195
878.441	3233
878.568	3089
878.696	3180
878.824	3253
878.951	3313
879.079	3462
879.206	3587
879.333	3481
879.461	3367
879.588	3340
879.715	3488
879.842	3584
879.97	3435
880.097	3218
880.224	3127
880.351	3218
880.478	3222
880.605	3214
880.732	3192
880.859	3507
880.986	3310
881.112	3351
881.239	3237
881.366	3108
881.493	3055
881.619	3032
881.746	3108
881.872	3123
881.999	3116
882.125	3154
882.252	3241
882.378	3325
882.505	3428
882.631	3272
882.757	3157
882.883	3256
883.01	3237
883.136	3146
883.262	3119
883.388	3146
883.514	3340
883.64	3367
883.766	3306
883.892	3195
884.018	3268
884.143	3424
884.269	3576
884.395	3218
884.52	3207
884.646	3211
884.772	3161
884.897	3116
885.023	3203
885.148	3336
885.274	3424
885.399	3370
885.524	3302
885.65	3275
885.775	3306
885.9	3298
886.025	3431
886.15	3386
886.275	3332
886.4	3313
886.525	3321
886.65	3317
886.775	3291
886.9	3530
887.025	3648
887.149	3416
887.274	3264
887.399	3195
887.523	3199
887.648	3195
887.773	3192
887.897	3386
888.021	3439
888.146	3325
888.27	3420
888.395	3538
888.519	3401
888.643	3420
888.767	3542
888.891	3325
889.015	3283
889.139	3310
889.263	3272
889.387	3409
889.511	3534
889.635	3447
889.759	3310
889.883	3302
890.006	3405
890.13	3530
890.254	3313
890.377	3325
890.501	3226
890.624	3180
890.748	3317
890.871	3154
890.995	3104
891.118	3077
891.241	3218
891.364	3272
891.488	3329
891.611	3176
891.734	3226
891.857	3287
891.98	3294
892.103	3359
892.226	3306
892.349	3211
892.471	3104
892.594	3272
892.717	3306
892.839	3298
892.962	3321
893.085	3348
893.207	3351
893.33	3184
893.452	3245
893.575	3306
893.697	3272
893.819	3454
893.941	3500
894.064	3454
894.186	3329
894.308	3279
894.43	3439
894.552	3496
894.674	3443
894.796	3279
894.918	3302
895.04	3310
895.161	3431
895.283	3389
895.405	3317
895.526	3355
895.648	3450
895.769	3420
895.891	3462
896.012	3462
896.134	3519
896.255	3420
896.376	3386
896.498	3378
896.619	3447
896.74	3382
896.861	3450
896.982	3698
897.103	3835
897.224	3591
897.345	3526
897.466	3450
897.587	3500
897.708	3637
897.828	3534
897.949	3412
898.07	3310
898.19	3397
898.311	3576
898.431	3462
898.552	3553
898.672	3644
898.792	3553
898.913	3545
899.033	3447
899.153	3310
899.273	3233
899.393	3279
899.513	3340
899.633	3321
899.753	3348
899.873	3321
899.993	3382
900.113	3363
900.232	3401
900.352	3355
900.472	3313
900.591	3218
900.711	3310
900.83	3214
900.95	3420
901.069	3523
901.189	3340
901.308	3150
901.427	3135
901.546	3233
901.665	3325
901.784	3321
901.904	3230
902.023	3173
902.141	3005
902.26	2986
902.379	3131
902.498	3077
902.617	3077
902.735	3218
902.854	3226
902.973	3180
903.091	3077
903.21	3093
903.328	3135
903.446	3116
903.565	3112
903.683	3218
903.801	3104
903.919	3237
904.038	3275
904.156	3146
904.274	3313
904.392	3272
904.51	3272
904.627	3370
904.745	3469
904.863	3481
904.981	3272
905.098	3184
905.216	3233
905.334	3294
905.451	3313
905.569	3302
905.686	3454
905.803	3443
905.921	3287
906.038	3466
906.155	3340
906.272	3298
906.389	3363
906.506	3214
906.623	3268
906.74	3291
906.857	3161
906.974	3279
907.091	3405
907.208	3572
907.324	3462
907.441	3412
907.557	3253
907.674	3260
907.79	3230
907.907	3294
908.023	3355
908.139	3370
908.256	3306
908.372	3374
908.488	3344
908.604	3291
908.72	3241
908.836	3332
908.952	3313
909.068	3298
909.184	3485
909.3	3382
909.415	3492
909.531	3485
909.647	3302
909.762	3310
909.878	3253
909.993	3397
910.108	3340
910.224	3355
910.339	3424
910.454	3317
910.57	3294
910.685	3195
910.8	3576
910.915	3530
911.03	3466
911.145	3218
911.259	3237
911.374	3325
911.489	3222
911.604	3218
911.718	3127
911.833	3135
911.947	3036
912.062	2963
912.176	3203
912.291	3195
912.405	3184
912.519	3424
912.633	3500
912.748	3329
912.862	3283
912.976	3142
913.09	3077
913.204	3150
913.318	3184
913.431	3336
913.545	3359
913.659	3409
913.772	3336
913.886	3173
914	3203
914.113	3351
914.226	3397
914.34	3405
914.453	3192
914.566	3378
914.68	3302
914.793	3325
914.906	3192
915.019	3116
915.132	3043
915.245	3203
915.358	3203
915.47	3222
915.583	3317
915.696	3325
915.809	3454
915.921	3420
916.034	3272
916.146	3241
916.259	3241
916.371	3397
916.483	3367
916.595	3272
916.708	3340
916.82	3370
916.932	3351
917.044	3370
917.156	3317
917.268	3241
917.38	3306
917.491	3313
917.603	3370
917.715	3435
917.826	3428
917.938	3370
918.049	3306
918.161	3443
918.272	3633
918.384	3576
918.495	3504
918.606	3367
918.717	3275
918.828	3363
918.939	3405
919.05	3321
919.161	3351
919.272	3150
919.383	3298
919.494	3500
919.604	3690
919.715	3488
919.826	3397
919.936	3450
920.047	3595
920.157	3545
920.267	3705
920.378	3652
920.488	3576
920.598	3778
920.708	3975
920.818	3827
920.928	3800
921.038	4025
921.148	4010
921.258	3671
921.368	3667
921.477	3584
921.587	3507
921.697	3477
921.806	3682
921.916	3511
922.025	3351
922.134	3351
922.244	3336
922.353	3431
922.462	3294
922.571	3237
922.68	3112
922.789	3108
922.898	3154
923.007	3112
923.116	3222
923.224	3169
923.333	3241
923.442	3085
923.55	3074
923.659	3154
923.767	3253
923.876	3131
923.984	3230
924.092	3142
924.201	3218
924.309	3260
924.417	3268
924.525	3157
924.633	3214
924.741	3960
924.849	3013
924.956	3287
925.064	3066
925.172	3074
925.279	3150
925.387	3207
925.494	3218
925.602	3351
925.709	3370
925.816	3173
925.924	3291
926.031	3405
926.138	3325
926.245	3329
926.352	3249
926.459	3378
926.566	3462
926.673	3344
926.779	3241
926.886	3230
926.993	3127
927.099	3138
927.206	3097
927.312	3146
927.419	3226
927.525	3211
927.631	3294
927.737	3161
927.843	3116
927.95	3055
928.056	3138
928.162	3176
928.267	3249
928.373	3903
928.479	3294
928.585	3085
928.69	3218
928.796	3283
928.901	3138
929.007	3055
929.112	3218
929.218	3188
929.323	3157
929.428	3131
929.533	3287
929.638	3108
929.743	3176
929.848	3241
929.953	3214
930.058	3138
930.163	2998
930.267	3058
930.372	3173
930.477	3028
930.581	3294
930.685	3184
930.79	3055
930.894	3123
930.998	3085
931.103	3260
931.207	2979
931.311	2937
931.415	2918
931.519	2766
931.623	2807
