Data from test_V78500241_1863.txt Node
Date: Fri Mar 25 16:28:06 CST 2022
User: usil
Spectrometer: V785-0024
Trigger mode: 0
Integration Time (sec): 4.000000E-1
Scans to average: 1
Nonlinearity correction enabled: false
Boxcar width: 0
Storing dark spectrum: false
XAxis mode: Wavelengths
Number of Pixels in Spectrum: 1024
>>>>>Begin Spectral Data<<<<<
801.071	2933
801.214	3005
801.356	2899
801.499	2906
801.641	2944
801.783	2937
801.926	3066
802.068	2960
802.211	2998
802.353	3097
802.496	2971
802.638	3047
802.78	3032
802.923	3066
803.065	3032
803.208	2868
803.35	2895
803.492	2944
803.635	2910
803.777	2769
803.919	2868
804.061	3218
804.204	2948
804.346	2891
804.488	2868
804.63	2994
804.773	2891
804.915	2948
805.057	3142
805.199	2941
805.341	3005
805.483	3055
805.626	3032
805.768	2937
805.91	3150
806.052	3119
806.194	3055
806.336	3256
806.478	3074
806.62	2929
806.762	2971
806.904	3043
807.046	3154
807.188	3005
807.33	2918
807.472	2990
807.614	2902
807.756	2994
807.898	2922
808.04	2914
808.182	2994
808.324	2937
808.465	2891
808.607	2883
808.749	2853
808.891	2868
809.033	2994
809.174	2975
809.316	2914
809.458	2895
809.6	2777
809.741	2769
809.883	2823
810.025	2857
810.166	2887
810.308	2868
810.45	2883
810.591	2762
810.733	2785
810.875	2849
811.016	2781
811.158	2750
811.299	2823
811.441	2956
811.582	2944
811.724	2849
811.865	2838
812.007	2895
812.148	2910
812.29	2826
812.431	2914
812.573	2944
812.714	2994
812.855	3097
812.997	2994
813.138	3138
813.279	3013
813.421	2963
813.562	2971
813.703	2883
813.845	2933
813.986	2788
814.127	2766
814.268	2834
814.41	2849
814.551	2800
814.692	2861
814.833	2838
814.974	2918
815.115	2944
815.256	2834
815.397	2811
815.539	2891
815.68	2815
815.821	2804
815.962	2975
816.103	2948
816.244	2910
816.385	2902
816.526	3005
816.666	2899
816.807	2754
816.948	2880
817.089	2944
817.23	2853
817.371	2777
817.512	2804
817.653	2845
817.793	2868
817.934	2891
818.075	3043
818.216	3009
818.356	3058
818.497	2902
818.638	2796
818.778	2834
818.919	2800
819.06	2777
819.2	2922
819.341	2857
819.481	2792
819.622	2914
819.762	3127
819.903	3066
820.043	2933
820.184	2876
820.324	2902
820.465	3020
820.605	3039
820.746	3081
820.886	2963
821.026	3127
821.167	3169
821.307	3264
821.447	3294
821.588	3245
821.728	3211
821.868	3207
822.008	3089
822.149	3207
822.289	3245
822.429	3100
822.569	3089
822.709	3173
822.849	3024
822.99	3070
823.13	3173
823.27	3180
823.41	3123
823.55	3131
823.69	3169
823.83	3233
823.97	3112
824.11	2998
824.25	3043
824.389	3074
824.529	3135
824.669	3055
824.809	3214
824.949	3253
825.089	3249
825.228	3142
825.368	3017
825.508	2979
825.648	2982
825.787	2960
825.927	3017
826.067	2967
826.206	2979
826.346	3047
826.485	3058
826.625	3131
826.765	3230
826.904	3207
827.044	3005
827.183	2960
827.323	2906
827.462	3005
827.601	2963
827.741	2960
827.88	2967
828.02	2880
828.159	2982
828.298	3066
828.437	3089
828.577	3089
828.716	3245
828.855	3085
828.994	2929
829.134	2880
829.273	2910
829.412	2876
829.551	2826
829.69	2895
829.829	2986
829.968	3161
830.107	2994
830.246	3055
830.385	2944
830.524	2872
830.663	2864
830.802	2796
830.941	2670
831.08	2629
831.219	2754
831.357	2724
831.496	2963
831.635	2739
831.774	2663
831.913	2651
832.051	2568
832.19	2575
832.329	2682
832.467	2552
832.606	2511
832.744	2598
832.883	2571
833.022	2606
833.16	2670
833.299	2663
833.437	2724
833.576	2716
833.714	2750
833.852	2716
833.991	2792
834.129	2857
834.267	2872
834.406	2819
834.544	2887
834.682	2861
834.821	2868
834.959	3051
835.097	2906
835.235	3066
835.373	3020
835.511	3024
835.65	2994
835.788	2990
835.926	2853
836.064	2807
836.202	2891
836.34	3085
836.478	3142
836.615	3047
836.753	3135
836.891	3150
837.029	3195
837.167	3108
837.305	3077
837.443	3055
837.58	2982
837.718	3131
837.856	3077
837.993	3043
838.131	3131
838.269	3138
838.406	3074
838.544	3093
838.681	3001
838.819	2910
838.956	2796
839.094	2842
839.231	2895
839.369	3039
839.506	3378
839.643	3211
839.781	3017
839.918	2975
840.055	3032
840.193	3085
840.33	3047
840.467	3100
840.604	3104
840.742	3416
840.879	3039
841.016	3032
841.153	3104
841.29	3374
841.427	3298
841.564	3272
841.701	3310
841.838	3192
841.975	3173
842.112	3214
842.249	3047
842.385	3047
842.522	3264
842.659	3070
842.796	3032
842.933	3108
843.069	3066
843.206	3028
843.343	3192
843.479	3138
843.616	3116
843.752	2906
843.889	2868
844.025	3104
844.162	2906
844.298	3089
844.435	2929
844.571	2906
844.708	3066
844.844	3237
844.98	3237
845.117	3195
845.253	3055
845.389	3043
845.525	3127
845.661	3066
845.798	3009
845.934	3119
846.07	3066
846.206	3211
846.342	3283
846.478	3218
846.614	3055
846.75	3032
846.886	3013
847.022	3230
847.158	3138
847.294	3184
847.429	3249
847.565	3184
847.701	3515
847.837	3070
847.972	3024
848.108	3157
848.244	3142
848.379	3020
848.515	2948
848.65	2933
848.786	2971
848.921	3024
849.057	3100
849.192	3146
849.328	3051
849.463	3131
849.598	3074
849.734	3024
849.869	2982
850.004	2906
850.14	2994
850.275	2925
850.41	2895
850.545	2895
850.68	2960
850.815	2963
850.95	2952
851.085	3188
851.22	3116
851.355	3032
851.49	2986
851.625	2986
851.76	2975
851.895	2960
852.03	2922
852.165	3055
852.299	3081
852.434	3203
852.569	3127
852.703	3184
852.838	3253
852.973	3351
853.107	3348
853.242	3119
853.376	3104
853.511	2998
853.645	3043
853.78	3237
853.914	3154
854.048	3116
854.183	3089
854.317	3184
854.451	3321
854.585	3119
854.72	3100
854.854	3211
854.988	3055
855.122	3093
855.256	2990
855.39	3135
855.524	3241
855.658	3184
855.792	3135
855.926	3226
856.06	3211
856.194	3249
856.327	3165
856.461	3081
856.595	3097
856.729	3089
856.862	3226
856.996	3180
857.13	3211
857.263	3233
857.397	3283
857.53	3135
857.664	3195
857.797	3226
857.931	3249
858.064	3176
858.197	3230
858.331	3123
858.464	3077
858.597	3017
858.731	3112
858.864	3157
858.997	3066
859.13	3165
859.263	3157
859.396	3184
859.529	3047
859.662	3081
859.795	3039
859.928	3123
860.061	3287
860.194	3302
860.327	3116
860.46	3119
860.592	3249
860.725	3226
860.858	3256
860.99	3104
861.123	3055
861.256	3077
861.388	3131
861.521	3842
861.653	2982
861.786	2963
861.918	2975
862.05	3077
862.183	3093
862.315	3119
862.447	3146
862.58	3131
862.712	2956
862.844	2891
862.976	3062
863.108	3032
863.24	3386
863.372	2880
863.504	2971
863.636	2910
863.768	3047
863.9	2975
864.032	2906
864.164	2956
864.296	3017
864.428	3074
864.559	3097
864.691	3070
864.823	3062
864.954	3058
865.086	3081
865.217	2982
865.349	2929
865.48	2952
865.612	3036
865.743	3138
865.875	3005
866.006	2948
866.137	2971
866.269	2967
866.4	2933
866.531	2906
866.662	2876
866.793	2853
866.924	2883
867.055	2967
867.186	2933
867.317	2887
867.448	2815
867.579	2823
867.71	2830
867.841	2861
867.972	2872
868.103	2922
868.233	2895
868.364	2899
868.495	2914
868.625	3100
868.756	3207
868.886	2948
869.017	3005
869.147	3173
869.278	3150
869.408	3005
869.539	3047
869.669	3089
869.799	3028
869.929	3131
870.06	3089
870.19	3321
870.32	3298
870.45	3291
870.58	3367
870.71	3416
870.84	3454
870.97	3275
871.1	3230
871.23	3488
871.36	3454
871.489	3355
871.619	3389
871.749	3458
871.879	3378
872.008	3511
872.138	3344
872.267	3294
872.397	3154
872.526	3112
872.656	3013
872.785	3081
872.915	3260
873.044	3344
873.173	3222
873.303	3230
873.432	3264
873.561	3264
873.69	3157
873.819	3161
873.948	3176
874.077	3112
874.206	3039
874.335	3108
874.464	3218
874.593	3351
874.722	3237
874.851	3370
874.979	3336
875.108	3325
875.237	3173
875.365	3157
875.494	3169
875.623	3233
875.751	3081
875.88	3131
876.008	3173
876.136	3176
876.265	3378
876.393	3462
876.521	3428
876.65	3397
876.778	3325
876.906	3260
877.034	3192
877.162	3233
877.29	3146
877.418	3230
877.546	3230
877.674	3218
877.802	3211
877.93	3192
878.058	3150
878.185	3127
878.313	3207
878.441	3226
878.568	3043
878.696	3150
878.824	3237
878.951	3294
879.079	3462
879.206	3641
879.333	3435
879.461	3332
879.588	3351
879.715	3496
879.842	3587
879.97	3420
880.097	3207
880.224	3112
880.351	3154
880.478	3154
880.605	3161
880.732	3165
880.859	3469
880.986	3313
881.112	3310
881.239	3192
881.366	3127
881.493	3036
881.619	3020
881.746	3051
881.872	3066
881.999	3051
882.125	3116
882.252	3218
882.378	3253
882.505	3431
882.631	3264
882.757	3119
882.883	3214
883.01	3218
883.136	3150
883.262	3085
883.388	3131
883.514	3332
883.64	3348
883.766	3321
883.892	3157
884.018	3218
884.143	3412
884.269	3507
884.395	3192
884.52	3138
884.646	3173
884.772	3131
884.897	3100
885.023	3218
885.148	3344
885.274	3420
885.399	3355
885.524	3298
885.65	3256
885.775	3275
885.9	3237
886.025	3431
886.15	3370
886.275	3268
886.4	3233
886.525	3298
886.65	3275
886.775	3272
886.9	3477
887.025	3618
887.149	3397
887.274	3264
887.399	3203
887.523	3264
887.648	3218
887.773	3207
887.897	3397
888.021	3386
888.146	3302
888.27	3458
888.395	3534
888.519	3428
888.643	3431
888.767	3420
888.891	3310
889.015	3233
889.139	3287
889.263	3233
889.387	3424
889.511	3561
889.635	3439
889.759	3272
889.883	3256
890.006	3370
890.13	3500
890.254	3256
890.377	3340
890.501	3165
890.624	3195
890.748	3310
890.871	3211
890.995	3131
891.118	3070
891.241	3192
891.364	3199
891.488	3332
891.611	3207
891.734	3211
891.857	3256
891.98	3237
892.103	3359
892.226	3313
892.349	3192
892.471	3089
892.594	3260
892.717	3283
892.839	3260
892.962	3291
893.085	3363
893.207	3279
893.33	3131
893.452	3207
893.575	3321
893.697	3249
893.819	3435
893.941	3469
894.064	3447
894.186	3283
894.308	3310
894.43	3450
894.552	3564
894.674	3564
894.796	3260
894.918	3306
895.04	3317
895.161	3397
895.283	3386
895.405	3287
895.526	3351
895.648	3401
895.769	3416
895.891	3450
896.012	3458
896.134	3420
896.255	3386
896.376	3367
896.498	3329
896.619	3462
896.74	3382
896.861	3412
896.982	3682
897.103	3838
897.224	3584
897.345	3549
897.466	3439
897.587	3488
897.708	3637
897.828	3526
897.949	3405
898.07	3329
898.19	3389
898.311	3591
898.431	3412
898.552	3488
898.672	3564
898.792	3595
898.913	3523
899.033	3401
899.153	3294
899.273	3192
899.393	3245
899.513	3329
899.633	3329
899.753	3329
899.873	3310
899.993	3405
900.113	3340
900.232	3405
900.352	3336
900.472	3325
900.591	3195
900.711	3279
900.83	3237
900.95	3447
901.069	3504
901.189	3348
901.308	3165
901.427	3142
901.546	3180
901.665	3313
901.784	3279
901.904	3195
902.023	3093
902.141	3036
902.26	2941
902.379	3123
902.498	3077
902.617	3036
902.735	3237
902.854	3222
902.973	3180
903.091	3036
903.21	3081
903.328	3108
903.446	3123
903.565	3108
903.683	3154
903.801	3131
903.919	3241
904.038	3241
904.156	3184
904.274	3260
904.392	3218
904.51	3249
904.627	3321
904.745	3424
904.863	3443
904.981	3272
905.098	3146
905.216	3192
905.334	3260
905.451	3279
905.569	3310
905.686	3412
905.803	3447
905.921	3294
906.038	3424
906.155	3344
906.272	3226
906.389	3340
906.506	3249
906.623	3291
906.74	3264
906.857	3184
906.974	3222
907.091	3409
907.208	3515
907.324	3492
907.441	3416
907.557	3184
907.674	3222
907.79	3192
907.907	3230
908.023	3386
908.139	3355
908.256	3351
908.372	3363
908.488	3348
908.604	3264
908.72	3199
908.836	3249
908.952	3272
909.068	3313
909.184	3466
909.3	3348
909.415	3488
909.531	3477
909.647	3287
909.762	3298
909.878	3233
909.993	3363
910.108	3336
910.224	3329
910.339	3405
910.454	3317
910.57	3253
910.685	3241
910.8	3591
910.915	3538
911.03	3469
911.145	3294
911.259	3294
911.374	3325
911.489	3222
911.604	3230
911.718	3165
911.833	3169
911.947	3020
912.062	3001
912.176	3169
912.291	3188
912.405	3203
912.519	3439
912.633	3454
912.748	3344
912.862	3287
912.976	3161
913.09	3051
913.204	3108
913.318	3211
913.431	3306
913.545	3302
913.659	3401
913.772	3310
913.886	3230
914	3195
914.113	3359
914.226	3412
914.34	3367
914.453	3203
914.566	3397
914.68	3306
914.793	3275
914.906	3104
915.019	3131
915.132	3112
915.245	3131
915.358	3226
915.47	3226
915.583	3272
915.696	3287
915.809	3378
915.921	3401
916.034	3268
916.146	3233
916.259	3233
916.371	3397
916.483	3359
916.595	3310
916.708	3393
916.82	3351
916.932	3340
917.044	3348
917.156	3332
917.268	3256
917.38	3291
917.491	3310
917.603	3321
917.715	3424
917.826	3412
917.938	3389
918.049	3237
918.161	3481
918.272	3534
918.384	3580
918.495	3481
918.606	3321
918.717	3264
918.828	3329
918.939	3428
919.05	3306
919.161	3359
919.272	3150
919.383	3287
919.494	3477
919.604	3663
919.715	3473
919.826	3389
919.936	3473
920.047	3553
920.157	3587
920.267	3751
920.378	3606
920.488	3557
920.598	3793
920.708	3945
920.818	3804
920.928	3831
921.038	3998
921.148	3983
921.258	3686
921.368	3629
921.477	3572
921.587	3538
921.697	3481
921.806	3633
921.916	3511
922.025	3351
922.134	3370
922.244	3351
922.353	3412
922.462	3275
922.571	3233
922.68	3100
922.789	3077
922.898	3157
923.007	3123
923.116	3199
923.224	3203
923.333	3192
923.442	3062
923.55	3051
923.659	3100
923.767	3256
923.876	3157
923.984	3291
924.092	3089
924.201	3207
924.309	3188
924.417	3279
924.525	3173
924.633	3195
924.741	3968
924.849	3055
924.956	3256
925.064	3093
925.172	3032
925.279	3077
925.387	3180
925.494	3249
925.602	3344
925.709	3310
925.816	3173
925.924	3298
926.031	3355
926.138	3367
926.245	3370
926.352	3241
926.459	3401
926.566	3488
926.673	3329
926.779	3226
926.886	3264
926.993	3154
927.099	3154
927.206	3108
927.312	3085
927.419	3268
927.525	3154
927.631	3245
927.737	3157
927.843	3116
927.95	3020
928.056	3112
928.162	3161
928.267	3272
928.373	3789
928.479	3283
928.585	3074
928.69	3222
928.796	3275
928.901	3165
929.007	3097
929.112	3207
929.218	3154
929.323	3176
929.428	3146
929.533	3329
929.638	3108
929.743	3161
929.848	3256
929.953	3157
930.058	3131
930.163	3013
930.267	3017
930.372	3199
930.477	3001
930.581	3306
930.685	3165
930.79	3013
930.894	3138
930.998	3093
931.103	3283
931.207	2948
931.311	2933
931.415	2933
931.519	2743
931.623	2792
