Data from test_V78500241_310.txt Node
Date: Fri Mar 25 16:17:21 CST 2022
User: usil
Spectrometer: V785-0024
Trigger mode: 0
Integration Time (sec): 4.000000E-1
Scans to average: 1
Nonlinearity correction enabled: false
Boxcar width: 0
Storing dark spectrum: false
XAxis mode: Wavelengths
Number of Pixels in Spectrum: 1024
>>>>>Begin Spectral Data<<<<<
801.071	2944
801.214	2956
801.356	2899
801.499	2906
801.641	2929
801.783	2982
801.926	3081
802.068	2967
802.211	3028
802.353	3055
802.496	2952
802.638	3005
802.78	3047
802.923	3077
803.065	3017
803.208	2872
803.35	2914
803.492	2956
803.635	2937
803.777	2766
803.919	2880
804.061	3184
804.204	2956
804.346	2937
804.488	2819
804.63	2990
804.773	2883
804.915	2937
805.057	3108
805.199	2933
805.341	3001
805.483	3036
805.626	2979
805.768	2948
805.91	3112
806.052	3116
806.194	3032
806.336	3222
806.478	3062
806.62	2975
806.762	2998
806.904	3051
807.046	3161
807.188	3009
807.33	2902
807.472	3009
807.614	2929
807.756	2956
807.898	2937
808.04	2887
808.182	2956
808.324	2944
808.465	2891
808.607	2883
808.749	2788
808.891	2842
809.033	2963
809.174	2979
809.316	2895
809.458	2887
809.6	2758
809.741	2777
809.883	2788
810.025	2819
810.166	2899
810.308	2853
810.45	2830
810.591	2788
810.733	2788
810.875	2815
811.016	2792
811.158	2785
811.299	2781
811.441	2922
811.582	2941
811.724	2819
811.865	2838
812.007	2925
812.148	2861
812.29	2849
812.431	2891
812.573	2933
812.714	2956
812.855	3047
812.997	3032
813.138	3150
813.279	3001
813.421	2960
813.562	2967
813.703	2853
813.845	2872
813.986	2785
814.127	2739
814.268	2849
814.41	2845
814.551	2804
814.692	2895
814.833	2792
814.974	2891
815.115	2975
815.256	2853
815.397	2811
815.539	2857
815.68	2785
815.821	2792
815.962	2914
816.103	2948
816.244	2857
816.385	2857
816.526	2948
816.666	2925
816.807	2754
816.948	2906
817.089	2902
817.23	2853
817.371	2792
817.512	2777
817.653	2834
817.793	2777
817.934	2906
818.075	2963
818.216	2952
818.356	2994
818.497	2899
818.638	2781
818.778	2819
818.919	2792
819.06	2743
819.2	2902
819.341	2823
819.481	2819
819.622	2891
819.762	3112
819.903	3047
820.043	2941
820.184	2899
820.324	2891
820.465	3043
820.605	3062
820.746	3043
820.886	2914
821.026	3135
821.167	3161
821.307	3260
821.447	3340
821.588	3249
821.728	3199
821.868	3222
822.008	3074
822.149	3211
822.289	3256
822.429	3112
822.569	3097
822.709	3226
822.849	3066
822.99	3112
823.13	3165
823.27	3222
823.41	3112
823.55	3192
823.69	3207
823.83	3222
823.97	3154
824.11	3036
824.25	3028
824.389	3116
824.529	3097
824.669	3138
824.809	3222
824.949	3279
825.089	3272
825.228	3176
825.368	3074
825.508	2982
825.648	2994
825.787	3032
825.927	3032
826.067	3013
826.206	2994
826.346	3043
826.485	3138
826.625	3157
826.765	3279
826.904	3218
827.044	3005
827.183	2998
827.323	2914
827.462	3062
827.601	2979
827.741	2979
827.88	3017
828.02	2910
828.159	3051
828.298	3062
828.437	3157
828.577	3066
828.716	3268
828.855	3138
828.994	2960
829.134	2929
829.273	2967
829.412	2914
829.551	2925
829.69	2948
829.829	3028
829.968	3165
830.107	3051
830.246	3093
830.385	2982
830.524	2895
830.663	2864
830.802	2785
830.941	2693
831.08	2705
831.219	2781
831.357	2785
831.496	2963
831.635	2792
831.774	2667
831.913	2705
832.051	2602
832.19	2632
832.329	2746
832.467	2610
832.606	2530
832.744	2640
832.883	2590
833.022	2613
833.16	2678
833.299	2731
833.437	2762
833.576	2743
833.714	2785
833.852	2766
833.991	2807
834.129	2849
834.267	2872
834.406	2830
834.544	2910
834.682	2941
834.821	2910
834.959	3112
835.097	2952
835.235	3104
835.373	3047
835.511	3055
835.65	3001
835.788	3005
835.926	2857
836.064	2815
836.202	2929
836.34	3127
836.478	3195
836.615	3108
836.753	3131
836.891	3253
837.029	3180
837.167	3165
837.305	3070
837.443	3100
837.58	3028
837.718	3135
837.856	3104
837.993	3036
838.131	3142
838.269	3150
838.406	3161
838.544	3119
838.681	2982
838.819	2918
838.956	2849
839.094	2891
839.231	2929
839.369	3039
839.506	3378
839.643	3260
839.781	3062
839.918	2967
840.055	3131
840.193	3089
840.33	3089
840.467	3146
840.604	3199
840.742	3439
840.879	3100
841.016	3135
841.153	3188
841.29	3367
841.427	3344
841.564	3291
841.701	3321
841.838	3245
841.975	3199
842.112	3226
842.249	3100
842.385	3066
842.522	3272
842.659	3104
842.796	3070
842.933	3146
843.069	3066
843.206	3070
843.343	3157
843.479	3161
843.616	3176
843.752	2902
843.889	2899
844.025	3097
844.162	2910
844.298	3116
844.435	2986
844.571	2952
844.708	3116
844.844	3188
844.98	3253
845.117	3233
845.253	3089
845.389	3062
845.525	3157
845.661	3108
845.798	3032
845.934	3184
846.07	3074
846.206	3264
846.342	3344
846.478	3253
846.614	3116
846.75	3131
846.886	3039
847.022	3298
847.158	3176
847.294	3264
847.429	3272
847.565	3233
847.701	3515
847.837	3039
847.972	3009
848.108	3192
848.244	3142
848.379	3013
848.515	3009
848.65	2979
848.786	3005
848.921	3058
849.057	3135
849.192	3146
849.328	3097
849.463	3142
849.598	3112
849.734	3062
849.869	3017
850.004	2963
850.14	2979
850.275	2922
850.41	2868
850.545	2895
850.68	2948
850.815	2979
850.95	2998
851.085	3249
851.22	3142
851.355	3070
851.49	3009
851.625	3047
851.76	3047
851.895	2975
852.03	2929
852.165	3074
852.299	3157
852.434	3241
852.569	3157
852.703	3230
852.838	3268
852.973	3367
853.107	3386
853.242	3207
853.376	3127
853.511	3009
853.645	3055
853.78	3256
853.914	3127
854.048	3157
854.183	3123
854.317	3188
854.451	3321
854.585	3165
854.72	3089
854.854	3222
854.988	3108
855.122	3123
855.256	3005
855.39	3142
855.524	3283
855.658	3218
855.792	3127
855.926	3222
856.06	3226
856.194	3275
856.327	3218
856.461	3119
856.595	3093
856.729	3074
856.862	3211
856.996	3207
857.13	3256
857.263	3268
857.397	3310
857.53	3161
857.664	3230
857.797	3283
857.931	3264
858.064	3176
858.197	3199
858.331	3173
858.464	3116
858.597	3024
858.731	3127
858.864	3157
858.997	3089
859.13	3199
859.263	3195
859.396	3211
859.529	3116
859.662	3127
859.795	3047
859.928	3169
860.061	3302
860.194	3310
860.327	3154
860.46	3123
860.592	3264
860.725	3275
860.858	3272
860.99	3089
861.123	3085
861.256	3070
861.388	3169
861.521	3937
861.653	3062
861.786	2986
861.918	3028
862.05	3070
862.183	3135
862.315	3207
862.447	3214
862.58	3127
862.712	2963
862.844	2933
862.976	3066
863.108	3013
863.24	3329
863.372	2899
863.504	3017
863.636	2952
863.768	3058
863.9	2971
864.032	2925
864.164	2948
864.296	3055
864.428	3093
864.559	3093
864.691	3104
864.823	3077
864.954	3024
865.086	3058
865.217	2998
865.349	2971
865.48	3032
865.612	3070
865.743	3157
865.875	3013
866.006	2960
866.137	3013
866.269	2990
866.4	2960
866.531	2979
866.662	2910
866.793	2883
866.924	2906
867.055	2990
867.186	2971
867.317	2883
867.448	2845
867.579	2880
867.71	2872
867.841	2845
867.972	2922
868.103	2899
868.233	2937
868.364	2918
868.495	2910
868.625	3097
868.756	3195
868.886	2975
869.017	3055
869.147	3173
869.278	3176
869.408	3055
869.539	3024
869.669	3112
869.799	3055
869.929	3131
870.06	3131
870.19	3359
870.32	3317
870.45	3317
870.58	3370
870.71	3462
870.84	3488
870.97	3329
871.1	3283
871.23	3526
871.36	3454
871.489	3363
871.619	3409
871.749	3431
871.879	3458
872.008	3507
872.138	3378
872.267	3283
872.397	3180
872.526	3135
872.656	3024
872.785	3116
872.915	3275
873.044	3325
873.173	3253
873.303	3302
873.432	3226
873.561	3218
873.69	3176
873.819	3203
873.948	3226
874.077	3116
874.206	3032
874.335	3085
874.464	3222
874.593	3351
874.722	3245
874.851	3424
874.979	3367
875.108	3325
875.237	3211
875.365	3176
875.494	3199
875.623	3253
875.751	3097
875.88	3157
876.008	3199
876.136	3241
876.265	3393
876.393	3519
876.521	3435
876.65	3405
876.778	3325
876.906	3291
877.034	3230
877.162	3264
877.29	3226
877.418	3310
877.546	3268
877.674	3268
877.802	3256
877.93	3253
878.058	3165
878.185	3119
878.313	3199
878.441	3222
878.568	3108
878.696	3165
878.824	3260
878.951	3306
879.079	3450
879.206	3698
879.333	3488
879.461	3336
879.588	3386
879.715	3477
879.842	3606
879.97	3409
880.097	3203
880.224	3150
880.351	3230
880.478	3218
880.605	3203
880.732	3222
880.859	3504
880.986	3332
881.112	3344
881.239	3222
881.366	3119
881.493	3028
881.619	3043
881.746	3055
881.872	3097
881.999	3150
882.125	3154
882.252	3260
882.378	3313
882.505	3473
882.631	3306
882.757	3207
882.883	3226
883.01	3253
883.136	3165
883.262	3135
883.388	3123
883.514	3348
883.64	3405
883.766	3340
883.892	3184
884.018	3233
884.143	3409
884.269	3515
884.395	3222
884.52	3165
884.646	3211
884.772	3138
884.897	3116
885.023	3233
885.148	3370
885.274	3405
885.399	3359
885.524	3302
885.65	3287
885.775	3325
885.9	3310
886.025	3435
886.15	3389
886.275	3302
886.4	3237
886.525	3325
886.65	3275
886.775	3275
886.9	3530
887.025	3663
887.149	3424
887.274	3256
887.399	3165
887.523	3237
887.648	3173
887.773	3260
887.897	3435
888.021	3401
888.146	3283
888.27	3443
888.395	3507
888.519	3454
888.643	3431
888.767	3431
888.891	3313
889.015	3275
889.139	3351
889.263	3249
889.387	3405
889.511	3542
889.635	3469
889.759	3344
889.883	3321
890.006	3397
890.13	3504
890.254	3310
890.377	3370
890.501	3218
890.624	3161
890.748	3317
890.871	3199
890.995	3112
891.118	3081
891.241	3222
891.364	3233
891.488	3344
891.611	3195
891.734	3272
891.857	3283
891.98	3226
892.103	3321
892.226	3329
892.349	3211
892.471	3146
892.594	3260
892.717	3317
892.839	3268
892.962	3306
893.085	3382
893.207	3298
893.33	3154
893.452	3226
893.575	3336
893.697	3237
893.819	3481
893.941	3511
894.064	3492
894.186	3275
894.308	3287
894.43	3469
894.552	3542
894.674	3469
894.796	3272
894.918	3279
895.04	3310
895.161	3428
895.283	3420
895.405	3329
895.526	3378
895.648	3412
895.769	3431
895.891	3469
896.012	3488
896.134	3496
896.255	3424
896.376	3382
896.498	3397
896.619	3428
896.74	3382
896.861	3409
896.982	3728
897.103	3846
897.224	3591
897.345	3568
897.466	3447
897.587	3511
897.708	3667
897.828	3557
897.949	3458
898.07	3340
898.19	3454
898.311	3614
898.431	3412
898.552	3507
898.672	3595
898.792	3568
898.913	3542
899.033	3428
899.153	3313
899.273	3214
899.393	3298
899.513	3275
899.633	3332
899.753	3359
899.873	3340
899.993	3393
900.113	3336
900.232	3409
900.352	3363
900.472	3302
900.591	3222
900.711	3291
900.83	3245
900.95	3382
901.069	3477
901.189	3321
901.308	3138
901.427	3138
901.546	3226
901.665	3279
901.784	3332
901.904	3237
902.023	3138
902.141	2994
902.26	3009
902.379	3150
902.498	3032
902.617	3062
902.735	3169
902.854	3279
902.973	3180
903.091	3047
903.21	3058
903.328	3161
903.446	3112
903.565	3097
903.683	3241
903.801	3165
903.919	3226
904.038	3264
904.156	3157
904.274	3310
904.392	3245
904.51	3298
904.627	3302
904.745	3397
904.863	3488
904.981	3211
905.098	3188
905.216	3245
905.334	3294
905.451	3340
905.569	3291
905.686	3401
905.803	3447
905.921	3340
906.038	3439
906.155	3344
906.272	3279
906.389	3329
906.506	3256
906.623	3287
906.74	3298
906.857	3207
906.974	3264
907.091	3450
907.208	3545
907.324	3500
907.441	3382
907.557	3214
907.674	3214
907.79	3199
907.907	3260
908.023	3382
908.139	3389
908.256	3359
908.372	3412
908.488	3351
908.604	3264
908.72	3253
908.836	3313
908.952	3294
909.068	3329
909.184	3469
909.3	3435
909.415	3447
909.531	3507
909.647	3275
909.762	3291
909.878	3245
909.993	3378
910.108	3336
910.224	3329
910.339	3348
910.454	3321
910.57	3264
910.685	3260
910.8	3564
910.915	3542
911.03	3420
911.145	3264
911.259	3287
911.374	3348
911.489	3260
911.604	3222
911.718	3150
911.833	3119
911.947	3039
912.062	3009
912.176	3180
912.291	3157
912.405	3260
912.519	3462
912.633	3488
912.748	3363
912.862	3272
912.976	3192
913.09	3058
913.204	3131
913.318	3211
913.431	3329
913.545	3321
913.659	3389
913.772	3329
913.886	3237
914	3218
914.113	3321
914.226	3409
914.34	3374
914.453	3230
914.566	3409
914.68	3283
914.793	3348
914.906	3127
915.019	3081
915.132	3100
915.245	3180
915.358	3233
915.47	3214
915.583	3241
915.696	3294
915.809	3382
915.921	3424
916.034	3275
916.146	3233
916.259	3211
916.371	3363
916.483	3382
916.595	3222
916.708	3298
916.82	3336
916.932	3344
917.044	3351
917.156	3336
917.268	3253
917.38	3283
917.491	3302
917.603	3355
917.715	3454
917.826	3496
917.938	3378
918.049	3291
918.161	3443
918.272	3587
918.384	3584
918.495	3481
918.606	3344
918.717	3275
918.828	3409
918.939	3428
919.05	3340
919.161	3363
919.272	3161
919.383	3294
919.494	3473
919.604	3694
919.715	3507
919.826	3431
919.936	3466
920.047	3553
920.157	3549
920.267	3793
920.378	3595
920.488	3561
920.598	3762
920.708	3960
920.818	3823
920.928	3850
921.038	4044
921.148	3987
921.258	3698
921.368	3625
921.477	3561
921.587	3507
921.697	3454
921.806	3641
921.916	3519
922.025	3336
922.134	3348
922.244	3294
922.353	3431
922.462	3237
922.571	3214
922.68	3127
922.789	3081
922.898	3135
923.007	3100
923.116	3192
923.224	3161
923.333	3188
923.442	3093
923.55	3097
923.659	3127
923.767	3176
923.876	3131
923.984	3237
924.092	3089
924.201	3192
924.309	3264
924.417	3264
924.525	3173
924.633	3245
924.741	4200
924.849	3077
924.956	3260
925.064	3131
925.172	3039
925.279	3123
925.387	3230
925.494	3165
925.602	3382
925.709	3298
925.816	3226
925.924	3291
926.031	3344
926.138	3313
926.245	3344
926.352	3272
926.459	3420
926.566	3462
926.673	3306
926.779	3245
926.886	3256
926.993	3169
927.099	3176
927.206	3085
927.312	3112
927.419	3222
927.525	3199
927.631	3253
927.737	3138
927.843	3108
927.95	3036
928.056	3142
928.162	3169
928.267	3249
928.373	3857
928.479	3329
928.585	3009
928.69	3226
928.796	3306
928.901	3157
929.007	3024
929.112	3214
929.218	3188
929.323	3161
929.428	3157
929.533	3291
929.638	3108
929.743	3161
929.848	3291
929.953	3230
930.058	3146
930.163	2994
930.267	3062
930.372	3173
930.477	3005
930.581	3302
930.685	3169
930.79	3051
930.894	3089
930.998	3119
931.103	3279
931.207	3005
931.311	2929
931.415	2918
931.519	2781
931.623	2796
