Data from test_V78500241_989.txt Node
Date: Fri Mar 25 16:22:03 CST 2022
User: usil
Spectrometer: V785-0024
Trigger mode: 0
Integration Time (sec): 4.000000E-1
Scans to average: 1
Nonlinearity correction enabled: false
Boxcar width: 0
Storing dark spectrum: false
XAxis mode: Wavelengths
Number of Pixels in Spectrum: 1024
>>>>>Begin Spectral Data<<<<<
801.071	2937
801.214	2956
801.356	2880
801.499	2883
801.641	2872
801.783	2922
801.926	3032
802.068	2986
802.211	2967
802.353	3055
802.496	2963
802.638	3017
802.78	3020
802.923	3047
803.065	3005
803.208	2914
803.35	2914
803.492	2941
803.635	2902
803.777	2750
803.919	2864
804.061	3188
804.204	2941
804.346	2899
804.488	2826
804.63	2975
804.773	2880
804.915	2922
805.057	3062
805.199	2956
805.341	3005
805.483	3036
805.626	2994
805.768	2982
805.91	3081
806.052	3108
806.194	3024
806.336	3253
806.478	3013
806.62	2944
806.762	2963
806.904	3043
807.046	3199
807.188	2990
807.33	2861
807.472	3020
807.614	2876
807.756	2994
807.898	2902
808.04	2929
808.182	2990
808.324	2952
808.465	2906
808.607	2872
808.749	2777
808.891	2853
809.033	2990
809.174	2975
809.316	2887
809.458	2891
809.6	2746
809.741	2750
809.883	2773
810.025	2853
810.166	2883
810.308	2838
810.45	2864
810.591	2807
810.733	2750
810.875	2876
811.016	2773
811.158	2766
811.299	2777
811.441	2982
811.582	2883
811.724	2849
811.865	2834
812.007	2891
812.148	2872
812.29	2861
812.431	2838
812.573	2941
812.714	2963
812.855	3062
812.997	3032
813.138	3138
813.279	2982
813.421	2979
813.562	2941
813.703	2872
813.845	2864
813.986	2758
814.127	2724
814.268	2830
814.41	2823
814.551	2750
814.692	2906
814.833	2834
814.974	2872
815.115	2963
815.256	2830
815.397	2842
815.539	2853
815.68	2773
815.821	2754
815.962	2944
816.103	2952
816.244	2906
816.385	2857
816.526	2941
816.666	2937
816.807	2762
816.948	2891
817.089	2887
817.23	2838
817.371	2746
817.512	2758
817.653	2838
817.793	2826
817.934	2876
818.075	2929
818.216	2960
818.356	3009
818.497	2883
818.638	2777
818.778	2804
818.919	2785
819.06	2727
819.2	2864
819.341	2811
819.481	2830
819.622	2902
819.762	3104
819.903	3062
820.043	2933
820.184	2910
820.324	2918
820.465	3043
820.605	2963
820.746	3028
820.886	2925
821.026	3074
821.167	3150
821.307	3268
821.447	3287
821.588	3222
821.728	3169
821.868	3188
822.008	3066
822.149	3184
822.289	3173
822.429	3085
822.569	3081
822.709	3184
822.849	3005
822.99	3058
823.13	3199
823.27	3176
823.41	3104
823.55	3146
823.69	3154
823.83	3157
823.97	3085
824.11	3001
824.25	2982
824.389	3051
824.529	3097
824.669	3093
824.809	3222
824.949	3260
825.089	3222
825.228	3165
825.368	2982
825.508	2937
825.648	2967
825.787	3017
825.927	3043
826.067	2975
826.206	2933
826.346	3024
826.485	3058
826.625	3146
826.765	3283
826.904	3184
827.044	3005
827.183	2925
827.323	2887
827.462	2979
827.601	2876
827.741	2895
827.88	2952
828.02	2830
828.159	2971
828.298	3036
828.437	3127
828.577	3039
828.716	3256
828.855	3089
828.994	2895
829.134	2853
829.273	2902
829.412	2857
829.551	2857
829.69	2899
829.829	3001
829.968	3112
830.107	3017
830.246	3005
830.385	2956
830.524	2864
830.663	2807
830.802	2705
830.941	2636
831.08	2636
831.219	2746
831.357	2766
831.496	2937
831.635	2762
831.774	2629
831.913	2636
832.051	2545
832.19	2545
832.329	2674
832.467	2533
832.606	2480
832.744	2579
832.883	2571
833.022	2594
833.16	2644
833.299	2674
833.437	2708
833.576	2678
833.714	2689
833.852	2724
833.991	2746
834.129	2830
834.267	2838
834.406	2781
834.544	2876
834.682	2872
834.821	2811
834.959	3051
835.097	2895
835.235	3024
835.373	2963
835.511	3009
835.65	2960
835.788	2933
835.926	2826
836.064	2769
836.202	2880
836.34	3089
836.478	3135
836.615	3066
836.753	3146
836.891	3203
837.029	3161
837.167	3085
837.305	3017
837.443	3017
837.58	2929
837.718	3138
837.856	3028
837.993	3013
838.131	3127
838.269	3108
838.406	3032
838.544	3112
838.681	2941
838.819	2914
838.956	2823
839.094	2788
839.231	2929
839.369	3032
839.506	3363
839.643	3188
839.781	3017
839.918	2933
840.055	3055
840.193	3013
840.33	3062
840.467	3081
840.604	3146
840.742	3401
840.879	3077
841.016	3032
841.153	3112
841.29	3351
841.427	3275
841.564	3264
841.701	3351
841.838	3222
841.975	3116
842.112	3192
842.249	3108
842.385	3058
842.522	3241
842.659	3070
842.796	3070
842.933	3085
843.069	3028
843.206	3024
843.343	3154
843.479	3085
843.616	3135
843.752	2895
843.889	2899
844.025	3058
844.162	2868
844.298	3066
844.435	2922
844.571	2864
844.708	3062
844.844	3195
844.98	3237
845.117	3199
845.253	3066
845.389	3036
845.525	3119
845.661	3112
845.798	2967
845.934	3119
846.07	3028
846.206	3230
846.342	3275
846.478	3192
846.614	3119
846.75	3058
846.886	3009
847.022	3233
847.158	3135
847.294	3169
847.429	3253
847.565	3203
847.701	3485
847.837	2994
847.972	2986
848.108	3135
848.244	3116
848.379	2982
848.515	2944
848.65	2925
848.786	2998
848.921	2979
849.057	3116
849.192	3173
849.328	3081
849.463	3131
849.598	3055
849.734	3051
849.869	2944
850.004	2887
850.14	2933
850.275	2902
850.41	2819
850.545	2868
850.68	2906
850.815	2910
850.95	3009
851.085	3207
851.22	3085
851.355	3032
851.49	3009
851.625	2986
851.76	2990
851.895	2929
852.03	2864
852.165	3013
852.299	3093
852.434	3184
852.569	3173
852.703	3127
852.838	3275
852.973	3351
853.107	3336
853.242	3131
853.376	3074
853.511	2979
853.645	3009
853.78	3241
853.914	3093
854.048	3116
854.183	3077
854.317	3119
854.451	3329
854.585	3081
854.72	3070
854.854	3184
854.988	3032
855.122	3058
855.256	2956
855.39	3131
855.524	3184
855.658	3169
855.792	3123
855.926	3192
856.06	3214
856.194	3211
856.327	3142
856.461	3093
856.595	3089
856.729	3051
856.862	3192
856.996	3184
857.13	3192
857.263	3226
857.397	3294
857.53	3085
857.664	3207
857.797	3237
857.931	3272
858.064	3165
858.197	3241
858.331	3138
858.464	3047
858.597	2979
858.731	3100
858.864	3146
858.997	3066
859.13	3123
859.263	3135
859.396	3173
859.529	3097
859.662	3089
859.795	3047
859.928	3131
860.061	3199
860.194	3233
860.327	3123
860.46	3104
860.592	3218
860.725	3241
860.858	3268
860.99	3097
861.123	3024
861.256	3051
861.388	3119
861.521	3838
861.653	3009
861.786	2967
861.918	3009
862.05	3039
862.183	3074
862.315	3138
862.447	3199
862.58	3024
862.712	2944
862.844	2876
862.976	3005
863.108	3024
863.24	3374
863.372	2880
863.504	2952
863.636	2948
863.768	3036
863.9	2937
864.032	2887
864.164	2971
864.296	3032
864.428	3089
864.559	3116
864.691	3066
864.823	3051
864.954	3043
865.086	2994
865.217	3017
865.349	2967
865.48	2948
865.612	3005
865.743	3165
865.875	2937
866.006	2925
866.137	2967
866.269	2967
866.4	2906
866.531	2925
866.662	2899
866.793	2887
866.924	2838
867.055	2933
867.186	2933
867.317	2853
867.448	2845
867.579	2872
867.71	2872
867.841	2842
867.972	2883
868.103	2895
868.233	2880
868.364	2861
868.495	2883
868.625	3093
868.756	3154
868.886	2975
869.017	3013
869.147	3161
869.278	3184
869.408	3032
869.539	3036
869.669	3058
869.799	3047
869.929	3138
870.06	3100
870.19	3336
870.32	3321
870.45	3241
870.58	3393
870.71	3435
870.84	3401
870.97	3283
871.1	3226
871.23	3485
871.36	3481
871.489	3329
871.619	3386
871.749	3370
871.879	3416
872.008	3462
872.138	3378
872.267	3272
872.397	3161
872.526	3116
872.656	3013
872.785	3085
872.915	3211
873.044	3321
873.173	3249
873.303	3237
873.432	3214
873.561	3192
873.69	3161
873.819	3165
873.948	3184
874.077	3104
874.206	2986
874.335	3081
874.464	3192
874.593	3310
874.722	3241
874.851	3378
874.979	3332
875.108	3317
875.237	3180
875.365	3169
875.494	3146
875.623	3211
875.751	3081
875.88	3138
876.008	3180
876.136	3195
876.265	3306
876.393	3526
876.521	3374
876.65	3344
876.778	3370
876.906	3302
877.034	3161
877.162	3192
877.29	3116
877.418	3249
877.546	3230
877.674	3230
877.802	3203
877.93	3184
878.058	3154
878.185	3100
878.313	3203
878.441	3184
878.568	3085
878.696	3154
878.824	3211
878.951	3272
879.079	3428
879.206	3629
879.333	3374
879.461	3321
879.588	3367
879.715	3481
879.842	3564
879.97	3363
880.097	3154
880.224	3108
880.351	3188
880.478	3264
880.605	3218
880.732	3173
880.859	3504
880.986	3317
881.112	3321
881.239	3180
881.366	3119
881.493	3047
881.619	2998
881.746	3043
881.872	3089
881.999	3119
882.125	3104
882.252	3192
882.378	3237
882.505	3416
882.631	3291
882.757	3165
882.883	3176
883.01	3211
883.136	3157
883.262	3081
883.388	3058
883.514	3332
883.64	3359
883.766	3291
883.892	3199
884.018	3222
884.143	3401
884.269	3519
884.395	3237
884.52	3127
884.646	3169
884.772	3116
884.897	3089
885.023	3173
885.148	3321
885.274	3382
885.399	3367
885.524	3249
885.65	3260
885.775	3272
885.9	3230
886.025	3424
886.15	3363
886.275	3283
886.4	3222
886.525	3264
886.65	3283
886.775	3256
886.9	3485
887.025	3625
887.149	3367
887.274	3211
887.399	3165
887.523	3199
887.648	3195
887.773	3218
887.897	3351
888.021	3389
888.146	3321
888.27	3443
888.395	3473
888.519	3412
888.643	3443
888.767	3454
888.891	3294
889.015	3230
889.139	3275
889.263	3233
889.387	3405
889.511	3511
889.635	3412
889.759	3298
889.883	3298
890.006	3340
890.13	3466
890.254	3268
890.377	3370
890.501	3199
890.624	3161
890.748	3291
890.871	3142
890.995	3081
891.118	3104
891.241	3203
891.364	3237
891.488	3287
891.611	3161
891.734	3237
891.857	3298
891.98	3222
892.103	3344
892.226	3226
892.349	3268
892.471	3081
892.594	3230
892.717	3294
892.839	3272
892.962	3291
893.085	3317
893.207	3268
893.33	3135
893.452	3249
893.575	3355
893.697	3283
893.819	3450
893.941	3473
894.064	3450
894.186	3226
894.308	3249
894.43	3420
894.552	3462
894.674	3504
894.796	3302
894.918	3310
895.04	3268
895.161	3450
895.283	3412
895.405	3291
895.526	3359
895.648	3458
895.769	3401
895.891	3454
896.012	3485
896.134	3504
896.255	3443
896.376	3378
896.498	3378
896.619	3420
896.74	3329
896.861	3378
896.982	3717
897.103	3846
897.224	3622
897.345	3481
897.466	3428
897.587	3473
897.708	3629
897.828	3526
897.949	3420
898.07	3336
898.19	3424
898.311	3606
898.431	3454
898.552	3553
898.672	3576
898.792	3629
898.913	3519
899.033	3420
899.153	3268
899.273	3233
899.393	3249
899.513	3321
899.633	3306
899.753	3329
899.873	3272
899.993	3359
900.113	3310
900.232	3374
900.352	3313
900.472	3298
900.591	3180
900.711	3283
900.83	3203
900.95	3416
901.069	3492
901.189	3355
901.308	3192
901.427	3119
901.546	3192
901.665	3264
901.784	3348
901.904	3195
902.023	3127
902.141	2982
902.26	2971
902.379	3104
902.498	3043
902.617	3070
902.735	3188
902.854	3256
902.973	3176
903.091	3032
903.21	3055
903.328	3154
903.446	3074
903.565	3051
903.683	3173
903.801	3138
903.919	3226
904.038	3275
904.156	3154
904.274	3249
904.392	3203
904.51	3287
904.627	3340
904.745	3424
904.863	3428
904.981	3245
905.098	3138
905.216	3214
905.334	3302
905.451	3283
905.569	3287
905.686	3443
905.803	3428
905.921	3275
906.038	3477
906.155	3348
906.272	3249
906.389	3313
906.506	3218
906.623	3233
906.74	3245
906.857	3161
906.974	3253
907.091	3443
907.208	3584
907.324	3500
907.441	3397
907.557	3260
907.674	3233
907.79	3211
907.907	3310
908.023	3393
908.139	3386
908.256	3351
908.372	3359
908.488	3336
908.604	3268
908.72	3264
908.836	3291
908.952	3283
909.068	3332
909.184	3492
909.3	3405
909.415	3488
909.531	3454
909.647	3291
909.762	3321
909.878	3237
909.993	3359
910.108	3313
910.224	3298
910.339	3409
910.454	3340
910.57	3298
910.685	3249
910.8	3568
910.915	3485
911.03	3454
911.145	3287
911.259	3256
911.374	3310
911.489	3218
911.604	3230
911.718	3116
911.833	3116
911.947	3001
912.062	2994
912.176	3142
912.291	3222
912.405	3237
912.519	3431
912.633	3477
912.748	3329
912.862	3275
912.976	3154
913.09	3077
913.204	3127
913.318	3245
913.431	3306
913.545	3306
913.659	3386
913.772	3344
913.886	3230
914	3211
914.113	3363
914.226	3374
914.34	3351
914.453	3195
914.566	3447
914.68	3287
914.793	3340
914.906	3184
915.019	3093
915.132	3058
915.245	3157
915.358	3226
915.47	3211
915.583	3287
915.696	3264
915.809	3420
915.921	3416
916.034	3237
916.146	3249
916.259	3237
916.371	3355
916.483	3378
916.595	3279
916.708	3306
916.82	3317
916.932	3351
917.044	3348
917.156	3359
917.268	3283
917.38	3272
917.491	3260
917.603	3336
917.715	3409
917.826	3443
917.938	3378
918.049	3268
918.161	3428
918.272	3561
918.384	3549
918.495	3515
918.606	3306
918.717	3260
918.828	3389
918.939	3389
919.05	3283
919.161	3386
919.272	3207
919.383	3287
919.494	3496
919.604	3682
919.715	3492
919.826	3420
919.936	3473
920.047	3618
920.157	3576
920.267	3743
920.378	3622
920.488	3572
920.598	3778
920.708	3964
920.818	3823
920.928	3838
921.038	3998
921.148	4010
921.258	3698
921.368	3629
921.477	3545
921.587	3515
921.697	3416
921.806	3622
921.916	3519
922.025	3367
922.134	3386
922.244	3294
922.353	3424
922.462	3237
922.571	3241
922.68	3100
922.789	3074
922.898	3131
923.007	3062
923.116	3192
923.224	3169
923.333	3184
923.442	3135
923.55	3108
923.659	3154
923.767	3214
923.876	3062
923.984	3245
924.092	3104
924.201	3161
924.309	3165
924.417	3218
924.525	3176
924.633	3203
924.741	4177
924.849	3020
924.956	3245
925.064	3085
925.172	3009
925.279	3074
925.387	3203
925.494	3222
925.602	3348
925.709	3298
925.816	3195
925.924	3298
926.031	3386
926.138	3336
926.245	3370
926.352	3241
926.459	3412
926.566	3462
926.673	3317
926.779	3241
926.886	3237
926.993	3127
927.099	3138
927.206	3093
927.312	3112
927.419	3233
927.525	3180
927.631	3291
927.737	3135
927.843	3116
927.95	3020
928.056	3131
928.162	3146
928.267	3233
928.373	3857
928.479	3313
928.585	3058
928.69	3214
928.796	3233
928.901	3165
929.007	3009
929.112	3222
929.218	3169
929.323	3157
929.428	3123
929.533	3283
929.638	3089
929.743	3192
929.848	3245
929.953	3195
930.058	3119
930.163	2982
930.267	3036
930.372	3188
930.477	3024
930.581	3332
930.685	3173
930.79	3043
930.894	3116
930.998	3104
931.103	3233
931.207	2895
931.311	2929
931.415	2918
931.519	2792
931.623	2815
