Data from test_V78500241_314.txt Node
Date: Fri Mar 25 16:17:22 CST 2022
User: usil
Spectrometer: V785-0024
Trigger mode: 0
Integration Time (sec): 4.000000E-1
Scans to average: 1
Nonlinearity correction enabled: false
Boxcar width: 0
Storing dark spectrum: false
XAxis mode: Wavelengths
Number of Pixels in Spectrum: 1024
>>>>>Begin Spectral Data<<<<<
801.071	2933
801.214	2933
801.356	2826
801.499	2849
801.641	2849
801.783	2891
801.926	3001
802.068	2982
802.211	2990
802.353	3005
802.496	2960
802.638	3017
802.78	3032
802.923	3051
803.065	2990
803.208	2918
803.35	2883
803.492	2925
803.635	2922
803.777	2773
803.919	2815
804.061	3173
804.204	2929
804.346	2925
804.488	2834
804.63	2960
804.773	2849
804.915	2876
805.057	3093
805.199	2948
805.341	2967
805.483	3005
805.626	2979
805.768	2933
805.91	3077
806.052	3108
806.194	3013
806.336	3218
806.478	2982
806.62	2967
806.762	2990
806.904	3089
807.046	3146
807.188	2956
807.33	2914
807.472	2960
807.614	2910
807.756	2971
807.898	2918
808.04	2906
808.182	2971
808.324	2975
808.465	2887
808.607	2906
808.749	2796
808.891	2845
809.033	2971
809.174	2952
809.316	2872
809.458	2876
809.6	2804
809.741	2796
809.883	2758
810.025	2830
810.166	2834
810.308	2849
810.45	2868
810.591	2735
810.733	2746
810.875	2819
811.016	2777
811.158	2785
811.299	2785
811.441	2887
811.582	2891
811.724	2796
811.865	2815
812.007	2891
812.148	2876
812.29	2868
812.431	2883
812.573	2956
812.714	2960
812.855	3036
812.997	3036
813.138	3093
813.279	3005
813.421	2929
813.562	2944
813.703	2868
813.845	2895
813.986	2735
814.127	2731
814.268	2834
814.41	2838
814.551	2842
814.692	2876
814.833	2811
814.974	2887
815.115	2956
815.256	2849
815.397	2807
815.539	2861
815.68	2773
815.821	2788
815.962	2933
816.103	2941
816.244	2872
816.385	2853
816.526	2967
816.666	2906
816.807	2724
816.948	2845
817.089	2922
817.23	2845
817.371	2766
817.512	2834
817.653	2868
817.793	2807
817.934	2899
818.075	2948
818.216	2967
818.356	3036
818.497	2868
818.638	2796
818.778	2838
818.919	2766
819.06	2746
819.2	2853
819.341	2788
819.481	2788
819.622	2914
819.762	3131
819.903	3051
820.043	2899
820.184	2910
820.324	2899
820.465	3036
820.605	3032
820.746	2998
820.886	2941
821.026	3074
821.167	3154
821.307	3241
821.447	3272
821.588	3211
821.728	3192
821.868	3161
822.008	3055
822.149	3207
822.289	3245
822.429	3089
822.569	3112
822.709	3180
822.849	3036
822.99	3039
823.13	3173
823.27	3214
823.41	3116
823.55	3157
823.69	3154
823.83	3165
823.97	3104
824.11	2975
824.25	2979
824.389	3055
824.529	3085
824.669	3116
824.809	3214
824.949	3268
825.089	3211
825.228	3157
825.368	2990
825.508	2941
825.648	2963
825.787	3009
825.927	2994
826.067	2948
826.206	2956
826.346	2998
826.485	3047
826.625	3104
826.765	3253
826.904	3180
827.044	3024
827.183	2906
827.323	2845
827.462	3009
827.601	2922
827.741	2895
827.88	2941
828.02	2861
828.159	2986
828.298	3036
828.437	3127
828.577	3055
828.716	3226
828.855	3074
828.994	2883
829.134	2853
829.273	2902
829.412	2853
829.551	2887
829.69	2876
829.829	3043
829.968	3089
830.107	3009
830.246	3024
830.385	2899
830.524	2887
830.663	2849
830.802	2693
830.941	2640
831.08	2651
831.219	2754
831.357	2750
831.496	2960
831.635	2716
831.774	2659
831.913	2632
832.051	2564
832.19	2610
832.329	2693
832.467	2495
832.606	2476
832.744	2560
832.883	2575
833.022	2556
833.16	2621
833.299	2674
833.437	2697
833.576	2670
833.714	2739
833.852	2708
833.991	2785
834.129	2815
834.267	2830
834.406	2762
834.544	2845
834.682	2864
834.821	2861
834.959	3055
835.097	2902
835.235	3047
835.373	2994
835.511	2960
835.65	2925
835.788	2941
835.926	2823
836.064	2800
836.202	2830
836.34	3119
836.478	3138
836.615	3013
836.753	3127
836.891	3199
837.029	3150
837.167	3112
837.305	3077
837.443	3074
837.58	2925
837.718	3142
837.856	3097
837.993	3039
838.131	3089
838.269	3108
838.406	3097
838.544	3108
838.681	2944
838.819	2845
838.956	2792
839.094	2838
839.231	2925
839.369	3036
839.506	3359
839.643	3195
839.781	2998
839.918	2956
840.055	3043
840.193	3028
840.33	3070
840.467	3055
840.604	3131
840.742	3386
840.879	3047
841.016	3093
841.153	3146
841.29	3317
841.427	3313
841.564	3253
841.701	3302
841.838	3233
841.975	3207
842.112	3203
842.249	3112
842.385	3043
842.522	3283
842.659	3081
842.796	3074
842.933	3074
843.069	3047
843.206	3032
843.343	3192
843.479	3085
843.616	3150
843.752	2872
843.889	2849
844.025	3039
844.162	2861
844.298	3074
844.435	2982
844.571	2910
844.708	3081
844.844	3154
844.98	3214
845.117	3195
845.253	3043
845.389	3028
845.525	3093
845.661	3108
845.798	3020
845.934	3150
846.07	3020
846.206	3226
846.342	3317
846.478	3214
846.614	3089
846.75	3032
846.886	3005
847.022	3241
847.158	3112
847.294	3222
847.429	3268
847.565	3199
847.701	3515
847.837	3036
847.972	3009
848.108	3154
848.244	3131
848.379	2967
848.515	2906
848.65	2929
848.786	2979
848.921	2990
849.057	3112
849.192	3116
849.328	3085
849.463	3112
849.598	3066
849.734	3001
849.869	2998
850.004	2933
850.14	2925
850.275	2895
850.41	2864
850.545	2853
850.68	2902
850.815	2982
850.95	2948
851.085	3173
851.22	3146
851.355	3009
851.49	2982
851.625	2956
851.76	2979
851.895	2933
852.03	2918
852.165	3013
852.299	3100
852.434	3192
852.569	3146
852.703	3169
852.838	3245
852.973	3302
853.107	3344
853.242	3097
853.376	3070
853.511	2979
853.645	3013
853.78	3222
853.914	3104
854.048	3123
854.183	3077
854.317	3127
854.451	3302
854.585	3127
854.72	3047
854.854	3188
854.988	3039
855.122	3112
855.256	2998
855.39	3100
855.524	3260
855.658	3165
855.792	3195
855.926	3184
856.06	3192
856.194	3256
856.327	3150
856.461	3062
856.595	3055
856.729	3097
856.862	3211
856.996	3116
857.13	3226
857.263	3233
857.397	3233
857.53	3085
857.664	3192
857.797	3199
857.931	3230
858.064	3123
858.197	3237
858.331	3131
858.464	3051
858.597	3001
858.731	3074
858.864	3100
858.997	3051
859.13	3142
859.263	3146
859.396	3127
859.529	3085
859.662	3074
859.795	3028
859.928	3157
860.061	3249
860.194	3275
860.327	3157
860.46	3093
860.592	3233
860.725	3256
860.858	3222
860.99	3081
861.123	3058
861.256	3043
861.388	3176
861.521	3888
861.653	3013
861.786	2994
861.918	3028
862.05	3051
862.183	3093
862.315	3154
862.447	3199
862.58	3104
862.712	2975
862.844	2902
862.976	3047
863.108	3070
863.24	3359
863.372	2914
863.504	3001
863.636	2975
863.768	3047
863.9	3009
864.032	2956
864.164	3005
864.296	3047
864.428	3127
864.559	3131
864.691	3112
864.823	3116
864.954	3074
865.086	3077
865.217	3039
865.349	3005
865.48	3036
865.612	3055
865.743	3176
865.875	3032
866.006	2956
866.137	2994
866.269	2986
866.4	2952
866.531	2967
866.662	2918
866.793	2956
866.924	2933
867.055	3032
867.186	2963
867.317	2895
867.448	2872
867.579	2872
867.71	2918
867.841	2857
867.972	2941
868.103	2960
868.233	2952
868.364	2941
868.495	2937
868.625	3150
868.756	3218
868.886	3009
869.017	3058
869.147	3199
869.278	3222
869.408	3093
869.539	3085
869.669	3169
869.799	3070
869.929	3214
870.06	3169
870.19	3340
870.32	3294
870.45	3348
870.58	3443
870.71	3431
870.84	3538
870.97	3310
871.1	3291
871.23	3515
871.36	3469
871.489	3367
871.619	3393
871.749	3443
871.879	3462
872.008	3507
872.138	3405
872.267	3294
872.397	3214
872.526	3142
872.656	3028
872.785	3135
872.915	3294
873.044	3363
873.173	3272
873.303	3279
873.432	3275
873.561	3287
873.69	3180
873.819	3138
873.948	3264
874.077	3131
874.206	3104
874.335	3112
874.464	3249
874.593	3348
874.722	3272
874.851	3450
874.979	3370
875.108	3355
875.237	3233
875.365	3207
875.494	3226
875.623	3310
875.751	3131
875.88	3119
876.008	3237
876.136	3253
876.265	3428
876.393	3561
876.521	3462
876.65	3401
876.778	3378
876.906	3264
877.034	3211
877.162	3226
877.29	3241
877.418	3264
877.546	3253
877.674	3294
877.802	3260
877.93	3268
878.058	3176
878.185	3123
878.313	3222
878.441	3195
878.568	3070
878.696	3199
878.824	3245
878.951	3348
879.079	3454
879.206	3663
879.333	3435
879.461	3363
879.588	3412
879.715	3507
879.842	3629
879.97	3409
880.097	3184
880.224	3188
880.351	3245
880.478	3237
880.605	3268
880.732	3180
880.859	3526
880.986	3317
881.112	3329
881.239	3192
881.366	3157
881.493	3058
881.619	3051
881.746	3097
881.872	3131
881.999	3116
882.125	3184
882.252	3268
882.378	3332
882.505	3466
882.631	3313
882.757	3188
882.883	3260
883.01	3264
883.136	3195
883.262	3138
883.388	3188
883.514	3340
883.64	3386
883.766	3325
883.892	3195
884.018	3245
884.143	3450
884.269	3568
884.395	3233
884.52	3237
884.646	3207
884.772	3207
884.897	3138
885.023	3226
885.148	3355
885.274	3435
885.399	3401
885.524	3355
885.65	3336
885.775	3344
885.9	3275
886.025	3431
886.15	3389
886.275	3355
886.4	3310
886.525	3374
886.65	3287
886.775	3287
886.9	3534
887.025	3656
887.149	3450
887.274	3329
887.399	3199
887.523	3245
887.648	3230
887.773	3214
887.897	3386
888.021	3439
888.146	3359
888.27	3469
888.395	3538
888.519	3488
888.643	3496
888.767	3496
888.891	3348
889.015	3291
889.139	3291
889.263	3272
889.387	3424
889.511	3515
889.635	3466
889.759	3348
889.883	3306
890.006	3416
890.13	3545
890.254	3340
890.377	3405
890.501	3245
890.624	3214
890.748	3355
890.871	3218
890.995	3142
891.118	3112
891.241	3272
891.364	3260
891.488	3344
891.611	3211
891.734	3275
891.857	3302
891.98	3275
892.103	3382
892.226	3344
892.349	3264
892.471	3157
892.594	3256
892.717	3313
892.839	3302
892.962	3294
893.085	3370
893.207	3344
893.33	3195
893.452	3233
893.575	3393
893.697	3256
893.819	3500
893.941	3542
894.064	3450
894.186	3283
894.308	3321
894.43	3469
894.552	3523
894.674	3507
894.796	3283
894.918	3344
895.04	3298
895.161	3439
895.283	3386
895.405	3329
895.526	3416
895.648	3507
895.769	3458
895.891	3466
896.012	3507
896.134	3523
896.255	3424
896.376	3405
896.498	3382
896.619	3435
896.74	3428
896.861	3439
896.982	3724
897.103	3911
897.224	3606
897.345	3538
897.466	3428
897.587	3507
897.708	3667
897.828	3561
897.949	3485
898.07	3351
898.19	3374
898.311	3633
898.431	3466
898.552	3538
898.672	3599
898.792	3591
898.913	3557
899.033	3443
899.153	3306
899.273	3249
899.393	3332
899.513	3340
899.633	3359
899.753	3389
899.873	3355
899.993	3374
900.113	3340
900.232	3409
900.352	3370
900.472	3317
900.591	3260
900.711	3332
900.83	3226
900.95	3439
901.069	3511
901.189	3386
901.308	3249
901.427	3142
901.546	3184
901.665	3329
901.784	3336
901.904	3256
902.023	3157
902.141	3032
902.26	3055
902.379	3154
902.498	3097
902.617	3051
902.735	3226
902.854	3279
902.973	3218
903.091	3074
903.21	3108
903.328	3165
903.446	3119
903.565	3127
903.683	3230
903.801	3192
903.919	3264
904.038	3321
904.156	3203
904.274	3329
904.392	3287
904.51	3336
904.627	3355
904.745	3473
904.863	3466
904.981	3260
905.098	3195
905.216	3249
905.334	3370
905.451	3317
905.569	3325
905.686	3447
905.803	3504
905.921	3332
906.038	3412
906.155	3412
906.272	3310
906.389	3344
906.506	3249
906.623	3272
906.74	3313
906.857	3226
906.974	3264
907.091	3447
907.208	3629
907.324	3450
907.441	3458
907.557	3306
907.674	3272
907.79	3268
907.907	3275
908.023	3435
908.139	3393
908.256	3370
908.372	3374
908.488	3363
908.604	3272
908.72	3260
908.836	3321
908.952	3302
909.068	3355
909.184	3526
909.3	3420
909.415	3500
909.531	3511
909.647	3306
909.762	3313
909.878	3348
909.993	3389
910.108	3340
910.224	3359
910.339	3424
910.454	3367
910.57	3302
910.685	3256
910.8	3629
910.915	3568
911.03	3458
911.145	3287
911.259	3298
911.374	3336
911.489	3291
911.604	3260
911.718	3135
911.833	3180
911.947	3047
912.062	3017
912.176	3214
912.291	3211
912.405	3249
912.519	3447
912.633	3500
912.748	3393
912.862	3294
912.976	3176
913.09	3135
913.204	3161
913.318	3218
913.431	3340
913.545	3306
913.659	3450
913.772	3348
913.886	3256
914	3218
914.113	3336
914.226	3363
914.34	3374
914.453	3214
914.566	3428
914.68	3336
914.793	3306
914.906	3165
915.019	3131
915.132	3089
915.245	3203
915.358	3214
915.47	3237
915.583	3233
915.696	3298
915.809	3473
915.921	3416
916.034	3249
916.146	3268
916.259	3287
916.371	3393
916.483	3386
916.595	3268
916.708	3382
916.82	3336
916.932	3359
917.044	3359
917.156	3378
917.268	3272
917.38	3302
917.491	3344
917.603	3378
917.715	3435
917.826	3488
917.938	3416
918.049	3291
918.161	3420
918.272	3629
918.384	3629
918.495	3538
918.606	3336
918.717	3279
918.828	3363
918.939	3389
919.05	3291
919.161	3367
919.272	3199
919.383	3306
919.494	3492
919.604	3671
919.715	3507
919.826	3386
919.936	3492
920.047	3584
920.157	3606
920.267	3766
920.378	3633
920.488	3568
920.598	3800
920.708	3975
920.818	3819
920.928	3865
921.038	4021
921.148	4032
921.258	3660
921.368	3618
921.477	3591
921.587	3599
921.697	3485
921.806	3641
921.916	3526
922.025	3363
922.134	3382
922.244	3313
922.353	3416
922.462	3279
922.571	3249
922.68	3100
922.789	3108
922.898	3142
923.007	3157
923.116	3214
923.224	3173
923.333	3222
923.442	3127
923.55	3112
923.659	3169
923.767	3253
923.876	3142
923.984	3275
924.092	3131
924.201	3207
924.309	3207
924.417	3275
924.525	3192
924.633	3256
924.741	4169
924.849	3062
924.956	3256
925.064	3123
925.172	3055
925.279	3127
925.387	3203
925.494	3222
925.602	3397
925.709	3310
925.816	3161
925.924	3336
926.031	3374
926.138	3325
926.245	3382
926.352	3222
926.459	3405
926.566	3500
926.673	3317
926.779	3272
926.886	3218
926.993	3188
927.099	3131
927.206	3062
927.312	3135
927.419	3214
927.525	3245
927.631	3264
927.737	3154
927.843	3135
927.95	3051
928.056	3165
928.162	3180
928.267	3264
928.373	3899
928.479	3332
928.585	3089
928.69	3237
928.796	3260
928.901	3241
929.007	3100
929.112	3222
929.218	3233
929.323	3173
929.428	3218
929.533	3340
929.638	3146
929.743	3218
929.848	3340
929.953	3253
930.058	3199
930.163	3036
930.267	3116
930.372	3253
930.477	3085
930.581	3359
930.685	3214
930.79	3108
930.894	3142
930.998	3161
931.103	3344
931.207	3005
931.311	3017
931.415	2979
931.519	2842
931.623	2887
