Data from test_V78500241_722.txt Node
Date: Fri Mar 25 16:20:12 CST 2022
User: usil
Spectrometer: V785-0024
Trigger mode: 0
Integration Time (sec): 4.000000E-1
Scans to average: 1
Nonlinearity correction enabled: false
Boxcar width: 0
Storing dark spectrum: false
XAxis mode: Wavelengths
Number of Pixels in Spectrum: 1024
>>>>>Begin Spectral Data<<<<<
801.071	2982
801.214	2960
801.356	2937
801.499	2944
801.641	2944
801.783	2975
801.926	3093
802.068	3043
802.211	3036
802.353	3058
802.496	3009
802.638	3058
802.78	3066
802.923	3112
803.065	3043
803.208	2941
803.35	2986
803.492	2994
803.635	2990
803.777	2788
803.919	2902
804.061	3214
804.204	2975
804.346	2948
804.488	2906
804.63	2994
804.773	2902
804.915	2986
805.057	3112
805.199	2967
805.341	3036
805.483	3074
805.626	3036
805.768	3020
805.91	3142
806.052	3142
806.194	3085
806.336	3279
806.478	3058
806.62	2948
806.762	3024
806.904	3058
807.046	3199
807.188	3036
807.33	2948
807.472	3020
807.614	2937
807.756	3032
807.898	2960
808.04	2925
808.182	2990
808.324	2986
808.465	2914
808.607	2868
808.749	2781
808.891	2899
809.033	3020
809.174	2971
809.316	2925
809.458	2929
809.6	2800
809.741	2804
809.883	2777
810.025	2872
810.166	2880
810.308	2880
810.45	2861
810.591	2815
810.733	2819
810.875	2868
811.016	2830
811.158	2781
811.299	2807
811.441	2956
811.582	2944
811.724	2872
811.865	2864
812.007	2929
812.148	2906
812.29	2872
812.431	2944
812.573	2990
812.714	3009
812.855	3074
812.997	3100
813.138	3150
813.279	3013
813.421	2979
813.562	2960
813.703	2906
813.845	2952
813.986	2773
814.127	2773
814.268	2861
814.41	2842
814.551	2834
814.692	2910
814.833	2868
814.974	2887
815.115	2971
815.256	2864
815.397	2830
815.539	2883
815.68	2811
815.821	2830
815.962	2956
816.103	2941
816.244	2910
816.385	2880
816.526	2982
816.666	2944
816.807	2792
816.948	2914
817.089	2929
817.23	2861
817.371	2804
817.512	2777
817.653	2861
817.793	2823
817.934	2922
818.075	2986
818.216	3005
818.356	3074
818.497	2914
818.638	2796
818.778	2842
818.919	2834
819.06	2792
819.2	2922
819.341	2842
819.481	2830
819.622	2933
819.762	3146
819.903	3062
820.043	2929
820.184	2914
820.324	2918
820.465	3066
820.605	3013
820.746	3043
820.886	2948
821.026	3093
821.167	3192
821.307	3306
821.447	3291
821.588	3237
821.728	3237
821.868	3214
822.008	3081
822.149	3214
822.289	3214
822.429	3123
822.569	3089
822.709	3188
822.849	3032
822.99	3047
823.13	3180
823.27	3222
823.41	3119
823.55	3165
823.69	3199
823.83	3195
823.97	3138
824.11	3036
824.25	3013
824.389	3077
824.529	3165
824.669	3100
824.809	3207
824.949	3268
825.089	3249
825.228	3157
825.368	3036
825.508	2982
825.648	2971
825.787	3039
825.927	3043
826.067	2998
826.206	2982
826.346	3085
826.485	3108
826.625	3127
826.765	3275
826.904	3253
827.044	3028
827.183	2982
827.323	2895
827.462	3039
827.601	2960
827.741	2975
827.88	2975
828.02	2880
828.159	2986
828.298	3066
828.437	3127
828.577	3085
828.716	3294
828.855	3119
828.994	2960
829.134	2910
829.273	2933
829.412	2883
829.551	2861
829.69	2895
829.829	3024
829.968	3154
830.107	3036
830.246	3047
830.385	2952
830.524	2910
830.663	2823
830.802	2739
830.941	2670
831.08	2674
831.219	2762
831.357	2762
831.496	2952
831.635	2746
831.774	2697
831.913	2678
832.051	2549
832.19	2598
832.329	2727
832.467	2549
832.606	2495
832.744	2575
832.883	2610
833.022	2621
833.16	2644
833.299	2686
833.437	2701
833.576	2724
833.714	2766
833.852	2758
833.991	2800
834.129	2853
834.267	2861
834.406	2800
834.544	2872
834.682	2902
834.821	2906
834.959	3104
835.097	2929
835.235	3055
835.373	3009
835.511	3055
835.65	2963
835.788	3001
835.926	2853
836.064	2796
836.202	2891
836.34	3119
836.478	3157
836.615	3066
836.753	3142
836.891	3218
837.029	3192
837.167	3081
837.305	3085
837.443	3066
837.58	2956
837.718	3173
837.856	3074
837.993	3085
838.131	3169
838.269	3112
838.406	3127
838.544	3131
838.681	2971
838.819	2941
838.956	2842
839.094	2826
839.231	2963
839.369	3081
839.506	3389
839.643	3253
839.781	2982
839.918	3032
840.055	3074
840.193	3077
840.33	3104
840.467	3127
840.604	3176
840.742	3389
840.879	3066
841.016	3074
841.153	3097
841.29	3321
841.427	3294
841.564	3245
841.701	3291
841.838	3233
841.975	3226
842.112	3222
842.249	3093
842.385	3074
842.522	3245
842.659	3097
842.796	3089
842.933	3127
843.069	3066
843.206	3097
843.343	3226
843.479	3150
843.616	3135
843.752	2918
843.889	2853
844.025	3058
844.162	2914
844.298	3097
844.435	2986
844.571	2918
844.708	3074
844.844	3222
844.98	3245
845.117	3154
845.253	3093
845.389	3032
845.525	3146
845.661	3108
845.798	3032
845.934	3127
846.07	3081
846.206	3214
846.342	3355
846.478	3249
846.614	3089
846.75	3070
846.886	3062
847.022	3283
847.158	3165
847.294	3192
847.429	3272
847.565	3199
847.701	3477
847.837	3028
847.972	3005
848.108	3146
848.244	3119
848.379	2975
848.515	2986
848.65	2975
848.786	2967
848.921	3070
849.057	3097
849.192	3154
849.328	3085
849.463	3142
849.598	3104
849.734	3089
849.869	3017
850.004	2956
850.14	3001
850.275	2895
850.41	2849
850.545	2857
850.68	2933
850.815	2975
850.95	2975
851.085	3199
851.22	3142
851.355	3013
851.49	3013
851.625	3009
851.76	3089
851.895	2956
852.03	2918
852.165	3070
852.299	3142
852.434	3184
852.569	3154
852.703	3165
852.838	3245
852.973	3393
853.107	3348
853.242	3150
853.376	3093
853.511	2982
853.645	3051
853.78	3218
853.914	3127
854.048	3097
854.183	3077
854.317	3207
854.451	3298
854.585	3127
854.72	3089
854.854	3237
854.988	3062
855.122	3093
855.256	3009
855.39	3146
855.524	3253
855.658	3207
855.792	3184
855.926	3211
856.06	3253
856.194	3268
856.327	3165
856.461	3089
856.595	3077
856.729	3077
856.862	3203
856.996	3161
857.13	3203
857.263	3233
857.397	3275
857.53	3127
857.664	3184
857.797	3249
857.931	3275
858.064	3173
858.197	3218
858.331	3138
858.464	3097
858.597	3032
858.731	3104
858.864	3154
858.997	3058
859.13	3108
859.263	3180
859.396	3214
859.529	3093
859.662	3112
859.795	3047
859.928	3157
860.061	3294
860.194	3291
860.327	3154
860.46	3116
860.592	3291
860.725	3245
860.858	3264
860.99	3112
861.123	3051
861.256	3020
861.388	3154
861.521	3911
861.653	3032
861.786	2994
861.918	3017
862.05	3039
862.183	3112
862.315	3138
862.447	3222
862.58	3100
862.712	2967
862.844	2891
862.976	3039
863.108	2986
863.24	3454
863.372	2906
863.504	2914
863.636	2922
863.768	3066
863.9	2975
864.032	2910
864.164	2990
864.296	3001
864.428	3055
864.559	3100
864.691	3089
864.823	3085
864.954	3013
865.086	3024
865.217	3009
865.349	2975
865.48	3009
865.612	3001
865.743	3146
865.875	2963
866.006	2918
866.137	3024
866.269	2937
866.4	2925
866.531	2925
866.662	2910
866.793	2914
866.924	2857
867.055	3005
867.186	2922
867.317	2880
867.448	2857
867.579	2861
867.71	2842
867.841	2815
867.972	2899
868.103	2853
868.233	2918
868.364	2895
868.495	2952
868.625	3085
868.756	3173
868.886	2967
869.017	3036
869.147	3184
869.278	3161
869.408	3093
869.539	3036
869.669	3112
869.799	3043
869.929	3116
870.06	3131
870.19	3355
870.32	3283
870.45	3306
870.58	3355
870.71	3496
870.84	3469
870.97	3310
871.1	3256
871.23	3473
871.36	3481
871.489	3344
871.619	3431
871.749	3420
871.879	3428
872.008	3447
872.138	3355
872.267	3264
872.397	3173
872.526	3131
872.656	3032
872.785	3108
872.915	3275
873.044	3329
873.173	3222
873.303	3237
873.432	3279
873.561	3268
873.69	3165
873.819	3108
873.948	3188
874.077	3104
874.206	3020
874.335	3070
874.464	3203
874.593	3382
874.722	3253
874.851	3389
874.979	3367
875.108	3359
875.237	3192
875.365	3150
875.494	3192
875.623	3256
875.751	3104
875.88	3119
876.008	3180
876.136	3218
876.265	3374
876.393	3500
876.521	3412
876.65	3409
876.778	3344
876.906	3260
877.034	3203
877.162	3214
877.29	3169
877.418	3283
877.546	3256
877.674	3272
877.802	3226
877.93	3233
878.058	3184
878.185	3085
878.313	3218
878.441	3237
878.568	3074
878.696	3127
878.824	3275
878.951	3287
879.079	3420
879.206	3618
879.333	3466
879.461	3317
879.588	3370
879.715	3496
879.842	3603
879.97	3336
880.097	3154
880.224	3157
880.351	3199
880.478	3237
880.605	3222
880.732	3169
880.859	3504
880.986	3321
881.112	3321
881.239	3222
881.366	3097
881.493	3036
881.619	3020
881.746	3081
881.872	3112
881.999	3108
882.125	3157
882.252	3218
882.378	3291
882.505	3409
882.631	3275
882.757	3173
882.883	3222
883.01	3256
883.136	3119
883.262	3051
883.388	3104
883.514	3310
883.64	3382
883.766	3272
883.892	3222
884.018	3233
884.143	3424
884.269	3553
884.395	3180
884.52	3157
884.646	3173
884.772	3116
884.897	3097
885.023	3184
885.148	3302
885.274	3401
885.399	3363
885.524	3298
885.65	3253
885.775	3325
885.9	3260
886.025	3435
886.15	3386
886.275	3306
886.4	3207
886.525	3268
886.65	3253
886.775	3268
886.9	3500
887.025	3641
887.149	3405
887.274	3245
887.399	3173
887.523	3207
887.648	3188
887.773	3195
887.897	3363
888.021	3397
888.146	3287
888.27	3435
888.395	3511
888.519	3428
888.643	3428
888.767	3462
888.891	3340
889.015	3260
889.139	3291
889.263	3241
889.387	3386
889.511	3485
889.635	3401
889.759	3298
889.883	3321
890.006	3378
890.13	3500
890.254	3256
890.377	3302
890.501	3199
890.624	3188
890.748	3310
890.871	3192
890.995	3112
891.118	3077
891.241	3199
891.364	3253
891.488	3310
891.611	3203
891.734	3207
891.857	3260
891.98	3207
892.103	3351
892.226	3313
892.349	3203
892.471	3131
892.594	3249
892.717	3268
892.839	3291
892.962	3260
893.085	3344
893.207	3310
893.33	3157
893.452	3241
893.575	3310
893.697	3237
893.819	3462
893.941	3485
894.064	3420
894.186	3260
894.308	3268
894.43	3435
894.552	3538
894.674	3435
894.796	3268
894.918	3313
895.04	3298
895.161	3397
895.283	3393
895.405	3306
895.526	3359
895.648	3450
895.769	3382
895.891	3450
896.012	3450
896.134	3424
896.255	3401
896.376	3348
896.498	3401
896.619	3443
896.74	3351
896.861	3382
896.982	3720
897.103	3823
897.224	3618
897.345	3485
897.466	3420
897.587	3462
897.708	3648
897.828	3542
897.949	3424
898.07	3355
898.19	3405
898.311	3599
898.431	3462
898.552	3485
898.672	3580
898.792	3534
898.913	3507
899.033	3424
899.153	3256
899.273	3203
899.393	3275
899.513	3344
899.633	3310
899.753	3351
899.873	3291
899.993	3386
900.113	3336
900.232	3409
900.352	3340
900.472	3294
900.591	3207
900.711	3306
900.83	3218
900.95	3374
901.069	3462
901.189	3344
901.308	3165
901.427	3180
901.546	3165
901.665	3260
901.784	3355
901.904	3195
902.023	3165
902.141	3001
902.26	2967
902.379	3138
902.498	3112
902.617	3066
902.735	3169
902.854	3230
902.973	3203
903.091	3051
903.21	3074
903.328	3116
903.446	3077
903.565	3097
903.683	3218
903.801	3100
903.919	3230
904.038	3294
904.156	3180
904.274	3279
904.392	3253
904.51	3264
904.627	3329
904.745	3424
904.863	3496
904.981	3260
905.098	3188
905.216	3237
905.334	3272
905.451	3340
905.569	3260
905.686	3435
905.803	3435
905.921	3310
906.038	3386
906.155	3355
906.272	3249
906.389	3344
906.506	3256
906.623	3222
906.74	3268
906.857	3154
906.974	3268
907.091	3454
907.208	3568
907.324	3507
907.441	3329
907.557	3245
907.674	3203
907.79	3226
907.907	3256
908.023	3340
908.139	3374
908.256	3332
908.372	3374
908.488	3351
908.604	3237
908.72	3233
908.836	3294
908.952	3275
909.068	3317
909.184	3511
909.3	3401
909.415	3466
909.531	3462
909.647	3253
909.762	3298
909.878	3272
909.993	3348
910.108	3298
910.224	3355
910.339	3443
910.454	3329
910.57	3279
910.685	3214
910.8	3625
910.915	3496
911.03	3428
911.145	3264
911.259	3253
911.374	3340
911.489	3256
911.604	3253
911.718	3119
911.833	3142
911.947	2975
912.062	2994
912.176	3161
912.291	3203
912.405	3211
912.519	3424
912.633	3428
912.748	3321
912.862	3279
912.976	3161
913.09	3036
913.204	3116
913.318	3222
913.431	3355
913.545	3348
913.659	3454
913.772	3336
913.886	3226
914	3226
914.113	3348
914.226	3386
914.34	3317
914.453	3192
914.566	3405
914.68	3283
914.793	3317
914.906	3150
915.019	3100
915.132	3081
915.245	3184
915.358	3199
915.47	3241
915.583	3264
915.696	3283
915.809	3405
915.921	3405
916.034	3264
916.146	3287
916.259	3256
916.371	3389
916.483	3374
916.595	3264
916.708	3348
916.82	3351
916.932	3317
917.044	3321
917.156	3317
917.268	3233
917.38	3275
917.491	3287
917.603	3344
917.715	3447
917.826	3443
917.938	3367
918.049	3275
918.161	3447
918.272	3557
918.384	3572
918.495	3500
918.606	3340
918.717	3279
918.828	3359
918.939	3374
919.05	3310
919.161	3363
919.272	3157
919.383	3272
919.494	3462
919.604	3694
919.715	3466
919.826	3386
919.936	3466
920.047	3572
920.157	3584
920.267	3740
920.378	3625
920.488	3599
920.598	3808
920.708	3937
920.818	3850
920.928	3800
921.038	4021
921.148	3975
921.258	3671
921.368	3618
921.477	3591
921.587	3515
921.697	3447
921.806	3656
921.916	3488
922.025	3359
922.134	3374
922.244	3344
922.353	3447
922.462	3272
922.571	3264
922.68	3127
922.789	3062
922.898	3173
923.007	3116
923.116	3203
923.224	3203
923.333	3161
923.442	3085
923.55	3097
923.659	3116
923.767	3233
923.876	3131
923.984	3233
924.092	3070
924.201	3169
924.309	3241
924.417	3264
924.525	3199
924.633	3260
924.741	4169
924.849	3051
924.956	3264
925.064	3097
925.172	2998
925.279	3085
925.387	3169
925.494	3237
925.602	3367
925.709	3332
925.816	3157
925.924	3291
926.031	3374
926.138	3344
926.245	3317
926.352	3275
926.459	3367
926.566	3458
926.673	3291
926.779	3230
926.886	3233
926.993	3146
927.099	3146
927.206	3138
927.312	3146
927.419	3256
927.525	3199
927.631	3272
927.737	3131
927.843	3123
927.95	3024
928.056	3104
928.162	3169
928.267	3264
928.373	3865
928.479	3329
928.585	3093
928.69	3211
928.796	3279
928.901	3207
929.007	3070
929.112	3203
929.218	3184
929.323	3180
929.428	3161
929.533	3302
929.638	3112
929.743	3169
929.848	3222
929.953	3195
930.058	3138
930.163	2998
930.267	3055
930.372	3203
930.477	3055
930.581	3317
930.685	3199
930.79	3024
930.894	3116
930.998	3070
931.103	3291
931.207	2979
931.311	2922
931.415	2910
931.519	2777
931.623	2811
