Data from test_V78500241_635.txt Node
Date: Fri Mar 25 16:19:36 CST 2022
User: usil
Spectrometer: V785-0024
Trigger mode: 0
Integration Time (sec): 4.000000E-1
Scans to average: 1
Nonlinearity correction enabled: false
Boxcar width: 0
Storing dark spectrum: false
XAxis mode: Wavelengths
Number of Pixels in Spectrum: 1024
>>>>>Begin Spectral Data<<<<<
801.071	2948
801.214	2925
801.356	2887
801.499	2895
801.641	2853
801.783	2906
801.926	3070
802.068	2937
802.211	3009
802.353	3058
802.496	2933
802.638	3028
802.78	3036
802.923	3070
803.065	3017
803.208	2895
803.35	2914
803.492	2922
803.635	2937
803.777	2746
803.919	2868
804.061	3176
804.204	2960
804.346	2876
804.488	2838
804.63	3005
804.773	2902
804.915	2922
805.057	3081
805.199	2933
805.341	2914
805.483	3032
805.626	2979
805.768	2960
805.91	3051
806.052	3131
806.194	3028
806.336	3203
806.478	3001
806.62	2960
806.762	2971
806.904	3066
807.046	3180
807.188	2952
807.33	2952
807.472	2956
807.614	2895
807.756	2990
807.898	2876
808.04	2891
808.182	2933
808.324	2952
808.465	2857
808.607	2922
808.749	2796
808.891	2826
809.033	2918
809.174	2979
809.316	2868
809.458	2876
809.6	2781
809.741	2769
809.883	2754
810.025	2857
810.166	2868
810.308	2796
810.45	2838
810.591	2807
810.733	2743
810.875	2823
811.016	2777
811.158	2754
811.299	2815
811.441	2914
811.582	2887
811.724	2826
811.865	2834
812.007	2895
812.148	2868
812.29	2853
812.431	2861
812.573	2918
812.714	2963
812.855	3028
812.997	3039
813.138	3093
813.279	3043
813.421	3009
813.562	2979
813.703	2861
813.845	2929
813.986	2781
814.127	2735
814.268	2823
814.41	2811
814.551	2792
814.692	2902
814.833	2800
814.974	2861
815.115	2948
815.256	2819
815.397	2815
815.539	2834
815.68	2796
815.821	2807
815.962	2941
816.103	2925
816.244	2872
816.385	2864
816.526	2948
816.666	2895
816.807	2766
816.948	2857
817.089	2887
817.23	2834
817.371	2788
817.512	2785
817.653	2823
817.793	2819
817.934	2842
818.075	2963
818.216	3009
818.356	2979
818.497	2857
818.638	2796
818.778	2834
818.919	2769
819.06	2735
819.2	2887
819.341	2800
819.481	2796
819.622	2906
819.762	3116
819.903	3024
820.043	2918
820.184	2899
820.324	2910
820.465	3024
820.605	3024
820.746	3005
820.886	2925
821.026	3108
821.167	3142
821.307	3264
821.447	3279
821.588	3214
821.728	3207
821.868	3199
822.008	3070
822.149	3184
822.289	3211
822.429	3074
822.569	3070
822.709	3169
822.849	3066
822.99	3051
823.13	3169
823.27	3222
823.41	3100
823.55	3138
823.69	3142
823.83	3195
823.97	3116
824.11	2986
824.25	2975
824.389	3062
824.529	3081
824.669	3036
824.809	3188
824.949	3268
825.089	3241
825.228	3131
825.368	2986
825.508	2956
825.648	2986
825.787	3005
825.927	3020
826.067	2971
826.206	2914
826.346	2998
826.485	3062
826.625	3116
826.765	3260
826.904	3195
827.044	2998
827.183	2925
827.323	2842
827.462	3005
827.601	2887
827.741	2910
827.88	2944
828.02	2838
828.159	2986
828.298	3032
828.437	3089
828.577	3051
828.716	3230
828.855	3066
828.994	2929
829.134	2880
829.273	2925
829.412	2868
829.551	2883
829.69	2842
829.829	3005
829.968	3146
830.107	3001
830.246	3036
830.385	2910
830.524	2914
830.663	2796
830.802	2697
830.941	2632
831.08	2655
831.219	2746
831.357	2766
831.496	2967
831.635	2701
831.774	2651
831.913	2644
832.051	2541
832.19	2545
832.329	2667
832.467	2533
832.606	2503
832.744	2594
832.883	2556
833.022	2568
833.16	2648
833.299	2655
833.437	2667
833.576	2705
833.714	2739
833.852	2727
833.991	2735
834.129	2826
834.267	2826
834.406	2777
834.544	2845
834.682	2880
834.821	2857
834.959	3047
835.097	2849
835.235	3066
835.373	2994
835.511	2979
835.65	2982
835.788	2960
835.926	2826
836.064	2788
836.202	2849
836.34	3055
836.478	3100
836.615	3051
836.753	3116
836.891	3165
837.029	3157
837.167	3055
837.305	3047
837.443	3039
837.58	2952
837.718	3138
837.856	3036
837.993	3005
838.131	3150
838.269	3112
838.406	3097
838.544	3074
838.681	2925
838.819	2899
838.956	2785
839.094	2853
839.231	2925
839.369	3036
839.506	3378
839.643	3241
839.781	3001
839.918	2941
840.055	3055
840.193	3009
840.33	3070
840.467	3077
840.604	3093
840.742	3393
840.879	3051
841.016	3020
841.153	3062
841.29	3287
841.427	3279
841.564	3233
841.701	3287
841.838	3195
841.975	3176
842.112	3214
842.249	3043
842.385	3005
842.522	3241
842.659	3062
842.796	3055
842.933	3085
843.069	3047
843.206	3058
843.343	3173
843.479	3089
843.616	3112
843.752	2902
843.889	2872
844.025	3077
844.162	2883
844.298	3043
844.435	2925
844.571	2891
844.708	3039
844.844	3180
844.98	3230
845.117	3195
845.253	3047
845.389	3013
845.525	3081
845.661	3077
845.798	3024
845.934	3135
846.07	3058
846.206	3214
846.342	3325
846.478	3245
846.614	3070
846.75	3036
846.886	2994
847.022	3245
847.158	3131
847.294	3199
847.429	3199
847.565	3207
847.701	3466
847.837	3066
847.972	2998
848.108	3154
848.244	3112
848.379	3024
848.515	2956
848.65	2891
848.786	2963
848.921	2967
849.057	3119
849.192	3150
849.328	3058
849.463	3077
849.598	3070
849.734	3100
849.869	2956
850.004	2910
850.14	2971
850.275	2899
850.41	2868
850.545	2868
850.68	2906
850.815	2944
850.95	2922
851.085	3176
851.22	3089
851.355	3032
851.49	2998
851.625	3005
851.76	2990
851.895	2944
852.03	2906
852.165	3024
852.299	3119
852.434	3180
852.569	3119
852.703	3195
852.838	3245
852.973	3313
853.107	3340
853.242	3138
853.376	3070
853.511	2941
853.645	3013
853.78	3249
853.914	3123
854.048	3093
854.183	3081
854.317	3123
854.451	3279
854.585	3108
854.72	3062
854.854	3184
854.988	3066
855.122	3085
855.256	2986
855.39	3097
855.524	3218
855.658	3161
855.792	3131
855.926	3184
856.06	3192
856.194	3249
856.327	3161
856.461	3032
856.595	3043
856.729	3112
856.862	3226
856.996	3169
857.13	3214
857.263	3249
857.397	3256
857.53	3081
857.664	3184
857.797	3207
857.931	3249
858.064	3135
858.197	3211
858.331	3112
858.464	3093
858.597	2990
858.731	3104
858.864	3097
858.997	3051
859.13	3131
859.263	3176
859.396	3173
859.529	3100
859.662	3047
859.795	3062
859.928	3112
860.061	3260
860.194	3294
860.327	3104
860.46	3017
860.592	3214
860.725	3233
860.858	3268
860.99	3123
861.123	3055
861.256	2990
861.388	3116
861.521	3724
861.653	3013
861.786	2963
861.918	2975
862.05	3093
862.183	3077
862.315	3184
862.447	3222
862.58	3119
862.712	2952
862.844	2864
862.976	3017
863.108	2963
863.24	3409
863.372	2857
863.504	2933
863.636	2925
863.768	3005
863.9	2933
864.032	2883
864.164	2929
864.296	2990
864.428	3081
864.559	3131
864.691	3062
864.823	3047
864.954	3017
865.086	3024
865.217	2994
865.349	2944
865.48	2956
865.612	2990
865.743	3142
865.875	2975
866.006	2914
866.137	2982
866.269	2960
866.4	2929
866.531	2906
866.662	2872
866.793	2925
866.924	2876
867.055	2998
867.186	2906
867.317	2864
867.448	2804
867.579	2845
867.71	2830
867.841	2804
867.972	2899
868.103	2910
868.233	2853
868.364	2857
868.495	2910
868.625	3081
868.756	3169
868.886	2929
869.017	3005
869.147	3161
869.278	3146
869.408	3001
869.539	3005
869.669	3104
869.799	3039
869.929	3100
870.06	3104
870.19	3268
870.32	3260
870.45	3298
870.58	3378
870.71	3405
870.84	3462
870.97	3321
871.1	3253
871.23	3481
871.36	3412
871.489	3329
871.619	3397
871.749	3386
871.879	3435
872.008	3511
872.138	3359
872.267	3272
872.397	3116
872.526	3104
872.656	3009
872.785	3039
872.915	3233
873.044	3268
873.173	3253
873.303	3203
873.432	3264
873.561	3241
873.69	3116
873.819	3165
873.948	3157
874.077	3093
874.206	3039
874.335	3085
874.464	3195
874.593	3317
874.722	3241
874.851	3405
874.979	3348
875.108	3317
875.237	3188
875.365	3157
875.494	3123
875.623	3241
875.751	3085
875.88	3097
876.008	3169
876.136	3214
876.265	3367
876.393	3488
876.521	3397
876.65	3386
876.778	3329
876.906	3226
877.034	3226
877.162	3184
877.29	3135
877.418	3245
877.546	3237
877.674	3253
877.802	3272
877.93	3192
878.058	3173
878.185	3066
878.313	3154
878.441	3188
878.568	3051
878.696	3154
878.824	3298
878.951	3287
879.079	3450
879.206	3572
879.333	3409
879.461	3317
879.588	3348
879.715	3466
879.842	3557
879.97	3367
880.097	3150
880.224	3097
880.351	3192
880.478	3184
880.605	3192
880.732	3138
880.859	3488
880.986	3279
881.112	3313
881.239	3180
881.366	3093
881.493	3074
881.619	3009
881.746	3036
881.872	3100
881.999	3077
882.125	3150
882.252	3237
882.378	3306
882.505	3439
882.631	3264
882.757	3161
882.883	3176
883.01	3199
883.136	3135
883.262	3074
883.388	3085
883.514	3313
883.64	3363
883.766	3283
883.892	3173
884.018	3241
884.143	3431
884.269	3538
884.395	3157
884.52	3154
884.646	3184
884.772	3161
884.897	3051
885.023	3173
885.148	3344
885.274	3401
885.399	3363
885.524	3249
885.65	3249
885.775	3321
885.9	3294
886.025	3416
886.15	3317
886.275	3294
886.4	3222
886.525	3264
886.65	3283
886.775	3249
886.9	3496
887.025	3637
887.149	3450
887.274	3260
887.399	3169
887.523	3203
887.648	3176
887.773	3157
887.897	3363
888.021	3359
888.146	3332
888.27	3447
888.395	3511
888.519	3428
888.643	3424
888.767	3466
888.891	3291
889.015	3233
889.139	3275
889.263	3211
889.387	3363
889.511	3481
889.635	3424
889.759	3298
889.883	3287
890.006	3374
890.13	3538
890.254	3302
890.377	3344
890.501	3203
890.624	3169
890.748	3291
890.871	3161
890.995	3089
891.118	3070
891.241	3199
891.364	3226
891.488	3275
891.611	3161
891.734	3237
891.857	3272
891.98	3241
892.103	3302
892.226	3245
892.349	3207
892.471	3089
892.594	3230
892.717	3283
892.839	3272
892.962	3253
893.085	3355
893.207	3237
893.33	3150
893.452	3230
893.575	3355
893.697	3253
893.819	3466
893.941	3458
894.064	3439
894.186	3256
894.308	3230
894.43	3374
894.552	3545
894.674	3496
894.796	3241
894.918	3321
895.04	3283
895.161	3409
895.283	3340
895.405	3313
895.526	3325
895.648	3428
895.769	3401
895.891	3447
896.012	3488
896.134	3477
896.255	3397
896.376	3374
896.498	3363
896.619	3409
896.74	3374
896.861	3431
896.982	3682
897.103	3800
897.224	3576
897.345	3496
897.466	3454
897.587	3439
897.708	3641
897.828	3515
897.949	3431
898.07	3344
898.19	3397
898.311	3595
898.431	3424
898.552	3530
898.672	3557
898.792	3595
898.913	3485
899.033	3370
899.153	3294
899.273	3188
899.393	3306
899.513	3329
899.633	3298
899.753	3336
899.873	3329
899.993	3382
900.113	3348
900.232	3351
900.352	3348
900.472	3313
900.591	3207
900.711	3279
900.83	3199
900.95	3412
901.069	3511
901.189	3355
901.308	3146
901.427	3074
901.546	3165
901.665	3237
901.784	3355
901.904	3199
902.023	3150
902.141	3028
902.26	2967
902.379	3085
902.498	3043
902.617	3043
902.735	3157
902.854	3222
902.973	3138
903.091	3039
903.21	3039
903.328	3165
903.446	3100
903.565	3066
903.683	3199
903.801	3112
903.919	3195
904.038	3268
904.156	3180
904.274	3310
904.392	3241
904.51	3260
904.627	3310
904.745	3393
904.863	3477
904.981	3226
905.098	3146
905.216	3199
905.334	3336
905.451	3298
905.569	3291
905.686	3386
905.803	3401
905.921	3291
906.038	3401
906.155	3321
906.272	3241
906.389	3348
906.506	3192
906.623	3279
906.74	3260
906.857	3180
906.974	3260
907.091	3439
907.208	3564
907.324	3473
907.441	3378
907.557	3233
907.674	3222
907.79	3195
907.907	3279
908.023	3378
908.139	3351
908.256	3310
908.372	3370
908.488	3348
908.604	3199
908.72	3173
908.836	3287
908.952	3268
909.068	3291
909.184	3443
909.3	3397
909.415	3481
909.531	3462
909.647	3275
909.762	3294
909.878	3214
909.993	3336
910.108	3310
910.224	3351
910.339	3416
910.454	3298
910.57	3313
910.685	3214
910.8	3572
910.915	3519
911.03	3420
911.145	3249
911.259	3268
911.374	3317
911.489	3203
911.604	3188
911.718	3089
911.833	3116
911.947	3036
912.062	2956
912.176	3127
912.291	3207
912.405	3192
912.519	3412
912.633	3435
912.748	3344
912.862	3291
912.976	3176
913.09	3066
913.204	3146
913.318	3226
913.431	3340
913.545	3302
913.659	3401
913.772	3336
913.886	3184
914	3176
914.113	3336
914.226	3447
914.34	3382
914.453	3211
914.566	3382
914.68	3321
914.793	3310
914.906	3161
915.019	3157
915.132	3112
915.245	3173
915.358	3237
915.47	3260
915.583	3272
915.696	3302
915.809	3488
915.921	3435
916.034	3275
916.146	3287
916.259	3203
916.371	3409
916.483	3382
916.595	3294
916.708	3397
916.82	3412
916.932	3370
917.044	3359
917.156	3412
917.268	3317
917.38	3329
917.491	3348
917.603	3374
917.715	3488
917.826	3534
917.938	3401
918.049	3306
918.161	3458
918.272	3599
918.384	3633
918.495	3523
918.606	3393
918.717	3313
918.828	3389
918.939	3431
919.05	3348
919.161	3389
919.272	3161
919.383	3355
919.494	3542
919.604	3743
919.715	3523
919.826	3469
919.936	3481
920.047	3622
920.157	3584
920.267	3797
920.378	3622
920.488	3576
920.598	3804
920.708	3972
920.818	3865
920.928	3865
921.038	4059
921.148	4002
921.258	3671
921.368	3652
921.477	3622
921.587	3610
921.697	3477
921.806	3690
921.916	3515
922.025	3374
922.134	3420
922.244	3351
922.353	3447
922.462	3294
922.571	3233
922.68	3116
922.789	3108
922.898	3203
923.007	3135
923.116	3249
923.224	3207
923.333	3237
923.442	3157
923.55	3112
923.659	3188
923.767	3279
923.876	3142
923.984	3275
924.092	3142
924.201	3249
924.309	3245
924.417	3302
924.525	3165
924.633	3332
924.741	4048
924.849	3104
924.956	3332
925.064	3169
925.172	3108
925.279	3154
925.387	3253
925.494	3237
925.602	3374
925.709	3336
925.816	3218
925.924	3313
926.031	3382
926.138	3382
926.245	3405
926.352	3253
926.459	3439
926.566	3500
926.673	3355
926.779	3294
926.886	3306
926.993	3207
927.099	3176
927.206	3146
927.312	3123
927.419	3272
927.525	3256
927.631	3298
927.737	3173
927.843	3138
927.95	2998
928.056	3161
928.162	3173
928.267	3253
928.373	3797
928.479	3359
928.585	3093
928.69	3253
928.796	3313
928.901	3169
929.007	3055
929.112	3199
929.218	3226
929.323	3142
929.428	3150
929.533	3329
929.638	3138
929.743	3203
929.848	3272
929.953	3233
930.058	3173
930.163	2998
930.267	3100
930.372	3211
930.477	3032
930.581	3351
930.685	3184
930.79	3097
930.894	3188
930.998	3119
931.103	3287
931.207	2998
931.311	2952
931.415	2937
931.519	2804
931.623	2853
