Data from test_V78500241_308.txt Node
Date: Fri Mar 25 16:17:20 CST 2022
User: usil
Spectrometer: V785-0024
Trigger mode: 0
Integration Time (sec): 4.000000E-1
Scans to average: 1
Nonlinearity correction enabled: false
Boxcar width: 0
Storing dark spectrum: false
XAxis mode: Wavelengths
Number of Pixels in Spectrum: 1024
>>>>>Begin Spectral Data<<<<<
801.071	2952
801.214	2975
801.356	2922
801.499	2944
801.641	2895
801.783	2929
801.926	3066
802.068	3058
802.211	3055
802.353	3093
802.496	2986
802.638	3077
802.78	3055
802.923	3100
803.065	3077
803.208	2929
803.35	2952
803.492	2979
803.635	2952
803.777	2830
803.919	2876
804.061	3245
804.204	2994
804.346	2933
804.488	2918
804.63	3036
804.773	2952
804.915	2963
805.057	3116
805.199	3009
805.341	3039
805.483	3108
805.626	3058
805.768	3028
805.91	3150
806.052	3127
806.194	3043
806.336	3302
806.478	3062
806.62	3017
806.762	3036
806.904	3097
807.046	3207
807.188	3036
807.33	2986
807.472	3009
807.614	2933
807.756	3036
807.898	2971
808.04	2937
808.182	3028
808.324	2986
808.465	2925
808.607	2933
808.749	2819
808.891	2864
809.033	3024
809.174	2994
809.316	2944
809.458	2925
809.6	2819
809.741	2792
809.883	2777
810.025	2876
810.166	2902
810.308	2853
810.45	2876
810.591	2811
810.733	2796
810.875	2838
811.016	2815
811.158	2819
811.299	2845
811.441	2967
811.582	2922
811.724	2876
811.865	2872
812.007	2979
812.148	2918
812.29	2876
812.431	2925
812.573	2998
812.714	3024
812.855	3081
812.997	3089
813.138	3180
813.279	3070
813.421	3001
813.562	2990
813.703	2910
813.845	2914
813.986	2792
814.127	2762
814.268	2838
814.41	2883
814.551	2849
814.692	2899
814.833	2819
814.974	2899
815.115	2986
815.256	2876
815.397	2864
815.539	2876
815.68	2777
815.821	2796
815.962	3017
816.103	2960
816.244	2902
816.385	2864
816.526	3024
816.666	2918
816.807	2781
816.948	2929
817.089	2967
817.23	2887
817.371	2807
817.512	2819
817.653	2868
817.793	2857
817.934	2914
818.075	2986
818.216	3009
818.356	3043
818.497	2948
818.638	2823
818.778	2872
818.919	2823
819.06	2792
819.2	2895
819.341	2861
819.481	2880
819.622	2971
819.762	3146
819.903	3051
820.043	2937
820.184	2929
820.324	2918
820.465	3047
820.605	3077
820.746	3051
820.886	2952
821.026	3135
821.167	3188
821.307	3272
821.447	3302
821.588	3260
821.728	3237
821.868	3218
822.008	3058
822.149	3245
822.289	3249
822.429	3131
822.569	3062
822.709	3218
822.849	3077
822.99	3070
823.13	3176
823.27	3184
823.41	3112
823.55	3165
823.69	3138
823.83	3192
823.97	3119
824.11	3047
824.25	3070
824.389	3077
824.529	3142
824.669	3093
824.809	3260
824.949	3283
825.089	3272
825.228	3188
825.368	3028
825.508	2990
825.648	2986
825.787	3043
825.927	3051
826.067	3001
826.206	2998
826.346	3055
826.485	3074
826.625	3123
826.765	3283
826.904	3218
827.044	3047
827.183	2956
827.323	2902
827.462	3017
827.601	2941
827.741	2982
827.88	3020
828.02	2880
828.159	2998
828.298	3058
828.437	3161
828.577	3077
828.716	3249
828.855	3135
828.994	2941
829.134	2906
829.273	2937
829.412	2868
829.551	2872
829.69	2963
829.829	3047
829.968	3119
830.107	3009
830.246	3077
830.385	2922
830.524	2918
830.663	2861
830.802	2766
830.941	2682
831.08	2663
831.219	2773
831.357	2830
831.496	2929
831.635	2739
831.774	2708
831.913	2705
832.051	2511
832.19	2594
832.329	2739
832.467	2571
832.606	2518
832.744	2632
832.883	2621
833.022	2598
833.16	2655
833.299	2716
833.437	2735
833.576	2716
833.714	2754
833.852	2754
833.991	2766
834.129	2842
834.267	2864
834.406	2823
834.544	2891
834.682	2902
834.821	2922
834.959	3081
835.097	2944
835.235	3085
835.373	3036
835.511	3070
835.65	2990
835.788	2967
835.926	2857
836.064	2830
836.202	2849
836.34	3116
836.478	3154
836.615	3093
836.753	3180
836.891	3214
837.029	3211
837.167	3135
837.305	3116
837.443	3085
837.58	2994
837.718	3165
837.856	3077
837.993	3062
838.131	3199
838.269	3093
838.406	3131
838.544	3100
838.681	2986
838.819	2933
838.956	2861
839.094	2876
839.231	2922
839.369	3039
839.506	3397
839.643	3233
839.781	3028
839.918	2979
840.055	3055
840.193	3051
840.33	3085
840.467	3123
840.604	3138
840.742	3397
840.879	3100
841.016	3062
841.153	3161
841.29	3355
841.427	3325
841.564	3264
841.701	3378
841.838	3218
841.975	3176
842.112	3230
842.249	3100
842.385	3077
842.522	3317
842.659	3123
842.796	3070
842.933	3131
843.069	3085
843.206	3066
843.343	3214
843.479	3077
843.616	3192
843.752	2918
843.889	2899
844.025	3074
844.162	2925
844.298	3119
844.435	2986
844.571	2914
844.708	3085
844.844	3253
844.98	3253
845.117	3218
845.253	3047
845.389	3013
845.525	3127
845.661	3150
845.798	3055
845.934	3173
846.07	3066
846.206	3256
846.342	3317
846.478	3279
846.614	3081
846.75	3081
846.886	3085
847.022	3268
847.158	3161
847.294	3203
847.429	3275
847.565	3233
847.701	3526
847.837	3055
847.972	3020
848.108	3192
848.244	3184
848.379	3005
848.515	2986
848.65	2937
848.786	3001
848.921	3039
849.057	3150
849.192	3165
849.328	3100
849.463	3184
849.598	3085
849.734	3066
849.869	3017
850.004	2937
850.14	2994
850.275	2914
850.41	2895
850.545	2929
850.68	2937
850.815	3001
850.95	2975
851.085	3214
851.22	3131
851.355	3058
851.49	2990
851.625	3020
851.76	3024
851.895	2963
852.03	2925
852.165	3070
852.299	3146
852.434	3176
852.569	3165
852.703	3169
852.838	3256
852.973	3359
853.107	3336
853.242	3176
853.376	3112
853.511	3017
853.645	3062
853.78	3237
853.914	3127
854.048	3123
854.183	3100
854.317	3161
854.451	3313
854.585	3180
854.72	3119
854.854	3226
854.988	3081
855.122	3108
855.256	3009
855.39	3154
855.524	3249
855.658	3218
855.792	3169
855.926	3173
856.06	3233
856.194	3294
856.327	3173
856.461	3081
856.595	3119
856.729	3058
856.862	3241
856.996	3154
857.13	3233
857.263	3245
857.397	3275
857.53	3142
857.664	3169
857.797	3272
857.931	3268
858.064	3154
858.197	3214
858.331	3138
858.464	3123
858.597	3028
858.731	3104
858.864	3154
858.997	3089
859.13	3161
859.263	3165
859.396	3169
859.529	3104
859.662	3100
859.795	3058
859.928	3180
860.061	3325
860.194	3310
860.327	3169
860.46	3093
860.592	3237
860.725	3222
860.858	3317
860.99	3097
861.123	3047
861.256	3093
861.388	3142
861.521	3850
861.653	2990
861.786	3024
861.918	3032
862.05	3085
862.183	3135
862.315	3123
862.447	3184
862.58	3074
862.712	2952
862.844	2876
862.976	3036
863.108	3020
863.24	3317
863.372	2887
863.504	2979
863.636	2960
863.768	3013
863.9	3005
864.032	2933
864.164	2975
864.296	3028
864.428	3100
864.559	3138
864.691	3100
864.823	3081
864.954	3070
865.086	3070
865.217	3024
865.349	2975
865.48	3017
865.612	3039
865.743	3180
865.875	3024
866.006	2967
866.137	3005
866.269	2933
866.4	2914
866.531	2922
866.662	2899
866.793	2906
866.924	2925
867.055	2979
867.186	2929
867.317	2895
867.448	2864
867.579	2883
867.71	2864
867.841	2853
867.972	2868
868.103	2910
868.233	2899
868.364	2864
868.495	2902
868.625	3100
868.756	3199
868.886	2925
869.017	3020
869.147	3176
869.278	3211
869.408	3036
869.539	3013
869.669	3100
869.799	3074
869.929	3157
870.06	3142
870.19	3382
870.32	3302
870.45	3340
870.58	3348
870.71	3439
870.84	3431
870.97	3298
871.1	3249
871.23	3511
871.36	3439
871.489	3359
871.619	3447
871.749	3401
871.879	3462
872.008	3504
872.138	3351
872.267	3302
872.397	3138
872.526	3093
872.656	3024
872.785	3108
872.915	3253
873.044	3344
873.173	3230
873.303	3264
873.432	3249
873.561	3241
873.69	3180
873.819	3127
873.948	3241
874.077	3135
874.206	3100
874.335	3081
874.464	3226
874.593	3336
874.722	3245
874.851	3378
874.979	3370
875.108	3332
875.237	3207
875.365	3176
875.494	3142
875.623	3260
875.751	3116
875.88	3142
876.008	3260
876.136	3253
876.265	3370
876.393	3515
876.521	3428
876.65	3409
876.778	3363
876.906	3256
877.034	3195
877.162	3222
877.29	3192
877.418	3321
877.546	3249
877.674	3222
877.802	3253
877.93	3222
878.058	3146
878.185	3127
878.313	3199
878.441	3218
878.568	3093
878.696	3116
878.824	3268
878.951	3291
879.079	3450
879.206	3587
879.333	3477
879.461	3348
879.588	3344
879.715	3507
879.842	3591
879.97	3393
880.097	3218
880.224	3108
880.351	3211
880.478	3230
880.605	3237
880.732	3184
880.859	3504
880.986	3325
881.112	3363
881.239	3192
881.366	3066
881.493	3017
881.619	3020
881.746	3047
881.872	3123
881.999	3112
882.125	3184
882.252	3275
882.378	3283
882.505	3469
882.631	3272
882.757	3146
882.883	3226
883.01	3233
883.136	3169
883.262	3146
883.388	3097
883.514	3325
883.64	3389
883.766	3298
883.892	3169
884.018	3222
884.143	3416
884.269	3504
884.395	3203
884.52	3138
884.646	3207
884.772	3135
884.897	3112
885.023	3214
885.148	3336
885.274	3412
885.399	3409
885.524	3245
885.65	3272
885.775	3313
885.9	3264
886.025	3435
886.15	3351
886.275	3287
886.4	3256
886.525	3272
886.65	3260
886.775	3283
886.9	3534
887.025	3625
887.149	3424
887.274	3233
887.399	3180
887.523	3249
887.648	3157
887.773	3207
887.897	3340
888.021	3397
888.146	3287
888.27	3439
888.395	3526
888.519	3412
888.643	3458
888.767	3477
888.891	3287
889.015	3241
889.139	3310
889.263	3214
889.387	3409
889.511	3526
889.635	3420
889.759	3313
889.883	3291
890.006	3412
890.13	3500
890.254	3237
890.377	3359
890.501	3233
890.624	3192
890.748	3283
890.871	3184
890.995	3077
891.118	3085
891.241	3211
891.364	3264
891.488	3302
891.611	3180
891.734	3245
891.857	3302
891.98	3253
892.103	3363
892.226	3260
892.349	3260
892.471	3138
892.594	3275
892.717	3283
892.839	3283
892.962	3348
893.085	3401
893.207	3294
893.33	3180
893.452	3207
893.575	3344
893.697	3249
893.819	3488
893.941	3485
894.064	3458
894.186	3268
894.308	3264
894.43	3443
894.552	3519
894.674	3469
894.796	3279
894.918	3329
895.04	3302
895.161	3435
895.283	3412
895.405	3294
895.526	3351
895.648	3420
895.769	3424
895.891	3435
896.012	3473
896.134	3500
896.255	3424
896.376	3374
896.498	3363
896.619	3488
896.74	3378
896.861	3405
896.982	3694
897.103	3827
897.224	3629
897.345	3496
897.466	3435
897.587	3519
897.708	3629
897.828	3561
897.949	3416
898.07	3370
898.19	3397
898.311	3603
898.431	3466
898.552	3519
898.672	3595
898.792	3595
898.913	3545
899.033	3409
899.153	3279
899.273	3237
899.393	3272
899.513	3321
899.633	3348
899.753	3340
899.873	3306
899.993	3405
900.113	3370
900.232	3386
900.352	3321
900.472	3275
900.591	3203
900.711	3294
900.83	3264
900.95	3397
901.069	3538
901.189	3344
901.308	3169
901.427	3154
901.546	3188
901.665	3272
901.784	3355
901.904	3245
902.023	3093
902.141	3017
902.26	2929
902.379	3157
902.498	3058
902.617	3055
902.735	3214
902.854	3211
902.973	3214
903.091	3024
903.21	3066
903.328	3169
903.446	3089
903.565	3089
903.683	3218
903.801	3116
903.919	3222
904.038	3275
904.156	3184
904.274	3306
904.392	3222
904.51	3279
904.627	3351
904.745	3431
904.863	3488
904.981	3256
905.098	3161
905.216	3207
905.334	3283
905.451	3389
905.569	3306
905.686	3454
905.803	3504
905.921	3283
906.038	3424
906.155	3325
906.272	3233
906.389	3359
906.506	3211
906.623	3260
906.74	3302
906.857	3142
906.974	3253
907.091	3458
907.208	3614
907.324	3458
907.441	3374
907.557	3184
907.674	3203
907.79	3188
907.907	3291
908.023	3393
908.139	3355
908.256	3298
908.372	3386
908.488	3382
908.604	3260
908.72	3226
908.836	3306
908.952	3275
909.068	3340
909.184	3485
909.3	3389
909.415	3523
909.531	3477
909.647	3302
909.762	3245
909.878	3275
909.993	3412
910.108	3348
910.224	3378
910.339	3382
910.454	3336
910.57	3291
910.685	3226
910.8	3580
910.915	3523
911.03	3454
911.145	3218
911.259	3275
911.374	3321
911.489	3237
911.604	3283
911.718	3112
911.833	3138
911.947	3017
912.062	2975
912.176	3161
912.291	3135
912.405	3249
912.519	3439
912.633	3481
912.748	3363
912.862	3245
912.976	3127
913.09	3051
913.204	3150
913.318	3226
913.431	3325
913.545	3317
913.659	3405
913.772	3348
913.886	3230
914	3195
914.113	3336
914.226	3382
914.34	3344
914.453	3241
914.566	3431
914.68	3325
914.793	3275
914.906	3142
915.019	3097
915.132	3058
915.245	3176
915.358	3218
915.47	3241
915.583	3272
915.696	3298
915.809	3340
915.921	3439
916.034	3211
916.146	3249
916.259	3195
916.371	3386
916.483	3389
916.595	3268
916.708	3351
916.82	3329
916.932	3329
917.044	3351
917.156	3340
917.268	3294
917.38	3279
917.491	3313
917.603	3405
917.715	3431
917.826	3466
917.938	3397
918.049	3272
918.161	3462
918.272	3545
918.384	3534
918.495	3481
918.606	3386
918.717	3302
918.828	3363
918.939	3435
919.05	3298
919.161	3351
919.272	3188
919.383	3291
919.494	3473
919.604	3709
919.715	3477
919.826	3412
919.936	3450
920.047	3595
920.157	3542
920.267	3747
920.378	3633
920.488	3526
920.598	3797
920.708	3953
920.818	3850
920.928	3857
921.038	3994
921.148	4025
921.258	3724
921.368	3625
921.477	3595
921.587	3519
921.697	3469
921.806	3641
921.916	3500
922.025	3313
922.134	3378
922.244	3321
922.353	3447
922.462	3237
922.571	3249
922.68	3116
922.789	3058
922.898	3138
923.007	3100
923.116	3249
923.224	3165
923.333	3165
923.442	3093
923.55	3089
923.659	3077
923.767	3192
923.876	3135
923.984	3264
924.092	3116
924.201	3157
924.309	3272
924.417	3253
924.525	3207
924.633	3192
924.741	4192
924.849	3024
924.956	3291
925.064	3070
925.172	3032
925.279	3097
925.387	3188
925.494	3169
925.602	3401
925.709	3348
925.816	3150
925.924	3302
926.031	3401
926.138	3336
926.245	3329
926.352	3279
926.459	3378
926.566	3496
926.673	3294
926.779	3226
926.886	3226
926.993	3127
927.099	3142
927.206	3093
927.312	3119
927.419	3184
927.525	3222
927.631	3237
927.737	3108
927.843	3157
927.95	3009
928.056	3119
928.162	3176
928.267	3218
928.373	3880
928.479	3313
928.585	3085
928.69	3237
928.796	3256
928.901	3165
929.007	3020
929.112	3245
929.218	3195
929.323	3119
929.428	3142
929.533	3336
929.638	3150
929.743	3176
929.848	3272
929.953	3199
930.058	3157
930.163	2982
930.267	3055
930.372	3169
930.477	2963
930.581	3351
930.685	3188
930.79	3070
930.894	3146
930.998	3089
931.103	3306
931.207	2956
931.311	2941
931.415	2891
931.519	2769
931.623	2838
