Data from test_V78500241_944.txt Node
Date: Fri Mar 25 16:21:44 CST 2022
User: usil
Spectrometer: V785-0024
Trigger mode: 0
Integration Time (sec): 4.000000E-1
Scans to average: 1
Nonlinearity correction enabled: false
Boxcar width: 0
Storing dark spectrum: false
XAxis mode: Wavelengths
Number of Pixels in Spectrum: 1024
>>>>>Begin Spectral Data<<<<<
801.071	2933
801.214	2914
801.356	2857
801.499	2880
801.641	2861
801.783	2937
801.926	3024
802.068	3009
802.211	2994
802.353	3005
802.496	2956
802.638	2998
802.78	3005
802.923	3081
803.065	3024
803.208	2880
803.35	2902
803.492	2933
803.635	2941
803.777	2769
803.919	2872
804.061	3211
804.204	2933
804.346	2910
804.488	2792
804.63	2990
804.773	2876
804.915	2895
805.057	3020
805.199	2963
805.341	2975
805.483	3081
805.626	2986
805.768	2986
805.91	3081
806.052	3081
806.194	3017
806.336	3230
806.478	2971
806.62	2960
806.762	2963
806.904	3070
807.046	3123
807.188	2990
807.33	2864
807.472	3005
807.614	2922
807.756	2986
807.898	2899
808.04	2899
808.182	2960
808.324	2948
808.465	2925
808.607	2872
808.749	2785
808.891	2864
809.033	2960
809.174	2982
809.316	2887
809.458	2868
809.6	2788
809.741	2788
809.883	2731
810.025	2857
810.166	2868
810.308	2849
810.45	2849
810.591	2758
810.733	2743
810.875	2842
811.016	2773
811.158	2762
811.299	2796
811.441	2956
811.582	2895
811.724	2800
811.865	2838
812.007	2933
812.148	2891
812.29	2868
812.431	2895
812.573	2910
812.714	3001
812.855	3020
812.997	3062
813.138	3131
813.279	2994
813.421	2963
813.562	2944
813.703	2861
813.845	2914
813.986	2762
814.127	2750
814.268	2807
814.41	2868
814.551	2804
814.692	2895
814.833	2815
814.974	2906
815.115	2922
815.256	2811
815.397	2811
815.539	2857
815.68	2796
815.821	2800
815.962	2914
816.103	2914
816.244	2876
816.385	2887
816.526	2986
816.666	2914
816.807	2708
816.948	2883
817.089	2887
817.23	2838
817.371	2750
817.512	2800
817.653	2815
817.793	2796
817.934	2876
818.075	2922
818.216	3005
818.356	2982
818.497	2891
818.638	2727
818.778	2815
818.919	2807
819.06	2746
819.2	2845
819.341	2842
819.481	2815
819.622	2914
819.762	3074
819.903	3024
820.043	2922
820.184	2899
820.324	2910
820.465	3043
820.605	3005
820.746	3017
820.886	2914
821.026	3066
821.167	3123
821.307	3245
821.447	3260
821.588	3237
821.728	3176
821.868	3157
822.008	3028
822.149	3180
822.289	3207
822.429	3074
822.569	3100
822.709	3154
822.849	3043
822.99	3055
823.13	3146
823.27	3184
823.41	3108
823.55	3146
823.69	3142
823.83	3192
823.97	3093
824.11	2979
824.25	2960
824.389	3043
824.529	3108
824.669	3058
824.809	3192
824.949	3245
825.089	3237
825.228	3142
825.368	3005
825.508	2944
825.648	2914
825.787	3043
825.927	2990
826.067	2960
826.206	2944
826.346	3036
826.485	3093
826.625	3074
826.765	3291
826.904	3173
827.044	3009
827.183	2914
827.323	2853
827.462	2967
827.601	2883
827.741	2880
827.88	2967
828.02	2853
828.159	2941
828.298	3024
828.437	3116
828.577	3024
828.716	3233
828.855	3097
828.994	2925
829.134	2857
829.273	2925
829.412	2880
829.551	2807
829.69	2891
829.829	2975
829.968	3123
830.107	2990
830.246	3024
830.385	2895
830.524	2876
830.663	2792
830.802	2739
830.941	2636
831.08	2625
831.219	2766
831.357	2781
831.496	2990
831.635	2712
831.774	2651
831.913	2636
832.051	2537
832.19	2590
832.329	2693
832.467	2545
832.606	2454
832.744	2587
832.883	2587
833.022	2564
833.16	2663
833.299	2667
833.437	2667
833.576	2708
833.714	2708
833.852	2750
833.991	2750
834.129	2826
834.267	2823
834.406	2804
834.544	2880
834.682	2830
834.821	2876
834.959	3055
835.097	2880
835.235	3062
835.373	2986
835.511	2998
835.65	2925
835.788	2975
835.926	2830
836.064	2819
836.202	2834
836.34	3066
836.478	3104
836.615	3062
836.753	3077
836.891	3222
837.029	3180
837.167	3081
837.305	3066
837.443	3005
837.58	2952
837.718	3112
837.856	3020
837.993	3001
838.131	3116
838.269	3070
838.406	3119
838.544	3051
838.681	2937
838.819	2910
838.956	2781
839.094	2773
839.231	2941
839.369	3005
839.506	3367
839.643	3207
839.781	2975
839.918	2952
840.055	3036
840.193	3024
840.33	3024
840.467	3116
840.604	3138
840.742	3420
840.879	3058
841.016	3036
841.153	3074
841.29	3302
841.427	3325
841.564	3245
841.701	3268
841.838	3207
841.975	3184
842.112	3249
842.249	3070
842.385	3089
842.522	3214
842.659	3032
842.796	3043
842.933	3070
843.069	3081
843.206	3028
843.343	3214
843.479	3119
843.616	3135
843.752	2891
843.889	2811
844.025	3058
844.162	2899
844.298	3058
844.435	2925
844.571	2914
844.708	3058
844.844	3123
844.98	3233
845.117	3199
845.253	3062
845.389	3013
845.525	3104
845.661	3116
845.798	3032
845.934	3093
846.07	3032
846.206	3272
846.342	3287
846.478	3184
846.614	3085
846.75	3077
846.886	3028
847.022	3203
847.158	3093
847.294	3165
847.429	3237
847.565	3203
847.701	3454
847.837	2986
847.972	2986
848.108	3135
848.244	3146
848.379	2971
848.515	2899
848.65	2910
848.786	2971
848.921	2982
849.057	3043
849.192	3142
849.328	3043
849.463	3093
849.598	3077
849.734	3028
849.869	2994
850.004	2899
850.14	2937
850.275	2880
850.41	2796
850.545	2899
850.68	2971
850.815	2952
850.95	2944
851.085	3184
851.22	3100
851.355	3024
851.49	2952
851.625	2967
851.76	2990
851.895	2941
852.03	2941
852.165	3017
852.299	3047
852.434	3169
852.569	3161
852.703	3226
852.838	3230
852.973	3332
853.107	3325
853.242	3131
853.376	3062
853.511	2982
853.645	3043
853.78	3199
853.914	3100
854.048	3085
854.183	3097
854.317	3127
854.451	3291
854.585	3100
854.72	3104
854.854	3195
854.988	3036
855.122	3070
855.256	2963
855.39	3085
855.524	3218
855.658	3161
855.792	3142
855.926	3173
856.06	3218
856.194	3264
856.327	3123
856.461	3089
856.595	3055
856.729	3070
856.862	3233
856.996	3131
857.13	3169
857.263	3214
857.397	3294
857.53	3127
857.664	3142
857.797	3207
857.931	3256
858.064	3173
858.197	3169
858.331	3097
858.464	3093
858.597	3028
858.731	3085
858.864	3123
858.997	3108
859.13	3161
859.263	3161
859.396	3203
859.529	3097
859.662	3062
859.795	3051
859.928	3154
860.061	3241
860.194	3321
860.327	3104
860.46	3093
860.592	3287
860.725	3241
860.858	3245
860.99	3127
861.123	3036
861.256	3043
861.388	3157
861.521	3808
861.653	2986
861.786	2990
861.918	2979
862.05	3074
862.183	3055
862.315	3176
862.447	3180
862.58	3051
862.712	2944
862.844	2876
862.976	3009
863.108	2986
863.24	3397
863.372	2868
863.504	2990
863.636	2925
863.768	2990
863.9	2944
864.032	2864
864.164	2952
864.296	2990
864.428	3093
864.559	3108
864.691	3062
864.823	3070
864.954	3024
865.086	3036
865.217	2979
865.349	2971
865.48	2960
865.612	2986
865.743	3131
865.875	2960
866.006	2963
866.137	2982
866.269	2952
866.4	2910
866.531	2918
866.662	2861
866.793	2906
866.924	2883
867.055	3001
867.186	2887
867.317	2872
867.448	2785
867.579	2861
867.71	2834
867.841	2792
867.972	2880
868.103	2925
868.233	2864
868.364	2880
868.495	2925
868.625	3043
868.756	3150
868.886	2982
869.017	3009
869.147	3127
869.278	3176
869.408	3028
869.539	3001
869.669	3116
869.799	3009
869.929	3127
870.06	3112
870.19	3302
870.32	3283
870.45	3237
870.58	3336
870.71	3450
870.84	3435
870.97	3291
871.1	3245
871.23	3450
871.36	3443
871.489	3306
871.619	3416
871.749	3405
871.879	3428
872.008	3466
872.138	3332
872.267	3214
872.397	3138
872.526	3074
872.656	3005
872.785	3028
872.915	3237
873.044	3329
873.173	3203
873.303	3249
873.432	3249
873.561	3207
873.69	3135
873.819	3165
873.948	3214
874.077	3066
874.206	3051
874.335	3093
874.464	3249
874.593	3310
874.722	3253
874.851	3393
874.979	3367
875.108	3336
875.237	3214
875.365	3165
875.494	3157
875.623	3230
875.751	3058
875.88	3119
876.008	3173
876.136	3157
876.265	3363
876.393	3458
876.521	3439
876.65	3355
876.778	3332
876.906	3237
877.034	3195
877.162	3218
877.29	3176
877.418	3268
877.546	3241
877.674	3203
877.802	3245
877.93	3211
878.058	3100
878.185	3116
878.313	3176
878.441	3199
878.568	3062
878.696	3135
878.824	3218
878.951	3298
879.079	3469
879.206	3606
879.333	3454
879.461	3367
879.588	3325
879.715	3496
879.842	3587
879.97	3401
880.097	3169
880.224	3112
880.351	3173
880.478	3230
880.605	3199
880.732	3195
880.859	3504
880.986	3298
881.112	3348
881.239	3214
881.366	3108
881.493	3024
881.619	3017
881.746	3062
881.872	3085
881.999	3081
882.125	3116
882.252	3226
882.378	3275
882.505	3397
882.631	3264
882.757	3142
882.883	3184
883.01	3157
883.136	3169
883.262	3123
883.388	3074
883.514	3283
883.64	3363
883.766	3329
883.892	3165
884.018	3233
884.143	3412
884.269	3538
884.395	3195
884.52	3161
884.646	3161
884.772	3104
884.897	3104
885.023	3233
885.148	3348
885.274	3382
885.399	3351
885.524	3291
885.65	3275
885.775	3302
885.9	3283
886.025	3393
886.15	3359
886.275	3317
886.4	3230
886.525	3313
886.65	3253
886.775	3291
886.9	3507
887.025	3614
887.149	3405
887.274	3218
887.399	3173
887.523	3192
887.648	3195
887.773	3173
887.897	3401
888.021	3405
888.146	3340
888.27	3439
888.395	3534
888.519	3409
888.643	3477
888.767	3428
888.891	3298
889.015	3226
889.139	3279
889.263	3241
889.387	3447
889.511	3488
889.635	3416
889.759	3283
889.883	3310
890.006	3363
890.13	3473
890.254	3268
890.377	3294
890.501	3150
890.624	3165
890.748	3298
890.871	3169
890.995	3058
891.118	3036
891.241	3184
891.364	3233
891.488	3329
891.611	3169
891.734	3214
891.857	3306
891.98	3211
892.103	3336
892.226	3291
892.349	3199
892.471	3119
892.594	3222
892.717	3264
892.839	3264
892.962	3272
893.085	3370
893.207	3260
893.33	3150
893.452	3176
893.575	3348
893.697	3211
893.819	3466
893.941	3488
894.064	3424
894.186	3268
894.308	3253
894.43	3458
894.552	3526
894.674	3454
894.796	3268
894.918	3294
895.04	3279
895.161	3405
895.283	3401
895.405	3325
895.526	3367
895.648	3412
895.769	3435
895.891	3466
896.012	3435
896.134	3466
896.255	3420
896.376	3359
896.498	3363
896.619	3420
896.74	3336
896.861	3405
896.982	3679
897.103	3793
897.224	3599
897.345	3523
897.466	3389
897.587	3496
897.708	3576
897.828	3557
897.949	3412
898.07	3317
898.19	3412
898.311	3610
898.431	3439
898.552	3500
898.672	3595
898.792	3561
898.913	3511
899.033	3359
899.153	3287
899.273	3207
899.393	3306
899.513	3313
899.633	3329
899.753	3363
899.873	3272
899.993	3374
900.113	3329
900.232	3405
900.352	3306
900.472	3283
900.591	3226
900.711	3287
900.83	3268
900.95	3416
901.069	3511
901.189	3325
901.308	3203
901.427	3127
901.546	3188
901.665	3279
901.784	3332
901.904	3165
902.023	3157
902.141	3024
902.26	3005
902.379	3123
902.498	3070
902.617	3013
902.735	3173
902.854	3253
902.973	3169
903.091	3036
903.21	3089
903.328	3116
903.446	3081
903.565	3077
903.683	3218
903.801	3131
903.919	3214
904.038	3218
904.156	3192
904.274	3306
904.392	3241
904.51	3294
904.627	3291
904.745	3409
904.863	3481
904.981	3226
905.098	3161
905.216	3199
905.334	3306
905.451	3329
905.569	3313
905.686	3435
905.803	3424
905.921	3294
906.038	3412
906.155	3355
906.272	3264
906.389	3313
906.506	3241
906.623	3256
906.74	3279
906.857	3195
906.974	3207
907.091	3428
907.208	3538
907.324	3481
907.441	3370
907.557	3203
907.674	3233
907.79	3176
907.907	3268
908.023	3431
908.139	3351
908.256	3332
908.372	3348
908.488	3344
908.604	3264
908.72	3226
908.836	3268
908.952	3298
909.068	3344
909.184	3496
909.3	3382
909.415	3496
909.531	3462
909.647	3279
909.762	3283
909.878	3249
909.993	3310
910.108	3363
910.224	3332
910.339	3412
910.454	3291
910.57	3283
910.685	3241
910.8	3603
910.915	3519
911.03	3450
911.145	3256
911.259	3245
911.374	3321
911.489	3260
911.604	3233
911.718	3150
911.833	3123
911.947	3020
912.062	2986
912.176	3142
912.291	3169
912.405	3214
912.519	3409
912.633	3481
912.748	3336
912.862	3218
912.976	3173
913.09	3024
913.204	3112
913.318	3222
913.431	3329
913.545	3367
913.659	3409
913.772	3336
913.886	3211
914	3173
914.113	3332
914.226	3401
914.34	3340
914.453	3226
914.566	3405
914.68	3268
914.793	3321
914.906	3157
915.019	3085
915.132	3066
915.245	3142
915.358	3192
915.47	3207
915.583	3291
915.696	3321
915.809	3401
915.921	3428
916.034	3268
916.146	3253
916.259	3195
916.371	3298
916.483	3405
916.595	3253
916.708	3355
916.82	3321
916.932	3329
917.044	3370
917.156	3367
917.268	3275
917.38	3294
917.491	3294
917.603	3393
917.715	3447
917.826	3439
917.938	3405
918.049	3245
918.161	3401
918.272	3557
918.384	3526
918.495	3477
918.606	3370
918.717	3211
918.828	3393
918.939	3409
919.05	3249
919.161	3348
919.272	3173
919.383	3294
919.494	3496
919.604	3652
919.715	3454
919.826	3405
919.936	3477
920.047	3591
920.157	3542
920.267	3751
920.378	3633
920.488	3580
920.598	3766
920.708	3979
920.818	3800
920.928	3857
921.038	4032
921.148	4021
921.258	3686
921.368	3637
921.477	3584
921.587	3526
921.697	3435
921.806	3618
921.916	3519
922.025	3340
922.134	3306
922.244	3329
922.353	3431
922.462	3233
922.571	3245
922.68	3138
922.789	3036
922.898	3097
923.007	3074
923.116	3253
923.224	3195
923.333	3199
923.442	3089
923.55	3108
923.659	3112
923.767	3237
923.876	3112
923.984	3256
924.092	3062
924.201	3184
924.309	3184
924.417	3264
924.525	3169
924.633	3203
924.741	4150
924.849	3066
924.956	3279
925.064	3100
925.172	3093
925.279	3112
925.387	3173
925.494	3135
925.602	3332
925.709	3359
925.816	3169
925.924	3272
926.031	3378
926.138	3344
926.245	3336
926.352	3272
926.459	3405
926.566	3481
926.673	3291
926.779	3226
926.886	3226
926.993	3146
927.099	3165
927.206	3108
927.312	3112
927.419	3237
927.525	3230
927.631	3283
927.737	3077
927.843	3119
927.95	3024
928.056	3146
928.162	3165
928.267	3256
928.373	3873
928.479	3241
928.585	3089
928.69	3207
928.796	3298
928.901	3165
929.007	3032
929.112	3199
929.218	3203
929.323	3161
929.428	3119
929.533	3313
929.638	3146
929.743	3165
929.848	3230
929.953	3188
930.058	3135
930.163	2998
930.267	3051
930.372	3188
930.477	3020
930.581	3272
930.685	3192
930.79	3024
930.894	3127
930.998	3062
931.103	3272
931.207	2925
931.311	2914
931.415	2922
931.519	2727
931.623	2800
