Data from test_V78500241_670.txt Node
Date: Fri Mar 25 16:19:50 CST 2022
User: usil
Spectrometer: V785-0024
Trigger mode: 0
Integration Time (sec): 4.000000E-1
Scans to average: 1
Nonlinearity correction enabled: false
Boxcar width: 0
Storing dark spectrum: false
XAxis mode: Wavelengths
Number of Pixels in Spectrum: 1024
>>>>>Begin Spectral Data<<<<<
801.071	2922
801.214	2918
801.356	2868
801.499	2883
801.641	2902
801.783	2910
801.926	3039
802.068	2933
802.211	2994
802.353	2986
802.496	2929
802.638	3001
802.78	3024
802.923	3066
803.065	2982
803.208	2902
803.35	2929
803.492	2948
803.635	2933
803.777	2758
803.919	2864
804.061	3199
804.204	2883
804.346	2906
804.488	2838
804.63	2963
804.773	2853
804.915	2914
805.057	3100
805.199	2933
805.341	2925
805.483	3020
805.626	2971
805.768	2925
805.91	3089
806.052	3131
806.194	3028
806.336	3241
806.478	2990
806.62	2952
806.762	2975
806.904	3081
807.046	3127
807.188	2963
807.33	2937
807.472	2971
807.614	2902
807.756	2979
807.898	2929
808.04	2872
808.182	2937
808.324	2933
808.465	2849
808.607	2868
808.749	2766
808.891	2842
809.033	2994
809.174	2967
809.316	2876
809.458	2891
809.6	2746
809.741	2769
809.883	2773
810.025	2864
810.166	2830
810.308	2815
810.45	2842
810.591	2769
810.733	2731
810.875	2819
811.016	2800
811.158	2693
811.299	2785
811.441	2925
811.582	2902
811.724	2845
811.865	2834
812.007	2922
812.148	2883
812.29	2838
812.431	2872
812.573	2948
812.714	2952
812.855	3009
812.997	3043
813.138	3142
813.279	3017
813.421	2952
813.562	2933
813.703	2880
813.845	2868
813.986	2716
814.127	2712
814.268	2800
814.41	2834
814.551	2838
814.692	2880
814.833	2834
814.974	2876
815.115	2933
815.256	2781
815.397	2785
815.539	2853
815.68	2800
815.821	2823
815.962	2937
816.103	2929
816.244	2815
816.385	2834
816.526	2952
816.666	2872
816.807	2758
816.948	2918
817.089	2887
817.23	2868
817.371	2811
817.512	2766
817.653	2815
817.793	2815
817.934	2902
818.075	2929
818.216	2990
818.356	3005
818.497	2872
818.638	2769
818.778	2800
818.919	2788
819.06	2758
819.2	2849
819.341	2804
819.481	2834
819.622	2876
819.762	3081
819.903	3017
820.043	2952
820.184	2895
820.324	2864
820.465	3024
820.605	2994
820.746	3017
820.886	2948
821.026	3055
821.167	3192
821.307	3249
821.447	3272
821.588	3218
821.728	3184
821.868	3184
822.008	3051
822.149	3184
822.289	3222
822.429	3066
822.569	3020
822.709	3150
822.849	3009
822.99	3001
823.13	3131
823.27	3123
823.41	3112
823.55	3146
823.69	3150
823.83	3138
823.97	3077
824.11	2941
824.25	2986
824.389	3032
824.529	3135
824.669	3070
824.809	3161
824.949	3237
825.089	3195
825.228	3108
825.368	2986
825.508	2918
825.648	2963
825.787	2979
825.927	3009
826.067	2975
826.206	2933
826.346	3047
826.485	3085
826.625	3062
826.765	3298
826.904	3195
827.044	2975
827.183	2895
827.323	2876
827.462	2967
827.601	2899
827.741	2891
827.88	2967
828.02	2861
828.159	2975
828.298	3017
828.437	3081
828.577	3024
828.716	3249
828.855	3062
828.994	2914
829.134	2861
829.273	2906
829.412	2853
829.551	2838
829.69	2899
829.829	3005
829.968	3116
830.107	3005
830.246	3047
830.385	2906
830.524	2883
830.663	2823
830.802	2705
830.941	2640
831.08	2640
831.219	2762
831.357	2735
831.496	2971
831.635	2708
831.774	2655
831.913	2663
832.051	2568
832.19	2568
832.329	2693
832.467	2514
832.606	2503
832.744	2590
832.883	2564
833.022	2598
833.16	2648
833.299	2720
833.437	2735
833.576	2731
833.714	2754
833.852	2746
833.991	2777
834.129	2883
834.267	2876
834.406	2769
834.544	2868
834.682	2922
834.821	2861
834.959	3112
835.097	2922
835.235	3104
835.373	3020
835.511	3051
835.65	2971
835.788	3009
835.926	2842
836.064	2830
836.202	2864
836.34	3123
836.478	3199
836.615	3116
836.753	3176
836.891	3207
837.029	3214
837.167	3123
837.305	3108
837.443	3097
837.58	2979
837.718	3154
837.856	3104
837.993	3047
838.131	3138
838.269	3123
838.406	3142
838.544	3127
838.681	2975
838.819	2941
838.956	2834
839.094	2910
839.231	2948
839.369	3043
839.506	3409
839.643	3249
839.781	3074
839.918	3005
840.055	3135
840.193	3108
840.33	3097
840.467	3142
840.604	3146
840.742	3409
840.879	3116
841.016	3077
841.153	3150
841.29	3367
841.427	3329
841.564	3264
841.701	3344
841.838	3222
841.975	3230
842.112	3272
842.249	3123
842.385	3070
842.522	3317
842.659	3146
842.796	3100
842.933	3112
843.069	3070
843.206	3100
843.343	3233
843.479	3138
843.616	3165
843.752	2906
843.889	2918
844.025	3142
844.162	2872
844.298	3089
844.435	2975
844.571	2929
844.708	3116
844.844	3211
844.98	3283
845.117	3192
845.253	3089
845.389	2994
845.525	3081
845.661	3119
845.798	3066
845.934	3180
846.07	3066
846.206	3268
846.342	3359
846.478	3222
846.614	3123
846.75	3093
846.886	3039
847.022	3287
847.158	3142
847.294	3237
847.429	3237
847.565	3222
847.701	3511
847.837	3051
847.972	3062
848.108	3180
848.244	3180
848.379	3001
848.515	2963
848.65	2933
848.786	3020
848.921	3047
849.057	3085
849.192	3146
849.328	3097
849.463	3127
849.598	3123
849.734	3039
849.869	3039
850.004	2941
850.14	2986
850.275	2960
850.41	2902
850.545	2910
850.68	2937
850.815	2986
850.95	2979
851.085	3199
851.22	3108
851.355	3070
851.49	3024
851.625	3020
851.76	3047
851.895	2933
852.03	2937
852.165	3028
852.299	3154
852.434	3249
852.569	3157
852.703	3195
852.838	3283
852.973	3378
853.107	3382
853.242	3184
853.376	3116
853.511	3009
853.645	3081
853.78	3272
853.914	3142
854.048	3127
854.183	3131
854.317	3157
854.451	3355
854.585	3169
854.72	3131
854.854	3272
854.988	3093
855.122	3085
855.256	3028
855.39	3165
855.524	3249
855.658	3222
855.792	3169
855.926	3188
856.06	3245
856.194	3268
856.327	3154
856.461	3161
856.595	3135
856.729	3161
856.862	3268
856.996	3161
857.13	3260
857.263	3230
857.397	3283
857.53	3127
857.664	3199
857.797	3268
857.931	3287
858.064	3199
858.197	3260
858.331	3112
858.464	3112
858.597	3058
858.731	3165
858.864	3154
858.997	3142
859.13	3211
859.263	3203
859.396	3211
859.529	3123
859.662	3097
859.795	3093
859.928	3173
860.061	3279
860.194	3306
860.327	3154
860.46	3123
860.592	3272
860.725	3283
860.858	3253
860.99	3127
861.123	3074
861.256	3097
861.388	3154
861.521	3861
861.653	3036
861.786	3017
861.918	3024
862.05	3119
862.183	3119
862.315	3203
862.447	3214
862.58	3085
862.712	2948
862.844	2918
862.976	3047
863.108	3043
863.24	3435
863.372	2883
863.504	3017
863.636	2986
863.768	3077
863.9	2994
864.032	2914
864.164	2975
864.296	3051
864.428	3100
864.559	3100
864.691	3108
864.823	3100
864.954	3074
865.086	3062
865.217	3036
865.349	3013
865.48	2982
865.612	3051
865.743	3180
865.875	3028
866.006	2944
866.137	3005
866.269	2967
866.4	2994
866.531	2952
866.662	2910
866.793	2883
866.924	2918
867.055	3001
867.186	2941
867.317	2960
867.448	2838
867.579	2902
867.71	2849
867.841	2834
867.972	2979
868.103	2914
868.233	2952
868.364	2899
868.495	2948
868.625	3135
868.756	3207
868.886	2960
869.017	3024
869.147	3173
869.278	3176
869.408	3081
869.539	3024
869.669	3123
869.799	3074
869.929	3161
870.06	3157
870.19	3332
870.32	3306
870.45	3313
870.58	3401
870.71	3485
870.84	3488
870.97	3348
871.1	3249
871.23	3485
871.36	3496
871.489	3393
871.619	3382
871.749	3443
871.879	3466
872.008	3473
872.138	3374
872.267	3302
872.397	3165
872.526	3093
872.656	3032
872.785	3119
872.915	3241
873.044	3329
873.173	3230
873.303	3218
873.432	3272
873.561	3256
873.69	3199
873.819	3176
873.948	3180
874.077	3127
874.206	3047
874.335	3112
874.464	3214
874.593	3374
874.722	3249
874.851	3416
874.979	3389
875.108	3348
875.237	3218
875.365	3184
875.494	3154
875.623	3256
875.751	3116
875.88	3154
876.008	3195
876.136	3226
876.265	3367
876.393	3492
876.521	3397
876.65	3431
876.778	3359
876.906	3294
877.034	3214
877.162	3245
877.29	3188
877.418	3268
877.546	3260
877.674	3230
877.802	3253
877.93	3256
878.058	3192
878.185	3123
878.313	3207
878.441	3214
878.568	3081
878.696	3173
878.824	3253
878.951	3294
879.079	3454
879.206	3637
879.333	3466
879.461	3317
879.588	3363
879.715	3511
879.842	3622
879.97	3389
880.097	3188
880.224	3161
880.351	3192
880.478	3237
880.605	3214
880.732	3218
880.859	3485
880.986	3313
881.112	3340
881.239	3211
881.366	3127
881.493	3070
881.619	3036
881.746	3097
881.872	3108
881.999	3108
882.125	3211
882.252	3275
882.378	3294
882.505	3431
882.631	3291
882.757	3154
882.883	3237
883.01	3214
883.136	3180
883.262	3104
883.388	3142
883.514	3359
883.64	3386
883.766	3348
883.892	3226
884.018	3283
884.143	3428
884.269	3595
884.395	3230
884.52	3150
884.646	3226
884.772	3142
884.897	3123
885.023	3218
885.148	3389
885.274	3447
885.399	3397
885.524	3275
885.65	3294
885.775	3325
885.9	3264
886.025	3439
886.15	3344
886.275	3325
886.4	3279
886.525	3359
886.65	3256
886.775	3321
886.9	3481
887.025	3660
887.149	3424
887.274	3268
887.399	3214
887.523	3226
887.648	3218
887.773	3188
887.897	3363
888.021	3412
888.146	3363
888.27	3454
888.395	3557
888.519	3466
888.643	3450
888.767	3450
888.891	3287
889.015	3260
889.139	3321
889.263	3272
889.387	3443
889.511	3496
889.635	3450
889.759	3302
889.883	3302
890.006	3409
890.13	3515
890.254	3291
890.377	3336
890.501	3207
890.624	3264
890.748	3310
890.871	3195
890.995	3142
891.118	3081
891.241	3203
891.364	3245
891.488	3355
891.611	3214
891.734	3214
891.857	3329
891.98	3256
892.103	3363
892.226	3275
892.349	3230
892.471	3127
892.594	3249
892.717	3302
892.839	3298
892.962	3329
893.085	3367
893.207	3329
893.33	3169
893.452	3260
893.575	3355
893.697	3310
893.819	3469
893.941	3526
894.064	3485
894.186	3329
894.308	3310
894.43	3435
894.552	3545
894.674	3488
894.796	3253
894.918	3298
895.04	3302
895.161	3473
895.283	3389
895.405	3348
895.526	3382
895.648	3420
895.769	3428
895.891	3515
896.012	3485
896.134	3450
896.255	3409
896.376	3420
896.498	3363
896.619	3416
896.74	3397
896.861	3420
896.982	3694
897.103	3831
897.224	3614
897.345	3496
897.466	3466
897.587	3515
897.708	3656
897.828	3564
897.949	3443
898.07	3336
898.19	3431
898.311	3622
898.431	3462
898.552	3526
898.672	3629
898.792	3587
898.913	3519
899.033	3462
899.153	3325
899.273	3260
899.393	3310
899.513	3325
899.633	3283
899.753	3370
899.873	3321
899.993	3397
900.113	3329
900.232	3397
900.352	3389
900.472	3287
900.591	3218
900.711	3313
900.83	3245
900.95	3393
901.069	3507
901.189	3355
901.308	3199
901.427	3119
901.546	3214
901.665	3306
901.784	3344
901.904	3180
902.023	3199
902.141	3028
902.26	3017
902.379	3150
902.498	3062
902.617	3058
902.735	3237
902.854	3241
902.973	3195
903.091	3055
903.21	3104
903.328	3176
903.446	3142
903.565	3093
903.683	3222
903.801	3142
903.919	3283
904.038	3313
904.156	3161
904.274	3245
904.392	3264
904.51	3302
904.627	3351
904.745	3435
904.863	3500
904.981	3211
905.098	3188
905.216	3222
905.334	3279
905.451	3298
905.569	3310
905.686	3458
905.803	3469
905.921	3348
906.038	3409
906.155	3397
906.272	3253
906.389	3321
906.506	3214
906.623	3256
906.74	3302
906.857	3222
906.974	3222
907.091	3428
907.208	3561
907.324	3492
907.441	3393
907.557	3222
907.674	3268
907.79	3180
907.907	3283
908.023	3389
908.139	3424
908.256	3367
908.372	3412
908.488	3397
908.604	3233
908.72	3203
908.836	3325
908.952	3298
909.068	3336
909.184	3473
909.3	3378
909.415	3504
909.531	3443
909.647	3272
909.762	3313
909.878	3264
909.993	3374
910.108	3340
910.224	3332
910.339	3447
910.454	3370
910.57	3275
910.685	3237
910.8	3599
910.915	3542
911.03	3435
911.145	3294
911.259	3253
911.374	3310
911.489	3237
911.604	3279
911.718	3131
911.833	3184
911.947	3028
912.062	2998
912.176	3195
912.291	3207
912.405	3233
912.519	3447
912.633	3443
912.748	3336
912.862	3241
912.976	3165
913.09	3070
913.204	3123
913.318	3169
913.431	3336
913.545	3317
913.659	3466
913.772	3298
913.886	3230
914	3222
914.113	3386
914.226	3439
914.34	3374
914.453	3237
914.566	3397
914.68	3344
914.793	3332
914.906	3142
915.019	3100
915.132	3058
915.245	3173
915.358	3192
915.47	3256
915.583	3279
915.696	3291
915.809	3431
915.921	3416
916.034	3256
916.146	3260
916.259	3241
916.371	3393
916.483	3325
916.595	3291
916.708	3355
916.82	3317
916.932	3344
917.044	3325
917.156	3374
917.268	3279
917.38	3321
917.491	3268
917.603	3382
917.715	3469
917.826	3469
917.938	3393
918.049	3272
918.161	3431
918.272	3564
918.384	3553
918.495	3523
918.606	3332
918.717	3268
918.828	3321
918.939	3416
919.05	3306
919.161	3355
919.272	3207
919.383	3321
919.494	3504
919.604	3709
919.715	3492
919.826	3428
919.936	3416
920.047	3572
920.157	3591
920.267	3747
920.378	3595
920.488	3584
920.598	3793
920.708	4010
920.818	3819
920.928	3854
921.038	4006
921.148	3998
921.258	3694
921.368	3622
921.477	3564
921.587	3545
921.697	3511
921.806	3679
921.916	3538
922.025	3367
922.134	3321
922.244	3329
922.353	3428
922.462	3279
922.571	3218
922.68	3127
922.789	3112
922.898	3127
923.007	3108
923.116	3192
923.224	3195
923.333	3173
923.442	3100
923.55	3112
923.659	3138
923.767	3207
923.876	3112
923.984	3237
924.092	3100
924.201	3211
924.309	3203
924.417	3211
924.525	3203
924.633	3241
924.741	3968
924.849	3066
924.956	3237
925.064	3089
925.172	3051
925.279	3085
925.387	3165
925.494	3195
925.602	3355
925.709	3332
925.816	3184
925.924	3287
926.031	3401
926.138	3317
926.245	3367
926.352	3233
926.459	3397
926.566	3466
926.673	3344
926.779	3256
926.886	3260
926.993	3169
927.099	3108
927.206	3097
927.312	3058
927.419	3218
927.525	3203
927.631	3245
927.737	3146
927.843	3131
927.95	3017
928.056	3146
928.162	3165
928.267	3256
928.373	3778
928.479	3275
928.585	3043
928.69	3211
928.796	3233
928.901	3165
929.007	3047
929.112	3241
929.218	3169
929.323	3161
929.428	3138
929.533	3306
929.638	3108
929.743	3157
929.848	3298
929.953	3237
930.058	3108
930.163	3024
930.267	3085
930.372	3176
930.477	3058
930.581	3344
930.685	3176
930.79	3055
930.894	3055
930.998	3093
931.103	3294
931.207	2998
931.311	2948
931.415	2944
931.519	2758
931.623	2792
