Data from test_V78500241_1618.txt Node
Date: Fri Mar 25 16:26:24 CST 2022
User: usil
Spectrometer: V785-0024
Trigger mode: 0
Integration Time (sec): 4.000000E-1
Scans to average: 1
Nonlinearity correction enabled: false
Boxcar width: 0
Storing dark spectrum: false
XAxis mode: Wavelengths
Number of Pixels in Spectrum: 1024
>>>>>Begin Spectral Data<<<<<
801.071	2910
801.214	2944
801.356	2857
801.499	2868
801.641	2845
801.783	2933
801.926	3058
802.068	2948
802.211	3036
802.353	3024
802.496	2906
802.638	2994
802.78	3047
802.923	3070
803.065	2979
803.208	2857
803.35	2918
803.492	2941
803.635	2922
803.777	2754
803.919	2834
804.061	3150
804.204	2929
804.346	2914
804.488	2819
804.63	2975
804.773	2868
804.915	2876
805.057	3055
805.199	2910
805.341	2933
805.483	3032
805.626	2986
805.768	2952
805.91	3081
806.052	3089
806.194	3009
806.336	3207
806.478	3036
806.62	2952
806.762	2937
806.904	3062
807.046	3176
807.188	2944
807.33	2872
807.472	2986
807.614	2906
807.756	2994
807.898	2941
808.04	2910
808.182	3001
808.324	2941
808.465	2887
808.607	2887
808.749	2785
808.891	2819
809.033	2971
809.174	2982
809.316	2883
809.458	2883
809.6	2750
809.741	2769
809.883	2766
810.025	2857
810.166	2845
810.308	2819
810.45	2834
810.591	2754
810.733	2735
810.875	2807
811.016	2743
811.158	2750
811.299	2811
811.441	2910
811.582	2868
811.724	2815
811.865	2830
812.007	2929
812.148	2845
812.29	2834
812.431	2845
812.573	2929
812.714	2990
812.855	3051
812.997	3047
813.138	3112
813.279	3001
813.421	2967
813.562	2948
813.703	2887
813.845	2925
813.986	2727
814.127	2739
814.268	2807
814.41	2823
814.551	2834
814.692	2838
814.833	2826
814.974	2872
815.115	2963
815.256	2853
815.397	2800
815.539	2899
815.68	2815
815.821	2800
815.962	2967
816.103	2937
816.244	2830
816.385	2845
816.526	2975
816.666	2925
816.807	2727
816.948	2845
817.089	2899
817.23	2826
817.371	2781
817.512	2785
817.653	2804
817.793	2804
817.934	2868
818.075	2956
818.216	2982
818.356	3001
818.497	2883
818.638	2796
818.778	2800
818.919	2788
819.06	2785
819.2	2887
819.341	2785
819.481	2826
819.622	2902
819.762	3081
819.903	3036
820.043	2944
820.184	2857
820.324	2895
820.465	3032
820.605	3020
820.746	2967
820.886	2914
821.026	3116
821.167	3173
821.307	3302
821.447	3253
821.588	3268
821.728	3195
821.868	3207
822.008	3074
822.149	3173
822.289	3241
822.429	3089
822.569	3097
822.709	3161
822.849	3009
822.99	3077
823.13	3157
823.27	3222
823.41	3112
823.55	3116
823.69	3154
823.83	3154
823.97	3085
824.11	3005
824.25	2994
824.389	3108
824.529	3097
824.669	3055
824.809	3176
824.949	3268
825.089	3203
825.228	3188
825.368	3009
825.508	2956
825.648	3009
825.787	3036
825.927	3028
826.067	2971
826.206	2986
826.346	3013
826.485	3085
826.625	3116
826.765	3237
826.904	3214
827.044	3017
827.183	2914
827.323	2849
827.462	3028
827.601	2922
827.741	2906
827.88	2944
828.02	2857
828.159	3001
828.298	3039
828.437	3097
828.577	3070
828.716	3260
828.855	3119
828.994	2918
829.134	2880
829.273	2922
829.412	2914
829.551	2914
829.69	2925
829.829	2998
829.968	3123
830.107	3051
830.246	3108
830.385	2952
830.524	2906
830.663	2849
830.802	2777
830.941	2693
831.08	2701
831.219	2807
831.357	2834
831.496	2971
831.635	2788
831.774	2705
831.913	2663
832.051	2625
832.19	2583
832.329	2743
832.467	2575
832.606	2522
832.744	2629
832.883	2617
833.022	2629
833.16	2674
833.299	2727
833.437	2754
833.576	2724
833.714	2754
833.852	2800
833.991	2785
834.129	2861
834.267	2887
834.406	2838
834.544	2914
834.682	2895
834.821	2883
834.959	3097
835.097	2933
835.235	3104
835.373	3047
835.511	3051
835.65	3009
835.788	3032
835.926	2906
836.064	2819
836.202	2895
836.34	3146
836.478	3169
836.615	3074
836.753	3184
836.891	3264
837.029	3184
837.167	3169
837.305	3131
837.443	3108
837.58	2998
837.718	3173
837.856	3077
837.993	3043
838.131	3142
838.269	3123
838.406	3169
838.544	3112
838.681	2952
838.819	2929
838.956	2883
839.094	2891
839.231	2952
839.369	3066
839.506	3409
839.643	3256
839.781	3024
839.918	3036
840.055	3066
840.193	3081
840.33	3104
840.467	3081
840.604	3184
840.742	3412
840.879	3043
841.016	3081
841.153	3131
841.29	3363
841.427	3306
841.564	3298
841.701	3325
841.838	3279
841.975	3192
842.112	3230
842.249	3138
842.385	3062
842.522	3298
842.659	3074
842.796	3062
842.933	3123
843.069	3077
843.206	3074
843.343	3195
843.479	3165
843.616	3192
843.752	2929
843.889	2941
844.025	3093
844.162	2922
844.298	3116
844.435	2982
844.571	2925
844.708	3093
844.844	3249
844.98	3306
845.117	3249
845.253	3047
845.389	3058
845.525	3150
845.661	3169
845.798	3032
845.934	3184
846.07	3074
846.206	3268
846.342	3348
846.478	3249
846.614	3116
846.75	3058
846.886	3077
847.022	3283
847.158	3165
847.294	3199
847.429	3264
847.565	3264
847.701	3545
847.837	3066
847.972	3024
848.108	3184
848.244	3127
848.379	2994
848.515	2937
848.65	2998
848.786	3020
848.921	3017
849.057	3135
849.192	3195
849.328	3097
849.463	3173
849.598	3070
849.734	3093
849.869	3013
850.004	2971
850.14	3005
850.275	2952
850.41	2895
850.545	2902
850.68	2941
850.815	2986
850.95	3017
851.085	3233
851.22	3157
851.355	3066
851.49	3020
851.625	3043
851.76	3028
851.895	2963
852.03	2910
852.165	3077
852.299	3123
852.434	3211
852.569	3173
852.703	3184
852.838	3279
852.973	3348
853.107	3321
853.242	3165
853.376	3085
853.511	2986
853.645	3032
853.78	3192
853.914	3112
854.048	3138
854.183	3138
854.317	3245
854.451	3310
854.585	3150
854.72	3119
854.854	3253
854.988	3077
855.122	3116
855.256	3020
855.39	3146
855.524	3245
855.658	3176
855.792	3165
855.926	3214
856.06	3241
856.194	3256
856.327	3199
856.461	3127
856.595	3119
856.729	3131
856.862	3260
856.996	3173
857.13	3184
857.263	3237
857.397	3298
857.53	3154
857.664	3188
857.797	3283
857.931	3283
858.064	3184
858.197	3279
858.331	3154
858.464	3135
858.597	3043
858.731	3116
858.864	3138
858.997	3157
859.13	3184
859.263	3180
859.396	3245
859.529	3123
859.662	3058
859.795	3055
859.928	3173
860.061	3306
860.194	3306
860.327	3184
860.46	3131
860.592	3264
860.725	3294
860.858	3256
860.99	3142
861.123	3097
861.256	3066
861.388	3131
861.521	3857
861.653	3055
861.786	2990
861.918	3013
862.05	3085
862.183	3081
862.315	3199
862.447	3218
862.58	3104
862.712	2960
862.844	2922
862.976	3043
863.108	3043
863.24	3359
863.372	2922
863.504	2990
863.636	2982
863.768	3047
863.9	3013
864.032	2910
864.164	2982
864.296	3028
864.428	3074
864.559	3157
864.691	3089
864.823	3062
864.954	3039
865.086	3093
865.217	3020
865.349	2975
865.48	3013
865.612	3062
865.743	3195
865.875	3047
866.006	2963
866.137	2990
866.269	2979
866.4	2982
866.531	2967
866.662	2948
866.793	2914
866.924	2914
867.055	2986
867.186	2899
867.317	2895
867.448	2849
867.579	2899
867.71	2876
867.841	2872
867.972	2933
868.103	2956
868.233	2922
868.364	2891
868.495	2941
868.625	3104
868.756	3195
868.886	2971
869.017	3028
869.147	3199
869.278	3203
869.408	3013
869.539	3047
869.669	3131
869.799	3024
869.929	3169
870.06	3165
870.19	3348
870.32	3310
870.45	3340
870.58	3401
870.71	3488
870.84	3428
870.97	3348
871.1	3260
871.23	3485
871.36	3458
871.489	3351
871.619	3416
871.749	3431
871.879	3462
872.008	3515
872.138	3374
872.267	3283
872.397	3169
872.526	3142
872.656	3020
872.785	3104
872.915	3298
873.044	3348
873.173	3222
873.303	3294
873.432	3260
873.561	3294
873.69	3146
873.819	3161
873.948	3218
874.077	3112
874.206	3093
874.335	3089
874.464	3245
874.593	3412
874.722	3268
874.851	3447
874.979	3428
875.108	3336
875.237	3218
875.365	3188
875.494	3207
875.623	3260
875.751	3108
875.88	3157
876.008	3199
876.136	3260
876.265	3370
876.393	3584
876.521	3462
876.65	3424
876.778	3389
876.906	3268
877.034	3214
877.162	3245
877.29	3230
877.418	3272
877.546	3287
877.674	3233
877.802	3249
877.93	3245
878.058	3173
878.185	3119
878.313	3199
878.441	3230
878.568	3104
878.696	3199
878.824	3287
878.951	3272
879.079	3450
879.206	3682
879.333	3469
879.461	3378
879.588	3340
879.715	3511
879.842	3622
879.97	3401
880.097	3218
880.224	3135
880.351	3211
880.478	3211
880.605	3176
880.732	3222
880.859	3469
880.986	3348
881.112	3344
881.239	3226
881.366	3138
881.493	3047
881.619	3032
881.746	3138
881.872	3108
881.999	3104
882.125	3195
882.252	3249
882.378	3329
882.505	3458
882.631	3298
882.757	3138
882.883	3188
883.01	3241
883.136	3180
883.262	3127
883.388	3131
883.514	3317
883.64	3397
883.766	3336
883.892	3218
884.018	3264
884.143	3443
884.269	3564
884.395	3214
884.52	3157
884.646	3226
884.772	3119
884.897	3066
885.023	3203
885.148	3313
885.274	3447
885.399	3374
885.524	3283
885.65	3313
885.775	3348
885.9	3321
886.025	3462
886.15	3374
886.275	3336
886.4	3260
886.525	3317
886.65	3279
886.775	3283
886.9	3511
887.025	3667
887.149	3405
887.274	3317
887.399	3199
887.523	3188
887.648	3192
887.773	3203
887.897	3336
888.021	3412
888.146	3317
888.27	3439
888.395	3526
888.519	3450
888.643	3462
888.767	3466
888.891	3325
889.015	3283
889.139	3287
889.263	3253
889.387	3409
889.511	3519
889.635	3450
889.759	3302
889.883	3306
890.006	3389
890.13	3485
890.254	3260
890.377	3355
890.501	3173
890.624	3146
890.748	3287
890.871	3188
890.995	3138
891.118	3051
891.241	3184
891.364	3222
891.488	3313
891.611	3203
891.734	3272
891.857	3329
891.98	3245
892.103	3370
892.226	3287
892.349	3264
892.471	3138
892.594	3230
892.717	3348
892.839	3256
892.962	3298
893.085	3344
893.207	3310
893.33	3230
893.452	3169
893.575	3325
893.697	3222
893.819	3473
893.941	3545
894.064	3462
894.186	3310
894.308	3256
894.43	3447
894.552	3542
894.674	3488
894.796	3268
894.918	3321
895.04	3302
895.161	3431
895.283	3443
895.405	3340
895.526	3348
895.648	3473
895.769	3428
895.891	3443
896.012	3462
896.134	3466
896.255	3420
896.376	3393
896.498	3317
896.619	3401
896.74	3363
896.861	3389
896.982	3713
897.103	3850
897.224	3614
897.345	3545
897.466	3439
897.587	3496
897.708	3622
897.828	3561
897.949	3424
898.07	3382
898.19	3450
898.311	3595
898.431	3469
898.552	3538
898.672	3599
898.792	3580
898.913	3500
899.033	3458
899.153	3287
899.273	3249
899.393	3268
899.513	3332
899.633	3294
899.753	3340
899.873	3310
899.993	3393
900.113	3340
900.232	3367
900.352	3344
900.472	3294
900.591	3184
900.711	3298
900.83	3256
900.95	3405
901.069	3507
901.189	3329
901.308	3230
901.427	3138
901.546	3195
901.665	3298
901.784	3340
901.904	3180
902.023	3169
902.141	3013
902.26	2982
902.379	3108
902.498	3074
902.617	3058
902.735	3241
902.854	3237
902.973	3211
903.091	3051
903.21	3058
903.328	3180
903.446	3131
903.565	3123
903.683	3211
903.801	3138
903.919	3256
904.038	3317
904.156	3211
904.274	3291
904.392	3264
904.51	3336
904.627	3386
904.745	3454
904.863	3507
904.981	3298
905.098	3214
905.216	3253
905.334	3313
905.451	3321
905.569	3313
905.686	3409
905.803	3416
905.921	3313
906.038	3439
906.155	3329
906.272	3260
906.389	3359
906.506	3260
906.623	3249
906.74	3310
906.857	3176
906.974	3253
907.091	3466
907.208	3587
907.324	3530
907.441	3367
907.557	3226
907.674	3226
907.79	3192
907.907	3256
908.023	3393
908.139	3367
908.256	3325
908.372	3378
908.488	3344
908.604	3260
908.72	3222
908.836	3287
908.952	3260
909.068	3348
909.184	3469
909.3	3409
909.415	3485
909.531	3507
909.647	3275
909.762	3291
909.878	3264
909.993	3325
910.108	3317
910.224	3340
910.339	3435
910.454	3344
910.57	3298
910.685	3249
910.8	3648
910.915	3538
911.03	3496
911.145	3279
911.259	3287
911.374	3351
911.489	3253
911.604	3241
911.718	3108
911.833	3173
911.947	3024
912.062	2990
912.176	3165
912.291	3188
912.405	3218
912.519	3439
912.633	3458
912.748	3386
912.862	3275
912.976	3195
913.09	3036
913.204	3157
913.318	3268
913.431	3340
913.545	3310
913.659	3412
913.772	3344
913.886	3249
914	3211
914.113	3386
914.226	3393
914.34	3374
914.453	3253
914.566	3397
914.68	3298
914.793	3298
914.906	3138
915.019	3146
915.132	3066
915.245	3176
915.358	3207
915.47	3256
915.583	3302
915.696	3310
915.809	3409
915.921	3386
916.034	3268
916.146	3237
916.259	3241
916.371	3416
916.483	3355
916.595	3272
916.708	3340
916.82	3332
916.932	3363
917.044	3336
917.156	3340
917.268	3264
917.38	3298
917.491	3344
917.603	3351
917.715	3424
917.826	3473
917.938	3428
918.049	3294
918.161	3382
918.272	3580
918.384	3561
918.495	3496
918.606	3340
918.717	3298
918.828	3405
918.939	3443
919.05	3325
919.161	3393
919.272	3184
919.383	3283
919.494	3549
919.604	3690
919.715	3492
919.826	3397
919.936	3466
920.047	3584
920.157	3526
920.267	3778
920.378	3629
920.488	3557
920.598	3762
920.708	3949
920.818	3838
920.928	3827
921.038	4051
921.148	4013
921.258	3728
921.368	3633
921.477	3618
921.587	3576
921.697	3481
921.806	3625
921.916	3545
922.025	3363
922.134	3370
922.244	3351
922.353	3424
922.462	3245
922.571	3237
922.68	3123
922.789	3074
922.898	3123
923.007	3066
923.116	3207
923.224	3180
923.333	3184
923.442	3127
923.55	3127
923.659	3176
923.767	3184
923.876	3116
923.984	3233
924.092	3100
924.201	3207
924.309	3199
924.417	3264
924.525	3180
924.633	3211
924.741	4158
924.849	3032
924.956	3298
925.064	3108
925.172	3020
925.279	3138
925.387	3192
925.494	3176
925.602	3348
925.709	3359
925.816	3211
925.924	3283
926.031	3397
926.138	3355
926.245	3351
926.352	3203
926.459	3443
926.566	3473
926.673	3363
926.779	3233
926.886	3279
926.993	3173
927.099	3142
927.206	3116
927.312	3112
927.419	3207
927.525	3180
927.631	3233
927.737	3123
927.843	3138
927.95	3024
928.056	3108
928.162	3169
928.267	3233
928.373	3854
928.479	3256
928.585	3093
928.69	3211
928.796	3272
928.901	3154
929.007	3036
929.112	3237
929.218	3195
929.323	3157
929.428	3169
929.533	3317
929.638	3127
929.743	3180
929.848	3260
929.953	3237
930.058	3146
930.163	2994
930.267	3039
930.372	3226
930.477	3043
930.581	3359
930.685	3154
930.79	3062
930.894	3112
930.998	3085
931.103	3253
931.207	2948
931.311	2933
931.415	2937
931.519	2769
931.623	2804
