Data from test_V78500241_1870.txt Node
Date: Fri Mar 25 16:28:09 CST 2022
User: usil
Spectrometer: V785-0024
Trigger mode: 0
Integration Time (sec): 4.000000E-1
Scans to average: 1
Nonlinearity correction enabled: false
Boxcar width: 0
Storing dark spectrum: false
XAxis mode: Wavelengths
Number of Pixels in Spectrum: 1024
>>>>>Begin Spectral Data<<<<<
801.071	2910
801.214	2910
801.356	2823
801.499	2922
801.641	2887
801.783	2914
801.926	3013
802.068	2963
802.211	3001
802.353	3024
802.496	2937
802.638	3013
802.78	3047
802.923	3058
803.065	3009
803.208	2887
803.35	2891
803.492	2906
803.635	2895
803.777	2746
803.919	2849
804.061	3154
804.204	2960
804.346	2883
804.488	2815
804.63	3024
804.773	2872
804.915	2906
805.057	3058
805.199	2929
805.341	2986
805.483	3024
805.626	2994
805.768	2933
805.91	3051
806.052	3100
806.194	3017
806.336	3218
806.478	2998
806.62	2948
806.762	2944
806.904	3024
807.046	3161
807.188	2960
807.33	2910
807.472	2979
807.614	2902
807.756	2952
807.898	2902
808.04	2883
808.182	2971
808.324	2967
808.465	2880
808.607	2861
808.749	2800
808.891	2845
809.033	2975
809.174	2982
809.316	2906
809.458	2834
809.6	2750
809.741	2754
809.883	2773
810.025	2823
810.166	2861
810.308	2823
810.45	2834
810.591	2750
810.733	2750
810.875	2815
811.016	2804
811.158	2773
811.299	2796
811.441	2895
811.582	2899
811.724	2819
811.865	2811
812.007	2914
812.148	2880
812.29	2861
812.431	2857
812.573	2975
812.714	2982
812.855	3024
812.997	3039
813.138	3135
813.279	2975
813.421	2975
813.562	2952
813.703	2830
813.845	2876
813.986	2781
814.127	2743
814.268	2838
814.41	2853
814.551	2796
814.692	2887
814.833	2823
814.974	2933
815.115	2956
815.256	2792
815.397	2804
815.539	2857
815.68	2773
815.821	2773
815.962	2922
816.103	2948
816.244	2887
816.385	2853
816.526	2956
816.666	2922
816.807	2724
816.948	2872
817.089	2902
817.23	2842
817.371	2769
817.512	2788
817.653	2868
817.793	2807
817.934	2868
818.075	2967
818.216	3024
818.356	3039
818.497	2891
818.638	2781
818.778	2811
818.919	2785
819.06	2766
819.2	2880
819.341	2804
819.481	2785
819.622	2944
819.762	3085
819.903	3032
820.043	2872
820.184	2914
820.324	2891
820.465	3017
820.605	3024
820.746	3001
820.886	2937
821.026	3077
821.167	3116
821.307	3230
821.447	3260
821.588	3218
821.728	3188
821.868	3154
822.008	3081
822.149	3169
822.289	3195
822.429	3077
822.569	3070
822.709	3176
822.849	3047
822.99	3058
823.13	3165
823.27	3157
823.41	3123
823.55	3169
823.69	3123
823.83	3169
823.97	3085
824.11	2967
824.25	2971
824.389	3051
824.529	3131
824.669	3047
824.809	3211
824.949	3260
825.089	3226
825.228	3173
825.368	2994
825.508	2922
825.648	2986
825.787	3039
825.927	3024
826.067	2960
826.206	2925
826.346	3032
826.485	3081
826.625	3100
826.765	3233
826.904	3222
827.044	2982
827.183	2918
827.323	2857
827.462	2982
827.601	2925
827.741	2937
827.88	2933
828.02	2845
828.159	2994
828.298	3005
828.437	3116
828.577	3020
828.716	3279
828.855	3058
828.994	2887
829.134	2864
829.273	2929
829.412	2891
829.551	2823
829.69	2891
829.829	2956
829.968	3165
830.107	3009
830.246	3036
830.385	2895
830.524	2887
830.663	2792
830.802	2720
830.941	2640
831.08	2613
831.219	2766
831.357	2785
831.496	2979
831.635	2701
831.774	2640
831.913	2621
832.051	2511
832.19	2598
832.329	2712
832.467	2560
832.606	2469
832.744	2560
832.883	2571
833.022	2579
833.16	2617
833.299	2667
833.437	2724
833.576	2651
833.714	2716
833.852	2705
833.991	2796
834.129	2811
834.267	2834
834.406	2785
834.544	2887
834.682	2864
834.821	2842
834.959	3039
835.097	2891
835.235	3017
835.373	3013
835.511	2994
835.65	2982
835.788	2948
835.926	2830
836.064	2792
836.202	2842
836.34	3081
836.478	3169
836.615	3039
836.753	3097
836.891	3184
837.029	3119
837.167	3085
837.305	3062
837.443	3043
837.58	2979
837.718	3093
837.856	3074
837.993	3036
838.131	3116
838.269	3097
838.406	3123
838.544	3062
838.681	2956
838.819	2933
838.956	2796
839.094	2800
839.231	2895
839.369	2967
839.506	3367
839.643	3207
839.781	3051
839.918	2979
840.055	3036
840.193	3058
840.33	3104
840.467	3108
840.604	3146
840.742	3386
840.879	3058
841.016	3005
841.153	3154
841.29	3325
841.427	3294
841.564	3264
841.701	3325
841.838	3230
841.975	3127
842.112	3176
842.249	3062
842.385	3020
842.522	3237
842.659	3108
842.796	3055
842.933	3093
843.069	3028
843.206	3047
843.343	3214
843.479	3085
843.616	3150
843.752	2880
843.889	2861
844.025	3070
844.162	2887
844.298	3070
844.435	2922
844.571	2933
844.708	3077
844.844	3157
844.98	3260
845.117	3157
845.253	3036
845.389	2994
845.525	3074
845.661	3066
845.798	2963
845.934	3112
846.07	3058
846.206	3233
846.342	3329
846.478	3226
846.614	3066
846.75	3089
846.886	3024
847.022	3249
847.158	3142
847.294	3192
847.429	3207
847.565	3199
847.701	3500
847.837	3017
847.972	2986
848.108	3154
848.244	3116
848.379	2979
848.515	2925
848.65	2975
848.786	2960
848.921	2960
849.057	3074
849.192	3165
849.328	3119
849.463	3085
849.598	3051
849.734	3043
849.869	2948
850.004	2914
850.14	2982
850.275	2906
850.41	2838
850.545	2887
850.68	2933
850.815	2956
850.95	2948
851.085	3211
851.22	3097
851.355	3024
851.49	2994
851.625	2990
851.76	3017
851.895	2937
852.03	2899
852.165	3028
852.299	3104
852.434	3173
852.569	3161
852.703	3188
852.838	3253
852.973	3382
853.107	3310
853.242	3127
853.376	3093
853.511	2952
853.645	3055
853.78	3245
853.914	3142
854.048	3104
854.183	3077
854.317	3161
854.451	3287
854.585	3089
854.72	3097
854.854	3203
854.988	3058
855.122	3093
855.256	2952
855.39	3146
855.524	3275
855.658	3188
855.792	3116
855.926	3195
856.06	3233
856.194	3287
856.327	3169
856.461	3055
856.595	3089
856.729	3100
856.862	3184
856.996	3131
857.13	3184
857.263	3222
857.397	3245
857.53	3127
857.664	3203
857.797	3233
857.931	3264
858.064	3173
858.197	3184
858.331	3123
858.464	3119
858.597	3001
858.731	3104
858.864	3123
858.997	3123
859.13	3157
859.263	3173
859.396	3211
859.529	3100
859.662	3062
859.795	3024
859.928	3116
860.061	3260
860.194	3279
860.327	3123
860.46	3062
860.592	3230
860.725	3218
860.858	3237
860.99	3081
861.123	3024
861.256	3047
861.388	3100
861.521	3789
861.653	2994
861.786	2975
861.918	2956
862.05	3077
862.183	3062
862.315	3127
862.447	3180
862.58	3085
862.712	2975
862.844	2849
862.976	3001
863.108	2975
863.24	3313
863.372	2868
863.504	2960
863.636	2944
863.768	2990
863.9	2960
864.032	2887
864.164	2929
864.296	2994
864.428	3066
864.559	3085
864.691	3032
864.823	2994
864.954	3009
865.086	3032
865.217	2994
865.349	2937
865.48	2986
865.612	3009
865.743	3116
865.875	2963
866.006	2971
866.137	3001
866.269	2918
866.4	2899
866.531	2910
866.662	2864
866.793	2906
866.924	2929
867.055	2952
867.186	2929
867.317	2861
867.448	2838
867.579	2868
867.71	2864
867.841	2842
867.972	2899
868.103	2910
868.233	2872
868.364	2842
868.495	2876
868.625	3070
868.756	3150
868.886	2979
869.017	3005
869.147	3138
869.278	3135
869.408	3047
869.539	3020
869.669	3135
869.799	3043
869.929	3146
870.06	3066
870.19	3351
870.32	3256
870.45	3317
870.58	3374
870.71	3488
870.84	3428
870.97	3279
871.1	3226
871.23	3443
871.36	3481
871.489	3329
871.619	3416
871.749	3378
871.879	3405
872.008	3431
872.138	3302
872.267	3245
872.397	3127
872.526	3066
872.656	3001
872.785	3066
872.915	3256
873.044	3287
873.173	3211
873.303	3222
873.432	3256
873.561	3184
873.69	3199
873.819	3135
873.948	3180
874.077	3085
874.206	3051
874.335	3093
874.464	3184
874.593	3317
874.722	3245
874.851	3382
874.979	3325
875.108	3302
875.237	3180
875.365	3180
875.494	3180
875.623	3268
875.751	3093
875.88	3100
876.008	3169
876.136	3230
876.265	3313
876.393	3492
876.521	3420
876.65	3374
876.778	3348
876.906	3230
877.034	3180
877.162	3241
877.29	3199
877.418	3207
877.546	3203
877.674	3249
877.802	3203
877.93	3211
878.058	3173
878.185	3081
878.313	3142
878.441	3230
878.568	3036
878.696	3112
878.824	3226
878.951	3256
879.079	3454
879.206	3606
879.333	3416
879.461	3294
879.588	3317
879.715	3485
879.842	3538
879.97	3351
880.097	3131
880.224	3119
880.351	3150
880.478	3214
880.605	3176
880.732	3161
880.859	3485
880.986	3310
881.112	3329
881.239	3176
881.366	3093
881.493	3020
881.619	3020
881.746	3051
881.872	3085
881.999	3100
882.125	3127
882.252	3195
882.378	3260
882.505	3405
882.631	3287
882.757	3123
882.883	3214
883.01	3188
883.136	3173
883.262	3051
883.388	3077
883.514	3325
883.64	3378
883.766	3283
883.892	3188
884.018	3241
884.143	3389
884.269	3549
884.395	3192
884.52	3192
884.646	3165
884.772	3150
884.897	3066
885.023	3214
885.148	3317
885.274	3389
885.399	3306
885.524	3268
885.65	3211
885.775	3321
885.9	3272
886.025	3382
886.15	3374
886.275	3298
886.4	3237
886.525	3306
886.65	3249
886.775	3249
886.9	3488
887.025	3580
887.149	3378
887.274	3192
887.399	3131
887.523	3195
887.648	3138
887.773	3188
887.897	3363
888.021	3363
888.146	3287
888.27	3401
888.395	3488
888.519	3389
888.643	3466
888.767	3435
888.891	3275
889.015	3211
889.139	3291
889.263	3222
889.387	3389
889.511	3481
889.635	3466
889.759	3272
889.883	3264
890.006	3363
890.13	3488
890.254	3256
890.377	3348
890.501	3135
890.624	3165
890.748	3287
890.871	3211
890.995	3089
891.118	3058
891.241	3203
891.364	3192
891.488	3317
891.611	3173
891.734	3207
891.857	3302
891.98	3188
892.103	3329
892.226	3294
892.349	3253
892.471	3093
892.594	3279
892.717	3302
892.839	3268
892.962	3306
893.085	3355
893.207	3310
893.33	3169
893.452	3188
893.575	3359
893.697	3268
893.819	3500
893.941	3530
894.064	3450
894.186	3268
894.308	3279
894.43	3466
894.552	3526
894.674	3496
894.796	3302
894.918	3370
895.04	3351
895.161	3450
895.283	3397
895.405	3313
895.526	3374
895.648	3450
895.769	3454
895.891	3477
896.012	3553
896.134	3526
896.255	3454
896.376	3389
896.498	3389
896.619	3458
896.74	3389
896.861	3401
896.982	3743
897.103	3896
897.224	3625
897.345	3542
897.466	3469
897.587	3542
897.708	3682
897.828	3572
897.949	3485
898.07	3382
898.19	3439
898.311	3667
898.431	3420
898.552	3542
898.672	3625
898.792	3568
898.913	3557
899.033	3443
899.153	3340
899.273	3260
899.393	3287
899.513	3348
899.633	3370
899.753	3397
899.873	3332
899.993	3389
900.113	3348
900.232	3378
900.352	3389
900.472	3329
900.591	3245
900.711	3321
900.83	3260
900.95	3439
901.069	3549
901.189	3340
901.308	3249
901.427	3199
901.546	3211
901.665	3344
901.784	3370
901.904	3264
902.023	3142
902.141	3066
902.26	3058
902.379	3161
902.498	3097
902.617	3131
902.735	3218
902.854	3260
902.973	3241
903.091	3089
903.21	3123
903.328	3150
903.446	3131
903.565	3131
903.683	3230
903.801	3157
903.919	3294
904.038	3306
904.156	3188
904.274	3275
904.392	3275
904.51	3298
904.627	3351
904.745	3424
904.863	3511
904.981	3317
905.098	3192
905.216	3249
905.334	3344
905.451	3317
905.569	3344
905.686	3469
905.803	3443
905.921	3336
906.038	3466
906.155	3389
906.272	3291
906.389	3389
906.506	3298
906.623	3298
906.74	3317
906.857	3245
906.974	3294
907.091	3504
907.208	3599
907.324	3507
907.441	3454
907.557	3253
907.674	3249
907.79	3237
907.907	3332
908.023	3466
908.139	3389
908.256	3344
908.372	3386
908.488	3378
908.604	3279
908.72	3313
908.836	3302
908.952	3291
909.068	3348
909.184	3511
909.3	3405
909.415	3561
909.531	3450
909.647	3306
909.762	3317
909.878	3279
909.993	3363
910.108	3351
910.224	3329
910.339	3458
910.454	3317
910.57	3302
910.685	3287
910.8	3637
910.915	3572
911.03	3420
911.145	3294
911.259	3310
911.374	3310
911.489	3237
911.604	3253
911.718	3119
911.833	3211
911.947	3032
912.062	3017
912.176	3203
912.291	3195
912.405	3268
912.519	3454
912.633	3504
912.748	3332
912.862	3325
912.976	3176
913.09	3104
913.204	3165
913.318	3214
913.431	3340
913.545	3393
913.659	3431
913.772	3351
913.886	3272
914	3214
914.113	3348
914.226	3447
914.34	3367
914.453	3218
914.566	3447
914.68	3317
914.793	3374
914.906	3157
915.019	3161
915.132	3100
915.245	3222
915.358	3233
915.47	3275
915.583	3294
915.696	3287
915.809	3454
915.921	3439
916.034	3287
916.146	3294
916.259	3268
916.371	3443
916.483	3386
916.595	3283
916.708	3389
916.82	3313
916.932	3367
917.044	3382
917.156	3409
917.268	3291
917.38	3355
917.491	3294
917.603	3409
917.715	3469
917.826	3519
917.938	3389
918.049	3313
918.161	3420
918.272	3648
918.384	3564
918.495	3507
918.606	3370
918.717	3306
918.828	3416
918.939	3431
919.05	3351
919.161	3367
919.272	3226
919.383	3310
919.494	3481
919.604	3740
919.715	3492
919.826	3477
919.936	3454
920.047	3618
920.157	3564
920.267	3778
920.378	3595
920.488	3595
920.598	3797
920.708	3964
920.818	3835
920.928	3903
921.038	4040
921.148	4006
921.258	3724
921.368	3690
921.477	3637
921.587	3599
921.697	3526
921.806	3705
921.916	3545
922.025	3344
922.134	3382
922.244	3355
922.353	3454
922.462	3317
922.571	3222
922.68	3165
922.789	3085
922.898	3154
923.007	3104
923.116	3249
923.224	3184
923.333	3203
923.442	3123
923.55	3070
923.659	3169
923.767	3241
923.876	3146
923.984	3233
924.092	3131
924.201	3249
924.309	3256
924.417	3287
924.525	3222
924.633	3268
924.741	4021
924.849	3085
924.956	3317
925.064	3138
925.172	3093
925.279	3176
925.387	3211
925.494	3214
925.602	3393
925.709	3355
925.816	3207
925.924	3302
926.031	3416
926.138	3348
926.245	3370
926.352	3249
926.459	3431
926.566	3500
926.673	3355
926.779	3283
926.886	3264
926.993	3154
927.099	3180
927.206	3161
927.312	3127
927.419	3241
927.525	3256
927.631	3332
927.737	3161
927.843	3127
927.95	3032
928.056	3161
928.162	3188
928.267	3272
928.373	3808
928.479	3332
928.585	3097
928.69	3199
928.796	3272
928.901	3180
929.007	3066
929.112	3260
929.218	3195
929.323	3199
929.428	3157
929.533	3367
929.638	3142
929.743	3188
929.848	3306
929.953	3233
930.058	3233
930.163	3005
930.267	3066
930.372	3233
930.477	3089
930.581	3340
930.685	3176
930.79	3112
930.894	3142
930.998	3116
931.103	3332
931.207	2975
931.311	2948
931.415	2891
931.519	2788
931.623	2830
