Data from test_V78500241_1713.txt Node
Date: Fri Mar 25 16:27:04 CST 2022
User: usil
Spectrometer: V785-0024
Trigger mode: 0
Integration Time (sec): 4.000000E-1
Scans to average: 1
Nonlinearity correction enabled: false
Boxcar width: 0
Storing dark spectrum: false
XAxis mode: Wavelengths
Number of Pixels in Spectrum: 1024
>>>>>Begin Spectral Data<<<<<
801.071	2880
801.214	2967
801.356	2880
801.499	2902
801.641	2868
801.783	2918
801.926	3070
802.068	2975
802.211	3055
802.353	3047
802.496	2952
802.638	3005
802.78	3032
802.923	3066
803.065	2994
803.208	2876
803.35	2902
803.492	2891
803.635	2956
803.777	2762
803.919	2868
804.061	3199
804.204	2925
804.346	2902
804.488	2857
804.63	2975
804.773	2845
804.915	2902
805.057	3062
805.199	2933
805.341	3009
805.483	2994
805.626	2990
805.768	2967
805.91	3058
806.052	3142
806.194	3039
806.336	3218
806.478	3028
806.62	2956
806.762	2979
806.904	3085
807.046	3146
807.188	2979
807.33	2891
807.472	2963
807.614	2914
807.756	2982
807.898	2941
808.04	2906
808.182	2982
808.324	2902
808.465	2883
808.607	2880
808.749	2769
808.891	2849
809.033	2956
809.174	2975
809.316	2899
809.458	2914
809.6	2758
809.741	2739
809.883	2773
810.025	2868
810.166	2849
810.308	2830
810.45	2876
810.591	2743
810.733	2750
810.875	2838
811.016	2754
811.158	2766
811.299	2834
811.441	2933
811.582	2887
811.724	2853
811.865	2861
812.007	2933
812.148	2853
812.29	2864
812.431	2887
812.573	2910
812.714	2925
812.855	3028
812.997	3039
813.138	3131
813.279	2990
813.421	2982
813.562	2975
813.703	2876
813.845	2883
813.986	2792
814.127	2743
814.268	2811
814.41	2838
814.551	2807
814.692	2872
814.833	2804
814.974	2906
815.115	2914
815.256	2849
815.397	2807
815.539	2868
815.68	2766
815.821	2811
815.962	2937
816.103	2944
816.244	2834
816.385	2876
816.526	2952
816.666	2929
816.807	2758
816.948	2895
817.089	2895
817.23	2830
817.371	2788
817.512	2777
817.653	2838
817.793	2804
817.934	2880
818.075	2963
818.216	2944
818.356	2986
818.497	2906
818.638	2754
818.778	2807
818.919	2800
819.06	2746
819.2	2880
819.341	2834
819.481	2811
819.622	2883
819.762	3085
819.903	2990
820.043	2937
820.184	2902
820.324	2910
820.465	3013
820.605	3028
820.746	3043
820.886	2925
821.026	3074
821.167	3146
821.307	3283
821.447	3260
821.588	3226
821.728	3154
821.868	3192
822.008	3066
822.149	3169
822.289	3222
822.429	3085
822.569	3066
822.709	3154
822.849	3032
822.99	3047
823.13	3188
823.27	3199
823.41	3112
823.55	3142
823.69	3123
823.83	3180
823.97	3097
824.11	3017
824.25	3024
824.389	3043
824.529	3108
824.669	3070
824.809	3199
824.949	3199
825.089	3218
825.228	3154
825.368	3024
825.508	2952
825.648	2967
825.787	3009
825.927	3013
826.067	2956
826.206	2941
826.346	3039
826.485	3043
826.625	3089
826.765	3268
826.904	3165
827.044	2967
827.183	2933
827.323	2887
827.462	2990
827.601	2910
827.741	2914
827.88	2933
828.02	2815
828.159	3001
828.298	3028
828.437	3097
828.577	3020
828.716	3249
828.855	3047
828.994	2914
829.134	2868
829.273	2895
829.412	2853
829.551	2830
829.69	2883
829.829	2986
829.968	3142
830.107	3013
830.246	3020
830.385	2887
830.524	2902
830.663	2826
830.802	2766
830.941	2670
831.08	2636
831.219	2758
831.357	2724
831.496	2933
831.635	2697
831.774	2651
831.913	2648
832.051	2552
832.19	2579
832.329	2678
832.467	2488
832.606	2469
832.744	2560
832.883	2568
833.022	2568
833.16	2636
833.299	2640
833.437	2670
833.576	2682
833.714	2724
833.852	2724
833.991	2792
834.129	2834
834.267	2807
834.406	2769
834.544	2872
834.682	2891
834.821	2861
834.959	3062
835.097	2906
835.235	3036
835.373	2971
835.511	3001
835.65	2967
835.788	2929
835.926	2838
836.064	2781
836.202	2838
836.34	3066
836.478	3146
836.615	3032
836.753	3100
836.891	3165
837.029	3157
837.167	3123
837.305	3051
837.443	3024
837.58	2960
837.718	3108
837.856	3017
837.993	3013
838.131	3081
838.269	3100
838.406	3108
838.544	3062
838.681	2914
838.819	2933
838.956	2743
839.094	2826
839.231	2929
839.369	3020
839.506	3336
839.643	3211
839.781	3028
839.918	2944
840.055	3077
840.193	3032
840.33	3066
840.467	3100
840.604	3116
840.742	3393
840.879	3032
841.016	3055
841.153	3093
841.29	3344
841.427	3256
841.564	3241
841.701	3325
841.838	3195
841.975	3192
842.112	3245
842.249	3058
842.385	3013
842.522	3226
842.659	3066
842.796	3020
842.933	3146
843.069	3047
843.206	3028
843.343	3195
843.479	3104
843.616	3157
843.752	2887
843.889	2861
844.025	3066
844.162	2876
844.298	3100
844.435	2929
844.571	2906
844.708	3036
844.844	3195
844.98	3203
845.117	3176
845.253	3017
845.389	3005
845.525	3081
845.661	3070
845.798	2986
845.934	3161
846.07	3074
846.206	3218
846.342	3291
846.478	3203
846.614	3051
846.75	2994
846.886	3024
847.022	3207
847.158	3135
847.294	3203
847.429	3207
847.565	3199
847.701	3431
847.837	3001
847.972	2956
848.108	3150
848.244	3138
848.379	3001
848.515	2952
848.65	2952
848.786	2967
848.921	2990
849.057	3077
849.192	3165
849.328	3032
849.463	3081
849.598	3081
849.734	3032
849.869	2960
850.004	2857
850.14	2967
850.275	2910
850.41	2819
850.545	2872
850.68	2914
850.815	2952
850.95	2952
851.085	3188
851.22	3112
851.355	3066
851.49	2952
851.625	2982
851.76	3009
851.895	2872
852.03	2910
852.165	3001
852.299	3100
852.434	3161
852.569	3112
852.703	3154
852.838	3253
852.973	3367
853.107	3332
853.242	3154
853.376	3074
853.511	2967
853.645	3024
853.78	3195
853.914	3119
854.048	3135
854.183	3070
854.317	3154
854.451	3291
854.585	3169
854.72	3051
854.854	3218
854.988	3020
855.122	3058
855.256	2960
855.39	3142
855.524	3226
855.658	3123
855.792	3127
855.926	3188
856.06	3256
856.194	3264
856.327	3173
856.461	3077
856.595	3070
856.729	3058
856.862	3184
856.996	3184
857.13	3214
857.263	3226
857.397	3283
857.53	3070
857.664	3180
857.797	3241
857.931	3279
858.064	3184
858.197	3188
858.331	3119
858.464	3077
858.597	3017
858.731	3085
858.864	3104
858.997	3020
859.13	3119
859.263	3161
859.396	3214
859.529	3066
859.662	3043
859.795	3062
859.928	3119
860.061	3218
860.194	3287
860.327	3131
860.46	3085
860.592	3222
860.725	3241
860.858	3233
860.99	3100
861.123	3055
861.256	3043
861.388	3165
861.521	3896
861.653	2986
861.786	2948
861.918	2979
862.05	3043
862.183	3062
862.315	3104
862.447	3203
862.58	3074
862.712	2960
862.844	2857
862.976	3043
863.108	2967
863.24	3420
863.372	2857
863.504	2975
863.636	2948
863.768	2990
863.9	2990
864.032	2891
864.164	2937
864.296	2998
864.428	3081
864.559	3119
864.691	3020
864.823	3062
864.954	3028
865.086	3077
865.217	2982
865.349	2963
865.48	2975
865.612	2990
865.743	3161
865.875	2922
866.006	2933
866.137	2933
866.269	2922
866.4	2929
866.531	2891
866.662	2933
866.793	2857
866.924	2883
867.055	2963
867.186	2914
867.317	2891
867.448	2838
867.579	2849
867.71	2857
867.841	2781
867.972	2960
868.103	2853
868.233	2857
868.364	2880
868.495	2899
868.625	3074
868.756	3142
868.886	2960
869.017	3005
869.147	3176
869.278	3135
869.408	3039
869.539	2986
869.669	3116
869.799	3013
869.929	3127
870.06	3077
870.19	3249
870.32	3260
870.45	3283
870.58	3344
870.71	3428
870.84	3431
870.97	3268
871.1	3203
871.23	3454
871.36	3477
871.489	3348
871.619	3370
871.749	3435
871.879	3450
872.008	3462
872.138	3344
872.267	3241
872.397	3154
872.526	3081
872.656	3013
872.785	3062
872.915	3199
873.044	3302
873.173	3211
873.303	3249
873.432	3199
873.561	3195
873.69	3180
873.819	3150
873.948	3230
874.077	3116
874.206	3036
874.335	3085
874.464	3203
874.593	3378
874.722	3245
874.851	3386
874.979	3355
875.108	3321
875.237	3195
875.365	3176
875.494	3173
875.623	3245
875.751	3097
875.88	3154
876.008	3173
876.136	3203
876.265	3367
876.393	3477
876.521	3462
876.65	3405
876.778	3348
876.906	3249
877.034	3249
877.162	3264
877.29	3176
877.418	3287
877.546	3245
877.674	3253
877.802	3268
877.93	3222
878.058	3180
878.185	3146
878.313	3214
878.441	3203
878.568	3104
878.696	3123
878.824	3298
878.951	3340
879.079	3439
879.206	3641
879.333	3481
879.461	3332
879.588	3409
879.715	3507
879.842	3656
879.97	3458
880.097	3230
880.224	3138
880.351	3245
880.478	3283
880.605	3222
880.732	3226
880.859	3545
880.986	3321
881.112	3374
881.239	3230
881.366	3142
881.493	3100
881.619	3070
881.746	3116
881.872	3146
881.999	3127
882.125	3203
882.252	3298
882.378	3351
882.505	3473
882.631	3306
882.757	3188
882.883	3264
883.01	3245
883.136	3180
883.262	3146
883.388	3142
883.514	3389
883.64	3435
883.766	3348
883.892	3241
884.018	3268
884.143	3428
884.269	3584
884.395	3249
884.52	3207
884.646	3241
884.772	3180
884.897	3135
885.023	3233
885.148	3359
885.274	3443
885.399	3378
885.524	3294
885.65	3275
885.775	3382
885.9	3325
886.025	3458
886.15	3397
886.275	3294
886.4	3264
886.525	3351
886.65	3283
886.775	3264
886.9	3538
887.025	3660
887.149	3412
887.274	3253
887.399	3184
887.523	3264
887.648	3241
887.773	3230
887.897	3454
888.021	3420
888.146	3321
888.27	3450
888.395	3549
888.519	3473
888.643	3466
888.767	3530
888.891	3336
889.015	3253
889.139	3348
889.263	3249
889.387	3435
889.511	3572
889.635	3466
889.759	3317
889.883	3340
890.006	3431
890.13	3561
890.254	3351
890.377	3363
890.501	3226
890.624	3214
890.748	3306
890.871	3188
890.995	3135
891.118	3089
891.241	3249
891.364	3237
891.488	3340
891.611	3222
891.734	3249
891.857	3294
891.98	3272
892.103	3359
892.226	3310
892.349	3218
892.471	3142
892.594	3283
892.717	3325
892.839	3268
892.962	3325
893.085	3386
893.207	3329
893.33	3184
893.452	3218
893.575	3378
893.697	3283
893.819	3515
893.941	3496
894.064	3485
894.186	3321
894.308	3264
894.43	3485
894.552	3549
894.674	3500
894.796	3275
894.918	3325
895.04	3336
895.161	3473
895.283	3405
895.405	3325
895.526	3397
895.648	3431
895.769	3431
895.891	3507
896.012	3526
896.134	3485
896.255	3405
896.376	3424
896.498	3393
896.619	3473
896.74	3409
896.861	3500
896.982	3720
897.103	3857
897.224	3652
897.345	3504
897.466	3462
897.587	3511
897.708	3648
897.828	3584
897.949	3443
898.07	3382
898.19	3450
898.311	3618
898.431	3481
898.552	3488
898.672	3584
898.792	3599
898.913	3538
899.033	3443
899.153	3317
899.273	3272
899.393	3325
899.513	3367
899.633	3355
899.753	3351
899.873	3340
899.993	3416
900.113	3382
900.232	3435
900.352	3355
900.472	3344
900.591	3253
900.711	3332
900.83	3268
900.95	3485
901.069	3538
901.189	3367
901.308	3226
901.427	3165
901.546	3222
901.665	3329
901.784	3355
901.904	3249
902.023	3131
902.141	3039
902.26	3039
902.379	3169
902.498	3100
902.617	3116
902.735	3275
902.854	3230
902.973	3214
903.091	3081
903.21	3104
903.328	3161
903.446	3123
903.565	3081
903.683	3211
903.801	3150
903.919	3260
904.038	3317
904.156	3245
904.274	3321
904.392	3298
904.51	3302
904.627	3340
904.745	3473
904.863	3496
904.981	3302
905.098	3211
905.216	3249
905.334	3294
905.451	3306
905.569	3329
905.686	3443
905.803	3447
905.921	3325
906.038	3492
906.155	3359
906.272	3291
906.389	3355
906.506	3279
906.623	3268
906.74	3302
906.857	3211
906.974	3279
907.091	3466
907.208	3580
907.324	3504
907.441	3416
907.557	3256
907.674	3272
907.79	3256
907.907	3253
908.023	3420
908.139	3374
908.256	3359
908.372	3409
908.488	3420
908.604	3317
908.72	3253
908.836	3294
908.952	3321
909.068	3382
909.184	3526
909.3	3412
909.415	3572
909.531	3488
909.647	3329
909.762	3291
909.878	3287
909.993	3374
910.108	3348
910.224	3332
910.339	3405
910.454	3363
910.57	3298
910.685	3275
910.8	3595
910.915	3576
911.03	3458
911.145	3260
911.259	3321
911.374	3306
911.489	3233
911.604	3260
911.718	3150
911.833	3184
911.947	3062
912.062	2998
912.176	3173
912.291	3218
912.405	3241
912.519	3462
912.633	3504
912.748	3329
912.862	3329
912.976	3165
913.09	3062
913.204	3176
913.318	3211
913.431	3359
913.545	3401
913.659	3405
913.772	3420
913.886	3287
914	3211
914.113	3374
914.226	3416
914.34	3325
914.453	3241
914.566	3412
914.68	3348
914.793	3317
914.906	3154
915.019	3146
915.132	3077
915.245	3184
915.358	3226
915.47	3268
915.583	3340
915.696	3336
915.809	3424
915.921	3466
916.034	3298
916.146	3268
916.259	3287
916.371	3401
916.483	3378
916.595	3287
916.708	3348
916.82	3370
916.932	3420
917.044	3405
917.156	3389
917.268	3245
917.38	3310
917.491	3283
917.603	3355
917.715	3431
917.826	3477
917.938	3393
918.049	3306
918.161	3412
918.272	3587
918.384	3587
918.495	3492
918.606	3325
918.717	3279
918.828	3397
918.939	3439
919.05	3325
919.161	3374
919.272	3165
919.383	3313
919.494	3553
919.604	3656
919.715	3504
919.826	3405
919.936	3504
920.047	3614
920.157	3572
920.267	3770
920.378	3633
920.488	3606
920.598	3743
920.708	3972
920.818	3842
920.928	3857
921.038	4040
921.148	4055
921.258	3778
921.368	3660
921.477	3595
921.587	3526
921.697	3492
921.806	3652
921.916	3580
922.025	3374
922.134	3378
922.244	3367
922.353	3424
922.462	3283
922.571	3264
922.68	3150
922.789	3123
922.898	3154
923.007	3135
923.116	3222
923.224	3173
923.333	3207
923.442	3150
923.55	3138
923.659	3135
923.767	3260
923.876	3146
923.984	3237
924.092	3119
924.201	3214
924.309	3222
924.417	3268
924.525	3184
924.633	3233
924.741	4040
924.849	3070
924.956	3279
925.064	3074
925.172	3047
925.279	3116
925.387	3222
925.494	3233
925.602	3344
925.709	3321
925.816	3203
925.924	3294
926.031	3401
926.138	3355
926.245	3412
926.352	3264
926.459	3458
926.566	3462
926.673	3340
926.779	3222
926.886	3256
926.993	3161
927.099	3146
927.206	3104
927.312	3157
927.419	3249
927.525	3230
927.631	3306
927.737	3142
927.843	3138
927.95	3058
928.056	3169
928.162	3165
928.267	3287
928.373	3918
928.479	3313
928.585	3085
928.69	3233
928.796	3291
928.901	3192
929.007	3104
929.112	3226
929.218	3184
929.323	3207
929.428	3176
929.533	3340
929.638	3123
929.743	3157
929.848	3256
929.953	3214
930.058	3176
930.163	3005
930.267	3043
930.372	3199
930.477	3051
930.581	3310
930.685	3192
930.79	3051
930.894	3142
930.998	3100
931.103	3317
931.207	2967
931.311	2967
931.415	2933
931.519	2785
931.623	2838
