Data from test_V78500241_231.txt Node
Date: Fri Mar 25 16:16:48 CST 2022
User: usil
Spectrometer: V785-0024
Trigger mode: 0
Integration Time (sec): 4.000000E-1
Scans to average: 1
Nonlinearity correction enabled: false
Boxcar width: 0
Storing dark spectrum: false
XAxis mode: Wavelengths
Number of Pixels in Spectrum: 1024
>>>>>Begin Spectral Data<<<<<
801.071	2902
801.214	2971
801.356	2910
801.499	2899
801.641	2918
801.783	2982
801.926	3100
802.068	3032
802.211	3051
802.353	3127
802.496	2975
802.638	3058
802.78	3081
802.923	3085
803.065	2994
803.208	2914
803.35	2933
803.492	2937
803.635	2998
803.777	2788
803.919	2895
804.061	3230
804.204	2960
804.346	2887
804.488	2891
804.63	3043
804.773	2891
804.915	2941
805.057	3100
805.199	2963
805.341	3009
805.483	3070
805.626	3020
805.768	2975
805.91	3135
806.052	3123
806.194	3104
806.336	3253
806.478	3024
806.62	2990
806.762	3013
806.904	3077
807.046	3192
807.188	3032
807.33	2914
807.472	2967
807.614	2952
807.756	3036
807.898	2937
808.04	2929
808.182	2975
808.324	2963
808.465	2868
808.607	2910
808.749	2819
808.891	2880
809.033	2998
809.174	3001
809.316	2891
809.458	2899
809.6	2754
809.741	2796
809.883	2785
810.025	2857
810.166	2880
810.308	2891
810.45	2883
810.591	2804
810.733	2819
810.875	2864
811.016	2800
811.158	2777
811.299	2868
811.441	2952
811.582	2941
811.724	2830
811.865	2910
812.007	2948
812.148	2887
812.29	2876
812.431	2906
812.573	2933
812.714	2994
812.855	3062
812.997	3077
813.138	3176
813.279	3062
813.421	3020
813.562	2990
813.703	2918
813.845	2922
813.986	2788
814.127	2739
814.268	2838
814.41	2830
814.551	2842
814.692	2902
814.833	2830
814.974	2880
815.115	2967
815.256	2842
815.397	2876
815.539	2876
815.68	2781
815.821	2864
815.962	2971
816.103	2960
816.244	2883
816.385	2899
816.526	2982
816.666	2948
816.807	2762
816.948	2933
817.089	2906
817.23	2902
817.371	2815
817.512	2785
817.653	2872
817.793	2834
817.934	2895
818.075	2986
818.216	3036
818.356	3051
818.497	2941
818.638	2826
818.778	2838
818.919	2823
819.06	2777
819.2	2872
819.341	2861
819.481	2811
819.622	2963
819.762	3100
819.903	3093
820.043	2967
820.184	2941
820.324	2933
820.465	3028
820.605	3020
820.746	3020
820.886	2933
821.026	3100
821.167	3161
821.307	3237
821.447	3264
821.588	3279
821.728	3218
821.868	3226
822.008	3108
822.149	3233
822.289	3237
822.429	3119
822.569	3081
822.709	3207
822.849	2990
822.99	3074
823.13	3195
823.27	3226
823.41	3150
823.55	3188
823.69	3150
823.83	3207
823.97	3112
824.11	3028
824.25	3013
824.389	3138
824.529	3097
824.669	3070
824.809	3226
824.949	3253
825.089	3241
825.228	3173
825.368	3028
825.508	2994
825.648	2975
825.787	2998
825.927	3028
826.067	2979
826.206	2963
826.346	3051
826.485	3093
826.625	3135
826.765	3302
826.904	3211
827.044	3017
827.183	2922
827.323	2895
827.462	3020
827.601	2910
827.741	2948
827.88	2990
828.02	2864
828.159	2971
828.298	3081
828.437	3135
828.577	3036
828.716	3275
828.855	3043
828.994	2941
829.134	2918
829.273	2895
829.412	2876
829.551	2872
829.69	2906
829.829	3005
829.968	3131
830.107	3024
830.246	3017
830.385	2925
830.524	2906
830.663	2819
830.802	2754
830.941	2648
831.08	2678
831.219	2758
831.357	2769
831.496	2971
831.635	2762
831.774	2693
831.913	2674
832.051	2568
832.19	2564
832.329	2689
832.467	2556
832.606	2488
832.744	2621
832.883	2587
833.022	2640
833.16	2689
833.299	2735
833.437	2686
833.576	2712
833.714	2766
833.852	2746
833.991	2739
834.129	2872
834.267	2807
834.406	2758
834.544	2887
834.682	2887
834.821	2906
834.959	3077
835.097	2948
835.235	3074
835.373	2994
835.511	3020
835.65	2918
835.788	2960
835.926	2857
836.064	2819
836.202	2880
836.34	3100
836.478	3161
836.615	3028
836.753	3176
836.891	3237
837.029	3161
837.167	3131
837.305	3051
837.443	3058
837.58	2975
837.718	3157
837.856	3070
837.993	3043
838.131	3123
838.269	3131
838.406	3081
838.544	3097
838.681	2933
838.819	2937
838.956	2819
839.094	2864
839.231	2922
839.369	3032
839.506	3355
839.643	3214
839.781	3043
839.918	2975
840.055	3032
840.193	3051
840.33	3085
840.467	3085
840.604	3146
840.742	3393
840.879	3077
841.016	3051
841.153	3112
841.29	3355
841.427	3340
841.564	3302
841.701	3306
841.838	3176
841.975	3180
842.112	3226
842.249	3097
842.385	3043
842.522	3275
842.659	3070
842.796	3077
842.933	3112
843.069	3036
843.206	3070
843.343	3199
843.479	3074
843.616	3108
843.752	2914
843.889	2876
844.025	3081
844.162	2883
844.298	3093
844.435	2963
844.571	2883
844.708	3093
844.844	3188
844.98	3230
845.117	3207
845.253	3081
845.389	3013
845.525	3150
845.661	3131
845.798	3036
845.934	3108
846.07	3070
846.206	3256
846.342	3313
846.478	3249
846.614	3104
846.75	3100
846.886	3043
847.022	3237
847.158	3116
847.294	3214
847.429	3291
847.565	3218
847.701	3477
847.837	3028
847.972	2986
848.108	3188
848.244	3142
848.379	3017
848.515	2952
848.65	2925
848.786	3013
848.921	3028
849.057	3104
849.192	3138
849.328	3085
849.463	3108
849.598	3100
849.734	3036
849.869	3009
850.004	2906
850.14	2986
850.275	2967
850.41	2842
850.545	2906
850.68	2960
850.815	2937
850.95	2975
851.085	3207
851.22	3123
851.355	3039
851.49	3013
851.625	3017
851.76	3058
851.895	2982
852.03	2937
852.165	3039
852.299	3131
852.434	3154
852.569	3165
852.703	3207
852.838	3298
852.973	3359
853.107	3340
853.242	3131
853.376	3127
853.511	2967
853.645	3017
853.78	3268
853.914	3161
854.048	3131
854.183	3085
854.317	3150
854.451	3317
854.585	3135
854.72	3093
854.854	3207
854.988	3047
855.122	3085
855.256	2994
855.39	3131
855.524	3253
855.658	3199
855.792	3214
855.926	3214
856.06	3253
856.194	3237
856.327	3127
856.461	3104
856.595	3066
856.729	3108
856.862	3226
856.996	3138
857.13	3226
857.263	3233
857.397	3279
857.53	3112
857.664	3192
857.797	3241
857.931	3291
858.064	3165
858.197	3192
858.331	3165
858.464	3100
858.597	3001
858.731	3142
858.864	3131
858.997	3077
859.13	3142
859.263	3165
859.396	3203
859.529	3097
859.662	3013
859.795	3055
859.928	3138
860.061	3313
860.194	3287
860.327	3135
860.46	3108
860.592	3260
860.725	3241
860.858	3260
860.99	3100
861.123	3047
861.256	3077
861.388	3138
861.521	3861
861.653	3005
861.786	2956
861.918	2990
862.05	3055
862.183	3104
862.315	3161
862.447	3169
862.58	3089
862.712	2960
862.844	2880
862.976	3047
863.108	3036
863.24	3332
863.372	2880
863.504	2990
863.636	2963
863.768	3043
863.9	2960
864.032	2937
864.164	2967
864.296	3043
864.428	3089
864.559	3112
864.691	3058
864.823	3070
864.954	3062
865.086	3036
865.217	2994
865.349	2963
865.48	2948
865.612	3017
865.743	3127
865.875	2994
866.006	2937
866.137	2979
866.269	2948
866.4	2956
866.531	2918
866.662	2929
866.793	2891
866.924	2895
867.055	2986
867.186	2899
867.317	2872
867.448	2868
867.579	2883
867.71	2811
867.841	2838
867.972	2902
868.103	2906
868.233	2864
868.364	2891
868.495	2906
868.625	3093
868.756	3199
868.886	2967
869.017	3058
869.147	3203
869.278	3180
869.408	3074
869.539	3020
869.669	3097
869.799	3051
869.929	3142
870.06	3074
870.19	3310
870.32	3302
870.45	3310
870.58	3370
870.71	3405
870.84	3492
870.97	3275
871.1	3256
871.23	3473
871.36	3462
871.489	3370
871.619	3397
871.749	3416
871.879	3439
872.008	3496
872.138	3386
872.267	3302
872.397	3119
872.526	3077
872.656	2998
872.785	3108
872.915	3237
873.044	3332
873.173	3237
873.303	3268
873.432	3272
873.561	3211
873.69	3154
873.819	3165
873.948	3199
874.077	3093
874.206	3043
874.335	3100
874.464	3207
874.593	3332
874.722	3214
874.851	3386
874.979	3348
875.108	3291
875.237	3195
875.365	3173
875.494	3142
875.623	3256
875.751	3085
875.88	3112
876.008	3222
876.136	3226
876.265	3378
876.393	3500
876.521	3424
876.65	3397
876.778	3317
876.906	3283
877.034	3233
877.162	3195
877.29	3226
877.418	3241
877.546	3222
877.674	3230
877.802	3279
877.93	3230
878.058	3188
878.185	3104
878.313	3169
878.441	3180
878.568	3085
878.696	3123
878.824	3279
878.951	3332
879.079	3443
879.206	3614
879.333	3416
879.461	3344
879.588	3370
879.715	3477
879.842	3614
879.97	3401
880.097	3180
880.224	3154
880.351	3207
880.478	3268
880.605	3192
880.732	3184
880.859	3519
880.986	3310
881.112	3321
881.239	3195
881.366	3108
881.493	3047
881.619	3074
881.746	3085
881.872	3097
881.999	3085
882.125	3165
882.252	3245
882.378	3279
882.505	3488
882.631	3306
882.757	3150
882.883	3192
883.01	3222
883.136	3176
883.262	3066
883.388	3173
883.514	3351
883.64	3420
883.766	3291
883.892	3214
884.018	3233
884.143	3431
884.269	3534
884.395	3218
884.52	3146
884.646	3161
884.772	3131
884.897	3131
885.023	3192
885.148	3355
885.274	3439
885.399	3374
885.524	3275
885.65	3272
885.775	3306
885.9	3287
886.025	3378
886.15	3363
886.275	3260
886.4	3253
886.525	3321
886.65	3230
886.775	3291
886.9	3507
887.025	3637
887.149	3409
887.274	3302
887.399	3218
887.523	3226
887.648	3199
887.773	3207
887.897	3397
888.021	3466
888.146	3291
888.27	3420
888.395	3561
888.519	3428
888.643	3469
888.767	3439
888.891	3256
889.015	3253
889.139	3283
889.263	3256
889.387	3374
889.511	3553
889.635	3485
889.759	3279
889.883	3306
890.006	3397
890.13	3477
890.254	3283
890.377	3310
890.501	3241
890.624	3192
890.748	3321
890.871	3211
890.995	3100
891.118	3070
891.241	3226
891.364	3241
891.488	3329
891.611	3176
891.734	3230
891.857	3291
891.98	3245
892.103	3344
892.226	3291
892.349	3226
892.471	3119
892.594	3283
892.717	3264
892.839	3294
892.962	3310
893.085	3389
893.207	3317
893.33	3176
893.452	3203
893.575	3332
893.697	3272
893.819	3481
893.941	3488
894.064	3428
894.186	3298
894.308	3291
894.43	3462
894.552	3542
894.674	3488
894.796	3291
894.918	3317
895.04	3279
895.161	3431
895.283	3454
895.405	3329
895.526	3325
895.648	3412
895.769	3397
895.891	3481
896.012	3500
896.134	3466
896.255	3405
896.376	3363
896.498	3378
896.619	3458
896.74	3355
896.861	3397
896.982	3694
897.103	3854
897.224	3629
897.345	3496
897.466	3412
897.587	3507
897.708	3606
897.828	3553
897.949	3477
898.07	3397
898.19	3393
898.311	3603
898.431	3443
898.552	3492
898.672	3584
898.792	3614
898.913	3523
899.033	3424
899.153	3336
899.273	3256
899.393	3275
899.513	3332
899.633	3313
899.753	3344
899.873	3302
899.993	3355
900.113	3340
900.232	3374
900.352	3363
900.472	3260
900.591	3237
900.711	3298
900.83	3275
900.95	3420
901.069	3473
901.189	3355
901.308	3150
901.427	3112
901.546	3199
901.665	3306
901.784	3344
901.904	3230
902.023	3169
902.141	2979
902.26	2963
902.379	3135
902.498	3112
902.617	3066
902.735	3180
902.854	3218
902.973	3222
903.091	3062
903.21	3055
903.328	3097
903.446	3138
903.565	3112
903.683	3222
903.801	3119
903.919	3253
904.038	3249
904.156	3169
904.274	3249
904.392	3291
904.51	3325
904.627	3367
904.745	3481
904.863	3530
904.981	3264
905.098	3180
905.216	3226
905.334	3332
905.451	3294
905.569	3336
905.686	3431
905.803	3450
905.921	3313
906.038	3405
906.155	3348
906.272	3279
906.389	3325
906.506	3268
906.623	3241
906.74	3279
906.857	3207
906.974	3253
907.091	3496
907.208	3587
907.324	3492
907.441	3401
907.557	3233
907.674	3226
907.79	3176
907.907	3279
908.023	3370
908.139	3401
908.256	3348
908.372	3374
908.488	3351
908.604	3272
908.72	3222
908.836	3336
908.952	3291
909.068	3348
909.184	3443
909.3	3405
909.415	3561
909.531	3462
909.647	3291
909.762	3287
909.878	3253
909.993	3367
910.108	3329
910.224	3325
910.339	3416
910.454	3340
910.57	3272
910.685	3188
910.8	3614
910.915	3545
911.03	3435
911.145	3291
911.259	3306
911.374	3351
911.489	3237
911.604	3195
911.718	3085
911.833	3135
911.947	3024
912.062	2944
912.176	3161
912.291	3226
912.405	3192
912.519	3477
912.633	3481
912.748	3310
912.862	3306
912.976	3180
913.09	3058
913.204	3135
913.318	3211
913.431	3321
913.545	3329
913.659	3397
913.772	3359
913.886	3211
914	3195
914.113	3359
914.226	3431
914.34	3351
914.453	3230
914.566	3409
914.68	3332
914.793	3294
914.906	3138
915.019	3154
915.132	3100
915.245	3184
915.358	3195
915.47	3237
915.583	3253
915.696	3294
915.809	3405
915.921	3420
916.034	3226
916.146	3264
916.259	3188
916.371	3382
916.483	3416
916.595	3317
916.708	3325
916.82	3329
916.932	3340
917.044	3359
917.156	3367
917.268	3249
917.38	3310
917.491	3287
917.603	3306
917.715	3477
917.826	3462
917.938	3370
918.049	3268
918.161	3477
918.272	3580
918.384	3610
918.495	3523
918.606	3321
918.717	3272
918.828	3386
918.939	3424
919.05	3302
919.161	3374
919.272	3180
919.383	3275
919.494	3519
919.604	3690
919.715	3496
919.826	3431
919.936	3462
920.047	3576
920.157	3568
920.267	3778
920.378	3587
920.488	3606
920.598	3812
920.708	3953
920.818	3831
920.928	3876
921.038	4048
921.148	3998
921.258	3690
921.368	3629
921.477	3606
921.587	3553
921.697	3416
921.806	3637
921.916	3534
922.025	3351
922.134	3367
922.244	3313
922.353	3405
922.462	3302
922.571	3256
922.68	3119
922.789	3150
922.898	3154
923.007	3138
923.116	3260
923.224	3184
923.333	3226
923.442	3116
923.55	3097
923.659	3150
923.767	3233
923.876	3127
923.984	3214
924.092	3097
924.201	3192
924.309	3237
924.417	3268
924.525	3207
924.633	3211
924.741	4196
924.849	3070
924.956	3249
925.064	3077
925.172	3077
925.279	3081
925.387	3218
925.494	3249
925.602	3351
925.709	3351
925.816	3199
925.924	3283
926.031	3378
926.138	3336
926.245	3370
926.352	3214
926.459	3416
926.566	3473
926.673	3355
926.779	3249
926.886	3264
926.993	3192
927.099	3154
927.206	3131
927.312	3135
927.419	3241
927.525	3207
927.631	3253
927.737	3192
927.843	3131
927.95	3013
928.056	3161
928.162	3203
928.267	3245
928.373	3857
928.479	3325
928.585	3100
928.69	3230
928.796	3313
928.901	3180
929.007	3077
929.112	3233
929.218	3165
929.323	3123
929.428	3146
929.533	3291
929.638	3100
929.743	3188
929.848	3237
929.953	3245
930.058	3173
930.163	3039
930.267	3043
930.372	3188
930.477	3028
930.581	3340
930.685	3207
930.79	3051
930.894	3135
930.998	3104
931.103	3291
931.207	3005
931.311	2929
931.415	2933
931.519	2819
931.623	2819
