Data from test_V78500241_2011.txt Node
Date: Fri Mar 25 16:29:08 CST 2022
User: usil
Spectrometer: V785-0024
Trigger mode: 0
Integration Time (sec): 4.000000E-1
Scans to average: 1
Nonlinearity correction enabled: false
Boxcar width: 0
Storing dark spectrum: false
XAxis mode: Wavelengths
Number of Pixels in Spectrum: 1024
>>>>>Begin Spectral Data<<<<<
801.071	2952
801.214	2963
801.356	2902
801.499	2918
801.641	2857
801.783	2952
801.926	3089
802.068	2986
802.211	3005
802.353	3066
802.496	2990
802.638	3047
802.78	3039
802.923	3097
803.065	3013
803.208	2933
803.35	2922
803.492	2948
803.635	2982
803.777	2792
803.919	2902
804.061	3195
804.204	2963
804.346	2952
804.488	2845
804.63	3013
804.773	2899
804.915	2902
805.057	3089
805.199	2937
805.341	3020
805.483	3047
805.626	2990
805.768	2979
805.91	3093
806.052	3104
806.194	3051
806.336	3249
806.478	3013
806.62	2948
806.762	2990
806.904	3070
807.046	3176
807.188	2998
807.33	2914
807.472	3047
807.614	2937
807.756	3005
807.898	2937
808.04	2906
808.182	2982
808.324	2941
808.465	2883
808.607	2929
808.749	2830
808.891	2823
809.033	2975
809.174	2979
809.316	2876
809.458	2883
809.6	2777
809.741	2785
809.883	2788
810.025	2857
810.166	2853
810.308	2853
810.45	2845
810.591	2769
810.733	2800
810.875	2849
811.016	2754
811.158	2762
811.299	2823
811.441	2960
811.582	2864
811.724	2842
811.865	2845
812.007	2922
812.148	2872
812.29	2842
812.431	2895
812.573	2922
812.714	2956
812.855	3047
812.997	3047
813.138	3146
813.279	3005
813.421	2994
813.562	2994
813.703	2880
813.845	2872
813.986	2766
814.127	2735
814.268	2838
814.41	2838
814.551	2834
814.692	2872
814.833	2815
814.974	2868
815.115	2960
815.256	2834
815.397	2811
815.539	2857
815.68	2804
815.821	2819
815.962	2948
816.103	2948
816.244	2899
816.385	2880
816.526	3001
816.666	2952
816.807	2716
816.948	2872
817.089	2929
817.23	2857
817.371	2781
817.512	2819
817.653	2823
817.793	2845
817.934	2880
818.075	2952
818.216	2986
818.356	3036
818.497	2899
818.638	2800
818.778	2842
818.919	2815
819.06	2792
819.2	2883
819.341	2872
819.481	2777
819.622	2906
819.762	3123
819.903	3036
820.043	2918
820.184	2906
820.324	2910
820.465	3024
820.605	3013
820.746	3036
820.886	2887
821.026	3108
821.167	3169
821.307	3249
821.447	3287
821.588	3253
821.728	3226
821.868	3214
822.008	3085
822.149	3211
822.289	3233
822.429	3119
822.569	3081
822.709	3180
822.849	3051
822.99	3055
823.13	3165
823.27	3199
823.41	3119
823.55	3180
823.69	3150
823.83	3184
823.97	3123
824.11	2975
824.25	3028
824.389	3051
824.529	3123
824.669	3100
824.809	3188
824.949	3249
825.089	3237
825.228	3127
825.368	2986
825.508	3001
825.648	2937
825.787	2990
825.927	3032
826.067	2979
826.206	2975
826.346	3112
826.485	3055
826.625	3116
826.765	3294
826.904	3207
827.044	2975
827.183	2941
827.323	2849
827.462	2971
827.601	2933
827.741	2937
827.88	2990
828.02	2849
828.159	2994
828.298	3039
828.437	3112
828.577	3028
828.716	3214
828.855	3077
828.994	2899
829.134	2853
829.273	2929
829.412	2853
829.551	2864
829.69	2914
829.829	2998
829.968	3089
830.107	3017
830.246	3017
830.385	2918
830.524	2880
830.663	2834
830.802	2720
830.941	2686
831.08	2644
831.219	2762
831.357	2785
831.496	2933
831.635	2724
831.774	2655
831.913	2655
832.051	2556
832.19	2587
832.329	2689
832.467	2571
832.606	2507
832.744	2594
832.883	2587
833.022	2598
833.16	2632
833.299	2689
833.437	2686
833.576	2678
833.714	2716
833.852	2720
833.991	2762
834.129	2830
834.267	2853
834.406	2777
834.544	2880
834.682	2899
834.821	2872
834.959	3066
835.097	2895
835.235	3024
835.373	3055
835.511	3028
835.65	2929
835.788	2956
835.926	2838
836.064	2804
836.202	2864
836.34	3108
836.478	3127
836.615	3051
836.753	3135
836.891	3195
837.029	3146
837.167	3093
837.305	3058
837.443	3047
837.58	2952
837.718	3165
837.856	3070
837.993	2998
838.131	3108
838.269	3104
838.406	3062
838.544	3089
838.681	2925
838.819	2899
838.956	2830
839.094	2826
839.231	2918
839.369	3047
839.506	3325
839.643	3195
839.781	2952
839.918	2944
840.055	3051
840.193	3036
840.33	3093
840.467	3074
840.604	3150
840.742	3405
840.879	3055
841.016	3062
841.153	3089
841.29	3351
841.427	3313
841.564	3245
841.701	3294
841.838	3199
841.975	3176
842.112	3203
842.249	3077
842.385	2994
842.522	3222
842.659	3070
842.796	3043
842.933	3097
843.069	3009
843.206	3058
843.343	3173
843.479	3127
843.616	3184
843.752	2891
843.889	2895
844.025	3089
844.162	2899
844.298	3058
844.435	2929
844.571	2906
844.708	3058
844.844	3214
844.98	3245
845.117	3176
845.253	3028
845.389	2986
845.525	3077
845.661	3085
845.798	3001
845.934	3104
846.07	3051
846.206	3211
846.342	3298
846.478	3245
846.614	3051
846.75	2998
846.886	2948
847.022	3253
847.158	3135
847.294	3150
847.429	3249
847.565	3131
847.701	3466
847.837	3020
847.972	3013
848.108	3154
848.244	3142
848.379	2979
848.515	2922
848.65	2914
848.786	2967
848.921	3017
849.057	3058
849.192	3173
849.328	3047
849.463	3089
849.598	3066
849.734	3009
849.869	2990
850.004	2899
850.14	2979
850.275	2895
850.41	2849
850.545	2899
850.68	2929
850.815	2925
850.95	2937
851.085	3138
851.22	3093
851.355	3043
851.49	2952
851.625	3001
851.76	3028
851.895	2941
852.03	2902
852.165	3013
852.299	3070
852.434	3157
852.569	3135
852.703	3154
852.838	3237
852.973	3332
853.107	3306
853.242	3161
853.376	3066
853.511	2956
853.645	3036
853.78	3203
853.914	3135
854.048	3070
854.183	3066
854.317	3184
854.451	3256
854.585	3119
854.72	3100
854.854	3203
854.988	3047
855.122	3116
855.256	2925
855.39	3131
855.524	3230
855.658	3184
855.792	3173
855.926	3203
856.06	3218
856.194	3272
856.327	3138
856.461	3058
856.595	3055
856.729	3058
856.862	3230
856.996	3150
857.13	3161
857.263	3226
857.397	3245
857.53	3093
857.664	3207
857.797	3264
857.931	3268
858.064	3116
858.197	3211
858.331	3135
858.464	3104
858.597	3009
858.731	3135
858.864	3112
858.997	3074
859.13	3142
859.263	3154
859.396	3226
859.529	3112
859.662	3074
859.795	3028
859.928	3192
860.061	3256
860.194	3298
860.327	3142
860.46	3085
860.592	3222
860.725	3260
860.858	3241
860.99	3116
861.123	3051
861.256	3074
861.388	3161
861.521	3781
861.653	3043
861.786	3005
861.918	3017
862.05	3077
862.183	3085
862.315	3150
862.447	3195
862.58	3112
862.712	2956
862.844	2857
862.976	3024
863.108	2960
863.24	3317
863.372	2864
863.504	3001
863.636	2910
863.768	3047
863.9	3005
864.032	2906
864.164	2960
864.296	3028
864.428	3077
864.559	3100
864.691	3055
864.823	3055
864.954	2986
865.086	3062
865.217	3001
865.349	2960
865.48	2952
865.612	3001
865.743	3104
865.875	2982
866.006	2941
866.137	2994
866.269	2933
866.4	2929
866.531	2944
866.662	2868
866.793	2872
866.924	2876
867.055	2925
867.186	2963
867.317	2880
867.448	2838
867.579	2819
867.71	2830
867.841	2796
867.972	2899
868.103	2899
868.233	2864
868.364	2838
868.495	2899
868.625	3081
868.756	3188
868.886	2952
869.017	3005
869.147	3157
869.278	3176
869.408	3043
869.539	3009
869.669	3070
869.799	3047
869.929	3093
870.06	3119
870.19	3332
870.32	3272
870.45	3272
870.58	3367
870.71	3473
870.84	3401
870.97	3275
871.1	3241
871.23	3462
871.36	3469
871.489	3355
871.619	3382
871.749	3405
871.879	3435
872.008	3481
872.138	3332
872.267	3279
872.397	3119
872.526	3097
872.656	3051
872.785	3108
872.915	3214
873.044	3310
873.173	3275
873.303	3222
873.432	3207
873.561	3230
873.69	3154
873.819	3135
873.948	3165
874.077	3119
874.206	3020
874.335	3062
874.464	3260
874.593	3374
874.722	3245
874.851	3401
874.979	3378
875.108	3317
875.237	3195
875.365	3165
875.494	3154
875.623	3230
875.751	3089
875.88	3112
876.008	3150
876.136	3237
876.265	3363
876.393	3530
876.521	3370
876.65	3359
876.778	3344
876.906	3226
877.034	3203
877.162	3184
877.29	3195
877.418	3264
877.546	3226
877.674	3256
877.802	3245
877.93	3222
878.058	3112
878.185	3112
878.313	3192
878.441	3203
878.568	3066
878.696	3123
878.824	3237
878.951	3302
879.079	3481
879.206	3584
879.333	3428
879.461	3351
879.588	3336
879.715	3485
879.842	3595
879.97	3367
880.097	3165
880.224	3116
880.351	3192
880.478	3222
880.605	3184
880.732	3214
880.859	3485
880.986	3332
881.112	3306
881.239	3161
881.366	3077
881.493	3070
881.619	3024
881.746	3047
881.872	3070
881.999	3116
882.125	3123
882.252	3233
882.378	3313
882.505	3412
882.631	3272
882.757	3173
882.883	3195
883.01	3218
883.136	3138
883.262	3119
883.388	3093
883.514	3321
883.64	3367
883.766	3313
883.892	3146
884.018	3237
884.143	3386
884.269	3553
884.395	3180
884.52	3184
884.646	3169
884.772	3104
884.897	3081
885.023	3150
885.148	3344
885.274	3405
885.399	3329
885.524	3302
885.65	3230
885.775	3321
885.9	3279
886.025	3389
886.15	3351
886.275	3287
886.4	3218
886.525	3287
886.65	3249
886.775	3245
886.9	3523
887.025	3633
887.149	3397
887.274	3253
887.399	3184
887.523	3226
887.648	3154
887.773	3169
887.897	3393
888.021	3382
888.146	3294
888.27	3420
888.395	3477
888.519	3412
888.643	3393
888.767	3477
888.891	3313
889.015	3245
889.139	3260
889.263	3264
889.387	3401
889.511	3496
889.635	3420
889.759	3272
889.883	3325
890.006	3386
890.13	3500
890.254	3241
890.377	3359
890.501	3203
890.624	3169
890.748	3291
890.871	3203
890.995	3074
891.118	3062
891.241	3230
891.364	3233
891.488	3344
891.611	3161
891.734	3157
891.857	3294
891.98	3233
892.103	3321
892.226	3272
892.349	3192
892.471	3077
892.594	3222
892.717	3332
892.839	3256
892.962	3260
893.085	3374
893.207	3317
893.33	3157
893.452	3195
893.575	3363
893.697	3237
893.819	3431
893.941	3477
894.064	3458
894.186	3241
894.308	3272
894.43	3420
894.552	3568
894.674	3450
894.796	3233
894.918	3272
895.04	3264
895.161	3416
895.283	3386
895.405	3329
895.526	3405
895.648	3428
895.769	3386
895.891	3466
896.012	3435
896.134	3450
896.255	3412
896.376	3389
896.498	3348
896.619	3454
896.74	3363
896.861	3393
896.982	3686
897.103	3854
897.224	3576
897.345	3477
897.466	3401
897.587	3462
897.708	3637
897.828	3572
897.949	3447
898.07	3348
898.19	3420
898.311	3622
898.431	3416
898.552	3488
898.672	3591
898.792	3622
898.913	3488
899.033	3397
899.153	3253
899.273	3207
899.393	3283
899.513	3321
899.633	3313
899.753	3348
899.873	3325
899.993	3359
900.113	3359
900.232	3367
900.352	3348
900.472	3283
900.591	3195
900.711	3279
900.83	3241
900.95	3363
901.069	3481
901.189	3294
901.308	3165
901.427	3146
901.546	3199
901.665	3260
901.784	3348
901.904	3203
902.023	3138
902.141	3009
902.26	2982
902.379	3123
902.498	3043
902.617	3043
902.735	3192
902.854	3226
902.973	3180
903.091	3039
903.21	3097
903.328	3135
903.446	3108
903.565	3039
903.683	3195
903.801	3100
903.919	3294
904.038	3279
904.156	3226
904.274	3260
904.392	3264
904.51	3253
904.627	3302
904.745	3431
904.863	3492
904.981	3268
905.098	3142
905.216	3245
905.334	3310
905.451	3283
905.569	3302
905.686	3374
905.803	3374
905.921	3283
906.038	3424
906.155	3325
906.272	3241
906.389	3310
906.506	3226
906.623	3245
906.74	3306
906.857	3157
906.974	3237
907.091	3462
907.208	3549
907.324	3466
907.441	3367
907.557	3192
907.674	3272
907.79	3211
907.907	3321
908.023	3336
908.139	3401
908.256	3351
908.372	3378
908.488	3332
908.604	3241
908.72	3233
908.836	3294
908.952	3275
909.068	3332
909.184	3485
909.3	3412
909.415	3530
909.531	3450
909.647	3275
909.762	3302
909.878	3253
909.993	3393
910.108	3313
910.224	3317
910.339	3424
910.454	3306
910.57	3279
910.685	3188
910.8	3603
910.915	3542
911.03	3469
911.145	3264
911.259	3275
911.374	3325
911.489	3287
911.604	3237
911.718	3116
911.833	3131
911.947	3043
912.062	2994
912.176	3169
912.291	3207
912.405	3218
912.519	3389
912.633	3443
912.748	3332
912.862	3287
912.976	3207
913.09	3047
913.204	3131
913.318	3203
913.431	3355
913.545	3298
913.659	3424
913.772	3325
913.886	3199
914	3165
914.113	3363
914.226	3428
914.34	3340
914.453	3226
914.566	3409
914.68	3275
914.793	3332
914.906	3150
915.019	3112
915.132	3043
915.245	3176
915.358	3203
915.47	3211
915.583	3287
915.696	3272
915.809	3431
915.921	3420
916.034	3298
916.146	3256
916.259	3188
916.371	3389
916.483	3340
916.595	3260
916.708	3313
916.82	3317
916.932	3332
917.044	3351
917.156	3332
917.268	3264
917.38	3275
917.491	3287
917.603	3367
917.715	3462
917.826	3466
917.938	3401
918.049	3275
918.161	3439
918.272	3561
918.384	3576
918.495	3519
918.606	3336
918.717	3275
918.828	3374
918.939	3397
919.05	3275
919.161	3386
919.272	3154
919.383	3268
919.494	3492
919.604	3694
919.715	3511
919.826	3405
919.936	3409
920.047	3587
920.157	3542
920.267	3751
920.378	3591
920.488	3599
920.598	3785
920.708	3945
920.818	3797
920.928	3823
921.038	3972
921.148	4025
921.258	3717
921.368	3660
921.477	3576
921.587	3542
921.697	3416
921.806	3644
921.916	3526
922.025	3351
922.134	3374
922.244	3332
922.353	3416
922.462	3268
922.571	3207
922.68	3093
922.789	3066
922.898	3100
923.007	3081
923.116	3184
923.224	3135
923.333	3211
923.442	3085
923.55	3085
923.659	3150
923.767	3195
923.876	3108
923.984	3260
924.092	3085
924.201	3203
924.309	3207
924.417	3233
924.525	3211
924.633	3214
924.741	4169
924.849	3058
924.956	3283
925.064	3135
925.172	3017
925.279	3127
925.387	3195
925.494	3180
925.602	3332
925.709	3313
925.816	3180
925.924	3287
926.031	3336
926.138	3374
926.245	3355
926.352	3256
926.459	3393
926.566	3462
926.673	3332
926.779	3283
926.886	3283
926.993	3161
927.099	3112
927.206	3112
927.312	3089
927.419	3249
927.525	3176
927.631	3245
927.737	3138
927.843	3104
927.95	3017
928.056	3123
928.162	3150
928.267	3256
928.373	3846
928.479	3287
928.585	3104
928.69	3195
928.796	3249
928.901	3184
929.007	3062
929.112	3211
929.218	3184
929.323	3135
929.428	3142
929.533	3340
929.638	3085
929.743	3150
929.848	3249
929.953	3199
930.058	3199
930.163	2990
930.267	3028
930.372	3192
930.477	3028
930.581	3344
930.685	3173
930.79	3055
930.894	3097
930.998	3089
931.103	3275
931.207	2929
931.311	2937
931.415	2971
931.519	2758
931.623	2796
