Data from test_V78500241_1294.txt Node
Date: Fri Mar 25 16:24:10 CST 2022
User: usil
Spectrometer: V785-0024
Trigger mode: 0
Integration Time (sec): 4.000000E-1
Scans to average: 1
Nonlinearity correction enabled: false
Boxcar width: 0
Storing dark spectrum: false
XAxis mode: Wavelengths
Number of Pixels in Spectrum: 1024
>>>>>Begin Spectral Data<<<<<
801.071	2975
801.214	3009
801.356	2899
801.499	2899
801.641	2899
801.783	3001
801.926	3039
802.068	2971
802.211	3005
802.353	3032
802.496	2982
802.638	3039
802.78	3058
802.923	3085
803.065	3028
803.208	2922
803.35	2933
803.492	2948
803.635	2944
803.777	2777
803.919	2887
804.061	3237
804.204	2979
804.346	2918
804.488	2845
804.63	2990
804.773	2857
804.915	2937
805.057	3066
805.199	2925
805.341	2963
805.483	3028
805.626	3017
805.768	3013
805.91	3146
806.052	3127
806.194	3039
806.336	3260
806.478	3058
806.62	2933
806.762	3013
806.904	3081
807.046	3146
807.188	2982
807.33	2918
807.472	3013
807.614	2925
807.756	2994
807.898	2933
808.04	2929
808.182	3005
808.324	2982
808.465	2910
808.607	2849
808.749	2811
808.891	2830
809.033	2975
809.174	3009
809.316	2872
809.458	2868
809.6	2766
809.741	2811
809.883	2781
810.025	2880
810.166	2880
810.308	2845
810.45	2857
810.591	2788
810.733	2785
810.875	2834
811.016	2811
811.158	2785
811.299	2830
811.441	2960
811.582	2906
811.724	2800
811.865	2819
812.007	2914
812.148	2880
812.29	2872
812.431	2876
812.573	2948
812.714	3005
812.855	3058
812.997	3062
813.138	3161
813.279	3051
813.421	2998
813.562	2960
813.703	2872
813.845	2929
813.986	2796
814.127	2773
814.268	2807
814.41	2830
814.551	2815
814.692	2902
814.833	2853
814.974	2887
815.115	2982
815.256	2853
815.397	2796
815.539	2861
815.68	2769
815.821	2777
815.962	2990
816.103	2944
816.244	2899
816.385	2933
816.526	3020
816.666	2937
816.807	2735
816.948	2914
817.089	2883
817.23	2834
817.371	2796
817.512	2773
817.653	2842
817.793	2899
817.934	2872
818.075	2952
818.216	2998
818.356	3028
818.497	2868
818.638	2804
818.778	2849
818.919	2792
819.06	2773
819.2	2887
819.341	2804
819.481	2800
819.622	2906
819.762	3097
819.903	3055
820.043	2937
820.184	2880
820.324	2883
820.465	2971
820.605	3028
820.746	2967
820.886	2937
821.026	3093
821.167	3161
821.307	3275
821.447	3245
821.588	3264
821.728	3233
821.868	3157
822.008	3085
822.149	3195
822.289	3218
822.429	3116
822.569	3070
822.709	3214
822.849	3009
822.99	3070
823.13	3214
823.27	3211
823.41	3150
823.55	3131
823.69	3161
823.83	3169
823.97	3108
824.11	3013
824.25	2998
824.389	3081
824.529	3165
824.669	3081
824.809	3226
824.949	3253
825.089	3233
825.228	3207
825.368	3005
825.508	2975
825.648	2963
825.787	3024
825.927	3024
826.067	2982
826.206	2967
826.346	3039
826.485	3081
826.625	3093
826.765	3272
826.904	3222
827.044	2975
827.183	2948
827.323	2857
827.462	3005
827.601	2887
827.741	2937
827.88	2944
828.02	2864
828.159	2956
828.298	3055
828.437	3150
828.577	3024
828.716	3241
828.855	3085
828.994	2918
829.134	2902
829.273	2925
829.412	2883
829.551	2826
829.69	2899
829.829	2990
829.968	3150
830.107	3013
830.246	3055
830.385	2895
830.524	2864
830.663	2830
830.802	2705
830.941	2655
831.08	2636
831.219	2766
831.357	2796
831.496	2956
831.635	2708
831.774	2689
831.913	2655
832.051	2545
832.19	2575
832.329	2663
832.467	2530
832.606	2499
832.744	2571
832.883	2590
833.022	2556
833.16	2655
833.299	2697
833.437	2697
833.576	2678
833.714	2758
833.852	2720
833.991	2781
834.129	2853
834.267	2819
834.406	2807
834.544	2842
834.682	2899
834.821	2880
834.959	3085
835.097	2902
835.235	3024
835.373	3017
835.511	3024
835.65	2975
835.788	2952
835.926	2823
836.064	2823
836.202	2823
836.34	3097
836.478	3154
836.615	3051
836.753	3127
836.891	3214
837.029	3165
837.167	3112
837.305	3074
837.443	3020
837.58	2990
837.718	3135
837.856	3039
837.993	3032
838.131	3085
838.269	3135
838.406	3104
838.544	3066
838.681	2948
838.819	2910
838.956	2804
839.094	2845
839.231	2925
839.369	3039
839.506	3374
839.643	3192
839.781	3028
839.918	2967
840.055	3043
840.193	3024
840.33	3074
840.467	3116
840.604	3161
840.742	3374
840.879	3074
841.016	3066
841.153	3116
841.29	3287
841.427	3317
841.564	3264
841.701	3249
841.838	3230
841.975	3165
842.112	3207
842.249	3066
842.385	3032
842.522	3253
842.659	3062
842.796	3066
842.933	3119
843.069	3062
843.206	3058
843.343	3150
843.479	3097
843.616	3157
843.752	2922
843.889	2861
844.025	3066
844.162	2895
844.298	3032
844.435	2914
844.571	2906
844.708	3089
844.844	3180
844.98	3184
845.117	3176
845.253	3051
845.389	2986
845.525	3116
845.661	3093
845.798	3036
845.934	3108
846.07	3055
846.206	3214
846.342	3294
846.478	3233
846.614	3097
846.75	3051
846.886	3020
847.022	3275
847.158	3138
847.294	3184
847.429	3237
847.565	3233
847.701	3477
847.837	3028
847.972	2979
848.108	3150
848.244	3131
848.379	3017
848.515	2895
848.65	2922
848.786	2990
848.921	3013
849.057	3077
849.192	3142
849.328	3108
849.463	3085
849.598	3058
849.734	3039
849.869	2979
850.004	2937
850.14	2952
850.275	2933
850.41	2853
850.545	2891
850.68	2952
850.815	2963
850.95	2933
851.085	3195
851.22	3116
851.355	3017
851.49	3005
851.625	3001
851.76	2998
851.895	2922
852.03	2876
852.165	3024
852.299	3081
852.434	3199
852.569	3127
852.703	3207
852.838	3237
852.973	3325
853.107	3298
853.242	3150
853.376	3104
853.511	2975
853.645	3039
853.78	3218
853.914	3112
854.048	3089
854.183	3100
854.317	3116
854.451	3264
854.585	3119
854.72	3108
854.854	3211
854.988	3051
855.122	3066
855.256	2994
855.39	3119
855.524	3241
855.658	3195
855.792	3135
855.926	3195
856.06	3188
856.194	3256
856.327	3157
856.461	3051
856.595	3039
856.729	3051
856.862	3188
856.996	3150
857.13	3207
857.263	3195
857.397	3256
857.53	3097
857.664	3165
857.797	3218
857.931	3245
858.064	3165
858.197	3192
858.331	3108
858.464	3097
858.597	3020
858.731	3093
858.864	3116
858.997	3116
859.13	3127
859.263	3154
859.396	3165
859.529	3081
859.662	3047
859.795	3058
859.928	3150
860.061	3272
860.194	3291
860.327	3157
860.46	3119
860.592	3214
860.725	3245
860.858	3237
860.99	3131
861.123	3070
861.256	3024
861.388	3150
861.521	3701
861.653	3020
861.786	2956
861.918	3017
862.05	3062
862.183	3066
862.315	3104
862.447	3188
862.58	3116
862.712	2925
862.844	2868
862.976	3036
863.108	3013
863.24	3313
863.372	2876
863.504	2986
863.636	2952
863.768	3055
863.9	2994
864.032	2922
864.164	2956
864.296	3024
864.428	3077
864.559	3093
864.691	3074
864.823	3043
864.954	3036
865.086	3028
865.217	2986
865.349	2937
865.48	2948
865.612	3036
865.743	3157
865.875	2998
866.006	2929
866.137	3001
866.269	2941
866.4	2910
866.531	2933
866.662	2864
866.793	2895
866.924	2910
867.055	2963
867.186	2918
867.317	2887
867.448	2830
867.579	2830
867.71	2842
867.841	2788
867.972	2941
868.103	2906
868.233	2853
868.364	2880
868.495	2925
868.625	3051
868.756	3161
868.886	2952
869.017	3020
869.147	3135
869.278	3184
869.408	3028
869.539	3009
869.669	3089
869.799	3024
869.929	3097
870.06	3119
870.19	3321
870.32	3268
870.45	3317
870.58	3359
870.71	3450
870.84	3450
870.97	3294
871.1	3249
871.23	3492
871.36	3431
871.489	3405
871.619	3393
871.749	3420
871.879	3450
872.008	3507
872.138	3359
872.267	3260
872.397	3123
872.526	3097
872.656	3020
872.785	3100
872.915	3226
873.044	3306
873.173	3218
873.303	3237
873.432	3241
873.561	3237
873.69	3176
873.819	3150
873.948	3180
874.077	3116
874.206	3055
874.335	3070
874.464	3184
874.593	3344
874.722	3211
874.851	3412
874.979	3317
875.108	3325
875.237	3214
875.365	3142
875.494	3123
875.623	3218
875.751	3089
875.88	3100
876.008	3188
876.136	3199
876.265	3336
876.393	3530
876.521	3420
876.65	3420
876.778	3363
876.906	3253
877.034	3184
877.162	3233
877.29	3127
877.418	3218
877.546	3233
877.674	3245
877.802	3241
877.93	3230
878.058	3154
878.185	3104
878.313	3192
878.441	3203
878.568	3051
878.696	3154
878.824	3245
878.951	3264
879.079	3481
879.206	3614
879.333	3416
879.461	3306
879.588	3378
879.715	3469
879.842	3534
879.97	3351
880.097	3176
880.224	3142
880.351	3222
880.478	3230
880.605	3195
880.732	3150
880.859	3481
880.986	3256
881.112	3302
881.239	3230
881.366	3112
881.493	3047
881.619	3032
881.746	3051
881.872	3112
881.999	3066
882.125	3135
882.252	3207
882.378	3260
882.505	3439
882.631	3268
882.757	3157
882.883	3207
883.01	3173
883.136	3135
883.262	3100
883.388	3104
883.514	3317
883.64	3336
883.766	3275
883.892	3135
884.018	3260
884.143	3374
884.269	3504
884.395	3169
884.52	3188
884.646	3169
884.772	3108
884.897	3108
885.023	3207
885.148	3264
885.274	3401
885.399	3374
885.524	3279
885.65	3241
885.775	3321
885.9	3283
886.025	3431
886.15	3336
886.275	3294
886.4	3218
886.525	3283
886.65	3253
886.775	3253
886.9	3500
887.025	3625
887.149	3428
887.274	3256
887.399	3180
887.523	3211
887.648	3138
887.773	3233
887.897	3378
888.021	3401
888.146	3294
888.27	3405
888.395	3507
888.519	3409
888.643	3466
888.767	3420
888.891	3310
889.015	3211
889.139	3313
889.263	3260
889.387	3401
889.511	3496
889.635	3435
889.759	3268
889.883	3313
890.006	3321
890.13	3515
890.254	3275
890.377	3306
890.501	3226
890.624	3176
890.748	3310
890.871	3161
890.995	3116
891.118	3043
891.241	3203
891.364	3199
891.488	3279
891.611	3176
891.734	3245
891.857	3272
891.98	3233
892.103	3378
892.226	3272
892.349	3195
892.471	3142
892.594	3237
892.717	3302
892.839	3275
892.962	3275
893.085	3367
893.207	3260
893.33	3146
893.452	3211
893.575	3344
893.697	3287
893.819	3454
893.941	3485
894.064	3450
894.186	3272
894.308	3283
894.43	3431
894.552	3538
894.674	3477
894.796	3275
894.918	3325
895.04	3298
895.161	3412
895.283	3412
895.405	3298
895.526	3355
895.648	3428
895.769	3447
895.891	3420
896.012	3488
896.134	3469
896.255	3382
896.376	3389
896.498	3367
896.619	3428
896.74	3397
896.861	3393
896.982	3679
897.103	3842
897.224	3603
897.345	3538
897.466	3428
897.587	3507
897.708	3629
897.828	3538
897.949	3428
898.07	3298
898.19	3412
898.311	3603
898.431	3447
898.552	3507
898.672	3595
898.792	3599
898.913	3511
899.033	3397
899.153	3287
899.273	3211
899.393	3298
899.513	3291
899.633	3351
899.753	3306
899.873	3283
899.993	3363
900.113	3313
900.232	3351
900.352	3348
900.472	3264
900.591	3218
900.711	3298
900.83	3192
900.95	3412
901.069	3511
901.189	3332
901.308	3176
901.427	3116
901.546	3188
901.665	3310
901.784	3325
901.904	3184
902.023	3176
902.141	3017
902.26	2982
902.379	3146
902.498	3036
902.617	3074
902.735	3211
902.854	3230
902.973	3150
903.091	3020
903.21	3055
903.328	3150
903.446	3142
903.565	3112
903.683	3192
903.801	3104
903.919	3245
904.038	3268
904.156	3165
904.274	3294
904.392	3283
904.51	3264
904.627	3313
904.745	3428
904.863	3477
904.981	3245
905.098	3142
905.216	3218
905.334	3287
905.451	3306
905.569	3279
905.686	3382
905.803	3458
905.921	3291
906.038	3424
906.155	3355
906.272	3279
906.389	3336
906.506	3241
906.623	3241
906.74	3233
906.857	3176
906.974	3256
907.091	3466
907.208	3542
907.324	3488
907.441	3405
907.557	3233
907.674	3211
907.79	3207
907.907	3260
908.023	3393
908.139	3420
908.256	3298
908.372	3386
908.488	3332
908.604	3287
908.72	3253
908.836	3275
908.952	3317
909.068	3321
909.184	3469
909.3	3359
909.415	3477
909.531	3454
909.647	3264
909.762	3272
909.878	3272
909.993	3367
910.108	3287
910.224	3302
910.339	3393
910.454	3340
910.57	3287
910.685	3268
910.8	3587
910.915	3500
911.03	3412
911.145	3283
911.259	3298
911.374	3298
911.489	3233
911.604	3226
911.718	3135
911.833	3161
911.947	2979
912.062	2975
912.176	3188
912.291	3203
912.405	3207
912.519	3397
912.633	3507
912.748	3317
912.862	3272
912.976	3176
913.09	3043
913.204	3119
913.318	3207
913.431	3310
913.545	3355
913.659	3382
913.772	3340
913.886	3195
914	3161
914.113	3344
914.226	3378
914.34	3409
914.453	3226
914.566	3416
914.68	3291
914.793	3329
914.906	3119
915.019	3089
915.132	3104
915.245	3184
915.358	3214
915.47	3195
915.583	3245
915.696	3279
915.809	3393
915.921	3378
916.034	3230
916.146	3222
916.259	3199
916.371	3382
916.483	3363
916.595	3253
916.708	3306
916.82	3340
916.932	3317
917.044	3355
917.156	3336
917.268	3230
917.38	3302
917.491	3287
917.603	3397
917.715	3447
917.826	3462
917.938	3344
918.049	3264
918.161	3420
918.272	3561
918.384	3595
918.495	3447
918.606	3332
918.717	3291
918.828	3313
918.939	3382
919.05	3306
919.161	3370
919.272	3195
919.383	3310
919.494	3504
919.604	3637
919.715	3492
919.826	3378
919.936	3412
920.047	3591
920.157	3580
920.267	3781
920.378	3648
920.488	3595
920.598	3755
920.708	3964
920.818	3838
920.928	3854
921.038	4013
921.148	3991
921.258	3720
921.368	3622
921.477	3568
921.587	3504
921.697	3439
921.806	3606
921.916	3519
922.025	3355
922.134	3386
922.244	3310
922.353	3412
922.462	3233
922.571	3211
922.68	3127
922.789	3097
922.898	3119
923.007	3100
923.116	3230
923.224	3165
923.333	3161
923.442	3089
923.55	3127
923.659	3169
923.767	3211
923.876	3123
923.984	3222
924.092	3154
924.201	3207
924.309	3260
924.417	3256
924.525	3195
924.633	3241
924.741	3991
924.849	3020
924.956	3230
925.064	3104
925.172	3058
925.279	3097
925.387	3184
925.494	3188
925.602	3325
925.709	3332
925.816	3180
925.924	3283
926.031	3351
926.138	3306
926.245	3401
926.352	3214
926.459	3405
926.566	3500
926.673	3313
926.779	3241
926.886	3237
926.993	3173
927.099	3150
927.206	3112
927.312	3127
927.419	3211
927.525	3199
927.631	3253
927.737	3116
927.843	3131
927.95	3028
928.056	3119
928.162	3157
928.267	3218
928.373	3884
928.479	3291
928.585	3085
928.69	3218
928.796	3230
928.901	3138
929.007	3062
929.112	3233
929.218	3161
929.323	3131
929.428	3165
929.533	3302
929.638	3146
929.743	3131
929.848	3275
929.953	3233
930.058	3112
930.163	2986
930.267	3020
930.372	3230
930.477	3028
930.581	3317
930.685	3161
930.79	3043
930.894	3123
930.998	3085
931.103	3302
931.207	2933
931.311	2925
931.415	2922
931.519	2758
931.623	2785
