Data from test_V78500241_1992.txt Node
Date: Fri Mar 25 16:29:00 CST 2022
User: usil
Spectrometer: V785-0024
Trigger mode: 0
Integration Time (sec): 4.000000E-1
Scans to average: 1
Nonlinearity correction enabled: false
Boxcar width: 0
Storing dark spectrum: false
XAxis mode: Wavelengths
Number of Pixels in Spectrum: 1024
>>>>>Begin Spectral Data<<<<<
801.071	2895
801.214	2941
801.356	2883
801.499	2902
801.641	2861
801.783	2922
801.926	3020
802.068	2990
802.211	2998
802.353	2998
802.496	2948
802.638	3001
802.78	3043
802.923	3070
803.065	2963
803.208	2891
803.35	2914
803.492	2929
803.635	2929
803.777	2769
803.919	2842
804.061	3203
804.204	2937
804.346	2887
804.488	2830
804.63	2998
804.773	2883
804.915	2922
805.057	3081
805.199	2929
805.341	2956
805.483	3036
805.626	3009
805.768	2960
805.91	3097
806.052	3093
806.194	3017
806.336	3226
806.478	3039
806.62	2971
806.762	2975
806.904	3070
807.046	3119
807.188	2994
807.33	2880
807.472	2998
807.614	2922
807.756	2963
807.898	2929
808.04	2872
808.182	2963
808.324	2952
808.465	2914
808.607	2868
808.749	2804
808.891	2853
809.033	2994
809.174	3001
809.316	2910
809.458	2883
809.6	2792
809.741	2750
809.883	2746
810.025	2861
810.166	2857
810.308	2845
810.45	2849
810.591	2788
810.733	2796
810.875	2830
811.016	2785
811.158	2746
811.299	2830
811.441	2887
811.582	2902
811.724	2804
811.865	2845
812.007	2944
812.148	2895
812.29	2868
812.431	2895
812.573	2948
812.714	2956
812.855	3032
812.997	3058
813.138	3104
813.279	3024
813.421	2971
813.562	2982
813.703	2876
813.845	2895
813.986	2781
814.127	2727
814.268	2842
814.41	2842
814.551	2800
814.692	2910
814.833	2823
814.974	2891
815.115	2956
815.256	2891
815.397	2777
815.539	2868
815.68	2807
815.821	2815
815.962	2929
816.103	2914
816.244	2857
816.385	2861
816.526	2975
816.666	2895
816.807	2762
816.948	2899
817.089	2929
817.23	2872
817.371	2819
817.512	2788
817.653	2842
817.793	2864
817.934	2880
818.075	2960
818.216	2975
818.356	3020
818.497	2872
818.638	2834
818.778	2796
818.919	2777
819.06	2731
819.2	2883
819.341	2796
819.481	2804
819.622	2925
819.762	3066
819.903	3043
820.043	2910
820.184	2922
820.324	2941
820.465	3043
820.605	2994
820.746	3024
820.886	2944
821.026	3097
821.167	3138
821.307	3256
821.447	3218
821.588	3268
821.728	3199
821.868	3218
822.008	3043
822.149	3192
822.289	3260
822.429	3097
822.569	3058
822.709	3184
822.849	3013
822.99	3077
823.13	3138
823.27	3176
823.41	3131
823.55	3119
823.69	3142
823.83	3195
823.97	3074
824.11	3013
824.25	3009
824.389	3055
824.529	3112
824.669	3070
824.809	3214
824.949	3264
825.089	3222
825.228	3192
825.368	2994
825.508	2967
825.648	2975
825.787	3013
825.927	3024
826.067	2956
826.206	2902
826.346	3009
826.485	3039
826.625	3119
826.765	3249
826.904	3150
827.044	2982
827.183	2899
827.323	2872
827.462	2948
827.601	2883
827.741	2944
827.88	2918
828.02	2864
828.159	2994
828.298	3039
828.437	3066
828.577	3070
828.716	3237
828.855	3074
828.994	2929
829.134	2880
829.273	2948
829.412	2849
829.551	2864
829.69	2880
829.829	2994
829.968	3138
830.107	3001
830.246	3036
830.385	2925
830.524	2861
830.663	2830
830.802	2746
830.941	2636
831.08	2610
831.219	2743
831.357	2800
831.496	2956
831.635	2724
831.774	2640
831.913	2693
832.051	2552
832.19	2579
832.329	2670
832.467	2507
832.606	2461
832.744	2594
832.883	2575
833.022	2583
833.16	2651
833.299	2708
833.437	2689
833.576	2689
833.714	2739
833.852	2727
833.991	2754
834.129	2834
834.267	2819
834.406	2788
834.544	2845
834.682	2845
834.821	2857
834.959	3043
835.097	2876
835.235	3055
835.373	3005
835.511	3032
835.65	2963
835.788	2948
835.926	2800
836.064	2796
836.202	2815
836.34	3062
836.478	3161
836.615	3070
836.753	3119
836.891	3184
837.029	3157
837.167	3119
837.305	3108
837.443	3043
837.58	2960
837.718	3116
837.856	3055
837.993	3062
838.131	3169
838.269	3123
838.406	3138
838.544	3081
838.681	2933
838.819	2906
838.956	2800
839.094	2830
839.231	2902
839.369	3039
839.506	3386
839.643	3226
839.781	2979
839.918	2918
840.055	3039
840.193	3055
840.33	3043
840.467	3081
840.604	3123
840.742	3378
840.879	3024
841.016	3077
841.153	3085
841.29	3317
841.427	3283
841.564	3233
841.701	3306
841.838	3237
841.975	3180
842.112	3268
842.249	3085
842.385	3051
842.522	3222
842.659	3085
842.796	3077
842.933	3097
843.069	3017
843.206	3017
843.343	3188
843.479	3039
843.616	3116
843.752	2887
843.889	2872
844.025	3085
844.162	2872
844.298	3051
844.435	2963
844.571	2895
844.708	3074
844.844	3203
844.98	3226
845.117	3173
845.253	3058
845.389	2963
845.525	3093
845.661	3108
845.798	3009
845.934	3131
846.07	3028
846.206	3180
846.342	3336
846.478	3218
846.614	3074
846.75	3024
846.886	3036
847.022	3203
847.158	3135
847.294	3214
847.429	3222
847.565	3176
847.701	3469
847.837	3055
847.972	2998
848.108	3184
848.244	3116
848.379	2971
848.515	2918
848.65	2929
848.786	2944
848.921	3001
849.057	3112
849.192	3119
849.328	3047
849.463	3123
849.598	3070
849.734	2994
849.869	2986
850.004	2910
850.14	2952
850.275	2887
850.41	2857
850.545	2902
850.68	2925
850.815	2967
850.95	2948
851.085	3161
851.22	3081
851.355	3055
851.49	2982
851.625	2986
851.76	3036
851.895	2922
852.03	2914
852.165	3017
852.299	3081
852.434	3161
852.569	3135
852.703	3173
852.838	3233
852.973	3329
853.107	3348
853.242	3173
853.376	3062
853.511	2963
853.645	3024
853.78	3233
853.914	3093
854.048	3085
854.183	3066
854.317	3169
854.451	3310
854.585	3112
854.72	3055
854.854	3249
854.988	3028
855.122	3100
855.256	2956
855.39	3131
855.524	3237
855.658	3157
855.792	3150
855.926	3188
856.06	3203
856.194	3249
856.327	3119
856.461	3058
856.595	3100
856.729	3074
856.862	3214
856.996	3135
857.13	3207
857.263	3218
857.397	3253
857.53	3100
857.664	3180
857.797	3214
857.931	3256
858.064	3192
858.197	3237
858.331	3150
858.464	3089
858.597	3013
858.731	3123
858.864	3104
858.997	3089
859.13	3184
859.263	3142
859.396	3188
859.529	3062
859.662	3051
859.795	3028
859.928	3119
860.061	3283
860.194	3264
860.327	3131
860.46	3070
860.592	3226
860.725	3237
860.858	3230
860.99	3089
861.123	3066
861.256	3085
861.388	3138
861.521	3850
861.653	3020
861.786	2971
861.918	3020
862.05	3058
862.183	3138
862.315	3184
862.447	3150
862.58	3108
862.712	2960
862.844	2895
862.976	3039
863.108	2982
863.24	3405
863.372	2880
863.504	2960
863.636	2922
863.768	3051
863.9	3005
864.032	2918
864.164	2967
864.296	3013
864.428	3081
864.559	3123
864.691	3043
864.823	3047
864.954	3005
865.086	3043
865.217	3009
865.349	2956
865.48	2956
865.612	2994
865.743	3157
865.875	2971
866.006	2925
866.137	2960
866.269	2929
866.4	2971
866.531	2895
866.662	2880
866.793	2876
866.924	2914
867.055	2960
867.186	2918
867.317	2872
867.448	2834
867.579	2830
867.71	2849
867.841	2800
867.972	2910
868.103	2876
868.233	2872
868.364	2849
868.495	2914
868.625	3074
868.756	3142
868.886	2933
869.017	2982
869.147	3161
869.278	3184
869.408	3051
869.539	3009
869.669	3104
869.799	2994
869.929	3104
870.06	3089
870.19	3325
870.32	3317
870.45	3310
870.58	3351
870.71	3439
870.84	3424
870.97	3268
871.1	3268
871.23	3515
871.36	3443
871.489	3355
871.619	3405
871.749	3397
871.879	3435
872.008	3416
872.138	3367
872.267	3287
872.397	3123
872.526	3089
872.656	3001
872.785	3093
872.915	3218
873.044	3298
873.173	3237
873.303	3233
873.432	3230
873.561	3207
873.69	3135
873.819	3157
873.948	3195
874.077	3100
874.206	3032
874.335	3081
874.464	3161
874.593	3393
874.722	3241
874.851	3378
874.979	3332
875.108	3329
875.237	3154
875.365	3131
875.494	3142
875.623	3233
875.751	3123
875.88	3104
876.008	3157
876.136	3226
876.265	3355
876.393	3462
876.521	3439
876.65	3382
876.778	3329
876.906	3264
877.034	3180
877.162	3192
877.29	3142
877.418	3256
877.546	3222
877.674	3226
877.802	3237
877.93	3199
878.058	3112
878.185	3085
878.313	3154
878.441	3199
878.568	3085
878.696	3154
878.824	3279
878.951	3287
879.079	3420
879.206	3660
879.333	3469
879.461	3302
879.588	3363
879.715	3481
879.842	3561
879.97	3332
880.097	3154
880.224	3123
880.351	3165
880.478	3154
880.605	3211
880.732	3195
880.859	3469
880.986	3302
881.112	3313
881.239	3214
881.366	3119
881.493	3058
881.619	2994
881.746	3081
881.872	3074
881.999	3051
882.125	3127
882.252	3207
882.378	3306
882.505	3409
882.631	3264
882.757	3154
882.883	3230
883.01	3222
883.136	3112
883.262	3077
883.388	3108
883.514	3325
883.64	3370
883.766	3310
883.892	3199
884.018	3237
884.143	3405
884.269	3504
884.395	3188
884.52	3146
884.646	3184
884.772	3116
884.897	3089
885.023	3188
885.148	3317
885.274	3344
885.399	3336
885.524	3272
885.65	3298
885.775	3268
885.9	3253
886.025	3450
886.15	3397
886.275	3302
886.4	3237
886.525	3321
886.65	3264
886.775	3283
886.9	3515
887.025	3633
887.149	3344
887.274	3272
887.399	3154
887.523	3199
887.648	3188
887.773	3184
887.897	3370
888.021	3382
888.146	3306
888.27	3447
888.395	3526
888.519	3420
888.643	3416
888.767	3416
888.891	3317
889.015	3214
889.139	3298
889.263	3253
889.387	3370
889.511	3523
889.635	3431
889.759	3298
889.883	3272
890.006	3367
890.13	3477
890.254	3253
890.377	3351
890.501	3184
890.624	3214
890.748	3291
890.871	3165
890.995	3127
891.118	3047
891.241	3226
891.364	3222
891.488	3325
891.611	3188
891.734	3237
891.857	3298
891.98	3218
892.103	3313
892.226	3291
892.349	3230
892.471	3127
892.594	3260
892.717	3275
892.839	3279
892.962	3294
893.085	3363
893.207	3283
893.33	3150
893.452	3207
893.575	3348
893.697	3230
893.819	3450
893.941	3504
894.064	3447
894.186	3241
894.308	3256
894.43	3458
894.552	3519
894.674	3469
894.796	3245
894.918	3310
895.04	3283
895.161	3401
895.283	3370
895.405	3283
895.526	3351
895.648	3450
895.769	3409
895.891	3473
896.012	3469
896.134	3466
896.255	3374
896.376	3367
896.498	3325
896.619	3397
896.74	3355
896.861	3412
896.982	3709
897.103	3823
897.224	3599
897.345	3492
897.466	3428
897.587	3492
897.708	3629
897.828	3534
897.949	3439
898.07	3359
898.19	3416
898.311	3610
898.431	3458
898.552	3477
898.672	3625
898.792	3553
898.913	3519
899.033	3405
899.153	3260
899.273	3195
899.393	3317
899.513	3310
899.633	3283
899.753	3348
899.873	3287
899.993	3374
900.113	3313
900.232	3401
900.352	3351
900.472	3272
900.591	3222
900.711	3283
900.83	3260
900.95	3454
901.069	3469
901.189	3340
901.308	3195
901.427	3112
901.546	3176
901.665	3283
901.784	3272
901.904	3184
902.023	3127
902.141	3020
902.26	3017
902.379	3146
902.498	3055
902.617	3043
902.735	3180
902.854	3256
902.973	3184
903.091	3043
903.21	3055
903.328	3108
903.446	3127
903.565	3093
903.683	3173
903.801	3138
903.919	3237
904.038	3298
904.156	3154
904.274	3306
904.392	3253
904.51	3275
904.627	3310
904.745	3447
904.863	3473
904.981	3256
905.098	3131
905.216	3211
905.334	3283
905.451	3279
905.569	3321
905.686	3447
905.803	3439
905.921	3306
906.038	3393
906.155	3336
906.272	3291
906.389	3344
906.506	3222
906.623	3275
906.74	3294
906.857	3188
906.974	3214
907.091	3435
907.208	3549
907.324	3435
907.441	3378
907.557	3211
907.674	3256
907.79	3195
907.907	3283
908.023	3393
908.139	3359
908.256	3302
908.372	3412
908.488	3336
908.604	3253
908.72	3233
908.836	3298
908.952	3260
909.068	3317
909.184	3488
909.3	3378
909.415	3511
909.531	3469
909.647	3291
909.762	3264
909.878	3245
909.993	3351
910.108	3321
910.224	3302
910.339	3386
910.454	3351
910.57	3344
910.685	3245
910.8	3587
910.915	3553
911.03	3428
911.145	3287
911.259	3272
911.374	3294
911.489	3237
911.604	3230
911.718	3104
911.833	3150
911.947	3051
912.062	2982
912.176	3173
912.291	3154
912.405	3203
912.519	3420
912.633	3469
912.748	3336
912.862	3287
912.976	3138
913.09	3055
913.204	3138
913.318	3214
913.431	3359
913.545	3336
913.659	3420
913.772	3344
913.886	3192
914	3230
914.113	3359
914.226	3393
914.34	3382
914.453	3188
914.566	3389
914.68	3306
914.793	3283
914.906	3112
915.019	3116
915.132	3074
915.245	3173
915.358	3161
915.47	3233
915.583	3260
915.696	3272
915.809	3424
915.921	3382
916.034	3256
916.146	3264
916.259	3207
916.371	3386
916.483	3355
916.595	3253
916.708	3313
916.82	3321
916.932	3367
917.044	3348
917.156	3359
917.268	3245
917.38	3279
917.491	3264
917.603	3348
917.715	3447
917.826	3462
917.938	3359
918.049	3253
918.161	3424
918.272	3545
918.384	3633
918.495	3477
918.606	3310
918.717	3260
918.828	3374
918.939	3416
919.05	3302
919.161	3382
919.272	3157
919.383	3268
919.494	3462
919.604	3675
919.715	3500
919.826	3386
919.936	3466
920.047	3591
920.157	3568
920.267	3781
920.378	3580
920.488	3561
920.598	3781
920.708	3991
920.818	3812
920.928	3842
921.038	4044
921.148	3930
921.258	3709
921.368	3652
921.477	3591
921.587	3545
921.697	3450
921.806	3591
921.916	3504
922.025	3363
922.134	3348
922.244	3332
922.353	3466
922.462	3279
922.571	3195
922.68	3100
922.789	3081
922.898	3142
923.007	3074
923.116	3195
923.224	3169
923.333	3192
923.442	3161
923.55	3085
923.659	3104
923.767	3237
923.876	3146
923.984	3199
924.092	3135
924.201	3203
924.309	3211
924.417	3260
924.525	3211
924.633	3214
924.741	4154
924.849	3009
924.956	3283
925.064	3142
925.172	3028
925.279	3070
925.387	3207
925.494	3222
925.602	3344
925.709	3351
925.816	3157
925.924	3287
926.031	3344
926.138	3336
926.245	3355
926.352	3226
926.459	3428
926.566	3492
926.673	3348
926.779	3268
926.886	3268
926.993	3146
927.099	3127
927.206	3127
927.312	3112
927.419	3214
927.525	3184
927.631	3268
927.737	3165
927.843	3116
927.95	3009
928.056	3150
928.162	3169
928.267	3214
928.373	3911
928.479	3313
928.585	3070
928.69	3184
928.796	3249
928.901	3173
929.007	3097
929.112	3218
929.218	3176
929.323	3150
929.428	3123
929.533	3272
929.638	3112
929.743	3180
929.848	3245
929.953	3199
930.058	3184
930.163	3001
930.267	3089
930.372	3203
930.477	3051
930.581	3348
930.685	3150
930.79	3058
930.894	3112
930.998	3108
931.103	3283
931.207	2933
931.311	2948
931.415	2929
931.519	2773
931.623	2819
