Data from test_V78500241_1939.txt Node
Date: Fri Mar 25 16:28:38 CST 2022
User: usil
Spectrometer: V785-0024
Trigger mode: 0
Integration Time (sec): 4.000000E-1
Scans to average: 1
Nonlinearity correction enabled: false
Boxcar width: 0
Storing dark spectrum: false
XAxis mode: Wavelengths
Number of Pixels in Spectrum: 1024
>>>>>Begin Spectral Data<<<<<
801.071	2975
801.214	2956
801.356	2948
801.499	2918
801.641	2902
801.783	2963
801.926	3055
802.068	3001
802.211	3020
802.353	3062
802.496	3017
802.638	3036
802.78	3066
802.923	3089
803.065	3005
803.208	2925
803.35	2929
803.492	2998
803.635	2948
803.777	2758
803.919	2876
804.061	3203
804.204	2963
804.346	2925
804.488	2849
804.63	3009
804.773	2899
804.915	2933
805.057	3055
805.199	2994
805.341	2998
805.483	3089
805.626	3032
805.768	2967
805.91	3093
806.052	3150
806.194	3093
806.336	3237
806.478	3047
806.62	2963
806.762	3047
806.904	3077
807.046	3142
807.188	2990
807.33	2914
807.472	3001
807.614	2895
807.756	3024
807.898	2952
808.04	2902
808.182	2990
808.324	2967
808.465	2899
808.607	2883
808.749	2792
808.891	2880
809.033	2979
809.174	3005
809.316	2880
809.458	2929
809.6	2804
809.741	2769
809.883	2781
810.025	2861
810.166	2872
810.308	2895
810.45	2880
810.591	2785
810.733	2769
810.875	2857
811.016	2804
811.158	2781
811.299	2857
811.441	2944
811.582	2933
811.724	2857
811.865	2842
812.007	2925
812.148	2883
812.29	2845
812.431	2876
812.573	2925
812.714	2952
812.855	3089
812.997	3104
813.138	3112
813.279	3020
813.421	2990
813.562	2933
813.703	2914
813.845	2895
813.986	2769
814.127	2750
814.268	2853
814.41	2853
814.551	2845
814.692	2883
814.833	2857
814.974	2922
815.115	2948
815.256	2838
815.397	2815
815.539	2876
815.68	2819
815.821	2815
815.962	2937
816.103	2941
816.244	2864
816.385	2922
816.526	3013
816.666	2960
816.807	2788
816.948	2906
817.089	2948
817.23	2910
817.371	2807
817.512	2804
817.653	2880
817.793	2864
817.934	2899
818.075	3005
818.216	2998
818.356	3062
818.497	2918
818.638	2792
818.778	2861
818.919	2819
819.06	2800
819.2	2925
819.341	2845
819.481	2811
819.622	2944
819.762	3123
819.903	3020
820.043	2941
820.184	2925
820.324	2902
820.465	3070
820.605	3036
820.746	3024
820.886	2956
821.026	3138
821.167	3203
821.307	3306
821.447	3279
821.588	3294
821.728	3207
821.868	3211
822.008	3097
822.149	3180
822.289	3218
822.429	3085
822.569	3058
822.709	3199
822.849	3077
822.99	3066
823.13	3157
823.27	3195
823.41	3146
823.55	3108
823.69	3195
823.83	3203
823.97	3112
824.11	2986
824.25	3036
824.389	3089
824.529	3150
824.669	3077
824.809	3214
824.949	3264
825.089	3253
825.228	3180
825.368	3005
825.508	2967
825.648	2994
825.787	2994
825.927	3047
826.067	3009
826.206	3005
826.346	3097
826.485	3089
826.625	3138
826.765	3294
826.904	3241
827.044	3001
827.183	2960
827.323	2887
827.462	2979
827.601	2948
827.741	2906
827.88	2956
828.02	2899
828.159	2975
828.298	3062
828.437	3135
828.577	3024
828.716	3245
828.855	3127
828.994	2899
829.134	2906
829.273	2918
829.412	2857
829.551	2895
829.69	2891
829.829	2994
829.968	3169
830.107	3051
830.246	3039
830.385	2925
830.524	2887
830.663	2811
830.802	2758
830.941	2644
831.08	2667
831.219	2781
831.357	2777
831.496	2975
831.635	2712
831.774	2655
831.913	2670
832.051	2564
832.19	2583
832.329	2705
832.467	2552
832.606	2503
832.744	2606
832.883	2621
833.022	2598
833.16	2674
833.299	2724
833.437	2705
833.576	2689
833.714	2750
833.852	2762
833.991	2750
834.129	2857
834.267	2826
834.406	2792
834.544	2861
834.682	2891
834.821	2849
834.959	3074
835.097	2914
835.235	3116
835.373	2998
835.511	3066
835.65	2971
835.788	2948
835.926	2853
836.064	2796
836.202	2838
836.34	3097
836.478	3184
836.615	3055
836.753	3150
836.891	3226
837.029	3180
837.167	3097
837.305	3077
837.443	3074
837.58	2960
837.718	3112
837.856	3081
837.993	3036
838.131	3154
838.269	3100
838.406	3119
838.544	3077
838.681	2956
838.819	2925
838.956	2823
839.094	2838
839.231	2925
839.369	3024
839.506	3367
839.643	3222
839.781	3024
839.918	2971
840.055	3039
840.193	3051
840.33	3058
840.467	3085
840.604	3188
840.742	3393
840.879	3051
841.016	3036
841.153	3108
841.29	3321
841.427	3321
841.564	3294
841.701	3348
841.838	3245
841.975	3184
842.112	3222
842.249	3077
842.385	3058
842.522	3260
842.659	3097
842.796	3108
842.933	3097
843.069	3077
843.206	3043
843.343	3199
843.479	3116
843.616	3146
843.752	2918
843.889	2918
844.025	3100
844.162	2902
844.298	3085
844.435	2963
844.571	2929
844.708	3051
844.844	3203
844.98	3253
845.117	3222
845.253	3070
845.389	2982
845.525	3100
845.661	3093
845.798	3009
845.934	3116
846.07	3074
846.206	3218
846.342	3279
846.478	3241
846.614	3081
846.75	3032
846.886	3024
847.022	3245
847.158	3173
847.294	3203
847.429	3237
847.565	3230
847.701	3507
847.837	3062
847.972	3001
848.108	3169
848.244	3184
848.379	2971
848.515	2960
848.65	2929
848.786	2994
848.921	3009
849.057	3093
849.192	3142
849.328	3066
849.463	3097
849.598	3100
849.734	3036
849.869	2990
850.004	2918
850.14	2956
850.275	2937
850.41	2861
850.545	2887
850.68	2914
850.815	2967
850.95	2982
851.085	3176
851.22	3104
851.355	3020
851.49	3017
851.625	3005
851.76	3001
851.895	2906
852.03	2937
852.165	3055
852.299	3123
852.434	3192
852.569	3135
852.703	3180
852.838	3233
852.973	3363
853.107	3310
853.242	3176
853.376	3074
853.511	2994
853.645	3055
853.78	3245
853.914	3089
854.048	3089
854.183	3081
854.317	3146
854.451	3306
854.585	3127
854.72	3138
854.854	3218
854.988	3032
855.122	3097
855.256	2971
855.39	3108
855.524	3226
855.658	3188
855.792	3119
855.926	3188
856.06	3188
856.194	3218
856.327	3157
856.461	3055
856.595	3093
856.729	3081
856.862	3272
856.996	3161
857.13	3241
857.263	3260
857.397	3268
857.53	3127
857.664	3199
857.797	3245
857.931	3294
858.064	3157
858.197	3192
858.331	3135
858.464	3097
858.597	3017
858.731	3093
858.864	3154
858.997	3070
859.13	3127
859.263	3184
859.396	3211
859.529	3081
859.662	3093
859.795	3089
859.928	3161
860.061	3264
860.194	3253
860.327	3157
860.46	3112
860.592	3214
860.725	3249
860.858	3287
860.99	3138
861.123	3058
861.256	3013
861.388	3138
861.521	3888
861.653	2998
861.786	2982
861.918	2986
862.05	3074
862.183	3108
862.315	3154
862.447	3203
862.58	3085
862.712	2986
862.844	2887
862.976	3028
863.108	2979
863.24	3313
863.372	2906
863.504	2971
863.636	2941
863.768	3036
863.9	2986
864.032	2849
864.164	2910
864.296	3032
864.428	3116
864.559	3074
864.691	3104
864.823	3066
864.954	3036
865.086	3047
865.217	2990
865.349	2937
865.48	2982
865.612	3032
865.743	3188
865.875	3001
866.006	2971
866.137	3013
866.269	2971
866.4	2960
866.531	2941
866.662	2872
866.793	2895
866.924	2906
867.055	2979
867.186	2910
867.317	2895
867.448	2834
867.579	2857
867.71	2872
867.841	2823
867.972	2948
868.103	2895
868.233	2918
868.364	2876
868.495	2914
868.625	3077
868.756	3161
868.886	2948
869.017	2986
869.147	3165
869.278	3195
869.408	3039
869.539	3047
869.669	3093
869.799	3001
869.929	3127
870.06	3104
870.19	3340
870.32	3298
870.45	3302
870.58	3397
870.71	3469
870.84	3439
870.97	3344
871.1	3214
871.23	3496
871.36	3450
871.489	3344
871.619	3401
871.749	3389
871.879	3405
872.008	3477
872.138	3359
872.267	3268
872.397	3108
872.526	3127
872.656	3024
872.785	3070
872.915	3298
873.044	3306
873.173	3184
873.303	3245
873.432	3264
873.561	3253
873.69	3165
873.819	3123
873.948	3203
874.077	3108
874.206	3058
874.335	3116
874.464	3222
874.593	3374
874.722	3211
874.851	3382
874.979	3355
875.108	3336
875.237	3222
875.365	3169
875.494	3199
875.623	3241
875.751	3093
875.88	3131
876.008	3180
876.136	3207
876.265	3386
876.393	3515
876.521	3447
876.65	3389
876.778	3321
876.906	3268
877.034	3192
877.162	3237
877.29	3176
877.418	3279
877.546	3287
877.674	3245
877.802	3192
877.93	3253
878.058	3146
878.185	3104
878.313	3222
878.441	3207
878.568	3032
878.696	3161
878.824	3260
878.951	3260
879.079	3443
879.206	3591
879.333	3428
879.461	3336
879.588	3382
879.715	3481
879.842	3599
879.97	3393
880.097	3161
880.224	3154
880.351	3203
880.478	3165
880.605	3222
880.732	3211
880.859	3469
880.986	3310
881.112	3332
881.239	3176
881.366	3112
881.493	2998
881.619	3058
881.746	3085
881.872	3074
881.999	3089
882.125	3135
882.252	3272
882.378	3332
882.505	3435
882.631	3291
882.757	3150
882.883	3222
883.01	3241
883.136	3169
883.262	3085
883.388	3070
883.514	3332
883.64	3382
883.766	3302
883.892	3192
884.018	3230
884.143	3409
884.269	3519
884.395	3195
884.52	3169
884.646	3184
884.772	3108
884.897	3119
885.023	3199
885.148	3332
885.274	3420
885.399	3370
885.524	3233
885.65	3298
885.775	3317
885.9	3260
886.025	3428
886.15	3359
886.275	3302
886.4	3260
886.525	3279
886.65	3264
886.775	3283
886.9	3492
887.025	3622
887.149	3409
887.274	3233
887.399	3173
887.523	3211
887.648	3165
887.773	3188
887.897	3355
888.021	3382
888.146	3294
888.27	3424
888.395	3507
888.519	3424
888.643	3420
888.767	3428
888.891	3340
889.015	3226
889.139	3298
889.263	3203
889.387	3420
889.511	3523
889.635	3424
889.759	3298
889.883	3268
890.006	3386
890.13	3488
890.254	3291
890.377	3302
890.501	3222
890.624	3249
890.748	3291
890.871	3192
890.995	3138
891.118	3058
891.241	3211
891.364	3226
891.488	3298
891.611	3192
891.734	3249
891.857	3272
891.98	3192
892.103	3329
892.226	3249
892.349	3192
892.471	3093
892.594	3256
892.717	3237
892.839	3325
892.962	3264
893.085	3367
893.207	3302
893.33	3135
893.452	3195
893.575	3336
893.697	3241
893.819	3473
893.941	3496
894.064	3447
894.186	3253
894.308	3279
894.43	3431
894.552	3500
894.674	3466
894.796	3275
894.918	3298
895.04	3302
895.161	3450
895.283	3367
895.405	3291
895.526	3332
895.648	3428
895.769	3397
895.891	3447
896.012	3454
896.134	3481
896.255	3370
896.376	3401
896.498	3359
896.619	3420
896.74	3409
896.861	3389
896.982	3675
897.103	3850
897.224	3576
897.345	3511
897.466	3466
897.587	3485
897.708	3641
897.828	3564
897.949	3439
898.07	3279
898.19	3397
898.311	3545
898.431	3447
898.552	3511
898.672	3587
898.792	3587
898.913	3485
899.033	3378
899.153	3287
899.273	3195
899.393	3336
899.513	3313
899.633	3321
899.753	3325
899.873	3310
899.993	3374
900.113	3344
900.232	3397
900.352	3317
900.472	3275
900.591	3214
900.711	3325
900.83	3245
900.95	3412
901.069	3473
901.189	3355
901.308	3180
901.427	3127
901.546	3195
901.665	3306
901.784	3332
901.904	3192
902.023	3138
902.141	3039
902.26	3001
902.379	3138
902.498	3051
902.617	3028
902.735	3218
902.854	3245
902.973	3180
903.091	3043
903.21	3062
903.328	3119
903.446	3062
903.565	3100
903.683	3233
903.801	3135
903.919	3233
904.038	3253
904.156	3184
904.274	3264
904.392	3241
904.51	3256
904.627	3332
904.745	3458
904.863	3450
904.981	3256
905.098	3169
905.216	3260
905.334	3340
905.451	3294
905.569	3310
905.686	3443
905.803	3462
905.921	3310
906.038	3428
906.155	3389
906.272	3294
906.389	3302
906.506	3260
906.623	3272
906.74	3283
906.857	3173
906.974	3275
907.091	3447
907.208	3561
907.324	3485
907.441	3409
907.557	3241
907.674	3237
907.79	3241
907.907	3268
908.023	3355
908.139	3389
908.256	3340
908.372	3416
908.488	3374
908.604	3283
908.72	3203
908.836	3253
908.952	3275
909.068	3321
909.184	3462
909.3	3401
909.415	3477
909.531	3435
909.647	3268
909.762	3310
909.878	3249
909.993	3412
910.108	3329
910.224	3325
910.339	3431
910.454	3351
910.57	3317
910.685	3226
910.8	3591
910.915	3572
911.03	3420
911.145	3264
911.259	3233
911.374	3329
911.489	3253
911.604	3256
911.718	3116
911.833	3108
911.947	3036
912.062	2975
912.176	3188
912.291	3180
912.405	3180
912.519	3378
912.633	3443
912.748	3332
912.862	3275
912.976	3146
913.09	3066
913.204	3131
913.318	3211
913.431	3313
913.545	3359
913.659	3367
913.772	3336
913.886	3272
914	3230
914.113	3348
914.226	3424
914.34	3378
914.453	3275
914.566	3405
914.68	3275
914.793	3291
914.906	3161
915.019	3119
915.132	3085
915.245	3150
915.358	3199
915.47	3245
915.583	3207
915.696	3272
915.809	3435
915.921	3389
916.034	3264
916.146	3203
916.259	3214
916.371	3374
916.483	3370
916.595	3253
916.708	3321
916.82	3363
916.932	3340
917.044	3332
917.156	3348
917.268	3253
917.38	3306
917.491	3275
917.603	3348
917.715	3454
917.826	3450
917.938	3389
918.049	3291
918.161	3458
918.272	3553
918.384	3530
918.495	3485
918.606	3351
918.717	3291
918.828	3378
918.939	3382
919.05	3283
919.161	3348
919.272	3142
919.383	3332
919.494	3454
919.604	3625
919.715	3462
919.826	3431
919.936	3462
920.047	3614
920.157	3549
920.267	3747
920.378	3625
920.488	3564
920.598	3808
920.708	3964
920.818	3850
920.928	3827
921.038	3975
921.148	3998
921.258	3698
921.368	3618
921.477	3622
921.587	3511
921.697	3477
921.806	3599
921.916	3534
922.025	3351
922.134	3329
922.244	3344
922.353	3409
922.462	3275
922.571	3241
922.68	3112
922.789	3074
922.898	3154
923.007	3100
923.116	3199
923.224	3173
923.333	3184
923.442	3119
923.55	3104
923.659	3157
923.767	3222
923.876	3119
923.984	3230
924.092	3108
924.201	3211
924.309	3203
924.417	3279
924.525	3165
924.633	3253
924.741	4154
924.849	3005
924.956	3241
925.064	3089
925.172	3005
925.279	3104
925.387	3218
925.494	3207
925.602	3329
925.709	3321
925.816	3173
925.924	3253
926.031	3401
926.138	3348
926.245	3370
926.352	3264
926.459	3378
926.566	3481
926.673	3302
926.779	3253
926.886	3249
926.993	3138
927.099	3116
927.206	3138
927.312	3108
927.419	3233
927.525	3207
927.631	3283
927.737	3127
927.843	3100
927.95	3039
928.056	3157
928.162	3184
928.267	3233
928.373	3888
928.479	3287
928.585	3047
928.69	3195
928.796	3245
928.901	3142
929.007	3028
929.112	3173
929.218	3165
929.323	3135
929.428	3119
929.533	3306
929.638	3119
929.743	3195
929.848	3226
929.953	3237
930.058	3150
930.163	3017
930.267	3070
930.372	3192
930.477	3066
930.581	3332
930.685	3161
930.79	3051
930.894	3127
930.998	3062
931.103	3253
931.207	2979
931.311	2956
931.415	2952
931.519	2739
931.623	2819
