Data from test_V78500241_1823.txt Node
Date: Fri Mar 25 16:27:49 CST 2022
User: usil
Spectrometer: V785-0024
Trigger mode: 0
Integration Time (sec): 4.000000E-1
Scans to average: 1
Nonlinearity correction enabled: false
Boxcar width: 0
Storing dark spectrum: false
XAxis mode: Wavelengths
Number of Pixels in Spectrum: 1024
>>>>>Begin Spectral Data<<<<<
801.071	2910
801.214	2982
801.356	2876
801.499	2910
801.641	2914
801.783	2910
801.926	3032
802.068	3028
802.211	2994
802.353	3051
802.496	2963
802.638	3009
802.78	3028
802.923	3119
803.065	3017
803.208	2887
803.35	2948
803.492	2910
803.635	2941
803.777	2758
803.919	2857
804.061	3203
804.204	2952
804.346	2906
804.488	2864
804.63	2982
804.773	2845
804.915	2952
805.057	3085
805.199	2925
805.341	3013
805.483	3062
805.626	2986
805.768	2986
805.91	3097
806.052	3085
806.194	3058
806.336	3195
806.478	3024
806.62	2929
806.762	3013
806.904	3051
807.046	3161
807.188	2952
807.33	2891
807.472	2975
807.614	2887
807.756	3001
807.898	2933
808.04	2902
808.182	2982
808.324	2967
808.465	2906
808.607	2902
808.749	2830
808.891	2826
809.033	2998
809.174	3001
809.316	2906
809.458	2906
809.6	2781
809.741	2796
809.883	2796
810.025	2842
810.166	2830
810.308	2815
810.45	2857
810.591	2766
810.733	2773
810.875	2887
811.016	2769
811.158	2773
811.299	2792
811.441	2914
811.582	2914
811.724	2826
811.865	2834
812.007	2902
812.148	2876
812.29	2842
812.431	2868
812.573	2944
812.714	2956
812.855	3032
812.997	3043
813.138	3119
813.279	3005
813.421	3013
813.562	2925
813.703	2861
813.845	2902
813.986	2769
814.127	2712
814.268	2792
814.41	2864
814.551	2823
814.692	2883
814.833	2823
814.974	2883
815.115	2933
815.256	2868
815.397	2815
815.539	2857
815.68	2754
815.821	2796
815.962	2933
816.103	2937
816.244	2861
816.385	2857
816.526	2963
816.666	2937
816.807	2750
816.948	2876
817.089	2906
817.23	2861
817.371	2796
817.512	2807
817.653	2804
817.793	2876
817.934	2895
818.075	2937
818.216	2963
818.356	3009
818.497	2868
818.638	2800
818.778	2785
818.919	2781
819.06	2762
819.2	2845
819.341	2807
819.481	2826
819.622	2925
819.762	3100
819.903	3017
820.043	2941
820.184	2883
820.324	2906
820.465	3005
820.605	3028
820.746	3028
820.886	2956
821.026	3085
821.167	3146
821.307	3249
821.447	3294
821.588	3237
821.728	3211
821.868	3184
822.008	3085
822.149	3199
822.289	3230
822.429	3093
822.569	3089
822.709	3195
822.849	3028
822.99	3074
823.13	3154
823.27	3199
823.41	3085
823.55	3184
823.69	3150
823.83	3192
823.97	3112
824.11	3013
824.25	3024
824.389	3108
824.529	3119
824.669	3058
824.809	3173
824.949	3249
825.089	3256
825.228	3161
825.368	3009
825.508	2948
825.648	2963
825.787	3017
825.927	3005
826.067	2967
826.206	2998
826.346	3051
826.485	3085
826.625	3108
826.765	3279
826.904	3214
827.044	2990
827.183	2933
827.323	2861
827.462	2979
827.601	2902
827.741	2929
827.88	2933
828.02	2849
828.159	2971
828.298	3009
828.437	3119
828.577	3020
828.716	3192
828.855	3058
828.994	2918
829.134	2895
829.273	2944
829.412	2887
829.551	2864
829.69	2891
829.829	3020
829.968	3138
830.107	3020
830.246	3009
830.385	2925
830.524	2887
830.663	2826
830.802	2743
830.941	2632
831.08	2686
831.219	2727
831.357	2746
831.496	2975
831.635	2735
831.774	2640
831.913	2655
832.051	2537
832.19	2587
832.329	2697
832.467	2552
832.606	2461
832.744	2579
832.883	2602
833.022	2587
833.16	2648
833.299	2670
833.437	2682
833.576	2708
833.714	2727
833.852	2766
833.991	2762
834.129	2826
834.267	2834
834.406	2769
834.544	2864
834.682	2895
834.821	2876
834.959	3032
835.097	2891
835.235	3047
835.373	2998
835.511	3020
835.65	2986
835.788	2944
835.926	2804
836.064	2800
836.202	2838
836.34	3066
836.478	3142
836.615	3058
836.753	3097
836.891	3203
837.029	3161
837.167	3135
837.305	3055
837.443	3017
837.58	2986
837.718	3165
837.856	3039
837.993	3020
838.131	3127
838.269	3135
838.406	3119
838.544	3119
838.681	2937
838.819	2937
838.956	2792
839.094	2826
839.231	2891
839.369	3020
839.506	3348
839.643	3180
839.781	3028
839.918	2922
840.055	3036
840.193	3051
840.33	3104
840.467	3070
840.604	3127
840.742	3405
840.879	3043
841.016	3047
841.153	3108
841.29	3359
841.427	3279
841.564	3275
841.701	3313
841.838	3233
841.975	3203
842.112	3222
842.249	3062
842.385	3055
842.522	3275
842.659	3062
842.796	3043
842.933	3097
843.069	3043
843.206	3020
843.343	3188
843.479	3066
843.616	3116
843.752	2925
843.889	2857
844.025	3062
844.162	2925
844.298	3062
844.435	2948
844.571	2883
844.708	3051
844.844	3226
844.98	3249
845.117	3157
845.253	3089
845.389	2994
845.525	3081
845.661	3093
845.798	3013
845.934	3127
846.07	3020
846.206	3226
846.342	3321
846.478	3245
846.614	3077
846.75	3024
846.886	3028
847.022	3218
847.158	3116
847.294	3207
847.429	3199
847.565	3173
847.701	3481
847.837	2990
847.972	3032
848.108	3154
848.244	3138
848.379	3009
848.515	2937
848.65	2925
848.786	2971
848.921	2982
849.057	3081
849.192	3146
849.328	3066
849.463	3085
849.598	3051
849.734	3013
849.869	2998
850.004	2922
850.14	2941
850.275	2880
850.41	2830
850.545	2887
850.68	2937
850.815	2979
850.95	2967
851.085	3180
851.22	3093
851.355	2994
851.49	2960
851.625	2986
851.76	2990
851.895	2933
852.03	2849
852.165	3036
852.299	3093
852.434	3211
852.569	3161
852.703	3135
852.838	3230
852.973	3298
853.107	3355
853.242	3146
853.376	3108
853.511	2967
853.645	3036
853.78	3188
853.914	3165
854.048	3112
854.183	3093
854.317	3157
854.451	3237
854.585	3108
854.72	3085
854.854	3157
854.988	3051
855.122	3074
855.256	2963
855.39	3104
855.524	3199
855.658	3195
855.792	3123
855.926	3199
856.06	3180
856.194	3249
856.327	3131
856.461	3085
856.595	3093
856.729	3070
856.862	3218
856.996	3142
857.13	3192
857.263	3211
857.397	3264
857.53	3112
857.664	3214
857.797	3237
857.931	3302
858.064	3146
858.197	3211
858.331	3131
858.464	3093
858.597	3013
858.731	3119
858.864	3116
858.997	3081
859.13	3173
859.263	3157
859.396	3188
859.529	3070
859.662	3051
859.795	3001
859.928	3100
860.061	3256
860.194	3272
860.327	3169
860.46	3104
860.592	3207
860.725	3245
860.858	3233
860.99	3093
861.123	3043
861.256	3032
861.388	3127
861.521	3816
861.653	3043
861.786	3005
861.918	2979
862.05	3093
862.183	3077
862.315	3165
862.447	3188
862.58	3104
862.712	2929
862.844	2868
862.976	2971
863.108	3001
863.24	3420
863.372	2876
863.504	2952
863.636	2914
863.768	3058
863.9	2944
864.032	2914
864.164	2952
864.296	3013
864.428	3089
864.559	3104
864.691	3062
864.823	3043
864.954	2975
865.086	3055
865.217	2975
865.349	2948
865.48	2967
865.612	3005
865.743	3127
865.875	2948
866.006	2906
866.137	2979
866.269	2952
866.4	2933
866.531	2914
866.662	2899
866.793	2910
866.924	2868
867.055	2979
867.186	2933
867.317	2906
867.448	2815
867.579	2868
867.71	2845
867.841	2804
867.972	2876
868.103	2891
868.233	2910
868.364	2857
868.495	2906
868.625	3047
868.756	3180
868.886	2952
869.017	2982
869.147	3180
869.278	3146
869.408	3032
869.539	3051
869.669	3051
869.799	3020
869.929	3138
870.06	3089
870.19	3287
870.32	3283
870.45	3291
870.58	3378
870.71	3401
870.84	3447
870.97	3264
871.1	3218
871.23	3481
871.36	3458
871.489	3351
871.619	3431
871.749	3439
871.879	3443
872.008	3511
872.138	3382
872.267	3298
872.397	3138
872.526	3081
872.656	2960
872.785	3070
872.915	3195
873.044	3260
873.173	3211
873.303	3222
873.432	3241
873.561	3222
873.69	3135
873.819	3154
873.948	3176
874.077	3108
874.206	3043
874.335	3055
874.464	3192
874.593	3363
874.722	3256
874.851	3405
874.979	3359
875.108	3348
875.237	3157
875.365	3146
875.494	3157
875.623	3214
875.751	3058
875.88	3093
876.008	3108
876.136	3192
876.265	3370
876.393	3500
876.521	3397
876.65	3359
876.778	3298
876.906	3260
877.034	3207
877.162	3241
877.29	3188
877.418	3233
877.546	3237
877.674	3256
877.802	3241
877.93	3222
878.058	3146
878.185	3104
878.313	3211
878.441	3165
878.568	3097
878.696	3116
878.824	3256
878.951	3306
879.079	3447
879.206	3618
879.333	3412
879.461	3355
879.588	3401
879.715	3530
879.842	3606
879.97	3393
880.097	3184
880.224	3100
880.351	3173
880.478	3233
880.605	3199
880.732	3180
880.859	3504
880.986	3321
881.112	3325
881.239	3199
881.366	3074
881.493	3047
881.619	2963
881.746	3051
881.872	3066
881.999	3081
882.125	3161
882.252	3237
882.378	3279
882.505	3447
882.631	3245
882.757	3135
882.883	3218
883.01	3226
883.136	3138
883.262	3089
883.388	3127
883.514	3351
883.64	3378
883.766	3302
883.892	3192
884.018	3268
884.143	3382
884.269	3534
884.395	3173
884.52	3165
884.646	3207
884.772	3108
884.897	3097
885.023	3214
885.148	3291
885.274	3428
885.399	3367
885.524	3298
885.65	3249
885.775	3272
885.9	3249
886.025	3428
886.15	3332
886.275	3310
886.4	3207
886.525	3302
886.65	3245
886.775	3230
886.9	3496
887.025	3667
887.149	3405
887.274	3245
887.399	3180
887.523	3218
887.648	3173
887.773	3207
887.897	3386
888.021	3355
888.146	3310
888.27	3431
888.395	3507
888.519	3454
888.643	3447
888.767	3462
888.891	3275
889.015	3222
889.139	3272
889.263	3287
889.387	3401
889.511	3530
889.635	3469
889.759	3275
889.883	3272
890.006	3382
890.13	3469
890.254	3249
890.377	3310
890.501	3207
890.624	3150
890.748	3336
890.871	3218
890.995	3119
891.118	3074
891.241	3192
891.364	3222
891.488	3302
891.611	3188
891.734	3211
891.857	3268
891.98	3237
892.103	3325
892.226	3268
892.349	3184
892.471	3119
892.594	3241
892.717	3291
892.839	3287
892.962	3329
893.085	3348
893.207	3245
893.33	3131
893.452	3173
893.575	3332
893.697	3264
893.819	3466
893.941	3481
894.064	3462
894.186	3283
894.308	3260
894.43	3431
894.552	3500
894.674	3458
894.796	3249
894.918	3298
895.04	3233
895.161	3431
895.283	3389
895.405	3256
895.526	3351
895.648	3412
895.769	3412
895.891	3447
896.012	3496
896.134	3469
896.255	3397
896.376	3351
896.498	3340
896.619	3431
896.74	3382
896.861	3382
896.982	3656
897.103	3850
897.224	3606
897.345	3504
897.466	3428
897.587	3485
897.708	3599
897.828	3519
897.949	3454
898.07	3310
898.19	3389
898.311	3591
898.431	3462
898.552	3488
898.672	3595
898.792	3572
898.913	3473
899.033	3382
899.153	3275
899.273	3211
899.393	3348
899.513	3306
899.633	3310
899.753	3306
899.873	3317
899.993	3374
900.113	3340
900.232	3355
900.352	3348
900.472	3249
900.591	3203
900.711	3310
900.83	3264
900.95	3424
901.069	3488
901.189	3344
901.308	3157
901.427	3100
901.546	3214
901.665	3294
901.784	3336
901.904	3192
902.023	3157
902.141	3009
902.26	3001
902.379	3135
902.498	3062
902.617	3028
902.735	3161
902.854	3195
902.973	3188
903.091	3017
903.21	3036
903.328	3108
903.446	3051
903.565	3043
903.683	3192
903.801	3108
903.919	3249
904.038	3268
904.156	3180
904.274	3241
904.392	3203
904.51	3260
904.627	3298
904.745	3428
904.863	3492
904.981	3264
905.098	3119
905.216	3233
905.334	3306
905.451	3291
905.569	3306
905.686	3416
905.803	3431
905.921	3279
906.038	3420
906.155	3351
906.272	3226
906.389	3329
906.506	3222
906.623	3207
906.74	3264
906.857	3188
906.974	3245
907.091	3473
907.208	3519
907.324	3439
907.441	3374
907.557	3245
907.674	3218
907.79	3192
907.907	3268
908.023	3401
908.139	3382
908.256	3313
908.372	3351
908.488	3367
908.604	3233
908.72	3233
908.836	3226
908.952	3283
909.068	3325
909.184	3504
909.3	3378
909.415	3485
909.531	3477
909.647	3268
909.762	3298
909.878	3230
909.993	3363
910.108	3329
910.224	3298
910.339	3393
910.454	3313
910.57	3279
910.685	3203
910.8	3538
910.915	3473
911.03	3405
911.145	3245
911.259	3291
911.374	3298
911.489	3226
911.604	3195
911.718	3116
911.833	3146
911.947	3005
912.062	2971
912.176	3169
912.291	3184
912.405	3218
912.519	3428
912.633	3481
912.748	3325
912.862	3241
912.976	3135
913.09	3077
913.204	3146
913.318	3188
913.431	3291
913.545	3298
913.659	3370
913.772	3336
913.886	3222
914	3199
914.113	3321
914.226	3447
914.34	3344
914.453	3203
914.566	3367
914.68	3249
914.793	3291
914.906	3123
915.019	3074
915.132	3070
915.245	3173
915.358	3214
915.47	3199
915.583	3226
915.696	3264
915.809	3363
915.921	3412
916.034	3233
916.146	3233
916.259	3192
916.371	3363
916.483	3348
916.595	3279
916.708	3344
916.82	3306
916.932	3344
917.044	3363
917.156	3329
917.268	3279
917.38	3363
917.491	3336
917.603	3401
917.715	3458
917.826	3431
917.938	3386
918.049	3253
918.161	3439
918.272	3618
918.384	3545
918.495	3530
918.606	3370
918.717	3279
918.828	3386
918.939	3409
919.05	3329
919.161	3374
919.272	3230
919.383	3298
919.494	3534
919.604	3663
919.715	3542
919.826	3435
919.936	3492
920.047	3629
920.157	3580
920.267	3797
920.378	3580
920.488	3576
920.598	3827
920.708	4006
920.818	3903
920.928	3880
921.038	4044
921.148	4048
921.258	3690
921.368	3648
921.477	3614
921.587	3576
921.697	3485
921.806	3660
921.916	3587
922.025	3386
922.134	3393
922.244	3336
922.353	3454
922.462	3313
922.571	3291
922.68	3142
922.789	3135
922.898	3161
923.007	3154
923.116	3260
923.224	3199
923.333	3249
923.442	3116
923.55	3146
923.659	3180
923.767	3279
923.876	3150
923.984	3287
924.092	3119
924.201	3195
924.309	3279
924.417	3294
924.525	3222
924.633	3256
924.741	4177
924.849	3066
924.956	3275
925.064	3142
925.172	3081
925.279	3142
925.387	3241
925.494	3268
925.602	3393
925.709	3393
925.816	3226
925.924	3321
926.031	3409
926.138	3405
926.245	3393
926.352	3310
926.459	3435
926.566	3492
926.673	3348
926.779	3287
926.886	3279
926.993	3199
927.099	3173
927.206	3154
927.312	3150
927.419	3272
927.525	3256
927.631	3325
927.737	3199
927.843	3161
927.95	3024
928.056	3176
928.162	3230
928.267	3264
928.373	3827
928.479	3363
928.585	3081
928.69	3264
928.796	3325
928.901	3188
929.007	3058
929.112	3230
929.218	3180
929.323	3165
929.428	3192
929.533	3363
929.638	3146
929.743	3230
929.848	3260
929.953	3253
930.058	3165
930.163	3028
930.267	3119
930.372	3211
930.477	3039
930.581	3351
930.685	3249
930.79	3066
930.894	3169
930.998	3131
931.103	3336
931.207	2975
931.311	2990
931.415	2929
931.519	2815
931.623	2857
