Data from test_V78500241_1860.txt Node
Date: Fri Mar 25 16:28:05 CST 2022
User: usil
Spectrometer: V785-0024
Trigger mode: 0
Integration Time (sec): 4.000000E-1
Scans to average: 1
Nonlinearity correction enabled: false
Boxcar width: 0
Storing dark spectrum: false
XAxis mode: Wavelengths
Number of Pixels in Spectrum: 1024
>>>>>Begin Spectral Data<<<<<
801.071	2929
801.214	2914
801.356	2845
801.499	2883
801.641	2849
801.783	2922
801.926	3062
802.068	2975
802.211	2986
802.353	3028
802.496	2937
802.638	2982
802.78	3055
802.923	3089
803.065	2994
803.208	2910
803.35	2906
803.492	2937
803.635	2895
803.777	2750
803.919	2864
804.061	3203
804.204	2952
804.346	2906
804.488	2876
804.63	2963
804.773	2861
804.915	2895
805.057	3062
805.199	2887
805.341	2982
805.483	3017
805.626	3039
805.768	2929
805.91	3070
806.052	3138
806.194	3020
806.336	3207
806.478	3001
806.62	2925
806.762	2967
806.904	3043
807.046	3142
807.188	2929
807.33	2883
807.472	2971
807.614	2914
807.756	2990
807.898	2883
808.04	2910
808.182	2967
808.324	2960
808.465	2845
808.607	2899
808.749	2807
808.891	2845
809.033	2948
809.174	2960
809.316	2872
809.458	2880
809.6	2785
809.741	2739
809.883	2777
810.025	2796
810.166	2834
810.308	2830
810.45	2876
810.591	2788
810.733	2758
810.875	2834
811.016	2800
811.158	2766
811.299	2777
811.441	2952
811.582	2887
811.724	2815
811.865	2815
812.007	2902
812.148	2922
812.29	2864
812.431	2864
812.573	2895
812.714	2948
812.855	3036
812.997	3013
813.138	3116
813.279	3043
813.421	2956
813.562	2937
813.703	2895
813.845	2887
813.986	2773
814.127	2727
814.268	2834
814.41	2815
814.551	2804
814.692	2864
814.833	2819
814.974	2872
815.115	2956
815.256	2796
815.397	2781
815.539	2849
815.68	2769
815.821	2792
815.962	2918
816.103	2895
816.244	2895
816.385	2883
816.526	2937
816.666	2880
816.807	2766
816.948	2910
817.089	2910
817.23	2891
817.371	2785
817.512	2800
817.653	2830
817.793	2792
817.934	2864
818.075	2929
818.216	2979
818.356	3020
818.497	2876
818.638	2781
818.778	2804
818.919	2781
819.06	2739
819.2	2887
819.341	2804
819.481	2807
819.622	2944
819.762	3112
819.903	3066
820.043	2883
820.184	2922
820.324	2899
820.465	3055
820.605	3028
820.746	3032
820.886	2922
821.026	3093
821.167	3184
821.307	3264
821.447	3264
821.588	3230
821.728	3188
821.868	3211
822.008	3066
822.149	3165
822.289	3237
822.429	3112
822.569	3100
822.709	3195
822.849	3028
822.99	3085
823.13	3135
823.27	3230
823.41	3093
823.55	3116
823.69	3150
823.83	3157
823.97	3135
824.11	2986
824.25	3017
824.389	3066
824.529	3093
824.669	3074
824.809	3184
824.949	3268
825.089	3207
825.228	3127
825.368	3020
825.508	2933
825.648	2982
825.787	3028
825.927	3020
826.067	2975
826.206	2963
826.346	3039
826.485	3047
826.625	3112
826.765	3260
826.904	3188
827.044	2941
827.183	2933
827.323	2891
827.462	2982
827.601	2887
827.741	2918
827.88	2960
828.02	2861
828.159	2971
828.298	3070
828.437	3093
828.577	3055
828.716	3249
828.855	3055
828.994	2929
829.134	2902
829.273	2929
829.412	2849
829.551	2849
829.69	2842
829.829	2952
829.968	3123
830.107	3001
830.246	3020
830.385	2891
830.524	2887
830.663	2796
830.802	2735
830.941	2667
831.08	2629
831.219	2769
831.357	2792
831.496	2918
831.635	2743
831.774	2678
831.913	2712
832.051	2518
832.19	2587
832.329	2670
832.467	2522
832.606	2495
832.744	2602
832.883	2571
833.022	2590
833.16	2667
833.299	2648
833.437	2670
833.576	2678
833.714	2705
833.852	2712
833.991	2758
834.129	2804
834.267	2815
834.406	2769
834.544	2864
834.682	2887
834.821	2880
834.959	3032
835.097	2906
835.235	3043
835.373	3009
835.511	2986
835.65	2941
835.788	2963
835.926	2845
836.064	2800
836.202	2834
836.34	3070
836.478	3104
836.615	3020
836.753	3119
836.891	3211
837.029	3157
837.167	3100
837.305	3051
837.443	3032
837.58	2933
837.718	3112
837.856	3066
837.993	3005
838.131	3123
838.269	3112
838.406	3043
838.544	3074
838.681	2944
838.819	2918
838.956	2807
839.094	2845
839.231	2906
839.369	3005
839.506	3397
839.643	3184
839.781	3058
839.918	2971
840.055	3074
840.193	3058
840.33	3028
840.467	3074
840.604	3123
840.742	3382
840.879	3028
841.016	3024
841.153	3135
841.29	3329
841.427	3283
841.564	3260
841.701	3329
841.838	3245
841.975	3203
842.112	3192
842.249	3081
842.385	3043
842.522	3260
842.659	3066
842.796	3020
842.933	3104
843.069	3032
843.206	3043
843.343	3169
843.479	3089
843.616	3154
843.752	2883
843.889	2861
844.025	3062
844.162	2891
844.298	3100
844.435	2960
844.571	2944
844.708	3097
844.844	3192
844.98	3203
845.117	3169
845.253	3051
845.389	2979
845.525	3074
845.661	3097
845.798	3043
845.934	3165
846.07	3036
846.206	3222
846.342	3302
846.478	3230
846.614	3066
846.75	3058
846.886	3013
847.022	3245
847.158	3131
847.294	3154
847.429	3237
847.565	3218
847.701	3481
847.837	2971
847.972	2994
848.108	3127
848.244	3138
848.379	3013
848.515	2941
848.65	2902
848.786	2971
848.921	3009
849.057	3100
849.192	3131
849.328	3089
849.463	3123
849.598	3043
849.734	3020
849.869	2975
850.004	2922
850.14	2990
850.275	2906
850.41	2845
850.545	2899
850.68	2918
850.815	2933
850.95	2960
851.085	3169
851.22	3112
851.355	3020
851.49	2982
851.625	2975
851.76	2944
851.895	2918
852.03	2891
852.165	3013
852.299	3108
852.434	3203
852.569	3123
852.703	3169
852.838	3230
852.973	3329
853.107	3302
853.242	3154
853.376	3085
853.511	2982
853.645	3028
853.78	3176
853.914	3104
854.048	3058
854.183	3097
854.317	3165
854.451	3249
854.585	3123
854.72	3032
854.854	3211
854.988	3039
855.122	3058
855.256	3005
855.39	3100
855.524	3211
855.658	3173
855.792	3127
855.926	3188
856.06	3192
856.194	3283
856.327	3093
856.461	3097
856.595	3058
856.729	3058
856.862	3192
856.996	3157
857.13	3211
857.263	3218
857.397	3283
857.53	3085
857.664	3188
857.797	3230
857.931	3260
858.064	3131
858.197	3222
858.331	3127
858.464	3108
858.597	2982
858.731	3093
858.864	3127
858.997	3081
859.13	3150
859.263	3184
859.396	3192
859.529	3081
859.662	3051
859.795	3085
859.928	3108
860.061	3264
860.194	3275
860.327	3123
860.46	3074
860.592	3211
860.725	3230
860.858	3241
860.99	3135
861.123	3036
861.256	3062
861.388	3146
861.521	3781
861.653	3020
861.786	2990
861.918	2986
862.05	3081
862.183	3081
862.315	3112
862.447	3199
862.58	3085
862.712	2960
862.844	2861
862.976	3028
863.108	2967
863.24	3420
863.372	2861
863.504	2986
863.636	2944
863.768	3017
863.9	2941
864.032	2887
864.164	2910
864.296	3005
864.428	3081
864.559	3123
864.691	3058
864.823	3032
864.954	3020
865.086	3024
865.217	2952
865.349	2956
865.48	2960
865.612	3032
865.743	3142
865.875	2982
866.006	2937
866.137	2960
866.269	2975
866.4	2933
866.531	2929
866.662	2876
866.793	2929
866.924	2918
867.055	2944
867.186	2887
867.317	2876
867.448	2826
867.579	2861
867.71	2853
867.841	2819
867.972	2883
868.103	2899
868.233	2868
868.364	2845
868.495	2864
868.625	3077
868.756	3150
868.886	2975
869.017	3024
869.147	3150
869.278	3180
869.408	3005
869.539	3039
869.669	3047
869.799	3074
869.929	3116
870.06	3089
870.19	3325
870.32	3249
870.45	3298
870.58	3351
870.71	3477
870.84	3439
870.97	3294
871.1	3195
871.23	3488
871.36	3454
871.489	3374
871.619	3367
871.749	3420
871.879	3412
872.008	3466
872.138	3348
872.267	3264
872.397	3127
872.526	3108
872.656	3032
872.785	3085
872.915	3211
873.044	3306
873.173	3199
873.303	3222
873.432	3237
873.561	3211
873.69	3169
873.819	3131
873.948	3169
874.077	3066
874.206	3017
874.335	3039
874.464	3173
874.593	3332
874.722	3230
874.851	3401
874.979	3336
875.108	3253
875.237	3188
875.365	3138
875.494	3150
875.623	3207
875.751	3089
875.88	3055
876.008	3188
876.136	3195
876.265	3370
876.393	3504
876.521	3409
876.65	3397
876.778	3260
876.906	3245
877.034	3184
877.162	3214
877.29	3150
877.418	3249
877.546	3207
877.674	3272
877.802	3230
877.93	3226
878.058	3165
878.185	3135
878.313	3184
878.441	3154
878.568	3039
878.696	3135
878.824	3230
878.951	3287
879.079	3428
879.206	3614
879.333	3431
879.461	3378
879.588	3329
879.715	3462
879.842	3576
879.97	3378
880.097	3192
880.224	3089
880.351	3176
880.478	3241
880.605	3188
880.732	3131
880.859	3428
880.986	3287
881.112	3317
881.239	3192
881.366	3077
881.493	3028
881.619	3001
881.746	3097
881.872	3081
881.999	3097
882.125	3100
882.252	3260
882.378	3291
882.505	3466
882.631	3306
882.757	3146
882.883	3218
883.01	3249
883.136	3142
883.262	3135
883.388	3104
883.514	3317
883.64	3340
883.766	3264
883.892	3173
884.018	3218
884.143	3386
884.269	3538
884.395	3184
884.52	3135
884.646	3180
884.772	3108
884.897	3093
885.023	3241
885.148	3340
885.274	3401
885.399	3416
885.524	3294
885.65	3283
885.775	3279
885.9	3218
886.025	3431
886.15	3325
886.275	3272
886.4	3207
886.525	3294
886.65	3264
886.775	3253
886.9	3496
887.025	3633
887.149	3412
887.274	3253
887.399	3169
887.523	3150
887.648	3184
887.773	3203
887.897	3336
888.021	3382
888.146	3272
888.27	3443
888.395	3496
888.519	3443
888.643	3454
888.767	3469
888.891	3321
889.015	3268
889.139	3310
889.263	3275
889.387	3412
889.511	3488
889.635	3424
889.759	3279
889.883	3287
890.006	3374
890.13	3450
890.254	3291
890.377	3340
890.501	3222
890.624	3173
890.748	3291
890.871	3135
890.995	3108
891.118	3066
891.241	3169
891.364	3207
891.488	3272
891.611	3199
891.734	3195
891.857	3264
891.98	3218
892.103	3325
892.226	3279
892.349	3192
892.471	3104
892.594	3256
892.717	3275
892.839	3279
892.962	3260
893.085	3340
893.207	3279
893.33	3138
893.452	3180
893.575	3321
893.697	3226
893.819	3477
893.941	3466
894.064	3469
894.186	3233
894.308	3275
894.43	3462
894.552	3469
894.674	3466
894.796	3249
894.918	3321
895.04	3268
895.161	3450
895.283	3401
895.405	3283
895.526	3367
895.648	3412
895.769	3443
895.891	3511
896.012	3466
896.134	3431
896.255	3378
896.376	3393
896.498	3389
896.619	3412
896.74	3348
896.861	3428
896.982	3679
897.103	3850
897.224	3591
897.345	3500
897.466	3447
897.587	3542
897.708	3568
897.828	3576
897.949	3447
898.07	3294
898.19	3428
898.311	3580
898.431	3458
898.552	3511
898.672	3614
898.792	3576
898.913	3458
899.033	3439
899.153	3344
899.273	3241
899.393	3272
899.513	3325
899.633	3287
899.753	3329
899.873	3355
899.993	3359
900.113	3329
900.232	3386
900.352	3306
900.472	3294
900.591	3146
900.711	3313
900.83	3249
900.95	3458
901.069	3504
901.189	3351
901.308	3161
901.427	3154
901.546	3192
901.665	3268
901.784	3382
901.904	3192
902.023	3127
902.141	3001
902.26	2979
902.379	3154
902.498	3066
902.617	3066
902.735	3214
902.854	3237
902.973	3188
903.091	3051
903.21	3070
903.328	3135
903.446	3112
903.565	3089
903.683	3222
903.801	3070
903.919	3230
904.038	3298
904.156	3165
904.274	3317
904.392	3203
904.51	3302
904.627	3348
904.745	3458
904.863	3485
904.981	3249
905.098	3157
905.216	3222
905.334	3294
905.451	3298
905.569	3298
905.686	3439
905.803	3443
905.921	3283
906.038	3431
906.155	3336
906.272	3233
906.389	3336
906.506	3203
906.623	3268
906.74	3310
906.857	3146
906.974	3245
907.091	3458
907.208	3538
907.324	3488
907.441	3351
907.557	3184
907.674	3245
907.79	3203
907.907	3283
908.023	3378
908.139	3348
908.256	3306
908.372	3325
908.488	3367
908.604	3272
908.72	3275
908.836	3291
908.952	3272
909.068	3313
909.184	3454
909.3	3405
909.415	3500
909.531	3431
909.647	3294
909.762	3279
909.878	3253
909.993	3351
910.108	3378
910.224	3370
910.339	3397
910.454	3306
910.57	3272
910.685	3222
910.8	3587
910.915	3526
911.03	3443
911.145	3294
911.259	3279
911.374	3329
911.489	3237
911.604	3211
911.718	3123
911.833	3119
911.947	3005
912.062	2986
912.176	3169
912.291	3207
912.405	3199
912.519	3412
912.633	3492
912.748	3306
912.862	3249
912.976	3176
913.09	3070
913.204	3127
913.318	3188
913.431	3325
913.545	3336
913.659	3397
913.772	3294
913.886	3214
914	3176
914.113	3348
914.226	3412
914.34	3359
914.453	3192
914.566	3412
914.68	3264
914.793	3332
914.906	3123
915.019	3123
915.132	3074
915.245	3165
915.358	3230
915.47	3195
915.583	3237
915.696	3272
915.809	3412
915.921	3439
916.034	3264
916.146	3268
916.259	3226
916.371	3332
916.483	3378
916.595	3264
916.708	3359
916.82	3306
916.932	3317
917.044	3382
917.156	3355
917.268	3268
917.38	3306
917.491	3283
917.603	3386
917.715	3450
917.826	3500
917.938	3374
918.049	3268
918.161	3401
918.272	3530
918.384	3561
918.495	3485
918.606	3317
918.717	3260
918.828	3393
918.939	3397
919.05	3332
919.161	3329
919.272	3165
919.383	3260
919.494	3462
919.604	3675
919.715	3466
919.826	3382
919.936	3492
920.047	3553
920.157	3545
920.267	3762
920.378	3599
920.488	3523
920.598	3762
920.708	3956
920.818	3835
920.928	3869
921.038	4032
921.148	4013
921.258	3728
921.368	3625
921.477	3614
921.587	3553
921.697	3447
921.806	3625
921.916	3530
922.025	3367
922.134	3344
922.244	3264
922.353	3431
922.462	3287
922.571	3203
922.68	3089
922.789	3047
922.898	3157
923.007	3127
923.116	3218
923.224	3161
923.333	3192
923.442	3074
923.55	3089
923.659	3119
923.767	3180
923.876	3127
923.984	3211
924.092	3085
924.201	3192
924.309	3173
924.417	3249
924.525	3165
924.633	3233
924.741	3998
924.849	3047
924.956	3287
925.064	3077
925.172	3013
925.279	3066
925.387	3188
925.494	3188
925.602	3306
925.709	3317
925.816	3195
925.924	3279
926.031	3397
926.138	3313
926.245	3393
926.352	3226
926.459	3412
926.566	3439
926.673	3355
926.779	3249
926.886	3218
926.993	3127
927.099	3138
927.206	3104
927.312	3104
927.419	3233
927.525	3241
927.631	3291
927.737	3116
927.843	3157
927.95	3001
928.056	3119
928.162	3169
928.267	3222
928.373	3789
928.479	3313
928.585	3077
928.69	3230
928.796	3241
928.901	3138
929.007	3028
929.112	3222
929.218	3173
929.323	3150
929.428	3135
929.533	3355
929.638	3100
929.743	3180
929.848	3211
929.953	3226
930.058	3161
930.163	2967
930.267	3047
930.372	3207
930.477	3005
930.581	3313
930.685	3138
930.79	3051
930.894	3146
930.998	3081
931.103	3264
931.207	2910
931.311	2918
931.415	2914
931.519	2777
931.623	2785
