Data from test_V78500241_365.txt Node
Date: Fri Mar 25 16:17:43 CST 2022
User: usil
Spectrometer: V785-0024
Trigger mode: 0
Integration Time (sec): 4.000000E-1
Scans to average: 1
Nonlinearity correction enabled: false
Boxcar width: 0
Storing dark spectrum: false
XAxis mode: Wavelengths
Number of Pixels in Spectrum: 1024
>>>>>Begin Spectral Data<<<<<
801.071	2944
801.214	2914
801.356	2853
801.499	2914
801.641	2845
801.783	2918
801.926	3020
802.068	2929
802.211	2967
802.353	3058
802.496	2941
802.638	3005
802.78	3001
802.923	3097
803.065	3020
803.208	2876
803.35	2910
803.492	2914
803.635	2918
803.777	2773
803.919	2842
804.061	3184
804.204	2956
804.346	2910
804.488	2853
804.63	2990
804.773	2872
804.915	2910
805.057	3081
805.199	2967
805.341	2952
805.483	2998
805.626	3020
805.768	2967
805.91	3074
806.052	3093
806.194	3024
806.336	3207
806.478	3039
806.62	2944
806.762	2956
806.904	3020
807.046	3165
807.188	2979
807.33	2914
807.472	2994
807.614	2895
807.756	2990
807.898	2880
808.04	2914
808.182	2925
808.324	2937
808.465	2910
808.607	2883
808.749	2815
808.891	2872
809.033	2948
809.174	2944
809.316	2872
809.458	2918
809.6	2792
809.741	2739
809.883	2766
810.025	2834
810.166	2857
810.308	2796
810.45	2876
810.591	2788
810.733	2735
810.875	2876
811.016	2769
811.158	2777
811.299	2838
811.441	2922
811.582	2887
811.724	2826
811.865	2819
812.007	2899
812.148	2895
812.29	2823
812.431	2883
812.573	2887
812.714	2971
812.855	3055
812.997	3017
813.138	3112
813.279	2982
813.421	2979
813.562	2971
813.703	2880
813.845	2880
813.986	2773
814.127	2750
814.268	2819
814.41	2830
814.551	2800
814.692	2864
814.833	2804
814.974	2857
815.115	3001
815.256	2861
815.397	2845
815.539	2826
815.68	2807
815.821	2788
815.962	2914
816.103	2941
816.244	2899
816.385	2872
816.526	2986
816.666	2937
816.807	2727
816.948	2880
817.089	2895
817.23	2861
817.371	2807
817.512	2788
817.653	2834
817.793	2864
817.934	2883
818.075	2948
818.216	2998
818.356	3001
818.497	2857
818.638	2792
818.778	2811
818.919	2769
819.06	2750
819.2	2857
819.341	2826
819.481	2785
819.622	2914
819.762	3077
819.903	3009
820.043	2918
820.184	2906
820.324	2876
820.465	3017
820.605	3013
820.746	3036
820.886	2967
821.026	3077
821.167	3146
821.307	3275
821.447	3253
821.588	3256
821.728	3222
821.868	3180
822.008	3085
822.149	3154
822.289	3207
822.429	3055
822.569	3085
822.709	3150
822.849	3013
822.99	3058
823.13	3146
823.27	3180
823.41	3119
823.55	3131
823.69	3112
823.83	3214
823.97	3100
824.11	2967
824.25	3013
824.389	3043
824.529	3081
824.669	3093
824.809	3135
824.949	3256
825.089	3203
825.228	3165
825.368	3024
825.508	2956
825.648	2979
825.787	2986
825.927	3009
826.067	2952
826.206	2956
826.346	3070
826.485	3028
826.625	3077
826.765	3237
826.904	3180
827.044	2979
827.183	2944
827.323	2868
827.462	2922
827.601	2891
827.741	2883
827.88	2944
828.02	2864
828.159	2948
828.298	3062
828.437	3100
828.577	3058
828.716	3237
828.855	3074
828.994	2891
829.134	2883
829.273	2891
829.412	2861
829.551	2845
829.69	2899
829.829	3013
829.968	3150
830.107	3020
830.246	3047
830.385	2918
830.524	2880
830.663	2842
830.802	2731
830.941	2651
831.08	2644
831.219	2754
831.357	2758
831.496	2914
831.635	2727
831.774	2621
831.913	2648
832.051	2564
832.19	2556
832.329	2670
832.467	2526
832.606	2446
832.744	2610
832.883	2552
833.022	2583
833.16	2674
833.299	2682
833.437	2678
833.576	2674
833.714	2689
833.852	2724
833.991	2750
834.129	2804
834.267	2826
834.406	2750
834.544	2857
834.682	2857
834.821	2864
834.959	3032
835.097	2902
835.235	3051
835.373	3020
835.511	2994
835.65	2937
835.788	2925
835.926	2853
836.064	2807
836.202	2830
836.34	3100
836.478	3108
836.615	3058
836.753	3188
836.891	3192
837.029	3154
837.167	3108
837.305	3051
837.443	3047
837.58	2948
837.718	3100
837.856	3074
837.993	3043
838.131	3135
838.269	3089
838.406	3093
838.544	3066
838.681	2967
838.819	2922
838.956	2807
839.094	2838
839.231	2914
839.369	3009
839.506	3344
839.643	3203
839.781	3017
839.918	2952
840.055	3070
840.193	3039
840.33	3104
840.467	3089
840.604	3192
840.742	3393
840.879	3047
841.016	3017
841.153	3100
841.29	3363
841.427	3287
841.564	3237
841.701	3253
841.838	3195
841.975	3184
842.112	3176
842.249	3093
842.385	3036
842.522	3230
842.659	3051
842.796	3024
842.933	3097
843.069	3028
843.206	3020
843.343	3214
843.479	3138
843.616	3085
843.752	2895
843.889	2823
844.025	3112
844.162	2845
844.298	3058
844.435	2944
844.571	2937
844.708	3036
844.844	3131
844.98	3256
845.117	3214
845.253	3036
845.389	3005
845.525	3081
845.661	3119
845.798	2982
845.934	3135
846.07	3085
846.206	3237
846.342	3302
846.478	3207
846.614	3032
846.75	3036
846.886	2998
847.022	3237
847.158	3104
847.294	3218
847.429	3245
847.565	3222
847.701	3473
847.837	3028
847.972	2967
848.108	3173
848.244	3154
848.379	3017
848.515	2937
848.65	2933
848.786	2941
848.921	3028
849.057	3131
849.192	3119
849.328	3028
849.463	3108
849.598	3066
849.734	3020
849.869	2979
850.004	2887
850.14	2963
850.275	2910
850.41	2845
850.545	2895
850.68	2937
850.815	2922
850.95	2967
851.085	3203
851.22	3051
851.355	3047
851.49	2986
851.625	2982
851.76	2998
851.895	2910
852.03	2910
852.165	3032
852.299	3135
852.434	3180
852.569	3127
852.703	3192
852.838	3256
852.973	3340
853.107	3336
853.242	3135
853.376	3077
853.511	2967
853.645	3047
853.78	3203
853.914	3154
854.048	3100
854.183	3070
854.317	3157
854.451	3287
854.585	3104
854.72	3051
854.854	3207
854.988	3024
855.122	3074
855.256	2998
855.39	3138
855.524	3230
855.658	3180
855.792	3154
855.926	3184
856.06	3165
856.194	3245
856.327	3142
856.461	3081
856.595	3108
856.729	3074
856.862	3211
856.996	3123
857.13	3214
857.263	3218
857.397	3249
857.53	3138
857.664	3157
857.797	3207
857.931	3253
858.064	3188
858.197	3192
858.331	3161
858.464	3100
858.597	2986
858.731	3135
858.864	3093
858.997	3062
859.13	3146
859.263	3176
859.396	3203
859.529	3081
859.662	3058
859.795	3074
859.928	3131
860.061	3260
860.194	3283
860.327	3131
860.46	3108
860.592	3218
860.725	3230
860.858	3207
860.99	3085
861.123	3047
861.256	3055
861.388	3154
861.521	3854
861.653	3043
861.786	3024
861.918	2998
862.05	3043
862.183	3112
862.315	3123
862.447	3199
862.58	3070
862.712	2952
862.844	2906
862.976	2986
863.108	2975
863.24	3435
863.372	2864
863.504	2929
863.636	2941
863.768	3032
863.9	2982
864.032	2929
864.164	2967
864.296	3005
864.428	3081
864.559	3089
864.691	3089
864.823	3062
864.954	3024
865.086	3001
865.217	2979
865.349	2967
865.48	3001
865.612	3020
865.743	3146
865.875	2990
866.006	2933
866.137	2979
866.269	2941
866.4	2918
866.531	2929
866.662	2864
866.793	2906
866.924	2899
867.055	2963
867.186	2952
867.317	2864
867.448	2804
867.579	2861
867.71	2849
867.841	2830
867.972	2906
868.103	2937
868.233	2899
868.364	2883
868.495	2906
868.625	3089
868.756	3104
868.886	2944
869.017	2998
869.147	3207
869.278	3165
869.408	3055
869.539	3013
869.669	3135
869.799	3036
869.929	3173
870.06	3100
870.19	3310
870.32	3275
870.45	3268
870.58	3336
870.71	3443
870.84	3431
870.97	3264
871.1	3226
871.23	3466
871.36	3473
871.489	3332
871.619	3374
871.749	3382
871.879	3488
872.008	3458
872.138	3363
872.267	3264
872.397	3161
872.526	3108
872.656	3009
872.785	3127
872.915	3253
873.044	3310
873.173	3237
873.303	3260
873.432	3211
873.561	3230
873.69	3123
873.819	3138
873.948	3203
874.077	3066
874.206	3036
874.335	3097
874.464	3207
874.593	3359
874.722	3260
874.851	3378
874.979	3310
875.108	3332
875.237	3195
875.365	3146
875.494	3154
875.623	3195
875.751	3085
875.88	3146
876.008	3176
876.136	3253
876.265	3355
876.393	3488
876.521	3458
876.65	3393
876.778	3340
876.906	3233
877.034	3199
877.162	3203
877.29	3184
877.418	3253
877.546	3256
877.674	3245
877.802	3207
877.93	3218
878.058	3154
878.185	3104
878.313	3192
878.441	3207
878.568	3051
878.696	3184
878.824	3222
878.951	3291
879.079	3450
879.206	3625
879.333	3458
879.461	3310
879.588	3348
879.715	3523
879.842	3549
879.97	3374
880.097	3150
880.224	3089
880.351	3192
880.478	3211
880.605	3195
880.732	3199
880.859	3500
880.986	3279
881.112	3310
881.239	3226
881.366	3112
881.493	3070
881.619	3017
881.746	3062
881.872	3089
881.999	3108
882.125	3123
882.252	3241
882.378	3332
882.505	3439
882.631	3294
882.757	3150
882.883	3211
883.01	3203
883.136	3176
883.262	3112
883.388	3138
883.514	3325
883.64	3336
883.766	3321
883.892	3188
884.018	3222
884.143	3447
884.269	3500
884.395	3207
884.52	3180
884.646	3150
884.772	3165
884.897	3100
885.023	3188
885.148	3329
885.274	3412
885.399	3359
885.524	3283
885.65	3245
885.775	3313
885.9	3275
886.025	3443
886.15	3359
886.275	3260
886.4	3268
886.525	3317
886.65	3264
886.775	3283
886.9	3507
887.025	3610
887.149	3416
887.274	3218
887.399	3150
887.523	3192
887.648	3173
887.773	3188
887.897	3348
888.021	3416
888.146	3317
888.27	3393
888.395	3530
888.519	3416
888.643	3473
888.767	3462
888.891	3329
889.015	3241
889.139	3302
889.263	3291
889.387	3393
889.511	3500
889.635	3450
889.759	3291
889.883	3275
890.006	3405
890.13	3492
890.254	3268
890.377	3351
890.501	3154
890.624	3195
890.748	3321
890.871	3218
890.995	3131
891.118	3055
891.241	3184
891.364	3207
891.488	3317
891.611	3157
891.734	3207
891.857	3302
891.98	3211
892.103	3370
892.226	3275
892.349	3199
892.471	3104
892.594	3218
892.717	3287
892.839	3241
892.962	3294
893.085	3382
893.207	3264
893.33	3173
893.452	3207
893.575	3313
893.697	3226
893.819	3397
893.941	3473
894.064	3469
894.186	3275
894.308	3249
894.43	3424
894.552	3515
894.674	3458
894.796	3279
894.918	3340
895.04	3268
895.161	3477
895.283	3336
895.405	3344
895.526	3374
895.648	3431
895.769	3462
895.891	3450
896.012	3458
896.134	3466
896.255	3393
896.376	3409
896.498	3397
896.619	3454
896.74	3317
896.861	3363
896.982	3690
897.103	3865
897.224	3576
897.345	3549
897.466	3424
897.587	3435
897.708	3610
897.828	3549
897.949	3405
898.07	3313
898.19	3424
898.311	3629
898.431	3439
898.552	3492
898.672	3595
898.792	3610
898.913	3530
899.033	3393
899.153	3283
899.273	3184
899.393	3313
899.513	3279
899.633	3340
899.753	3359
899.873	3310
899.993	3359
900.113	3351
900.232	3416
900.352	3332
900.472	3325
900.591	3199
900.711	3294
900.83	3253
900.95	3389
901.069	3507
901.189	3340
901.308	3176
901.427	3154
901.546	3169
901.665	3272
901.784	3348
901.904	3207
902.023	3154
902.141	3024
902.26	3013
902.379	3150
902.498	3070
902.617	3028
902.735	3218
902.854	3199
902.973	3195
903.091	3013
903.21	3066
903.328	3119
903.446	3093
903.565	3085
903.683	3192
903.801	3142
903.919	3241
904.038	3268
904.156	3180
904.274	3264
904.392	3211
904.51	3264
904.627	3317
904.745	3454
904.863	3500
904.981	3253
905.098	3142
905.216	3245
905.334	3336
905.451	3355
905.569	3272
905.686	3428
905.803	3447
905.921	3291
906.038	3428
906.155	3363
906.272	3256
906.389	3298
906.506	3199
906.623	3241
906.74	3275
906.857	3188
906.974	3230
907.091	3450
907.208	3538
907.324	3458
907.441	3439
907.557	3195
907.674	3237
907.79	3226
907.907	3256
908.023	3382
908.139	3351
908.256	3310
908.372	3344
908.488	3348
908.604	3203
908.72	3218
908.836	3310
908.952	3279
909.068	3340
909.184	3466
909.3	3416
909.415	3447
909.531	3473
909.647	3253
909.762	3317
909.878	3275
909.993	3367
910.108	3332
910.224	3348
910.339	3386
910.454	3287
910.57	3325
910.685	3256
910.8	3557
910.915	3538
911.03	3428
911.145	3256
911.259	3310
911.374	3302
911.489	3245
911.604	3253
911.718	3112
911.833	3119
911.947	3036
912.062	2956
912.176	3176
912.291	3157
912.405	3218
912.519	3424
912.633	3492
912.748	3332
912.862	3256
912.976	3184
913.09	3074
913.204	3131
913.318	3211
913.431	3294
913.545	3313
913.659	3393
913.772	3310
913.886	3176
914	3226
914.113	3363
914.226	3393
914.34	3374
914.453	3203
914.566	3462
914.68	3275
914.793	3310
914.906	3142
915.019	3062
915.132	3074
915.245	3161
915.358	3203
915.47	3268
915.583	3256
915.696	3336
915.809	3393
915.921	3401
916.034	3260
916.146	3237
916.259	3260
916.371	3409
916.483	3363
916.595	3256
916.708	3332
916.82	3317
916.932	3336
917.044	3363
917.156	3329
917.268	3275
917.38	3272
917.491	3268
917.603	3367
917.715	3439
917.826	3466
917.938	3367
918.049	3264
918.161	3428
918.272	3584
918.384	3580
918.495	3504
918.606	3363
918.717	3283
918.828	3389
918.939	3428
919.05	3287
919.161	3329
919.272	3142
919.383	3272
919.494	3477
919.604	3652
919.715	3477
919.826	3428
919.936	3450
920.047	3580
920.157	3584
920.267	3743
920.378	3614
920.488	3557
920.598	3766
920.708	3934
920.818	3812
920.928	3804
921.038	4006
921.148	4006
921.258	3720
921.368	3622
921.477	3549
921.587	3526
921.697	3488
921.806	3580
921.916	3515
922.025	3302
922.134	3348
922.244	3298
922.353	3485
922.462	3268
922.571	3237
922.68	3112
922.789	3070
922.898	3093
923.007	3108
923.116	3199
923.224	3142
923.333	3199
923.442	3131
923.55	3085
923.659	3127
923.767	3237
923.876	3112
923.984	3199
924.092	3112
924.201	3150
924.309	3195
924.417	3268
924.525	3165
924.633	3253
924.741	4177
924.849	3077
924.956	3260
925.064	3116
925.172	3024
925.279	3108
925.387	3192
925.494	3199
925.602	3355
925.709	3344
925.816	3192
925.924	3287
926.031	3378
926.138	3321
926.245	3370
926.352	3256
926.459	3412
926.566	3473
926.673	3317
926.779	3249
926.886	3260
926.993	3192
927.099	3104
927.206	3093
927.312	3108
927.419	3199
927.525	3199
927.631	3256
927.737	3154
927.843	3135
927.95	3036
928.056	3165
928.162	3161
928.267	3233
928.373	3823
928.479	3291
928.585	3028
928.69	3241
928.796	3275
928.901	3157
929.007	3043
929.112	3199
929.218	3195
929.323	3154
929.428	3123
929.533	3313
929.638	3142
929.743	3142
929.848	3272
929.953	3207
930.058	3142
930.163	2986
930.267	3089
930.372	3154
930.477	3028
930.581	3287
930.685	3192
930.79	3051
930.894	3085
930.998	3081
931.103	3279
931.207	2941
931.311	2956
931.415	2918
931.519	2785
931.623	2796
