Data from test_V78500241_1907.txt Node
Date: Fri Mar 25 16:28:24 CST 2022
User: usil
Spectrometer: V785-0024
Trigger mode: 0
Integration Time (sec): 4.000000E-1
Scans to average: 1
Nonlinearity correction enabled: false
Boxcar width: 0
Storing dark spectrum: false
XAxis mode: Wavelengths
Number of Pixels in Spectrum: 1024
>>>>>Begin Spectral Data<<<<<
801.071	2982
801.214	3009
801.356	2948
801.499	2925
801.641	2922
801.783	2944
801.926	3081
802.068	2979
802.211	3051
802.353	3089
802.496	3017
802.638	3009
802.78	3089
802.923	3112
803.065	3009
803.208	2937
803.35	2941
803.492	2948
803.635	2933
803.777	2788
803.919	2868
804.061	3214
804.204	2982
804.346	2910
804.488	2887
804.63	3024
804.773	2887
804.915	2982
805.057	3093
805.199	2941
805.341	2975
805.483	3066
805.626	3032
805.768	2960
805.91	3100
806.052	3165
806.194	3112
806.336	3268
806.478	3074
806.62	2975
806.762	2986
806.904	3074
807.046	3180
807.188	3020
807.33	2952
807.472	3005
807.614	2952
807.756	3039
807.898	2941
808.04	2922
808.182	3024
808.324	2963
808.465	2944
808.607	2906
808.749	2815
808.891	2857
809.033	2986
809.174	3013
809.316	2899
809.458	2902
809.6	2807
809.741	2781
809.883	2792
810.025	2864
810.166	2849
810.308	2883
810.45	2899
810.591	2788
810.733	2811
810.875	2899
811.016	2766
811.158	2807
811.299	2811
811.441	2933
811.582	2887
811.724	2853
811.865	2823
812.007	2922
812.148	2891
812.29	2906
812.431	2902
812.573	2982
812.714	3005
812.855	3066
812.997	3051
813.138	3150
813.279	3039
813.421	3009
813.562	2979
813.703	2861
813.845	2937
813.986	2804
814.127	2792
814.268	2849
814.41	2861
814.551	2880
814.692	2883
814.833	2830
814.974	2906
815.115	2986
815.256	2849
815.397	2834
815.539	2845
815.68	2815
815.821	2788
815.962	2990
816.103	2918
816.244	2910
816.385	2857
816.526	3017
816.666	2925
816.807	2750
816.948	2918
817.089	2944
817.23	2876
817.371	2864
817.512	2773
817.653	2876
817.793	2864
817.934	2918
818.075	3036
818.216	2998
818.356	3024
818.497	2906
818.638	2838
818.778	2826
818.919	2842
819.06	2777
819.2	2918
819.341	2819
819.481	2823
819.622	2979
819.762	3104
819.903	3074
820.043	2990
820.184	2948
820.324	2876
820.465	3024
820.605	3062
820.746	3055
820.886	2941
821.026	3127
821.167	3161
821.307	3294
821.447	3294
821.588	3233
821.728	3214
821.868	3211
822.008	3108
822.149	3218
822.289	3237
822.429	3123
822.569	3119
822.709	3169
822.849	3062
822.99	3093
823.13	3157
823.27	3237
823.41	3135
823.55	3169
823.69	3195
823.83	3184
823.97	3131
824.11	3032
824.25	2986
824.389	3131
824.529	3150
824.669	3112
824.809	3226
824.949	3279
825.089	3237
825.228	3203
825.368	3039
825.508	2963
825.648	2986
825.787	3024
825.927	3032
826.067	2998
826.206	2963
826.346	3051
826.485	3070
826.625	3108
826.765	3283
826.904	3199
827.044	2998
827.183	2967
827.323	2876
827.462	3005
827.601	2910
827.741	2937
827.88	2963
828.02	2876
828.159	2975
828.298	3081
828.437	3123
828.577	3081
828.716	3268
828.855	3097
828.994	2925
829.134	2918
829.273	2937
829.412	2906
829.551	2902
829.69	2910
829.829	3024
829.968	3146
830.107	3020
830.246	3032
830.385	2956
830.524	2891
830.663	2834
830.802	2785
830.941	2651
831.08	2674
831.219	2739
831.357	2754
831.496	2933
831.635	2712
831.774	2663
831.913	2682
832.051	2533
832.19	2590
832.329	2705
832.467	2575
832.606	2484
832.744	2602
832.883	2560
833.022	2629
833.16	2674
833.299	2693
833.437	2716
833.576	2670
833.714	2762
833.852	2754
833.991	2769
834.129	2861
834.267	2834
834.406	2819
834.544	2872
834.682	2887
834.821	2895
834.959	3123
835.097	2910
835.235	3051
835.373	2998
835.511	3047
835.65	2979
835.788	2937
835.926	2887
836.064	2819
836.202	2883
836.34	3112
836.478	3165
836.615	3039
836.753	3131
836.891	3184
837.029	3192
837.167	3104
837.305	3051
837.443	3032
837.58	2967
837.718	3131
837.856	3100
837.993	3028
838.131	3100
838.269	3089
838.406	3127
838.544	3062
838.681	2998
838.819	2929
838.956	2830
839.094	2845
839.231	2929
839.369	3009
839.506	3374
839.643	3249
839.781	3039
839.918	2952
840.055	3043
840.193	3047
840.33	3058
840.467	3131
840.604	3150
840.742	3359
840.879	3058
841.016	3051
841.153	3146
841.29	3351
841.427	3321
841.564	3260
841.701	3359
841.838	3207
841.975	3180
842.112	3207
842.249	3089
842.385	3039
842.522	3279
842.659	3123
842.796	3100
842.933	3119
843.069	3085
843.206	3077
843.343	3173
843.479	3093
843.616	3176
843.752	2899
843.889	2891
844.025	3097
844.162	2883
844.298	3119
844.435	2960
844.571	2902
844.708	3081
844.844	3199
844.98	3245
845.117	3218
845.253	3081
845.389	3024
845.525	3138
845.661	3138
845.798	3024
845.934	3154
846.07	3062
846.206	3180
846.342	3317
846.478	3241
846.614	3131
846.75	3036
846.886	3070
847.022	3237
847.158	3135
847.294	3253
847.429	3241
847.565	3241
847.701	3462
847.837	3058
847.972	2975
848.108	3176
848.244	3157
848.379	3032
848.515	2933
848.65	2937
848.786	2998
848.921	3024
849.057	3135
849.192	3119
849.328	3058
849.463	3138
849.598	3112
849.734	3047
849.869	3009
850.004	2944
850.14	2990
850.275	2929
850.41	2849
850.545	2872
850.68	2937
850.815	2979
850.95	2952
851.085	3203
851.22	3112
851.355	3062
851.49	3017
851.625	3028
851.76	3036
851.895	2937
852.03	2948
852.165	3058
852.299	3081
852.434	3184
852.569	3127
852.703	3203
852.838	3291
852.973	3355
853.107	3313
853.242	3161
853.376	3081
853.511	2986
853.645	3032
853.78	3268
853.914	3116
854.048	3131
854.183	3077
854.317	3116
854.451	3283
854.585	3116
854.72	3119
854.854	3203
854.988	3058
855.122	3108
855.256	2982
855.39	3127
855.524	3237
855.658	3176
855.792	3157
855.926	3188
856.06	3241
856.194	3272
856.327	3180
856.461	3097
856.595	3081
856.729	3074
856.862	3207
856.996	3154
857.13	3199
857.263	3203
857.397	3245
857.53	3119
857.664	3230
857.797	3226
857.931	3268
858.064	3161
858.197	3207
858.331	3123
858.464	3097
858.597	3001
858.731	3093
858.864	3093
858.997	3093
859.13	3169
859.263	3146
859.396	3180
859.529	3089
859.662	3070
859.795	3024
859.928	3165
860.061	3294
860.194	3294
860.327	3169
860.46	3112
860.592	3253
860.725	3264
860.858	3233
860.99	3127
861.123	3058
861.256	3047
861.388	3146
861.521	3800
861.653	3039
861.786	2960
861.918	2990
862.05	3074
862.183	3100
862.315	3154
862.447	3195
862.58	3089
862.712	2929
862.844	2891
862.976	3028
863.108	2994
863.24	3340
863.372	2876
863.504	2979
863.636	2922
863.768	3039
863.9	2967
864.032	2906
864.164	2914
864.296	3036
864.428	3058
864.559	3108
864.691	3097
864.823	3081
864.954	3058
865.086	3058
865.217	3017
865.349	2960
865.48	2994
865.612	3013
865.743	3173
865.875	2986
866.006	2937
866.137	2971
866.269	2979
866.4	2906
866.531	2967
866.662	2933
866.793	2929
866.924	2899
867.055	2979
867.186	2864
867.317	2872
867.448	2823
867.579	2861
867.71	2849
867.841	2838
867.972	2906
868.103	2887
868.233	2883
868.364	2883
868.495	2887
868.625	3066
868.756	3192
868.886	2975
869.017	3032
869.147	3142
869.278	3150
869.408	3039
869.539	3005
869.669	3085
869.799	3074
869.929	3142
870.06	3074
870.19	3351
870.32	3245
870.45	3317
870.58	3355
870.71	3477
870.84	3450
870.97	3272
871.1	3226
871.23	3473
871.36	3500
871.489	3325
871.619	3363
871.749	3431
871.879	3462
872.008	3500
872.138	3355
872.267	3233
872.397	3131
872.526	3093
872.656	3005
872.785	3081
872.915	3203
873.044	3287
873.173	3222
873.303	3245
873.432	3222
873.561	3218
873.69	3150
873.819	3127
873.948	3226
874.077	3116
874.206	3032
874.335	3070
874.464	3192
874.593	3344
874.722	3211
874.851	3367
874.979	3340
875.108	3306
875.237	3199
875.365	3123
875.494	3173
875.623	3256
875.751	3077
875.88	3100
876.008	3180
876.136	3245
876.265	3359
876.393	3469
876.521	3428
876.65	3405
876.778	3283
876.906	3245
877.034	3195
877.162	3233
877.29	3157
877.418	3264
877.546	3222
877.674	3226
877.802	3233
877.93	3245
878.058	3169
878.185	3089
878.313	3222
878.441	3176
878.568	3062
878.696	3157
878.824	3249
878.951	3268
879.079	3469
879.206	3606
879.333	3431
879.461	3306
879.588	3344
879.715	3485
879.842	3545
879.97	3378
880.097	3161
880.224	3142
880.351	3135
880.478	3226
880.605	3169
880.732	3188
880.859	3481
880.986	3302
881.112	3336
881.239	3192
881.366	3104
881.493	3036
881.619	3017
881.746	3089
881.872	3051
881.999	3066
882.125	3135
882.252	3283
882.378	3279
882.505	3466
882.631	3291
882.757	3135
882.883	3230
883.01	3249
883.136	3157
883.262	3077
883.388	3116
883.514	3329
883.64	3363
883.766	3260
883.892	3211
884.018	3249
884.143	3397
884.269	3504
884.395	3184
884.52	3119
884.646	3184
884.772	3085
884.897	3097
885.023	3218
885.148	3317
885.274	3420
885.399	3382
885.524	3233
885.65	3253
885.775	3332
885.9	3245
886.025	3412
886.15	3336
886.275	3313
886.4	3230
886.525	3260
886.65	3264
886.775	3241
886.9	3450
887.025	3652
887.149	3389
887.274	3291
887.399	3138
887.523	3222
887.648	3157
887.773	3230
887.897	3382
888.021	3405
888.146	3275
888.27	3401
888.395	3526
888.519	3397
888.643	3431
888.767	3466
888.891	3340
889.015	3241
889.139	3272
889.263	3241
889.387	3389
889.511	3538
889.635	3439
889.759	3287
889.883	3325
890.006	3359
890.13	3477
890.254	3256
890.377	3340
890.501	3211
890.624	3192
890.748	3310
890.871	3203
890.995	3089
891.118	3058
891.241	3241
891.364	3241
891.488	3329
891.611	3173
891.734	3195
891.857	3268
891.98	3226
892.103	3363
892.226	3302
892.349	3203
892.471	3108
892.594	3214
892.717	3325
892.839	3283
892.962	3310
893.085	3351
893.207	3291
893.33	3142
893.452	3230
893.575	3325
893.697	3218
893.819	3477
893.941	3504
894.064	3466
894.186	3283
894.308	3237
894.43	3450
894.552	3511
894.674	3447
894.796	3287
894.918	3355
895.04	3279
895.161	3420
895.283	3370
895.405	3325
895.526	3340
895.648	3420
895.769	3424
895.891	3488
896.012	3485
896.134	3485
896.255	3420
896.376	3389
896.498	3329
896.619	3443
896.74	3344
896.861	3393
896.982	3709
897.103	3842
897.224	3603
897.345	3492
897.466	3458
897.587	3481
897.708	3618
897.828	3545
897.949	3416
898.07	3329
898.19	3405
898.311	3603
898.431	3454
898.552	3481
898.672	3614
898.792	3568
898.913	3511
899.033	3428
899.153	3272
899.273	3241
899.393	3275
899.513	3317
899.633	3310
899.753	3325
899.873	3291
899.993	3412
900.113	3287
900.232	3367
900.352	3321
900.472	3287
900.591	3222
900.711	3294
900.83	3195
900.95	3367
901.069	3500
901.189	3359
901.308	3161
901.427	3100
901.546	3211
901.665	3287
901.784	3336
901.904	3180
902.023	3104
902.141	3047
902.26	2990
902.379	3108
902.498	3074
902.617	3051
902.735	3188
902.854	3218
902.973	3195
903.091	3055
903.21	3081
903.328	3119
903.446	3119
903.565	3104
903.683	3203
903.801	3108
903.919	3241
904.038	3275
904.156	3176
904.274	3283
904.392	3294
904.51	3321
904.627	3302
904.745	3416
904.863	3519
904.981	3249
905.098	3165
905.216	3230
905.334	3325
905.451	3253
905.569	3306
905.686	3447
905.803	3412
905.921	3287
906.038	3412
906.155	3344
906.272	3287
906.389	3348
906.506	3241
906.623	3253
906.74	3306
906.857	3211
906.974	3279
907.091	3443
907.208	3572
907.324	3458
907.441	3359
907.557	3188
907.674	3241
907.79	3192
907.907	3268
908.023	3393
908.139	3317
908.256	3336
908.372	3325
908.488	3336
908.604	3264
908.72	3237
908.836	3264
908.952	3268
909.068	3344
909.184	3504
909.3	3359
909.415	3477
909.531	3454
909.647	3268
909.762	3321
909.878	3241
909.993	3348
910.108	3348
910.224	3310
910.339	3447
910.454	3348
910.57	3279
910.685	3245
910.8	3557
910.915	3549
911.03	3416
911.145	3275
911.259	3279
911.374	3336
911.489	3226
911.604	3230
911.718	3142
911.833	3138
911.947	3028
912.062	2948
912.176	3184
912.291	3214
912.405	3169
912.519	3389
912.633	3450
912.748	3336
912.862	3275
912.976	3173
913.09	3058
913.204	3119
913.318	3207
913.431	3310
913.545	3332
913.659	3420
913.772	3310
913.886	3237
914	3157
914.113	3386
914.226	3382
914.34	3378
914.453	3222
914.566	3431
914.68	3279
914.793	3287
914.906	3142
915.019	3112
915.132	3032
915.245	3173
915.358	3173
915.47	3203
915.583	3253
915.696	3310
915.809	3382
915.921	3409
916.034	3241
916.146	3253
916.259	3207
916.371	3424
916.483	3348
916.595	3306
916.708	3332
916.82	3355
916.932	3321
917.044	3340
917.156	3355
917.268	3214
917.38	3332
917.491	3272
917.603	3344
917.715	3477
917.826	3428
917.938	3382
918.049	3268
918.161	3435
918.272	3599
918.384	3561
918.495	3477
918.606	3363
918.717	3283
918.828	3409
918.939	3389
919.05	3291
919.161	3355
919.272	3184
919.383	3260
919.494	3523
919.604	3663
919.715	3450
919.826	3405
919.936	3473
920.047	3580
920.157	3534
920.267	3736
920.378	3553
920.488	3557
920.598	3785
920.708	3934
920.818	3899
920.928	3846
921.038	4059
921.148	3968
921.258	3682
921.368	3656
921.477	3606
921.587	3526
921.697	3439
921.806	3633
921.916	3492
922.025	3344
922.134	3363
922.244	3275
922.353	3420
922.462	3253
922.571	3192
922.68	3089
922.789	3051
922.898	3127
923.007	3104
923.116	3203
923.224	3184
923.333	3157
923.442	3093
923.55	3089
923.659	3131
923.767	3192
923.876	3135
923.984	3233
924.092	3097
924.201	3233
924.309	3233
924.417	3245
924.525	3173
924.633	3207
924.741	4006
924.849	3051
924.956	3256
925.064	3100
925.172	3032
925.279	3085
925.387	3207
925.494	3184
925.602	3332
925.709	3321
925.816	3188
925.924	3268
926.031	3348
926.138	3329
926.245	3359
926.352	3249
926.459	3409
926.566	3488
926.673	3321
926.779	3211
926.886	3237
926.993	3108
927.099	3123
927.206	3104
927.312	3112
927.419	3188
927.525	3222
927.631	3283
927.737	3104
927.843	3123
927.95	3024
928.056	3127
928.162	3176
928.267	3214
928.373	3880
928.479	3313
928.585	3058
928.69	3218
928.796	3245
928.901	3161
929.007	3032
929.112	3214
929.218	3165
929.323	3161
929.428	3119
929.533	3298
929.638	3100
929.743	3150
929.848	3218
929.953	3184
930.058	3104
930.163	3017
930.267	3039
930.372	3173
930.477	3062
930.581	3294
930.685	3169
930.79	3055
930.894	3100
930.998	3093
931.103	3279
931.207	2925
931.311	2925
931.415	2914
931.519	2746
931.623	2811
