Data from test_V78500241_406.txt Node
Date: Fri Mar 25 16:18:00 CST 2022
User: usil
Spectrometer: V785-0024
Trigger mode: 0
Integration Time (sec): 4.000000E-1
Scans to average: 1
Nonlinearity correction enabled: false
Boxcar width: 0
Storing dark spectrum: false
XAxis mode: Wavelengths
Number of Pixels in Spectrum: 1024
>>>>>Begin Spectral Data<<<<<
801.071	2975
801.214	2971
801.356	2887
801.499	2887
801.641	2906
801.783	2963
801.926	3055
802.068	2982
802.211	3009
802.353	3055
802.496	2990
802.638	3001
802.78	3043
802.923	3074
803.065	3017
803.208	2918
803.35	2933
803.492	2929
803.635	2960
803.777	2766
803.919	2887
804.061	3218
804.204	2971
804.346	2929
804.488	2834
804.63	3009
804.773	2910
804.915	2906
805.057	3097
805.199	2906
805.341	2994
805.483	3055
805.626	3047
805.768	3001
805.91	3093
806.052	3108
806.194	3043
806.336	3272
806.478	3020
806.62	2963
806.762	2960
806.904	3077
807.046	3127
807.188	3028
807.33	2887
807.472	2986
807.614	2922
807.756	3017
807.898	2937
808.04	2906
808.182	2967
808.324	2918
808.465	2918
808.607	2910
808.749	2777
808.891	2834
809.033	3013
809.174	2975
809.316	2880
809.458	2910
809.6	2781
809.741	2792
809.883	2758
810.025	2853
810.166	2895
810.308	2864
810.45	2857
810.591	2811
810.733	2750
810.875	2819
811.016	2788
811.158	2792
811.299	2807
811.441	2937
811.582	2902
811.724	2792
811.865	2853
812.007	2868
812.148	2887
812.29	2868
812.431	2853
812.573	2979
812.714	2960
812.855	3017
812.997	3074
813.138	3119
813.279	3013
813.421	2979
813.562	2918
813.703	2922
813.845	2933
813.986	2777
814.127	2758
814.268	2796
814.41	2792
814.551	2800
814.692	2845
814.833	2826
814.974	2861
815.115	2956
815.256	2845
815.397	2796
815.539	2823
815.68	2796
815.821	2807
815.962	2979
816.103	2925
816.244	2883
816.385	2868
816.526	2963
816.666	2918
816.807	2727
816.948	2849
817.089	2887
817.23	2868
817.371	2781
817.512	2773
817.653	2857
817.793	2845
817.934	2895
818.075	2975
818.216	2971
818.356	3070
818.497	2876
818.638	2788
818.778	2807
818.919	2804
819.06	2758
819.2	2895
819.341	2792
819.481	2807
819.622	2944
819.762	3119
819.903	3066
820.043	2925
820.184	2922
820.324	2887
820.465	3051
820.605	3058
820.746	3043
820.886	2975
821.026	3127
821.167	3165
821.307	3291
821.447	3359
821.588	3180
821.728	3241
821.868	3237
822.008	3100
822.149	3203
822.289	3253
822.429	3108
822.569	3165
822.709	3195
822.849	3070
822.99	3100
823.13	3195
823.27	3249
823.41	3154
823.55	3188
823.69	3135
823.83	3245
823.97	3138
824.11	3058
824.25	3020
824.389	3112
824.529	3131
824.669	3081
824.809	3249
824.949	3279
825.089	3241
825.228	3154
825.368	3085
825.508	2990
825.648	3005
825.787	3036
825.927	3047
826.067	2979
826.206	2979
826.346	3051
826.485	3127
826.625	3157
826.765	3310
826.904	3253
827.044	3028
827.183	3020
827.323	2925
827.462	3024
827.601	2986
827.741	2967
827.88	3005
828.02	2914
828.159	3032
828.298	3066
828.437	3176
828.577	3070
828.716	3302
828.855	3108
828.994	2967
829.134	2952
829.273	2948
829.412	2899
829.551	2906
829.69	2941
829.829	3009
829.968	3157
830.107	3051
830.246	3081
830.385	2960
830.524	2960
830.663	2880
830.802	2777
830.941	2651
831.08	2682
831.219	2777
831.357	2777
831.496	2994
831.635	2788
831.774	2697
831.913	2693
832.051	2552
832.19	2590
832.329	2735
832.467	2541
832.606	2514
832.744	2613
832.883	2648
833.022	2583
833.16	2686
833.299	2712
833.437	2750
833.576	2735
833.714	2743
833.852	2796
833.991	2811
834.129	2906
834.267	2857
834.406	2842
834.544	2910
834.682	2937
834.821	2887
834.959	3074
835.097	2933
835.235	3074
835.373	3028
835.511	3058
835.65	2982
835.788	2994
835.926	2842
836.064	2834
836.202	2849
836.34	3112
836.478	3188
836.615	3100
836.753	3173
836.891	3264
837.029	3199
837.167	3150
837.305	3150
837.443	3055
837.58	2994
837.718	3176
837.856	3081
837.993	3085
838.131	3131
838.269	3169
838.406	3108
838.544	3146
838.681	2986
838.819	2933
838.956	2849
839.094	2883
839.231	2922
839.369	3070
839.506	3370
839.643	3253
839.781	3058
839.918	2994
840.055	3108
840.193	3058
840.33	3100
840.467	3135
840.604	3142
840.742	3458
840.879	3066
841.016	3070
841.153	3146
841.29	3332
841.427	3332
841.564	3317
841.701	3321
841.838	3272
841.975	3214
842.112	3264
842.249	3100
842.385	3066
842.522	3313
842.659	3142
842.796	3077
842.933	3116
843.069	3066
843.206	3089
843.343	3207
843.479	3085
843.616	3135
843.752	2952
843.889	2891
844.025	3093
844.162	2887
844.298	3093
844.435	2948
844.571	2918
844.708	3119
844.844	3218
844.98	3256
845.117	3214
845.253	3074
845.389	2994
845.525	3119
845.661	3119
845.798	3013
845.934	3184
846.07	3066
846.206	3256
846.342	3355
846.478	3291
846.614	3131
846.75	3062
846.886	3043
847.022	3260
847.158	3146
847.294	3214
847.429	3287
847.565	3203
847.701	3519
847.837	3001
847.972	3024
848.108	3203
848.244	3211
848.379	3039
848.515	2941
848.65	2956
848.786	3020
848.921	3020
849.057	3108
849.192	3154
849.328	3104
849.463	3116
849.598	3089
849.734	3093
849.869	3009
850.004	2956
850.14	3020
850.275	2929
850.41	2861
850.545	2941
850.68	2960
850.815	2975
850.95	2994
851.085	3218
851.22	3116
851.355	3066
851.49	3020
851.625	3039
851.76	3047
851.895	2963
852.03	2937
852.165	3066
852.299	3131
852.434	3214
852.569	3138
852.703	3211
852.838	3264
852.973	3363
853.107	3344
853.242	3173
853.376	3116
853.511	3017
853.645	3066
853.78	3253
853.914	3142
854.048	3127
854.183	3146
854.317	3165
854.451	3298
854.585	3138
854.72	3081
854.854	3268
854.988	3062
855.122	3138
855.256	2994
855.39	3150
855.524	3279
855.658	3214
855.792	3173
855.926	3222
856.06	3230
856.194	3253
856.327	3207
856.461	3089
856.595	3085
856.729	3138
856.862	3264
856.996	3195
857.13	3253
857.263	3268
857.397	3340
857.53	3146
857.664	3199
857.797	3264
857.931	3260
858.064	3211
858.197	3256
858.331	3165
858.464	3131
858.597	3032
858.731	3150
858.864	3161
858.997	3093
859.13	3199
859.263	3199
859.396	3207
859.529	3135
859.662	3093
859.795	3074
859.928	3146
860.061	3272
860.194	3363
860.327	3138
860.46	3135
860.592	3264
860.725	3275
860.858	3256
860.99	3184
861.123	3062
861.256	3074
861.388	3207
861.521	3876
861.653	3009
861.786	2979
861.918	3039
862.05	3074
862.183	3108
862.315	3173
862.447	3211
862.58	3108
862.712	2971
862.844	2944
862.976	3047
863.108	3024
863.24	3420
863.372	2895
863.504	2979
863.636	2975
863.768	3036
863.9	2994
864.032	2910
864.164	2967
864.296	3051
864.428	3104
864.559	3119
864.691	3108
864.823	3093
864.954	3028
865.086	3074
865.217	3017
865.349	2952
865.48	2963
865.612	3055
865.743	3184
865.875	3013
866.006	2922
866.137	3005
866.269	2937
866.4	2960
866.531	2929
866.662	2899
866.793	2944
866.924	2880
867.055	2929
867.186	2948
867.317	2918
867.448	2857
867.579	2868
867.71	2845
867.841	2868
867.972	2937
868.103	2922
868.233	2899
868.364	2876
868.495	2948
868.625	3104
868.756	3192
868.886	3001
869.017	3024
869.147	3222
869.278	3169
869.408	3058
869.539	3066
869.669	3104
869.799	3104
869.929	3123
870.06	3154
870.19	3355
870.32	3310
870.45	3325
870.58	3340
870.71	3469
870.84	3450
870.97	3268
871.1	3272
871.23	3469
871.36	3481
871.489	3340
871.619	3424
871.749	3435
871.879	3469
872.008	3526
872.138	3359
872.267	3283
872.397	3184
872.526	3100
872.656	3062
872.785	3135
872.915	3275
873.044	3351
873.173	3272
873.303	3275
873.432	3256
873.561	3268
873.69	3161
873.819	3154
873.948	3226
874.077	3123
874.206	3051
874.335	3150
874.464	3237
874.593	3348
874.722	3249
874.851	3409
874.979	3367
875.108	3363
875.237	3142
875.365	3173
875.494	3150
875.623	3264
875.751	3077
875.88	3142
876.008	3222
876.136	3237
876.265	3401
876.393	3568
876.521	3409
876.65	3447
876.778	3340
876.906	3275
877.034	3222
877.162	3264
877.29	3169
877.418	3283
877.546	3268
877.674	3272
877.802	3283
877.93	3203
878.058	3188
878.185	3093
878.313	3226
878.441	3253
878.568	3112
878.696	3169
878.824	3249
878.951	3351
879.079	3450
879.206	3644
879.333	3412
879.461	3340
879.588	3382
879.715	3534
879.842	3584
879.97	3409
880.097	3180
880.224	3146
880.351	3188
880.478	3203
880.605	3230
880.732	3222
880.859	3515
880.986	3321
881.112	3340
881.239	3256
881.366	3074
881.493	3024
881.619	3032
881.746	3085
881.872	3104
881.999	3070
882.125	3161
882.252	3256
882.378	3313
882.505	3462
882.631	3275
882.757	3150
882.883	3253
883.01	3264
883.136	3192
883.262	3112
883.388	3142
883.514	3321
883.64	3405
883.766	3306
883.892	3195
884.018	3256
884.143	3424
884.269	3530
884.395	3207
884.52	3192
884.646	3199
884.772	3131
884.897	3131
885.023	3203
885.148	3351
885.274	3431
885.399	3416
885.524	3272
885.65	3226
885.775	3336
885.9	3351
886.025	3473
886.15	3393
886.275	3329
886.4	3291
886.525	3363
886.65	3287
886.775	3272
886.9	3507
887.025	3656
887.149	3439
887.274	3245
887.399	3203
887.523	3203
887.648	3165
887.773	3169
887.897	3405
888.021	3412
888.146	3291
888.27	3420
888.395	3515
888.519	3431
888.643	3466
888.767	3443
888.891	3317
889.015	3249
889.139	3302
889.263	3214
889.387	3397
889.511	3542
889.635	3450
889.759	3291
889.883	3325
890.006	3378
890.13	3481
890.254	3287
890.377	3321
890.501	3222
890.624	3214
890.748	3344
890.871	3207
890.995	3150
891.118	3097
891.241	3222
891.364	3233
891.488	3329
891.611	3199
891.734	3256
891.857	3298
891.98	3222
892.103	3325
892.226	3260
892.349	3260
892.471	3108
892.594	3237
892.717	3268
892.839	3332
892.962	3325
893.085	3378
893.207	3291
893.33	3161
893.452	3214
893.575	3351
893.697	3287
893.819	3488
893.941	3507
894.064	3477
894.186	3283
894.308	3203
894.43	3435
894.552	3530
894.674	3488
894.796	3268
894.918	3340
895.04	3241
895.161	3466
895.283	3386
895.405	3317
895.526	3351
895.648	3393
895.769	3431
895.891	3450
896.012	3469
896.134	3523
896.255	3439
896.376	3374
896.498	3378
896.619	3439
896.74	3359
896.861	3458
896.982	3644
897.103	3869
897.224	3606
897.345	3500
897.466	3447
897.587	3473
897.708	3610
897.828	3549
897.949	3473
898.07	3340
898.19	3420
898.311	3584
898.431	3462
898.552	3564
898.672	3614
898.792	3572
898.913	3515
899.033	3424
899.153	3294
899.273	3214
899.393	3310
899.513	3313
899.633	3329
899.753	3317
899.873	3321
899.993	3332
900.113	3374
900.232	3405
900.352	3355
900.472	3306
900.591	3218
900.711	3302
900.83	3218
900.95	3405
901.069	3519
901.189	3332
901.308	3173
901.427	3154
901.546	3207
901.665	3310
901.784	3359
901.904	3233
902.023	3150
902.141	3009
902.26	2982
902.379	3112
902.498	3089
902.617	3089
902.735	3214
902.854	3249
902.973	3199
903.091	3020
903.21	3093
903.328	3154
903.446	3127
903.565	3100
903.683	3173
903.801	3180
903.919	3256
904.038	3310
904.156	3188
904.274	3336
904.392	3279
904.51	3245
904.627	3332
904.745	3485
904.863	3511
904.981	3218
905.098	3192
905.216	3230
905.334	3306
905.451	3317
905.569	3310
905.686	3416
905.803	3477
905.921	3302
906.038	3458
906.155	3397
906.272	3279
906.389	3321
906.506	3260
906.623	3199
906.74	3313
906.857	3214
906.974	3264
907.091	3466
907.208	3568
907.324	3477
907.441	3348
907.557	3241
907.674	3203
907.79	3241
907.907	3275
908.023	3393
908.139	3378
908.256	3367
908.372	3348
908.488	3378
908.604	3283
908.72	3260
908.836	3283
908.952	3268
909.068	3325
909.184	3507
909.3	3397
909.415	3511
909.531	3466
909.647	3268
909.762	3291
909.878	3249
909.993	3359
910.108	3344
910.224	3363
910.339	3431
910.454	3348
910.57	3291
910.685	3211
910.8	3606
910.915	3557
911.03	3450
911.145	3264
911.259	3298
911.374	3329
911.489	3230
911.604	3249
911.718	3097
911.833	3203
911.947	3032
912.062	3020
912.176	3146
912.291	3199
912.405	3211
912.519	3447
912.633	3443
912.748	3332
912.862	3264
912.976	3218
913.09	3093
913.204	3161
913.318	3230
913.431	3317
913.545	3332
913.659	3409
913.772	3378
913.886	3245
914	3184
914.113	3313
914.226	3401
914.34	3344
914.453	3241
914.566	3416
914.68	3340
914.793	3306
914.906	3119
915.019	3104
915.132	3043
915.245	3192
915.358	3233
915.47	3298
915.583	3294
915.696	3291
915.809	3409
915.921	3435
916.034	3275
916.146	3298
916.259	3207
916.371	3416
916.483	3363
916.595	3264
916.708	3348
916.82	3329
916.932	3310
917.044	3378
917.156	3374
917.268	3283
917.38	3310
917.491	3291
917.603	3378
917.715	3462
917.826	3447
917.938	3405
918.049	3302
918.161	3424
918.272	3549
918.384	3580
918.495	3542
918.606	3355
918.717	3268
918.828	3435
918.939	3367
919.05	3321
919.161	3367
919.272	3142
919.383	3310
919.494	3523
919.604	3701
919.715	3519
919.826	3416
919.936	3485
920.047	3614
920.157	3523
920.267	3751
920.378	3610
920.488	3614
920.598	3751
920.708	3975
920.818	3808
920.928	3808
921.038	4036
921.148	3994
921.258	3671
921.368	3641
921.477	3568
921.587	3587
921.697	3488
921.806	3603
921.916	3553
922.025	3359
922.134	3348
922.244	3302
922.353	3420
922.462	3291
922.571	3237
922.68	3074
922.789	3119
922.898	3176
923.007	3112
923.116	3253
923.224	3169
923.333	3154
923.442	3112
923.55	3085
923.659	3138
923.767	3218
923.876	3116
923.984	3233
924.092	3135
924.201	3207
924.309	3245
924.417	3245
924.525	3211
924.633	3245
924.741	4192
924.849	3051
924.956	3249
925.064	3112
925.172	3051
925.279	3077
925.387	3192
925.494	3184
925.602	3332
925.709	3317
925.816	3188
925.924	3302
926.031	3382
926.138	3351
926.245	3370
926.352	3283
926.459	3405
926.566	3462
926.673	3336
926.779	3268
926.886	3195
926.993	3176
927.099	3127
927.206	3108
927.312	3138
927.419	3169
927.525	3150
927.631	3272
927.737	3154
927.843	3127
927.95	3047
928.056	3119
928.162	3150
928.267	3294
928.373	3846
928.479	3344
928.585	3077
928.69	3214
928.796	3294
928.901	3176
929.007	3055
929.112	3199
929.218	3127
929.323	3131
929.428	3180
929.533	3302
929.638	3123
929.743	3188
929.848	3283
929.953	3214
930.058	3119
930.163	3020
930.267	3100
930.372	3233
930.477	3028
930.581	3298
930.685	3188
930.79	3055
930.894	3116
930.998	3123
931.103	3279
931.207	2967
931.311	2929
931.415	2918
931.519	2788
931.623	2800
