Data from test_V78500241_1051.txt Node
Date: Fri Mar 25 16:22:29 CST 2022
User: usil
Spectrometer: V785-0024
Trigger mode: 0
Integration Time (sec): 4.000000E-1
Scans to average: 1
Nonlinearity correction enabled: false
Boxcar width: 0
Storing dark spectrum: false
XAxis mode: Wavelengths
Number of Pixels in Spectrum: 1024
>>>>>Begin Spectral Data<<<<<
801.071	2922
801.214	2933
801.356	2857
801.499	2872
801.641	2842
801.783	2876
801.926	3039
802.068	2963
802.211	3009
802.353	3001
802.496	2914
802.638	2963
802.78	3055
802.923	3070
803.065	3024
803.208	2922
803.35	2929
803.492	2902
803.635	2929
803.777	2750
803.919	2804
804.061	3176
804.204	2910
804.346	2899
804.488	2830
804.63	2948
804.773	2876
804.915	2902
805.057	3081
805.199	2929
805.341	2967
805.483	3013
805.626	2994
805.768	2944
805.91	3051
806.052	3097
806.194	3013
806.336	3176
806.478	3005
806.62	2952
806.762	2941
806.904	3047
807.046	3123
807.188	2956
807.33	2922
807.472	2998
807.614	2902
807.756	2986
807.898	2895
808.04	2899
808.182	2933
808.324	2944
808.465	2861
808.607	2853
808.749	2785
808.891	2823
809.033	2975
809.174	2956
809.316	2910
809.458	2895
809.6	2758
809.741	2739
809.883	2773
810.025	2845
810.166	2880
810.308	2830
810.45	2868
810.591	2773
810.733	2762
810.875	2838
811.016	2769
811.158	2777
811.299	2773
811.441	2910
811.582	2887
811.724	2826
811.865	2815
812.007	2891
812.148	2853
812.29	2834
812.431	2910
812.573	2941
812.714	2944
812.855	3020
812.997	3039
813.138	3097
813.279	3013
813.421	3017
813.562	2956
813.703	2876
813.845	2883
813.986	2754
814.127	2762
814.268	2807
814.41	2823
814.551	2788
814.692	2845
814.833	2792
814.974	2853
815.115	2933
815.256	2807
815.397	2785
815.539	2834
815.68	2758
815.821	2804
815.962	2914
816.103	2910
816.244	2872
816.385	2849
816.526	2963
816.666	2895
816.807	2712
816.948	2918
817.089	2933
817.23	2838
817.371	2724
817.512	2777
817.653	2811
817.793	2857
817.934	2918
818.075	2967
818.216	2967
818.356	2998
818.497	2906
818.638	2796
818.778	2792
818.919	2773
819.06	2773
819.2	2861
819.341	2807
819.481	2796
819.622	2902
819.762	3104
819.903	3024
820.043	2925
820.184	2914
820.324	2887
820.465	3024
820.605	3051
820.746	3055
820.886	2918
821.026	3108
821.167	3176
821.307	3199
821.447	3268
821.588	3184
821.728	3161
821.868	3214
822.008	3051
822.149	3195
822.289	3211
822.429	3077
822.569	3116
822.709	3169
822.849	2994
822.99	3024
823.13	3142
823.27	3195
823.41	3100
823.55	3138
823.69	3154
823.83	3199
823.97	3108
824.11	2952
824.25	2971
824.389	3097
824.529	3123
824.669	3039
824.809	3161
824.949	3272
825.089	3199
825.228	3157
825.368	2986
825.508	2967
825.648	2956
825.787	3009
825.927	2998
826.067	2986
826.206	2937
826.346	3055
826.485	3074
826.625	3104
826.765	3214
826.904	3192
827.044	2967
827.183	2922
827.323	2830
827.462	2948
827.601	2944
827.741	2963
827.88	2967
828.02	2838
828.159	2956
828.298	3020
828.437	3123
828.577	3028
828.716	3207
828.855	3108
828.994	2914
829.134	2864
829.273	2925
829.412	2861
829.551	2849
829.69	2861
829.829	2975
829.968	3104
830.107	3005
830.246	3020
830.385	2914
830.524	2849
830.663	2823
830.802	2712
830.941	2640
831.08	2640
831.219	2735
831.357	2758
831.496	2922
831.635	2697
831.774	2640
831.913	2659
832.051	2545
832.19	2530
832.329	2663
832.467	2522
832.606	2469
832.744	2537
832.883	2541
833.022	2552
833.16	2621
833.299	2663
833.437	2682
833.576	2667
833.714	2689
833.852	2712
833.991	2746
834.129	2842
834.267	2800
834.406	2766
834.544	2842
834.682	2895
834.821	2876
834.959	3043
835.097	2895
835.235	3028
835.373	2967
835.511	3020
835.65	2948
835.788	2925
835.926	2792
836.064	2754
836.202	2868
836.34	3043
836.478	3116
836.615	3024
836.753	3093
836.891	3180
837.029	3146
837.167	3100
837.305	3051
837.443	2994
837.58	2963
837.718	3123
837.856	3066
837.993	3009
838.131	3085
838.269	3131
838.406	3036
838.544	3074
838.681	2929
838.819	2895
838.956	2811
839.094	2815
839.231	2906
839.369	3020
839.506	3367
839.643	3203
839.781	3001
839.918	2933
840.055	3001
840.193	3001
840.33	3047
840.467	3104
840.604	3108
840.742	3355
840.879	3024
841.016	3058
841.153	3085
841.29	3359
841.427	3298
841.564	3226
841.701	3260
841.838	3207
841.975	3188
842.112	3180
842.249	3097
842.385	3036
842.522	3230
842.659	3112
842.796	3017
842.933	3093
843.069	3100
843.206	3047
843.343	3157
843.479	3085
843.616	3150
843.752	2899
843.889	2872
844.025	3116
844.162	2910
844.298	3112
844.435	2941
844.571	2922
844.708	3081
844.844	3207
844.98	3253
845.117	3188
845.253	3077
845.389	3009
845.525	3123
845.661	3154
845.798	3036
845.934	3135
846.07	3097
846.206	3241
846.342	3340
846.478	3275
846.614	3135
846.75	3085
846.886	3039
847.022	3275
847.158	3116
847.294	3275
847.429	3294
847.565	3241
847.701	3542
847.837	3100
847.972	3047
848.108	3169
848.244	3169
848.379	3001
848.515	3009
848.65	3017
848.786	3032
848.921	3070
849.057	3097
849.192	3199
849.328	3138
849.463	3173
849.598	3104
849.734	3085
849.869	3020
850.004	2975
850.14	2986
850.275	2910
850.41	2922
850.545	2891
850.68	2967
850.815	3013
850.95	2998
851.085	3253
851.22	3146
851.355	3077
851.49	2990
851.625	3024
851.76	3108
851.895	2975
852.03	2948
852.165	3062
852.299	3123
852.434	3207
852.569	3203
852.703	3237
852.838	3313
852.973	3351
853.107	3351
853.242	3169
853.376	3112
853.511	3005
853.645	3074
853.78	3287
853.914	3138
854.048	3097
854.183	3161
854.317	3180
854.451	3359
854.585	3180
854.72	3173
854.854	3241
854.988	3112
855.122	3108
855.256	3028
855.39	3195
855.524	3279
855.658	3214
855.792	3176
855.926	3207
856.06	3245
856.194	3291
856.327	3199
856.461	3089
856.595	3123
856.729	3135
856.862	3241
856.996	3195
857.13	3249
857.263	3253
857.397	3336
857.53	3157
857.664	3237
857.797	3245
857.931	3283
858.064	3176
858.197	3245
858.331	3176
858.464	3161
858.597	3009
858.731	3131
858.864	3135
858.997	3116
859.13	3222
859.263	3203
859.396	3233
859.529	3150
859.662	3089
859.795	3058
859.928	3150
860.061	3294
860.194	3287
860.327	3195
860.46	3123
860.592	3264
860.725	3272
860.858	3272
860.99	3154
861.123	3108
861.256	3089
861.388	3165
861.521	3865
861.653	2994
861.786	3009
861.918	3020
862.05	3066
862.183	3093
862.315	3154
862.447	3230
862.58	3116
862.712	3017
862.844	2929
862.976	3020
863.108	3036
863.24	3412
863.372	2914
863.504	2998
863.636	2952
863.768	3020
863.9	3005
864.032	2937
864.164	2960
864.296	3017
864.428	3089
864.559	3127
864.691	3123
864.823	3058
864.954	3036
865.086	3093
865.217	2998
865.349	2982
865.48	3013
865.612	3093
865.743	3119
865.875	3024
866.006	2979
866.137	3001
866.269	2971
866.4	2960
866.531	2944
866.662	2910
866.793	2952
866.924	2933
867.055	2979
867.186	2948
867.317	2963
867.448	2891
867.579	2876
867.71	2876
867.841	2845
867.972	2960
868.103	2941
868.233	2933
868.364	2895
868.495	2925
868.625	3104
868.756	3184
868.886	3009
869.017	3005
869.147	3173
869.278	3192
869.408	3093
869.539	3062
869.669	3119
869.799	3055
869.929	3146
870.06	3112
870.19	3386
870.32	3283
870.45	3336
870.58	3386
870.71	3469
870.84	3492
870.97	3321
871.1	3279
871.23	3454
871.36	3492
871.489	3420
871.619	3447
871.749	3466
871.879	3458
872.008	3488
872.138	3420
872.267	3317
872.397	3192
872.526	3123
872.656	3017
872.785	3116
872.915	3233
873.044	3386
873.173	3272
873.303	3268
873.432	3310
873.561	3294
873.69	3173
873.819	3131
873.948	3230
874.077	3116
874.206	3055
874.335	3138
874.464	3233
874.593	3363
874.722	3268
874.851	3416
874.979	3363
875.108	3370
875.237	3226
875.365	3169
875.494	3211
875.623	3313
875.751	3100
875.88	3119
876.008	3218
876.136	3245
876.265	3382
876.393	3542
876.521	3462
876.65	3431
876.778	3348
876.906	3260
877.034	3226
877.162	3222
877.29	3195
877.418	3275
877.546	3294
877.674	3253
877.802	3287
877.93	3245
878.058	3237
878.185	3138
878.313	3256
878.441	3279
878.568	3146
878.696	3203
878.824	3279
878.951	3294
879.079	3443
879.206	3675
879.333	3488
879.461	3363
879.588	3401
879.715	3534
879.842	3648
879.97	3405
880.097	3157
880.224	3169
880.351	3237
880.478	3260
880.605	3237
880.732	3222
880.859	3549
880.986	3344
881.112	3382
881.239	3233
881.366	3138
881.493	3081
881.619	3081
881.746	3119
881.872	3108
881.999	3138
882.125	3157
882.252	3256
882.378	3306
882.505	3435
882.631	3275
882.757	3157
882.883	3241
883.01	3233
883.136	3161
883.262	3123
883.388	3119
883.514	3332
883.64	3412
883.766	3332
883.892	3222
884.018	3264
884.143	3397
884.269	3564
884.395	3211
884.52	3173
884.646	3192
884.772	3161
884.897	3119
885.023	3226
885.148	3374
885.274	3428
885.399	3367
885.524	3279
885.65	3237
885.775	3317
885.9	3279
886.025	3458
886.15	3386
886.275	3329
886.4	3226
886.525	3329
886.65	3260
886.775	3325
886.9	3500
887.025	3641
887.149	3428
887.274	3302
887.399	3214
887.523	3211
887.648	3195
887.773	3230
887.897	3367
888.021	3401
888.146	3325
888.27	3454
888.395	3538
888.519	3500
888.643	3492
888.767	3515
888.891	3317
889.015	3226
889.139	3336
889.263	3218
889.387	3382
889.511	3542
889.635	3485
889.759	3283
889.883	3306
890.006	3431
890.13	3523
890.254	3313
890.377	3359
890.501	3184
890.624	3207
890.748	3317
890.871	3226
890.995	3116
891.118	3070
891.241	3260
891.364	3256
891.488	3329
891.611	3241
891.734	3256
891.857	3298
891.98	3226
892.103	3367
892.226	3306
892.349	3233
892.471	3119
892.594	3275
892.717	3317
892.839	3302
892.962	3355
893.085	3374
893.207	3310
893.33	3119
893.452	3222
893.575	3348
893.697	3283
893.819	3492
893.941	3504
894.064	3481
894.186	3302
894.308	3283
894.43	3466
894.552	3545
894.674	3477
894.796	3325
894.918	3332
895.04	3279
895.161	3431
895.283	3351
895.405	3302
895.526	3389
895.648	3401
895.769	3458
895.891	3462
896.012	3477
896.134	3466
896.255	3428
896.376	3401
896.498	3378
896.619	3409
896.74	3367
896.861	3439
896.982	3740
897.103	3838
897.224	3610
897.345	3519
897.466	3477
897.587	3511
897.708	3633
897.828	3526
897.949	3450
898.07	3363
898.19	3416
898.311	3618
898.431	3435
898.552	3519
898.672	3587
898.792	3625
898.913	3530
899.033	3447
899.153	3329
899.273	3241
899.393	3302
899.513	3336
899.633	3325
899.753	3321
899.873	3306
899.993	3355
900.113	3332
900.232	3409
900.352	3348
900.472	3321
900.591	3173
900.711	3287
900.83	3237
900.95	3424
901.069	3481
901.189	3367
901.308	3180
901.427	3184
901.546	3241
901.665	3313
901.784	3344
901.904	3192
902.023	3176
902.141	3043
902.26	3001
902.379	3131
902.498	3085
902.617	3081
902.735	3218
902.854	3249
902.973	3195
903.091	3062
903.21	3097
903.328	3138
903.446	3135
903.565	3150
903.683	3192
903.801	3112
903.919	3268
904.038	3325
904.156	3157
904.274	3306
904.392	3302
904.51	3310
904.627	3359
904.745	3439
904.863	3526
904.981	3317
905.098	3173
905.216	3241
905.334	3355
905.451	3298
905.569	3317
905.686	3447
905.803	3420
905.921	3298
906.038	3431
906.155	3393
906.272	3325
906.389	3359
906.506	3249
906.623	3256
906.74	3275
906.857	3161
906.974	3245
907.091	3439
907.208	3595
907.324	3496
907.441	3355
907.557	3241
907.674	3241
907.79	3226
907.907	3287
908.023	3401
908.139	3393
908.256	3351
908.372	3378
908.488	3344
908.604	3237
908.72	3256
908.836	3317
908.952	3310
909.068	3359
909.184	3496
909.3	3409
909.415	3488
909.531	3481
909.647	3294
909.762	3283
909.878	3256
909.993	3393
910.108	3344
910.224	3344
910.339	3435
910.454	3355
910.57	3310
910.685	3230
910.8	3576
910.915	3553
911.03	3435
911.145	3272
911.259	3253
911.374	3344
911.489	3249
911.604	3237
911.718	3127
911.833	3165
911.947	2994
912.062	2979
912.176	3199
912.291	3176
912.405	3230
912.519	3420
912.633	3477
912.748	3344
912.862	3306
912.976	3161
913.09	3047
913.204	3135
913.318	3245
913.431	3359
913.545	3317
913.659	3412
913.772	3378
913.886	3245
914	3195
914.113	3378
914.226	3378
914.34	3378
914.453	3245
914.566	3416
914.68	3294
914.793	3332
914.906	3157
915.019	3119
915.132	3123
915.245	3237
915.358	3260
915.47	3249
915.583	3275
915.696	3367
915.809	3466
915.921	3435
916.034	3298
916.146	3279
916.259	3253
916.371	3401
916.483	3389
916.595	3272
916.708	3401
916.82	3363
916.932	3370
917.044	3389
917.156	3412
917.268	3313
917.38	3340
917.491	3283
917.603	3428
917.715	3504
917.826	3526
917.938	3443
918.049	3336
918.161	3454
918.272	3580
918.384	3629
918.495	3511
918.606	3409
918.717	3325
918.828	3431
918.939	3473
919.05	3386
919.161	3420
919.272	3241
919.383	3351
919.494	3572
919.604	3713
919.715	3526
919.826	3428
919.936	3496
920.047	3652
920.157	3606
920.267	3789
920.378	3667
920.488	3629
920.598	3842
920.708	3991
920.818	3869
920.928	3842
921.038	4063
921.148	4025
921.258	3770
921.368	3671
921.477	3606
921.587	3606
921.697	3511
921.806	3675
921.916	3545
922.025	3409
922.134	3428
922.244	3313
922.353	3481
922.462	3317
922.571	3283
922.68	3150
922.789	3119
922.898	3138
923.007	3119
923.116	3245
923.224	3184
923.333	3233
923.442	3180
923.55	3097
923.659	3188
923.767	3245
923.876	3192
923.984	3268
924.092	3135
924.201	3199
924.309	3268
924.417	3325
924.525	3230
924.633	3264
924.741	4230
924.849	3058
924.956	3294
925.064	3157
925.172	3070
925.279	3146
925.387	3233
925.494	3260
925.602	3378
925.709	3443
925.816	3207
925.924	3313
926.031	3458
926.138	3351
926.245	3386
926.352	3275
926.459	3431
926.566	3511
926.673	3370
926.779	3294
926.886	3291
926.993	3199
927.099	3154
927.206	3154
927.312	3173
927.419	3313
927.525	3260
927.631	3291
927.737	3192
927.843	3150
927.95	3119
928.056	3157
928.162	3222
928.267	3287
928.373	3903
928.479	3332
928.585	3104
928.69	3253
928.796	3313
928.901	3214
929.007	3112
929.112	3226
929.218	3207
929.323	3157
929.428	3154
929.533	3348
929.638	3180
929.743	3195
929.848	3268
929.953	3245
930.058	3142
930.163	3005
930.267	3100
930.372	3253
930.477	3051
930.581	3355
930.685	3192
930.79	3104
930.894	3116
930.998	3112
931.103	3294
931.207	2971
931.311	3013
931.415	2979
931.519	2819
931.623	2842
