Data from test_V78500241_395.txt Node
Date: Fri Mar 25 16:17:56 CST 2022
User: usil
Spectrometer: V785-0024
Trigger mode: 0
Integration Time (sec): 4.000000E-1
Scans to average: 1
Nonlinearity correction enabled: false
Boxcar width: 0
Storing dark spectrum: false
XAxis mode: Wavelengths
Number of Pixels in Spectrum: 1024
>>>>>Begin Spectral Data<<<<<
801.071	2895
801.214	2929
801.356	2899
801.499	2899
801.641	2891
801.783	2918
801.926	3032
802.068	2929
802.211	2994
802.353	3043
802.496	2971
802.638	3009
802.78	3024
802.923	3089
803.065	2982
803.208	2845
803.35	2895
803.492	2929
803.635	2929
803.777	2743
803.919	2857
804.061	3211
804.204	2960
804.346	2880
804.488	2830
804.63	2990
804.773	2864
804.915	2895
805.057	3081
805.199	2902
805.341	2975
805.483	3020
805.626	2986
805.768	2975
805.91	3085
806.052	3070
806.194	3009
806.336	3245
806.478	3032
806.62	2994
806.762	2960
806.904	3039
807.046	3154
807.188	2982
807.33	2933
807.472	2952
807.614	2891
807.756	2982
807.898	2918
808.04	2861
808.182	2979
808.324	2925
808.465	2864
808.607	2826
808.749	2769
808.891	2838
809.033	2975
809.174	2941
809.316	2872
809.458	2925
809.6	2762
809.741	2750
809.883	2758
810.025	2838
810.166	2842
810.308	2826
810.45	2788
810.591	2800
810.733	2735
810.875	2845
811.016	2777
811.158	2758
811.299	2807
811.441	2952
811.582	2880
811.724	2842
811.865	2845
812.007	2925
812.148	2880
812.29	2864
812.431	2864
812.573	2952
812.714	2967
812.855	3028
812.997	3051
813.138	3127
813.279	2994
813.421	2956
813.562	2937
813.703	2842
813.845	2864
813.986	2792
814.127	2727
814.268	2792
814.41	2838
814.551	2838
814.692	2876
814.833	2853
814.974	2880
815.115	2975
815.256	2849
815.397	2819
815.539	2800
815.68	2754
815.821	2811
815.962	2929
816.103	2918
816.244	2864
816.385	2895
816.526	2929
816.666	2914
816.807	2739
816.948	2872
817.089	2887
817.23	2861
817.371	2788
817.512	2792
817.653	2826
817.793	2811
817.934	2864
818.075	2944
818.216	2998
818.356	3020
818.497	2887
818.638	2766
818.778	2811
818.919	2834
819.06	2739
819.2	2876
819.341	2815
819.481	2811
819.622	2895
819.762	3081
819.903	3058
820.043	2902
820.184	2929
820.324	2902
820.465	2979
820.605	3005
820.746	3039
820.886	2906
821.026	3055
821.167	3154
821.307	3241
821.447	3256
821.588	3241
821.728	3195
821.868	3207
822.008	3055
822.149	3142
822.289	3222
822.429	3077
822.569	3085
822.709	3176
822.849	3039
822.99	3066
823.13	3161
823.27	3222
823.41	3085
823.55	3116
823.69	3150
823.83	3154
823.97	3100
824.11	3005
824.25	3024
824.389	3066
824.529	3138
824.669	3070
824.809	3195
824.949	3241
825.089	3211
825.228	3161
825.368	3005
825.508	2925
825.648	2967
825.787	3001
825.927	3024
826.067	2922
826.206	2963
826.346	3058
826.485	3070
826.625	3108
826.765	3249
826.904	3207
827.044	2990
827.183	2929
827.323	2838
827.462	2998
827.601	2887
827.741	2899
827.88	2925
828.02	2830
828.159	2975
828.298	3055
828.437	3093
828.577	3039
828.716	3249
828.855	3043
828.994	2891
829.134	2872
829.273	2918
829.412	2868
829.551	2834
829.69	2887
829.829	2944
829.968	3135
830.107	2990
830.246	3028
830.385	2910
830.524	2918
830.663	2796
830.802	2754
830.941	2670
831.08	2632
831.219	2788
831.357	2731
831.496	2975
831.635	2693
831.774	2674
831.913	2640
832.051	2541
832.19	2579
832.329	2651
832.467	2522
832.606	2503
832.744	2583
832.883	2579
833.022	2579
833.16	2636
833.299	2693
833.437	2701
833.576	2667
833.714	2697
833.852	2712
833.991	2724
834.129	2842
834.267	2815
834.406	2781
834.544	2880
834.682	2899
834.821	2845
834.959	3074
835.097	2891
835.235	3074
835.373	2975
835.511	3005
835.65	2914
835.788	2906
835.926	2804
836.064	2777
836.202	2883
836.34	3112
836.478	3146
836.615	3028
836.753	3104
836.891	3195
837.029	3135
837.167	3116
837.305	3020
837.443	3005
837.58	2963
837.718	3135
837.856	3058
837.993	2975
838.131	3119
838.269	3093
838.406	3074
838.544	3062
838.681	2937
838.819	2922
838.956	2800
839.094	2819
839.231	2906
839.369	3024
839.506	3317
839.643	3180
839.781	3036
839.918	2960
840.055	3036
840.193	3039
840.33	3051
840.467	3123
840.604	3112
840.742	3378
840.879	3047
841.016	3055
841.153	3097
841.29	3340
841.427	3298
841.564	3313
841.701	3287
841.838	3211
841.975	3214
842.112	3230
842.249	3066
842.385	3028
842.522	3211
842.659	3089
842.796	3036
842.933	3097
843.069	3020
843.206	3043
843.343	3154
843.479	3131
843.616	3119
843.752	2876
843.889	2845
844.025	3070
844.162	2857
844.298	3112
844.435	2914
844.571	2891
844.708	3055
844.844	3165
844.98	3184
845.117	3146
845.253	3051
845.389	2998
845.525	3127
845.661	3062
845.798	2998
845.934	3066
846.07	3017
846.206	3188
846.342	3325
846.478	3203
846.614	3100
846.75	3024
846.886	2998
847.022	3214
847.158	3131
847.294	3207
847.429	3245
847.565	3192
847.701	3523
847.837	3047
847.972	3005
848.108	3119
848.244	3127
848.379	2998
848.515	2937
848.65	2933
848.786	2918
848.921	2982
849.057	3100
849.192	3142
849.328	3043
849.463	3119
849.598	3066
849.734	3028
849.869	2990
850.004	2887
850.14	2982
850.275	2910
850.41	2845
850.545	2857
850.68	2933
850.815	2914
850.95	2914
851.085	3195
851.22	3100
851.355	2994
851.49	2975
851.625	3017
851.76	3013
851.895	2899
852.03	2937
852.165	3032
852.299	3085
852.434	3165
852.569	3146
852.703	3135
852.838	3287
852.973	3325
853.107	3317
853.242	3127
853.376	3093
853.511	2944
853.645	3051
853.78	3199
853.914	3089
854.048	3112
854.183	3058
854.317	3142
854.451	3287
854.585	3116
854.72	3066
854.854	3188
854.988	3028
855.122	3081
855.256	2986
855.39	3093
855.524	3211
855.658	3165
855.792	3142
855.926	3169
856.06	3233
856.194	3268
856.327	3135
856.461	3081
856.595	3051
856.729	3093
856.862	3207
856.996	3161
857.13	3180
857.263	3241
857.397	3237
857.53	3127
857.664	3192
857.797	3203
857.931	3237
858.064	3157
858.197	3188
858.331	3131
858.464	3058
858.597	2998
858.731	3135
858.864	3131
858.997	3112
859.13	3169
859.263	3157
859.396	3173
859.529	3055
859.662	3047
859.795	3077
859.928	3112
860.061	3249
860.194	3264
860.327	3119
860.46	3097
860.592	3237
860.725	3245
860.858	3241
860.99	3089
861.123	3036
861.256	3062
861.388	3138
861.521	3793
861.653	3013
861.786	2979
861.918	2944
862.05	3043
862.183	3081
862.315	3161
862.447	3176
862.58	3074
862.712	2929
862.844	2899
862.976	3039
863.108	2994
863.24	3431
863.372	2883
863.504	2960
863.636	2952
863.768	3013
863.9	2971
864.032	2914
864.164	2960
864.296	3055
864.428	3074
864.559	3112
864.691	3074
864.823	3074
864.954	3009
865.086	3032
865.217	2975
865.349	2925
865.48	2963
865.612	2998
865.743	3119
865.875	2963
866.006	2937
866.137	2960
866.269	2918
866.4	2914
866.531	2872
866.662	2883
866.793	2891
866.924	2891
867.055	2960
867.186	2948
867.317	2891
867.448	2834
867.579	2845
867.71	2804
867.841	2807
867.972	2910
868.103	2868
868.233	2838
868.364	2872
868.495	2899
868.625	3055
868.756	3154
868.886	2960
869.017	3036
869.147	3173
869.278	3119
869.408	3055
869.539	3009
869.669	3116
869.799	3051
869.929	3142
870.06	3104
870.19	3351
870.32	3268
870.45	3272
870.58	3340
870.71	3454
870.84	3454
870.97	3294
871.1	3253
871.23	3477
871.36	3492
871.489	3340
871.619	3405
871.749	3382
871.879	3405
872.008	3481
872.138	3359
872.267	3264
872.397	3108
872.526	3100
872.656	3013
872.785	3097
872.915	3195
873.044	3298
873.173	3226
873.303	3214
873.432	3199
873.561	3184
873.69	3097
873.819	3184
873.948	3165
874.077	3089
874.206	3028
874.335	3100
874.464	3222
874.593	3348
874.722	3199
874.851	3386
874.979	3340
875.108	3344
875.237	3207
875.365	3180
875.494	3123
875.623	3218
875.751	3093
875.88	3119
876.008	3195
876.136	3249
876.265	3370
876.393	3496
876.521	3405
876.65	3378
876.778	3329
876.906	3230
877.034	3169
877.162	3192
877.29	3131
877.418	3218
877.546	3230
877.674	3245
877.802	3233
877.93	3199
878.058	3154
878.185	3058
878.313	3233
878.441	3237
878.568	3062
878.696	3161
878.824	3249
878.951	3249
879.079	3439
879.206	3568
879.333	3416
879.461	3325
879.588	3351
879.715	3412
879.842	3534
879.97	3367
880.097	3173
880.224	3112
880.351	3142
880.478	3192
880.605	3192
880.732	3188
880.859	3511
880.986	3310
881.112	3325
881.239	3157
881.366	3093
881.493	3032
881.619	2998
881.746	3039
881.872	3043
881.999	3051
882.125	3138
882.252	3218
882.378	3245
882.505	3443
882.631	3264
882.757	3127
882.883	3157
883.01	3203
883.136	3146
883.262	3100
883.388	3108
883.514	3283
883.64	3378
883.766	3294
883.892	3138
884.018	3237
884.143	3363
884.269	3496
884.395	3138
884.52	3146
884.646	3184
884.772	3127
884.897	3150
885.023	3184
885.148	3348
885.274	3393
885.399	3393
885.524	3291
885.65	3256
885.775	3291
885.9	3275
886.025	3458
886.15	3370
886.275	3313
886.4	3222
886.525	3348
886.65	3287
886.775	3317
886.9	3526
887.025	3618
887.149	3443
887.274	3264
887.399	3188
887.523	3184
887.648	3222
887.773	3226
887.897	3405
888.021	3389
888.146	3268
888.27	3504
888.395	3526
888.519	3424
888.643	3530
888.767	3458
888.891	3351
889.015	3283
889.139	3310
889.263	3275
889.387	3424
889.511	3526
889.635	3462
889.759	3325
889.883	3367
890.006	3393
890.13	3580
890.254	3298
890.377	3401
890.501	3230
890.624	3188
890.748	3340
890.871	3199
890.995	3116
891.118	3074
891.241	3264
891.364	3279
891.488	3332
891.611	3214
891.734	3233
891.857	3348
891.98	3264
892.103	3355
892.226	3298
892.349	3226
892.471	3180
892.594	3253
892.717	3325
892.839	3302
892.962	3294
893.085	3389
893.207	3348
893.33	3195
893.452	3245
893.575	3370
893.697	3268
893.819	3485
893.941	3534
894.064	3469
894.186	3336
894.308	3310
894.43	3488
894.552	3576
894.674	3511
894.796	3329
894.918	3374
895.04	3310
895.161	3458
895.283	3428
895.405	3367
895.526	3389
895.648	3481
895.769	3443
895.891	3526
896.012	3500
896.134	3526
896.255	3473
896.376	3424
896.498	3412
896.619	3454
896.74	3401
896.861	3409
896.982	3740
897.103	3873
897.224	3599
897.345	3553
897.466	3500
897.587	3523
897.708	3652
897.828	3610
897.949	3466
898.07	3325
898.19	3397
898.311	3625
898.431	3511
898.552	3526
898.672	3660
898.792	3610
898.913	3595
899.033	3447
899.153	3310
899.273	3260
899.393	3306
899.513	3348
899.633	3374
899.753	3401
899.873	3321
899.993	3397
900.113	3382
900.232	3389
900.352	3332
900.472	3317
900.591	3260
900.711	3291
900.83	3287
900.95	3443
901.069	3523
901.189	3393
901.308	3195
901.427	3154
901.546	3214
901.665	3306
901.784	3393
901.904	3256
902.023	3211
902.141	3047
902.26	3039
902.379	3161
902.498	3135
902.617	3100
902.735	3222
902.854	3275
902.973	3214
903.091	3085
903.21	3066
903.328	3138
903.446	3127
903.565	3089
903.683	3195
903.801	3119
903.919	3275
904.038	3302
904.156	3199
904.274	3317
904.392	3237
904.51	3313
904.627	3340
904.745	3447
904.863	3477
904.981	3268
905.098	3157
905.216	3291
905.334	3294
905.451	3336
905.569	3310
905.686	3450
905.803	3443
905.921	3264
906.038	3466
906.155	3397
906.272	3294
906.389	3325
906.506	3260
906.623	3275
906.74	3310
906.857	3222
906.974	3272
907.091	3485
907.208	3584
907.324	3511
907.441	3412
907.557	3256
907.674	3245
907.79	3230
907.907	3294
908.023	3409
908.139	3401
908.256	3370
908.372	3409
908.488	3370
908.604	3287
908.72	3287
908.836	3294
908.952	3329
909.068	3386
909.184	3523
909.3	3420
909.415	3496
909.531	3485
909.647	3321
909.762	3355
909.878	3313
909.993	3367
910.108	3363
910.224	3386
910.339	3469
910.454	3344
910.57	3291
910.685	3260
910.8	3618
910.915	3584
911.03	3458
911.145	3313
911.259	3302
911.374	3351
911.489	3272
911.604	3268
911.718	3203
911.833	3180
911.947	3070
912.062	3039
912.176	3154
912.291	3226
912.405	3253
912.519	3485
912.633	3504
912.748	3359
912.862	3283
912.976	3214
913.09	3077
913.204	3169
913.318	3256
913.431	3378
913.545	3370
913.659	3412
913.772	3378
913.886	3214
914	3203
914.113	3424
914.226	3428
914.34	3397
914.453	3226
914.566	3431
914.68	3317
914.793	3363
914.906	3195
915.019	3173
915.132	3089
915.245	3169
915.358	3249
915.47	3249
915.583	3260
915.696	3302
915.809	3473
915.921	3424
916.034	3283
916.146	3298
916.259	3279
916.371	3439
916.483	3359
916.595	3287
916.708	3397
916.82	3386
916.932	3355
917.044	3386
917.156	3378
917.268	3298
917.38	3321
917.491	3329
917.603	3382
917.715	3488
917.826	3492
917.938	3363
918.049	3306
918.161	3469
918.272	3614
918.384	3603
918.495	3507
918.606	3363
918.717	3321
918.828	3393
918.939	3466
919.05	3321
919.161	3374
919.272	3199
919.383	3325
919.494	3568
919.604	3728
919.715	3488
919.826	3397
919.936	3504
920.047	3591
920.157	3568
920.267	3804
920.378	3568
920.488	3599
920.598	3762
920.708	3964
920.818	3816
920.928	3854
921.038	4051
921.148	3983
921.258	3740
921.368	3625
921.477	3610
921.587	3515
921.697	3485
921.806	3606
921.916	3500
922.025	3367
922.134	3363
922.244	3367
922.353	3447
922.462	3283
922.571	3214
922.68	3135
922.789	3093
922.898	3154
923.007	3142
923.116	3218
923.224	3222
923.333	3195
923.442	3108
923.55	3100
923.659	3165
923.767	3237
923.876	3146
923.984	3230
924.092	3150
924.201	3188
924.309	3283
924.417	3260
924.525	3188
924.633	3214
924.741	4265
924.849	3097
924.956	3287
925.064	3123
925.172	3070
925.279	3131
925.387	3226
925.494	3184
925.602	3351
925.709	3374
925.816	3195
925.924	3283
926.031	3405
926.138	3367
926.245	3397
926.352	3272
926.459	3428
926.566	3504
926.673	3367
926.779	3256
926.886	3306
926.993	3161
927.099	3173
927.206	3116
927.312	3157
927.419	3253
927.525	3214
927.631	3348
927.737	3188
927.843	3146
927.95	3066
928.056	3169
928.162	3180
928.267	3264
928.373	3941
928.479	3336
928.585	3085
928.69	3264
928.796	3294
928.901	3218
929.007	3104
929.112	3279
929.218	3211
929.323	3184
929.428	3157
929.533	3321
929.638	3077
929.743	3176
929.848	3249
929.953	3218
930.058	3157
930.163	3055
930.267	3032
930.372	3203
930.477	3058
930.581	3332
930.685	3184
930.79	3066
930.894	3119
930.998	3074
931.103	3291
931.207	2967
931.311	2994
931.415	2960
931.519	2788
931.623	2830
