Data from test_V78500241_1605.txt Node
Date: Fri Mar 25 16:26:19 CST 2022
User: usil
Spectrometer: V785-0024
Trigger mode: 0
Integration Time (sec): 4.000000E-1
Scans to average: 1
Nonlinearity correction enabled: false
Boxcar width: 0
Storing dark spectrum: false
XAxis mode: Wavelengths
Number of Pixels in Spectrum: 1024
>>>>>Begin Spectral Data<<<<<
801.071	2899
801.214	2971
801.356	2918
801.499	2842
801.641	2861
801.783	2918
801.926	3043
802.068	2990
802.211	2998
802.353	3032
802.496	2944
802.638	3028
802.78	3032
802.923	3097
803.065	3017
803.208	2853
803.35	2914
803.492	2910
803.635	2937
803.777	2735
803.919	2861
804.061	3180
804.204	2960
804.346	2872
804.488	2823
804.63	2982
804.773	2857
804.915	2922
805.057	3070
805.199	2899
805.341	2971
805.483	3024
805.626	3032
805.768	2967
805.91	3055
806.052	3108
806.194	3013
806.336	3214
806.478	3020
806.62	2906
806.762	2941
806.904	3051
807.046	3150
807.188	2979
807.33	2902
807.472	2960
807.614	2872
807.756	2979
807.898	2922
808.04	2857
808.182	2982
808.324	2933
808.465	2853
808.607	2887
808.749	2785
808.891	2842
809.033	2952
809.174	2944
809.316	2880
809.458	2895
809.6	2788
809.741	2785
809.883	2777
810.025	2830
810.166	2838
810.308	2861
810.45	2876
810.591	2766
810.733	2754
810.875	2815
811.016	2739
811.158	2739
811.299	2788
811.441	2929
811.582	2891
811.724	2807
811.865	2830
812.007	2914
812.148	2853
812.29	2853
812.431	2872
812.573	2963
812.714	2971
812.855	3036
812.997	3017
813.138	3112
813.279	3020
813.421	3009
813.562	2979
813.703	2876
813.845	2902
813.986	2754
814.127	2754
814.268	2800
814.41	2830
814.551	2819
814.692	2910
814.833	2823
814.974	2883
815.115	2933
815.256	2819
815.397	2830
815.539	2864
815.68	2762
815.821	2750
815.962	2956
816.103	2902
816.244	2868
816.385	2838
816.526	2960
816.666	2861
816.807	2724
816.948	2857
817.089	2895
817.23	2815
817.371	2769
817.512	2781
817.653	2849
817.793	2826
817.934	2857
818.075	2979
818.216	3001
818.356	2994
818.497	2849
818.638	2773
818.778	2807
818.919	2800
819.06	2735
819.2	2857
819.341	2777
819.481	2785
819.622	2895
819.762	3066
819.903	3036
820.043	2899
820.184	2880
820.324	2914
820.465	3032
820.605	3001
820.746	3001
820.886	2922
821.026	3097
821.167	3161
821.307	3256
821.447	3279
821.588	3184
821.728	3203
821.868	3154
822.008	3062
822.149	3154
822.289	3203
822.429	3097
822.569	3097
822.709	3154
822.849	3005
822.99	3058
823.13	3157
823.27	3192
823.41	3119
823.55	3131
823.69	3135
823.83	3199
823.97	3108
824.11	3009
824.25	2994
824.389	3058
824.529	3142
824.669	3074
824.809	3184
824.949	3226
825.089	3226
825.228	3127
825.368	2979
825.508	2967
825.648	2975
825.787	3005
825.927	3005
826.067	2979
826.206	2933
826.346	2998
826.485	3081
826.625	3093
826.765	3233
826.904	3195
827.044	2994
827.183	2967
827.323	2838
827.462	2979
827.601	2891
827.741	2914
827.88	2963
828.02	2838
828.159	2979
828.298	3047
828.437	3058
828.577	3043
828.716	3203
828.855	3104
828.994	2902
829.134	2876
829.273	2891
829.412	2883
829.551	2880
829.69	2872
829.829	2967
829.968	3135
830.107	3001
830.246	3036
830.385	2933
830.524	2861
830.663	2834
830.802	2727
830.941	2636
831.08	2621
831.219	2769
831.357	2735
831.496	2960
831.635	2720
831.774	2636
831.913	2625
832.051	2598
832.19	2568
832.329	2644
832.467	2537
832.606	2492
832.744	2541
832.883	2560
833.022	2583
833.16	2636
833.299	2659
833.437	2670
833.576	2651
833.714	2689
833.852	2716
833.991	2731
834.129	2815
834.267	2842
834.406	2796
834.544	2880
834.682	2845
834.821	2819
834.959	3074
835.097	2887
835.235	3039
835.373	3020
835.511	3005
835.65	2944
835.788	2937
835.926	2800
836.064	2834
836.202	2857
836.34	3058
836.478	3123
836.615	3039
836.753	3135
836.891	3180
837.029	3169
837.167	3123
837.305	3043
837.443	3051
837.58	2948
837.718	3081
837.856	3055
837.993	3001
838.131	3074
838.269	3097
838.406	3093
838.544	3085
838.681	2956
838.819	2918
838.956	2815
839.094	2830
839.231	2944
839.369	3005
839.506	3370
839.643	3207
839.781	2963
839.918	2914
840.055	3032
840.193	3036
840.33	3070
840.467	3058
840.604	3131
840.742	3378
840.879	3043
841.016	3039
841.153	3081
841.29	3344
841.427	3306
841.564	3253
841.701	3291
841.838	3207
841.975	3146
842.112	3211
842.249	3074
842.385	3066
842.522	3256
842.659	3085
842.796	3028
842.933	3081
843.069	3039
843.206	3001
843.343	3165
843.479	3123
843.616	3127
843.752	2887
843.889	2838
844.025	3074
844.162	2891
844.298	3055
844.435	2941
844.571	2899
844.708	3081
844.844	3180
844.98	3218
845.117	3192
845.253	3039
845.389	3013
845.525	3108
845.661	3066
845.798	2986
845.934	3138
846.07	3051
846.206	3233
846.342	3325
846.478	3237
846.614	3074
846.75	3032
846.886	3043
847.022	3230
847.158	3154
847.294	3195
847.429	3245
847.565	3211
847.701	3462
847.837	3032
847.972	3001
848.108	3157
848.244	3119
848.379	2948
848.515	2925
848.65	2937
848.786	3001
848.921	2994
849.057	3104
849.192	3104
849.328	3036
849.463	3116
849.598	3070
849.734	3001
849.869	2933
850.004	2941
850.14	2941
850.275	2895
850.41	2849
850.545	2895
850.68	2899
850.815	2941
850.95	2925
851.085	3203
851.22	3104
851.355	3017
851.49	2941
851.625	2971
851.76	3013
851.895	2944
852.03	2910
852.165	3017
852.299	3077
852.434	3165
852.569	3165
852.703	3154
852.838	3226
852.973	3332
853.107	3317
853.242	3142
853.376	3116
853.511	2929
853.645	3036
853.78	3226
853.914	3116
854.048	3058
854.183	3089
854.317	3119
854.451	3306
854.585	3100
854.72	3077
854.854	3199
854.988	3028
855.122	3058
855.256	2933
855.39	3138
855.524	3214
855.658	3165
855.792	3146
855.926	3169
856.06	3169
856.194	3218
856.327	3165
856.461	3036
856.595	3074
856.729	3051
856.862	3157
856.996	3150
857.13	3169
857.263	3199
857.397	3237
857.53	3104
857.664	3199
857.797	3249
857.931	3203
858.064	3150
858.197	3195
858.331	3089
858.464	3036
858.597	2979
858.731	3123
858.864	3119
858.997	3066
859.13	3188
859.263	3150
859.396	3165
859.529	3089
859.662	3051
859.795	3028
859.928	3108
860.061	3287
860.194	3260
860.327	3119
860.46	3066
860.592	3241
860.725	3211
860.858	3207
860.99	3108
861.123	3055
861.256	3047
861.388	3135
861.521	3869
861.653	3001
861.786	2982
861.918	2979
862.05	3070
862.183	3089
862.315	3142
862.447	3176
862.58	3081
862.712	2948
862.844	2876
862.976	3020
863.108	2994
863.24	3332
863.372	2872
863.504	2948
863.636	2956
863.768	3024
863.9	2941
864.032	2918
864.164	2914
864.296	3005
864.428	3119
864.559	3108
864.691	3089
864.823	3097
864.954	3017
865.086	3039
865.217	2971
865.349	2960
865.48	2956
865.612	2986
865.743	3123
865.875	3009
866.006	2960
866.137	2986
866.269	2933
866.4	2994
866.531	2982
866.662	2922
866.793	2918
866.924	2922
867.055	2994
867.186	2971
867.317	2929
867.448	2849
867.579	2899
867.71	2914
867.841	2864
867.972	2914
868.103	2929
868.233	2914
868.364	2887
868.495	2941
868.625	3112
868.756	3192
868.886	3001
869.017	3062
869.147	3184
869.278	3176
869.408	3074
869.539	3032
869.669	3138
869.799	3104
869.929	3184
870.06	3188
870.19	3412
870.32	3317
870.45	3302
870.58	3428
870.71	3473
870.84	3469
870.97	3313
871.1	3306
871.23	3511
871.36	3485
871.489	3370
871.619	3447
871.749	3450
871.879	3458
872.008	3519
872.138	3405
872.267	3306
872.397	3199
872.526	3119
872.656	3070
872.785	3150
872.915	3272
873.044	3329
873.173	3203
873.303	3272
873.432	3253
873.561	3302
873.69	3203
873.819	3188
873.948	3222
874.077	3169
874.206	3066
874.335	3108
874.464	3241
874.593	3367
874.722	3310
874.851	3469
874.979	3370
875.108	3370
875.237	3233
875.365	3173
875.494	3233
875.623	3287
875.751	3127
875.88	3138
876.008	3203
876.136	3287
876.265	3405
876.393	3576
876.521	3462
876.65	3435
876.778	3367
876.906	3310
877.034	3233
877.162	3264
877.29	3230
877.418	3268
877.546	3264
877.674	3279
877.802	3272
877.93	3264
878.058	3176
878.185	3150
878.313	3287
878.441	3226
878.568	3081
878.696	3195
878.824	3291
878.951	3340
879.079	3469
879.206	3660
879.333	3492
879.461	3405
879.588	3340
879.715	3519
879.842	3618
879.97	3405
880.097	3195
880.224	3119
880.351	3214
880.478	3245
880.605	3233
880.732	3214
880.859	3462
880.986	3359
881.112	3378
881.239	3233
881.366	3146
881.493	3074
881.619	3062
881.746	3104
881.872	3116
881.999	3157
882.125	3188
882.252	3249
882.378	3329
882.505	3469
882.631	3302
882.757	3157
882.883	3241
883.01	3275
883.136	3180
883.262	3123
883.388	3199
883.514	3325
883.64	3397
883.766	3340
883.892	3195
884.018	3287
884.143	3424
884.269	3507
884.395	3211
884.52	3192
884.646	3188
884.772	3169
884.897	3138
885.023	3256
885.148	3374
885.274	3431
885.399	3344
885.524	3294
885.65	3264
885.775	3355
885.9	3329
886.025	3454
886.15	3405
886.275	3291
886.4	3275
886.525	3355
886.65	3298
886.775	3310
886.9	3519
887.025	3629
887.149	3389
887.274	3287
887.399	3180
887.523	3214
887.648	3173
887.773	3245
887.897	3378
888.021	3435
888.146	3321
888.27	3439
888.395	3580
888.519	3447
888.643	3477
888.767	3477
888.891	3340
889.015	3264
889.139	3355
889.263	3291
889.387	3439
889.511	3485
889.635	3488
889.759	3325
889.883	3317
890.006	3363
890.13	3542
890.254	3306
890.377	3382
890.501	3279
890.624	3218
890.748	3321
890.871	3207
890.995	3119
891.118	3119
891.241	3199
891.364	3291
891.488	3317
891.611	3199
891.734	3268
891.857	3378
891.98	3294
892.103	3321
892.226	3291
892.349	3211
892.471	3135
892.594	3249
892.717	3348
892.839	3321
892.962	3332
893.085	3405
893.207	3370
893.33	3195
893.452	3260
893.575	3386
893.697	3287
893.819	3507
893.941	3526
894.064	3504
894.186	3313
894.308	3272
894.43	3496
894.552	3564
894.674	3504
894.796	3298
894.918	3329
895.04	3291
895.161	3454
895.283	3409
895.405	3348
895.526	3389
895.648	3447
895.769	3443
895.891	3504
896.012	3466
896.134	3519
896.255	3431
896.376	3397
896.498	3393
896.619	3424
896.74	3409
896.861	3370
896.982	3732
897.103	3880
897.224	3603
897.345	3542
897.466	3450
897.587	3530
897.708	3610
897.828	3610
897.949	3454
898.07	3378
898.19	3447
898.311	3637
898.431	3435
898.552	3526
898.672	3591
898.792	3591
898.913	3584
899.033	3405
899.153	3355
899.273	3233
899.393	3298
899.513	3386
899.633	3302
899.753	3367
899.873	3294
899.993	3397
900.113	3409
900.232	3424
900.352	3348
900.472	3321
900.591	3230
900.711	3298
900.83	3279
900.95	3454
901.069	3504
901.189	3370
901.308	3233
901.427	3138
901.546	3256
901.665	3298
901.784	3363
901.904	3222
902.023	3192
902.141	3024
902.26	3017
902.379	3176
902.498	3108
902.617	3051
902.735	3253
902.854	3264
902.973	3211
903.091	3077
903.21	3081
903.328	3135
903.446	3112
903.565	3100
903.683	3253
903.801	3184
903.919	3249
904.038	3275
904.156	3169
904.274	3291
904.392	3298
904.51	3294
904.627	3317
904.745	3507
904.863	3507
904.981	3260
905.098	3203
905.216	3245
905.334	3355
905.451	3340
905.569	3348
905.686	3397
905.803	3473
905.921	3325
906.038	3428
906.155	3370
906.272	3306
906.389	3329
906.506	3253
906.623	3272
906.74	3249
906.857	3188
906.974	3291
907.091	3439
907.208	3610
907.324	3488
907.441	3412
907.557	3268
907.674	3253
907.79	3199
907.907	3325
908.023	3431
908.139	3405
908.256	3340
908.372	3420
908.488	3370
908.604	3294
908.72	3249
908.836	3317
908.952	3313
909.068	3405
909.184	3496
909.3	3435
909.415	3519
909.531	3473
909.647	3283
909.762	3298
909.878	3310
909.993	3370
910.108	3336
910.224	3374
910.339	3416
910.454	3363
910.57	3340
910.685	3256
910.8	3618
910.915	3580
911.03	3458
911.145	3310
911.259	3287
911.374	3363
911.489	3237
911.604	3256
911.718	3146
911.833	3192
911.947	3039
912.062	3020
912.176	3176
912.291	3218
912.405	3237
912.519	3443
912.633	3466
912.748	3363
912.862	3294
912.976	3211
913.09	3081
913.204	3203
913.318	3233
913.431	3355
913.545	3367
913.659	3420
913.772	3386
913.886	3260
914	3237
914.113	3370
914.226	3454
914.34	3370
914.453	3256
914.566	3462
914.68	3291
914.793	3382
914.906	3157
915.019	3123
915.132	3074
915.245	3214
915.358	3207
915.47	3275
915.583	3253
915.696	3363
915.809	3416
915.921	3439
916.034	3325
916.146	3260
916.259	3264
916.371	3382
916.483	3386
916.595	3302
916.708	3332
916.82	3340
916.932	3363
917.044	3336
917.156	3344
917.268	3298
917.38	3329
917.491	3348
917.603	3378
917.715	3435
917.826	3481
917.938	3359
918.049	3294
918.161	3431
918.272	3610
918.384	3610
918.495	3500
918.606	3363
918.717	3329
918.828	3363
918.939	3382
919.05	3291
919.161	3370
919.272	3184
919.383	3294
919.494	3485
919.604	3701
919.715	3507
919.826	3428
919.936	3477
920.047	3641
920.157	3557
920.267	3743
920.378	3599
920.488	3576
920.598	3804
920.708	3949
920.818	3838
920.928	3842
921.038	4036
921.148	4017
921.258	3751
921.368	3648
921.477	3599
921.587	3561
921.697	3458
921.806	3690
921.916	3545
922.025	3397
922.134	3367
922.244	3275
922.353	3431
922.462	3256
922.571	3253
922.68	3116
922.789	3093
922.898	3169
923.007	3112
923.116	3199
923.224	3188
923.333	3169
923.442	3127
923.55	3108
923.659	3165
923.767	3260
923.876	3157
923.984	3237
924.092	3127
924.201	3222
924.309	3222
924.417	3287
924.525	3230
924.633	3245
924.741	4242
924.849	3070
924.956	3302
925.064	3112
925.172	3036
925.279	3108
925.387	3207
925.494	3211
925.602	3351
925.709	3325
925.816	3169
925.924	3272
926.031	3370
926.138	3313
926.245	3370
926.352	3302
926.459	3424
926.566	3447
926.673	3325
926.779	3226
926.886	3256
926.993	3157
927.099	3104
927.206	3051
927.312	3093
927.419	3264
927.525	3233
927.631	3256
927.737	3192
927.843	3150
927.95	3036
928.056	3169
928.162	3154
928.267	3230
928.373	3911
928.479	3317
928.585	3062
928.69	3249
928.796	3241
928.901	3184
929.007	3028
929.112	3214
929.218	3176
929.323	3161
929.428	3180
929.533	3317
929.638	3093
929.743	3150
929.848	3256
929.953	3222
930.058	3123
930.163	2998
930.267	3028
930.372	3184
930.477	3062
930.581	3348
930.685	3154
930.79	3077
930.894	3089
930.998	3112
931.103	3275
931.207	2960
931.311	2975
931.415	2914
931.519	2777
931.623	2785
