Data from test_V78500241_646.txt Node
Date: Fri Mar 25 16:19:40 CST 2022
User: usil
Spectrometer: V785-0024
Trigger mode: 0
Integration Time (sec): 4.000000E-1
Scans to average: 1
Nonlinearity correction enabled: false
Boxcar width: 0
Storing dark spectrum: false
XAxis mode: Wavelengths
Number of Pixels in Spectrum: 1024
>>>>>Begin Spectral Data<<<<<
801.071	2918
801.214	2918
801.356	2864
801.499	2918
801.641	2880
801.783	2952
801.926	3039
802.068	2975
802.211	2960
802.353	3017
802.496	2941
802.638	2986
802.78	3036
802.923	3085
803.065	2994
803.208	2861
803.35	2899
803.492	2956
803.635	2918
803.777	2773
803.919	2849
804.061	3195
804.204	2910
804.346	2910
804.488	2857
804.63	2994
804.773	2880
804.915	2918
805.057	3085
805.199	2948
805.341	2982
805.483	2998
805.626	3005
805.768	2929
805.91	3062
806.052	3135
806.194	3062
806.336	3233
806.478	2998
806.62	2922
806.762	2994
806.904	3100
807.046	3169
807.188	2994
807.33	2933
807.472	3024
807.614	2929
807.756	2979
807.898	2922
808.04	2902
808.182	2963
808.324	2956
808.465	2883
808.607	2872
808.749	2754
808.891	2845
809.033	2982
809.174	2982
809.316	2902
809.458	2906
809.6	2762
809.741	2769
809.883	2777
810.025	2830
810.166	2857
810.308	2815
810.45	2872
810.591	2807
810.733	2754
810.875	2857
811.016	2800
811.158	2739
811.299	2804
811.441	2910
811.582	2864
811.724	2815
811.865	2811
812.007	2872
812.148	2906
812.29	2834
812.431	2902
812.573	2906
812.714	2967
812.855	3066
812.997	3062
813.138	3089
813.279	2975
813.421	2994
813.562	2960
813.703	2883
813.845	2891
813.986	2750
814.127	2720
814.268	2830
814.41	2842
814.551	2804
814.692	2868
814.833	2792
814.974	2910
815.115	2956
815.256	2807
815.397	2792
815.539	2895
815.68	2792
815.821	2792
815.962	2944
816.103	2933
816.244	2899
816.385	2891
816.526	2963
816.666	2914
816.807	2754
816.948	2876
817.089	2887
817.23	2845
817.371	2743
817.512	2785
817.653	2845
817.793	2830
817.934	2918
818.075	2975
818.216	2975
818.356	3024
818.497	2868
818.638	2792
818.778	2807
818.919	2758
819.06	2743
819.2	2830
819.341	2830
819.481	2781
819.622	2914
819.762	3097
819.903	3043
820.043	2910
820.184	2906
820.324	2891
820.465	2990
820.605	3028
820.746	3017
820.886	2963
821.026	3070
821.167	3161
821.307	3268
821.447	3256
821.588	3272
821.728	3203
821.868	3199
822.008	3062
822.149	3211
822.289	3230
822.429	3108
822.569	3104
822.709	3192
822.849	3055
822.99	3081
823.13	3211
823.27	3211
823.41	3116
823.55	3169
823.69	3138
823.83	3157
823.97	3112
824.11	3013
824.25	2994
824.389	3085
824.529	3085
824.669	3093
824.809	3192
824.949	3237
825.089	3230
825.228	3195
825.368	3001
825.508	2941
825.648	2948
825.787	2952
825.927	3055
826.067	2998
826.206	2986
826.346	3047
826.485	3085
826.625	3097
826.765	3241
826.904	3199
827.044	2982
827.183	2883
827.323	2842
827.462	3020
827.601	2925
827.741	2941
827.88	2971
828.02	2834
828.159	2982
828.298	3058
828.437	3100
828.577	3055
828.716	3226
828.855	3074
828.994	2883
829.134	2895
829.273	2899
829.412	2857
829.551	2872
829.69	2906
829.829	2952
829.968	3127
830.107	2998
830.246	3047
830.385	2906
830.524	2861
830.663	2834
830.802	2708
830.941	2648
831.08	2648
831.219	2750
831.357	2788
831.496	2937
831.635	2769
831.774	2629
831.913	2693
832.051	2518
832.19	2594
832.329	2693
832.467	2552
832.606	2488
832.744	2613
832.883	2583
833.022	2568
833.16	2598
833.299	2663
833.437	2720
833.576	2697
833.714	2659
833.852	2735
833.991	2727
834.129	2830
834.267	2845
834.406	2807
834.544	2861
834.682	2891
834.821	2861
834.959	3066
835.097	2883
835.235	3047
835.373	2994
835.511	3017
835.65	2986
835.788	2967
835.926	2823
836.064	2823
836.202	2819
836.34	3104
836.478	3119
836.615	3043
836.753	3131
836.891	3165
837.029	3157
837.167	3112
837.305	3058
837.443	3032
837.58	2922
837.718	3116
837.856	3089
837.993	2982
838.131	3142
838.269	3093
838.406	3108
838.544	3093
838.681	2899
838.819	2925
838.956	2838
839.094	2815
839.231	2891
839.369	3039
839.506	3363
839.643	3222
839.781	3017
839.918	2967
840.055	3017
840.193	3058
840.33	3039
840.467	3058
840.604	3146
840.742	3367
840.879	3051
841.016	3043
841.153	3085
841.29	3306
841.427	3306
841.564	3264
841.701	3291
841.838	3180
841.975	3165
842.112	3203
842.249	3066
842.385	3058
842.522	3233
842.659	3119
842.796	3058
842.933	3066
843.069	3020
843.206	3047
843.343	3142
843.479	3097
843.616	3119
843.752	2880
843.889	2864
844.025	3097
844.162	2838
844.298	3047
844.435	2933
844.571	2925
844.708	3051
844.844	3192
844.98	3241
845.117	3207
845.253	3028
845.389	3017
845.525	3085
845.661	3108
845.798	3013
845.934	3108
846.07	3028
846.206	3214
846.342	3325
846.478	3214
846.614	3047
846.75	3055
846.886	3024
847.022	3241
847.158	3138
847.294	3203
847.429	3211
847.565	3207
847.701	3477
847.837	3005
847.972	3028
848.108	3188
848.244	3127
848.379	3009
848.515	2887
848.65	2876
848.786	2941
848.921	3009
849.057	3112
849.192	3116
849.328	3039
849.463	3081
849.598	3089
849.734	3039
849.869	2960
850.004	2910
850.14	2963
850.275	2906
850.41	2857
850.545	2861
850.68	2922
850.815	2933
850.95	2956
851.085	3157
851.22	3108
851.355	3020
851.49	2986
851.625	3032
851.76	2963
851.895	2899
852.03	2910
852.165	2990
852.299	3081
852.434	3180
852.569	3119
852.703	3157
852.838	3268
852.973	3370
853.107	3332
853.242	3127
853.376	3081
853.511	2963
853.645	3043
853.78	3218
853.914	3150
854.048	3127
854.183	3077
854.317	3157
854.451	3268
854.585	3131
854.72	3066
854.854	3188
854.988	3058
855.122	3085
855.256	2979
855.39	3112
855.524	3218
855.658	3176
855.792	3169
855.926	3218
856.06	3245
856.194	3253
856.327	3131
856.461	3058
856.595	3070
856.729	3062
856.862	3214
856.996	3157
857.13	3192
857.263	3184
857.397	3256
857.53	3116
857.664	3180
857.797	3207
857.931	3237
858.064	3214
858.197	3226
858.331	3123
858.464	3062
858.597	3017
858.731	3081
858.864	3138
858.997	3070
859.13	3169
859.263	3176
859.396	3146
859.529	3055
859.662	3039
859.795	3043
859.928	3161
860.061	3272
860.194	3287
860.327	3127
860.46	3077
860.592	3256
860.725	3275
860.858	3222
860.99	3104
861.123	3093
861.256	3043
861.388	3146
861.521	3945
861.653	3032
861.786	2982
861.918	3005
862.05	3070
862.183	3085
862.315	3150
862.447	3173
862.58	3127
862.712	2956
862.844	2899
862.976	3058
863.108	2975
863.24	3435
863.372	2861
863.504	2971
863.636	2906
863.768	3024
863.9	2979
864.032	2933
864.164	2937
864.296	2998
864.428	3055
864.559	3077
864.691	3097
864.823	3058
864.954	3039
865.086	3062
865.217	2952
865.349	2937
865.48	2975
865.612	3024
865.743	3169
865.875	2941
866.006	2948
866.137	2982
866.269	2952
866.4	2922
866.531	2975
866.662	2899
866.793	2872
866.924	2895
867.055	2971
867.186	2887
867.317	2895
867.448	2876
867.579	2861
867.71	2849
867.841	2811
867.972	2925
868.103	2864
868.233	2876
868.364	2910
868.495	2933
868.625	3051
868.756	3154
868.886	2986
869.017	3013
869.147	3142
869.278	3142
869.408	3074
869.539	3062
869.669	3085
869.799	3043
869.929	3150
870.06	3100
870.19	3313
870.32	3253
870.45	3302
870.58	3386
870.71	3473
870.84	3428
870.97	3340
871.1	3199
871.23	3447
871.36	3439
871.489	3329
871.619	3401
871.749	3389
871.879	3443
872.008	3473
872.138	3374
872.267	3287
872.397	3093
872.526	3108
872.656	2998
872.785	3085
872.915	3260
873.044	3325
873.173	3222
873.303	3249
873.432	3237
873.561	3199
873.69	3135
873.819	3165
873.948	3176
874.077	3123
874.206	3009
874.335	3070
874.464	3184
874.593	3310
874.722	3245
874.851	3405
874.979	3344
875.108	3302
875.237	3203
875.365	3176
875.494	3165
875.623	3249
875.751	3051
875.88	3123
876.008	3173
876.136	3203
876.265	3367
876.393	3488
876.521	3412
876.65	3389
876.778	3351
876.906	3256
877.034	3176
877.162	3199
877.29	3165
877.418	3230
877.546	3260
877.674	3199
877.802	3249
877.93	3226
878.058	3135
878.185	3119
878.313	3188
878.441	3180
878.568	3043
878.696	3138
878.824	3230
878.951	3249
879.079	3462
879.206	3618
879.333	3447
879.461	3340
879.588	3359
879.715	3462
879.842	3591
879.97	3355
880.097	3161
880.224	3108
880.351	3192
880.478	3207
880.605	3199
880.732	3165
880.859	3473
880.986	3264
881.112	3268
881.239	3211
881.366	3066
881.493	3036
881.619	3028
881.746	3097
881.872	3089
881.999	3077
882.125	3127
882.252	3256
882.378	3264
882.505	3428
882.631	3310
882.757	3138
882.883	3203
883.01	3207
883.136	3138
883.262	3085
883.388	3108
883.514	3313
883.64	3374
883.766	3279
883.892	3180
884.018	3230
884.143	3393
884.269	3561
884.395	3233
884.52	3116
884.646	3203
884.772	3116
884.897	3077
885.023	3188
885.148	3336
885.274	3443
885.399	3359
885.524	3268
885.65	3214
885.775	3291
885.9	3313
886.025	3420
886.15	3336
886.275	3287
886.4	3192
886.525	3302
886.65	3268
886.775	3249
886.9	3488
887.025	3641
887.149	3447
887.274	3245
887.399	3142
887.523	3184
887.648	3180
887.773	3188
887.897	3412
888.021	3435
888.146	3317
888.27	3443
888.395	3485
888.519	3393
888.643	3443
888.767	3477
888.891	3306
889.015	3230
889.139	3264
889.263	3203
889.387	3405
889.511	3515
889.635	3431
889.759	3283
889.883	3310
890.006	3340
890.13	3507
890.254	3291
890.377	3325
890.501	3180
890.624	3207
890.748	3272
890.871	3195
890.995	3100
891.118	3020
891.241	3176
891.364	3211
891.488	3329
891.611	3165
891.734	3214
891.857	3272
891.98	3245
892.103	3306
892.226	3272
892.349	3188
892.471	3108
892.594	3214
892.717	3275
892.839	3253
892.962	3275
893.085	3370
893.207	3283
893.33	3188
893.452	3230
893.575	3317
893.697	3226
893.819	3458
893.941	3473
894.064	3420
894.186	3256
894.308	3275
894.43	3428
894.552	3515
894.674	3492
894.796	3275
894.918	3332
895.04	3256
895.161	3401
895.283	3389
895.405	3317
895.526	3378
895.648	3424
895.769	3416
895.891	3420
896.012	3435
896.134	3492
896.255	3382
896.376	3409
896.498	3340
896.619	3439
896.74	3332
896.861	3443
896.982	3637
897.103	3827
897.224	3591
897.345	3553
897.466	3454
897.587	3488
897.708	3622
897.828	3580
897.949	3424
898.07	3302
898.19	3344
898.311	3564
898.431	3431
898.552	3523
898.672	3557
898.792	3549
898.913	3477
899.033	3431
899.153	3283
899.273	3222
899.393	3260
899.513	3317
899.633	3306
899.753	3348
899.873	3268
899.993	3374
900.113	3340
900.232	3386
900.352	3306
900.472	3325
900.591	3218
900.711	3283
900.83	3222
900.95	3439
901.069	3530
901.189	3378
901.308	3161
901.427	3146
901.546	3173
901.665	3272
901.784	3325
901.904	3218
902.023	3108
902.141	2994
902.26	3009
902.379	3135
902.498	3066
902.617	3028
902.735	3211
902.854	3272
902.973	3188
903.091	3013
903.21	3024
903.328	3131
903.446	3100
903.565	3081
903.683	3211
903.801	3150
903.919	3218
904.038	3287
904.156	3154
904.274	3298
904.392	3268
904.51	3313
904.627	3317
904.745	3386
904.863	3504
904.981	3253
905.098	3169
905.216	3230
905.334	3275
905.451	3313
905.569	3310
905.686	3420
905.803	3416
905.921	3329
906.038	3424
906.155	3367
906.272	3237
906.389	3306
906.506	3211
906.623	3218
906.74	3275
906.857	3192
906.974	3233
907.091	3416
907.208	3545
907.324	3443
907.441	3389
907.557	3230
907.674	3233
907.79	3176
907.907	3260
908.023	3351
908.139	3382
908.256	3306
908.372	3378
908.488	3348
908.604	3245
908.72	3222
908.836	3287
908.952	3279
909.068	3313
909.184	3462
909.3	3378
909.415	3523
909.531	3477
909.647	3268
909.762	3348
909.878	3256
909.993	3351
910.108	3332
910.224	3359
910.339	3420
910.454	3348
910.57	3275
910.685	3226
910.8	3526
910.915	3557
911.03	3435
911.145	3241
911.259	3233
911.374	3298
911.489	3241
911.604	3188
911.718	3127
911.833	3135
911.947	3039
912.062	2971
912.176	3138
912.291	3173
912.405	3203
912.519	3420
912.633	3485
912.748	3302
912.862	3260
912.976	3161
913.09	3081
913.204	3154
913.318	3226
913.431	3348
913.545	3306
913.659	3409
913.772	3344
913.886	3188
914	3214
914.113	3355
914.226	3409
914.34	3374
914.453	3207
914.566	3424
914.68	3283
914.793	3306
914.906	3100
915.019	3104
915.132	3039
915.245	3184
915.358	3203
915.47	3233
915.583	3260
915.696	3291
915.809	3401
915.921	3393
916.034	3256
916.146	3249
916.259	3222
916.371	3340
916.483	3340
916.595	3272
916.708	3374
916.82	3336
916.932	3344
917.044	3291
917.156	3317
917.268	3233
917.38	3294
917.491	3283
917.603	3351
917.715	3454
917.826	3466
917.938	3374
918.049	3317
918.161	3428
918.272	3549
918.384	3584
918.495	3500
918.606	3329
918.717	3302
918.828	3386
918.939	3416
919.05	3287
919.161	3359
919.272	3184
919.383	3275
919.494	3481
919.604	3644
919.715	3507
919.826	3367
919.936	3473
920.047	3606
920.157	3538
920.267	3724
920.378	3644
920.488	3542
920.598	3797
920.708	3956
920.818	3812
920.928	3838
921.038	4002
921.148	4032
921.258	3717
921.368	3591
921.477	3580
921.587	3538
921.697	3504
921.806	3614
921.916	3553
922.025	3336
922.134	3355
922.244	3306
922.353	3405
922.462	3283
922.571	3226
922.68	3097
922.789	3047
922.898	3161
923.007	3116
923.116	3237
923.224	3135
923.333	3188
923.442	3070
923.55	3093
923.659	3150
923.767	3249
923.876	3119
923.984	3226
924.092	3097
924.201	3214
924.309	3214
924.417	3275
924.525	3195
924.633	3230
924.741	4013
924.849	3028
924.956	3302
925.064	3108
925.172	3032
925.279	3093
925.387	3211
925.494	3211
925.602	3332
925.709	3321
925.816	3199
925.924	3298
926.031	3386
926.138	3329
926.245	3313
926.352	3256
926.459	3412
926.566	3481
926.673	3291
926.779	3233
926.886	3237
926.993	3123
927.099	3108
927.206	3089
927.312	3119
927.419	3211
927.525	3214
927.631	3233
927.737	3135
927.843	3100
927.95	2971
928.056	3154
928.162	3184
928.267	3260
928.373	3736
928.479	3306
928.585	3051
928.69	3195
928.796	3249
928.901	3161
929.007	3036
929.112	3199
929.218	3173
929.323	3127
929.428	3154
929.533	3336
929.638	3089
929.743	3154
929.848	3245
929.953	3203
930.058	3157
930.163	2990
930.267	3043
930.372	3207
930.477	3009
930.581	3279
930.685	3146
930.79	3051
930.894	3108
930.998	3058
931.103	3264
931.207	2941
931.311	2918
931.415	2941
931.519	2796
931.623	2815
