Data from test_V78500241_1674.txt Node
Date: Fri Mar 25 16:26:48 CST 2022
User: usil
Spectrometer: V785-0024
Trigger mode: 0
Integration Time (sec): 4.000000E-1
Scans to average: 1
Nonlinearity correction enabled: false
Boxcar width: 0
Storing dark spectrum: false
XAxis mode: Wavelengths
Number of Pixels in Spectrum: 1024
>>>>>Begin Spectral Data<<<<<
801.071	2941
801.214	2963
801.356	2883
801.499	2891
801.641	2872
801.783	2891
801.926	3070
802.068	3009
802.211	2986
802.353	3051
802.496	2982
802.638	3005
802.78	3047
802.923	3062
803.065	3032
803.208	2906
803.35	2937
803.492	2929
803.635	2918
803.777	2788
803.919	2891
804.061	3195
804.204	2952
804.346	2868
804.488	2887
804.63	2960
804.773	2872
804.915	2887
805.057	3077
805.199	2910
805.341	2963
805.483	3020
805.626	3017
805.768	2975
805.91	3074
806.052	3085
806.194	3055
806.336	3230
806.478	3055
806.62	2979
806.762	2963
806.904	3043
807.046	3176
807.188	2956
807.33	2925
807.472	2967
807.614	2872
807.756	2967
807.898	2922
808.04	2887
808.182	3024
808.324	2952
808.465	2883
808.607	2868
808.749	2811
808.891	2868
809.033	2956
809.174	2971
809.316	2872
809.458	2864
809.6	2788
809.741	2762
809.883	2796
810.025	2823
810.166	2880
810.308	2826
810.45	2853
810.591	2815
810.733	2785
810.875	2826
811.016	2788
811.158	2785
811.299	2800
811.441	2922
811.582	2895
811.724	2781
811.865	2842
812.007	2922
812.148	2872
812.29	2864
812.431	2906
812.573	2933
812.714	2956
812.855	3070
812.997	3062
813.138	3104
813.279	2998
813.421	2960
813.562	2979
813.703	2887
813.845	2906
813.986	2777
814.127	2746
814.268	2830
814.41	2857
814.551	2796
814.692	2853
814.833	2830
814.974	2914
815.115	2933
815.256	2807
815.397	2804
815.539	2853
815.68	2758
815.821	2785
815.962	2933
816.103	2914
816.244	2880
816.385	2872
816.526	2937
816.666	2922
816.807	2746
816.948	2895
817.089	2914
817.23	2864
817.371	2788
817.512	2758
817.653	2823
817.793	2785
817.934	2891
818.075	2967
818.216	3017
818.356	2994
818.497	2895
818.638	2800
818.778	2792
818.919	2823
819.06	2766
819.2	2868
819.341	2785
819.481	2804
819.622	2922
819.762	3089
819.903	3043
820.043	2883
820.184	2944
820.324	2899
820.465	3036
820.605	3028
820.746	3043
820.886	2941
821.026	3036
821.167	3138
821.307	3260
821.447	3298
821.588	3256
821.728	3203
821.868	3218
822.008	3043
822.149	3192
822.289	3203
822.429	3062
822.569	3097
822.709	3161
822.849	3070
822.99	3051
823.13	3142
823.27	3188
823.41	3131
823.55	3146
823.69	3154
823.83	3146
823.97	3051
824.11	3009
824.25	3009
824.389	3100
824.529	3127
824.669	3074
824.809	3211
824.949	3291
825.089	3245
825.228	3150
825.368	2990
825.508	2956
825.648	2960
825.787	3001
825.927	3062
826.067	2937
826.206	2956
826.346	3036
826.485	3070
826.625	3089
826.765	3275
826.904	3192
827.044	2967
827.183	2906
827.323	2849
827.462	2967
827.601	2880
827.741	2914
827.88	2975
828.02	2811
828.159	2944
828.298	3055
828.437	3085
828.577	3020
828.716	3233
828.855	3058
828.994	2895
829.134	2868
829.273	2914
829.412	2883
829.551	2853
829.69	2853
829.829	2975
829.968	3116
830.107	2990
830.246	3013
830.385	2902
830.524	2853
830.663	2807
830.802	2720
830.941	2644
831.08	2659
831.219	2769
831.357	2754
831.496	2952
831.635	2701
831.774	2667
831.913	2632
832.051	2530
832.19	2560
832.329	2693
832.467	2530
832.606	2465
832.744	2579
832.883	2575
833.022	2583
833.16	2644
833.299	2667
833.437	2644
833.576	2693
833.714	2701
833.852	2739
833.991	2750
834.129	2834
834.267	2815
834.406	2781
834.544	2861
834.682	2895
834.821	2849
834.959	3077
835.097	2902
835.235	3024
835.373	2982
835.511	2994
835.65	2956
835.788	2937
835.926	2838
836.064	2804
836.202	2807
836.34	3097
836.478	3157
836.615	3032
836.753	3142
836.891	3249
837.029	3123
837.167	3119
837.305	3051
837.443	3058
837.58	2948
837.718	3131
837.856	3039
837.993	3032
838.131	3112
838.269	3100
838.406	3074
838.544	3066
838.681	2956
838.819	2918
838.956	2811
839.094	2849
839.231	2910
839.369	3005
839.506	3329
839.643	3218
839.781	3005
839.918	2952
840.055	2990
840.193	3047
840.33	3077
840.467	3116
840.604	3138
840.742	3355
840.879	3024
841.016	3020
841.153	3131
841.29	3355
841.427	3268
841.564	3298
841.701	3317
841.838	3165
841.975	3161
842.112	3222
842.249	3093
842.385	3066
842.522	3260
842.659	3089
842.796	3017
842.933	3089
843.069	3032
843.206	3001
843.343	3165
843.479	3081
843.616	3146
843.752	2883
843.889	2868
844.025	3058
844.162	2891
844.298	3074
844.435	2960
844.571	2906
844.708	3043
844.844	3157
844.98	3230
845.117	3173
845.253	3058
845.389	2986
845.525	3085
845.661	3104
845.798	2979
845.934	3100
846.07	3009
846.206	3253
846.342	3291
846.478	3214
846.614	3138
846.75	3047
846.886	3001
847.022	3226
847.158	3112
847.294	3176
847.429	3245
847.565	3176
847.701	3485
847.837	3039
847.972	2986
848.108	3142
848.244	3131
848.379	2956
848.515	2952
848.65	2925
848.786	2975
848.921	2998
849.057	3093
849.192	3157
849.328	3055
849.463	3108
849.598	3062
849.734	3043
849.869	2960
850.004	2887
850.14	2929
850.275	2883
850.41	2815
850.545	2853
850.68	2906
850.815	2948
850.95	2994
851.085	3192
851.22	3097
851.355	2994
851.49	2975
851.625	2975
851.76	3013
851.895	2899
852.03	2960
852.165	3013
852.299	3112
852.434	3184
852.569	3131
852.703	3184
852.838	3245
852.973	3344
853.107	3355
853.242	3165
853.376	3123
853.511	2948
853.645	3043
853.78	3165
853.914	3089
854.048	3074
854.183	3074
854.317	3176
854.451	3329
854.585	3123
854.72	3074
854.854	3184
854.988	3047
855.122	3085
855.256	2982
855.39	3123
855.524	3184
855.658	3165
855.792	3154
855.926	3173
856.06	3169
856.194	3230
856.327	3176
856.461	3093
856.595	3013
856.729	3051
856.862	3233
856.996	3157
857.13	3184
857.263	3237
857.397	3279
857.53	3135
857.664	3138
857.797	3245
857.931	3283
858.064	3142
858.197	3226
858.331	3135
858.464	3077
858.597	2982
858.731	3100
858.864	3135
858.997	3062
859.13	3176
859.263	3173
859.396	3207
859.529	3055
859.662	3013
859.795	3028
859.928	3123
860.061	3268
860.194	3302
860.327	3119
860.46	3062
860.592	3241
860.725	3218
860.858	3241
860.99	3097
861.123	3055
861.256	3047
861.388	3123
861.521	3854
861.653	3028
861.786	3013
861.918	3001
862.05	3062
862.183	3077
862.315	3150
862.447	3192
862.58	3077
862.712	2918
862.844	2876
862.976	2956
863.108	3005
863.24	3416
863.372	2872
863.504	2967
863.636	2963
863.768	3028
863.9	2975
864.032	2872
864.164	2937
864.296	2994
864.428	3070
864.559	3112
864.691	3005
864.823	3074
864.954	3055
865.086	2998
865.217	3001
865.349	2933
865.48	2979
865.612	2994
865.743	3150
865.875	2971
866.006	2937
866.137	2975
866.269	2979
866.4	2925
866.531	2914
866.662	2906
866.793	2876
866.924	2883
867.055	2948
867.186	2899
867.317	2899
867.448	2864
867.579	2830
867.71	2826
867.841	2800
867.972	2895
868.103	2880
868.233	2853
868.364	2876
868.495	2857
868.625	3093
868.756	3180
868.886	2933
869.017	3024
869.147	3157
869.278	3142
869.408	3024
869.539	3020
869.669	3074
869.799	3024
869.929	3127
870.06	3081
870.19	3313
870.32	3310
870.45	3272
870.58	3336
870.71	3458
870.84	3435
870.97	3275
871.1	3249
871.23	3469
871.36	3443
871.489	3370
871.619	3397
871.749	3405
871.879	3428
872.008	3477
872.138	3348
872.267	3283
872.397	3135
872.526	3085
872.656	2982
872.785	3043
872.915	3230
873.044	3275
873.173	3173
873.303	3207
873.432	3211
873.561	3230
873.69	3157
873.819	3127
873.948	3138
874.077	3119
874.206	3024
874.335	3074
874.464	3199
874.593	3340
874.722	3226
874.851	3382
874.979	3367
875.108	3329
875.237	3180
875.365	3116
875.494	3131
875.623	3237
875.751	3066
875.88	3123
876.008	3192
876.136	3256
876.265	3351
876.393	3511
876.521	3416
876.65	3359
876.778	3329
876.906	3264
877.034	3127
877.162	3233
877.29	3180
877.418	3275
877.546	3245
877.674	3230
877.802	3203
877.93	3222
878.058	3165
878.185	3093
878.313	3123
878.441	3195
878.568	3070
878.696	3135
878.824	3249
878.951	3287
879.079	3397
879.206	3606
879.333	3409
879.461	3370
879.588	3355
879.715	3466
879.842	3603
879.97	3370
880.097	3157
880.224	3119
880.351	3184
880.478	3154
880.605	3199
880.732	3192
880.859	3458
880.986	3317
881.112	3321
881.239	3199
881.366	3062
881.493	3017
881.619	3039
881.746	3039
881.872	3097
881.999	3097
882.125	3119
882.252	3214
882.378	3245
882.505	3416
882.631	3287
882.757	3123
882.883	3176
883.01	3176
883.136	3108
883.262	3051
883.388	3104
883.514	3287
883.64	3359
883.766	3306
883.892	3188
884.018	3222
884.143	3367
884.269	3530
884.395	3192
884.52	3146
884.646	3142
884.772	3119
884.897	3081
885.023	3203
885.148	3313
885.274	3424
885.399	3344
885.524	3226
885.65	3256
885.775	3283
885.9	3272
886.025	3428
886.15	3386
886.275	3298
886.4	3241
886.525	3325
886.65	3272
886.775	3211
886.9	3477
887.025	3606
887.149	3389
887.274	3268
887.399	3165
887.523	3173
887.648	3169
887.773	3184
887.897	3363
888.021	3397
888.146	3302
888.27	3405
888.395	3542
888.519	3447
888.643	3481
888.767	3435
888.891	3336
889.015	3272
889.139	3298
889.263	3222
889.387	3431
889.511	3530
889.635	3447
889.759	3287
889.883	3306
890.006	3367
890.13	3496
890.254	3310
890.377	3367
890.501	3226
890.624	3195
890.748	3325
890.871	3207
890.995	3112
891.118	3100
891.241	3214
891.364	3230
891.488	3359
891.611	3211
891.734	3222
891.857	3283
891.98	3272
892.103	3405
892.226	3321
892.349	3294
892.471	3161
892.594	3272
892.717	3332
892.839	3329
892.962	3302
893.085	3389
893.207	3329
893.33	3180
893.452	3256
893.575	3393
893.697	3310
893.819	3519
893.941	3526
894.064	3488
894.186	3291
894.308	3306
894.43	3466
894.552	3572
894.674	3530
894.796	3287
894.918	3374
895.04	3325
895.161	3454
895.283	3416
895.405	3340
895.526	3466
895.648	3458
895.769	3458
895.891	3500
896.012	3557
896.134	3504
896.255	3469
896.376	3447
896.498	3393
896.619	3447
896.74	3409
896.861	3458
896.982	3732
897.103	3892
897.224	3629
897.345	3545
897.466	3469
897.587	3515
897.708	3667
897.828	3561
897.949	3462
898.07	3374
898.19	3443
898.311	3656
898.431	3473
898.552	3542
898.672	3614
898.792	3587
898.913	3572
899.033	3439
899.153	3310
899.273	3287
899.393	3279
899.513	3310
899.633	3363
899.753	3355
899.873	3378
899.993	3382
900.113	3329
900.232	3397
900.352	3378
900.472	3325
900.591	3245
900.711	3294
900.83	3298
900.95	3428
901.069	3526
901.189	3386
901.308	3203
901.427	3203
901.546	3214
901.665	3344
901.784	3382
901.904	3268
902.023	3195
902.141	3062
902.26	3020
902.379	3154
902.498	3104
902.617	3077
902.735	3207
902.854	3241
902.973	3218
903.091	3089
903.21	3089
903.328	3146
903.446	3150
903.565	3116
903.683	3211
903.801	3176
903.919	3268
904.038	3287
904.156	3214
904.274	3348
904.392	3275
904.51	3348
904.627	3348
904.745	3500
904.863	3549
904.981	3291
905.098	3180
905.216	3256
905.334	3348
905.451	3310
905.569	3351
905.686	3466
905.803	3473
905.921	3336
906.038	3443
906.155	3405
906.272	3275
906.389	3355
906.506	3272
906.623	3245
906.74	3332
906.857	3230
906.974	3310
907.091	3473
907.208	3534
907.324	3481
907.441	3424
907.557	3272
907.674	3268
907.79	3264
907.907	3302
908.023	3386
908.139	3359
908.256	3355
908.372	3412
908.488	3378
908.604	3310
908.72	3245
908.836	3291
908.952	3317
909.068	3397
909.184	3549
909.3	3428
909.415	3538
909.531	3523
909.647	3325
909.762	3302
909.878	3321
909.993	3386
910.108	3382
910.224	3386
910.339	3485
910.454	3351
910.57	3317
910.685	3268
910.8	3603
910.915	3549
911.03	3496
911.145	3306
911.259	3317
911.374	3359
911.489	3253
911.604	3283
911.718	3169
911.833	3192
911.947	3081
912.062	3039
912.176	3195
912.291	3230
912.405	3233
912.519	3458
912.633	3504
912.748	3382
912.862	3310
912.976	3199
913.09	3074
913.204	3161
913.318	3264
913.431	3382
913.545	3344
913.659	3409
913.772	3355
913.886	3264
914	3192
914.113	3409
914.226	3401
914.34	3405
914.453	3256
914.566	3450
914.68	3302
914.793	3344
914.906	3195
915.019	3180
915.132	3108
915.245	3211
915.358	3241
915.47	3249
915.583	3275
915.696	3325
915.809	3439
915.921	3462
916.034	3264
916.146	3287
916.259	3253
916.371	3428
916.483	3405
916.595	3283
916.708	3317
916.82	3363
916.932	3355
917.044	3370
917.156	3416
917.268	3260
917.38	3351
917.491	3340
917.603	3393
917.715	3458
917.826	3488
917.938	3431
918.049	3313
918.161	3428
918.272	3618
918.384	3572
918.495	3515
918.606	3386
918.717	3291
918.828	3412
918.939	3424
919.05	3340
919.161	3367
919.272	3218
919.383	3283
919.494	3507
919.604	3732
919.715	3477
919.826	3439
919.936	3466
920.047	3614
920.157	3557
920.267	3804
920.378	3576
920.488	3591
920.598	3774
920.708	3994
920.818	3846
920.928	3899
921.038	4044
921.148	4029
921.258	3797
921.368	3652
921.477	3568
921.587	3538
921.697	3477
921.806	3625
921.916	3557
922.025	3351
922.134	3374
922.244	3325
922.353	3439
922.462	3291
922.571	3249
922.68	3135
922.789	3127
922.898	3161
923.007	3123
923.116	3218
923.224	3203
923.333	3230
923.442	3131
923.55	3119
923.659	3184
923.767	3222
923.876	3142
923.984	3283
924.092	3150
924.201	3222
924.309	3226
924.417	3325
924.525	3241
924.633	3272
924.741	4169
924.849	3066
924.956	3268
925.064	3127
925.172	3097
925.279	3085
925.387	3226
925.494	3226
925.602	3378
925.709	3336
925.816	3199
925.924	3279
926.031	3416
926.138	3359
926.245	3393
926.352	3264
926.459	3428
926.566	3504
926.673	3355
926.779	3233
926.886	3264
926.993	3184
927.099	3154
927.206	3127
927.312	3131
927.419	3249
927.525	3249
927.631	3298
927.737	3169
927.843	3138
927.95	3051
928.056	3180
928.162	3180
928.267	3230
928.373	3941
928.479	3325
928.585	3074
928.69	3211
928.796	3272
928.901	3192
929.007	3043
929.112	3195
929.218	3230
929.323	3138
929.428	3173
929.533	3310
929.638	3127
929.743	3184
929.848	3253
929.953	3275
930.058	3146
930.163	2986
930.267	3093
930.372	3237
930.477	3066
930.581	3367
930.685	3176
930.79	3081
930.894	3112
930.998	3089
931.103	3306
931.207	2975
931.311	3013
931.415	2929
931.519	2796
931.623	2849
