Data from test_V78500241_303.txt Node
Date: Fri Mar 25 16:17:18 CST 2022
User: usil
Spectrometer: V785-0024
Trigger mode: 0
Integration Time (sec): 4.000000E-1
Scans to average: 1
Nonlinearity correction enabled: false
Boxcar width: 0
Storing dark spectrum: false
XAxis mode: Wavelengths
Number of Pixels in Spectrum: 1024
>>>>>Begin Spectral Data<<<<<
801.071	2948
801.214	2937
801.356	2902
801.499	2933
801.641	2868
801.783	2933
801.926	3062
802.068	2952
802.211	3062
802.353	3051
802.496	2967
802.638	3005
802.78	3081
802.923	3108
803.065	3001
803.208	2914
803.35	2899
803.492	2944
803.635	2922
803.777	2746
803.919	2853
804.061	3203
804.204	2963
804.346	2876
804.488	2861
804.63	2986
804.773	2899
804.915	2937
805.057	3112
805.199	2910
805.341	2971
805.483	3070
805.626	3005
805.768	2975
805.91	3089
806.052	3146
806.194	3043
806.336	3256
806.478	3028
806.62	2986
806.762	2971
806.904	3074
807.046	3176
807.188	3005
807.33	2941
807.472	2986
807.614	2883
807.756	2982
807.898	2929
808.04	2876
808.182	2975
808.324	2960
808.465	2849
808.607	2899
808.749	2804
808.891	2880
809.033	2971
809.174	2982
809.316	2929
809.458	2861
809.6	2762
809.741	2777
809.883	2762
810.025	2849
810.166	2891
810.308	2826
810.45	2880
810.591	2788
810.733	2777
810.875	2834
811.016	2804
811.158	2785
811.299	2800
811.441	2944
811.582	2899
811.724	2815
811.865	2838
812.007	2948
812.148	2906
812.29	2830
812.431	2895
812.573	2952
812.714	2971
812.855	3058
812.997	3066
813.138	3157
813.279	3005
813.421	2963
813.562	2975
813.703	2880
813.845	2853
813.986	2777
814.127	2754
814.268	2834
814.41	2819
814.551	2800
814.692	2872
814.833	2804
814.974	2887
815.115	2914
815.256	2872
815.397	2807
815.539	2864
815.68	2781
815.821	2777
815.962	2948
816.103	2933
816.244	2880
816.385	2849
816.526	2979
816.666	2914
816.807	2769
816.948	2918
817.089	2906
817.23	2834
817.371	2800
817.512	2781
817.653	2849
817.793	2830
817.934	2876
818.075	2952
818.216	2967
818.356	3039
818.497	2910
818.638	2792
818.778	2842
818.919	2792
819.06	2785
819.2	2857
819.341	2804
819.481	2788
819.622	2944
819.762	3116
819.903	3047
820.043	2910
820.184	2895
820.324	2910
820.465	3013
820.605	2994
820.746	3009
820.886	2952
821.026	3081
821.167	3157
821.307	3245
821.447	3230
821.588	3253
821.728	3157
821.868	3214
822.008	3047
822.149	3146
822.289	3237
822.429	3108
822.569	3077
822.709	3188
822.849	3028
822.99	3093
823.13	3116
823.27	3233
823.41	3077
823.55	3195
823.69	3138
823.83	3214
823.97	3116
824.11	2975
824.25	3001
824.389	3112
824.529	3119
824.669	3058
824.809	3226
824.949	3245
825.089	3207
825.228	3211
825.368	2975
825.508	2982
825.648	2979
825.787	3036
825.927	3047
826.067	2971
826.206	2971
826.346	3089
826.485	3100
826.625	3135
826.765	3272
826.904	3226
827.044	3017
827.183	2994
827.323	2902
827.462	3032
827.601	2910
827.741	2990
827.88	3001
828.02	2849
828.159	2990
828.298	3062
828.437	3157
828.577	3074
828.716	3310
828.855	3146
828.994	2929
829.134	2944
829.273	2937
829.412	2906
829.551	2922
829.69	2944
829.829	3036
829.968	3161
830.107	3013
830.246	3074
830.385	2960
830.524	2910
830.663	2857
830.802	2819
830.941	2746
831.08	2716
831.219	2800
831.357	2807
831.496	3020
831.635	2731
831.774	2693
831.913	2701
832.051	2632
832.19	2610
832.329	2754
832.467	2587
832.606	2507
832.744	2625
832.883	2621
833.022	2636
833.16	2701
833.299	2754
833.437	2735
833.576	2754
833.714	2777
833.852	2796
833.991	2800
834.129	2880
834.267	2868
834.406	2826
834.544	2899
834.682	2933
834.821	2929
834.959	3055
835.097	2941
835.235	3089
835.373	3032
835.511	3055
835.65	2948
835.788	3001
835.926	2872
836.064	2842
836.202	2895
836.34	3150
836.478	3184
836.615	3123
836.753	3188
836.891	3233
837.029	3222
837.167	3146
837.305	3131
837.443	3089
837.58	2990
837.718	3146
837.856	3085
837.993	3077
838.131	3138
838.269	3165
838.406	3116
838.544	3169
838.681	3047
838.819	2963
838.956	2849
839.094	2876
839.231	2948
839.369	3062
839.506	3374
839.643	3264
839.781	3066
839.918	2960
840.055	3093
840.193	3077
840.33	3119
840.467	3116
840.604	3233
840.742	3450
840.879	3108
841.016	3081
841.153	3138
841.29	3378
841.427	3321
841.564	3298
841.701	3340
841.838	3222
841.975	3195
842.112	3241
842.249	3097
842.385	3047
842.522	3302
842.659	3180
842.796	3070
842.933	3127
843.069	3074
843.206	3100
843.343	3222
843.479	3150
843.616	3165
843.752	2933
843.889	2883
844.025	3138
844.162	2922
844.298	3131
844.435	2982
844.571	2975
844.708	3154
844.844	3241
844.98	3313
845.117	3218
845.253	3062
845.389	3017
845.525	3097
845.661	3112
845.798	3062
845.934	3180
846.07	3089
846.206	3249
846.342	3348
846.478	3275
846.614	3119
846.75	3077
846.886	3055
847.022	3302
847.158	3199
847.294	3237
847.429	3279
847.565	3230
847.701	3485
847.837	3062
847.972	3043
848.108	3203
848.244	3207
848.379	3043
848.515	2979
848.65	2937
848.786	3039
848.921	3066
849.057	3154
849.192	3154
849.328	3089
849.463	3112
849.598	3085
849.734	3051
849.869	2994
850.004	2982
850.14	2986
850.275	2933
850.41	2864
850.545	2918
850.68	2963
850.815	2975
850.95	3013
851.085	3207
851.22	3169
851.355	3036
851.49	3001
851.625	3017
851.76	3047
851.895	2971
852.03	2922
852.165	3062
852.299	3146
852.434	3214
852.569	3146
852.703	3211
852.838	3287
852.973	3389
853.107	3348
853.242	3176
853.376	3138
853.511	3013
853.645	3066
853.78	3272
853.914	3176
854.048	3184
854.183	3127
854.317	3169
854.451	3340
854.585	3157
854.72	3138
854.854	3268
854.988	3077
855.122	3135
855.256	3009
855.39	3112
855.524	3298
855.658	3230
855.792	3207
855.926	3230
856.06	3226
856.194	3302
856.327	3188
856.461	3100
856.595	3104
856.729	3135
856.862	3268
856.996	3165
857.13	3233
857.263	3241
857.397	3306
857.53	3161
857.664	3230
857.797	3306
857.931	3298
858.064	3192
858.197	3256
858.331	3173
858.464	3104
858.597	3055
858.731	3119
858.864	3138
858.997	3154
859.13	3192
859.263	3222
859.396	3207
859.529	3089
859.662	3116
859.795	3074
859.928	3165
860.061	3268
860.194	3287
860.327	3180
860.46	3089
860.592	3279
860.725	3279
860.858	3283
860.99	3112
861.123	3089
861.256	3066
861.388	3192
861.521	3876
861.653	3024
861.786	3009
861.918	3055
862.05	3089
862.183	3150
862.315	3218
862.447	3207
862.58	3161
862.712	3005
862.844	2929
862.976	3032
863.108	3020
863.24	3348
863.372	2914
863.504	3001
863.636	2967
863.768	3070
863.9	2986
864.032	2933
864.164	3005
864.296	3036
864.428	3127
864.559	3119
864.691	3081
864.823	3070
864.954	3051
865.086	3093
865.217	3013
865.349	2948
865.48	3032
865.612	3081
865.743	3173
865.875	2994
866.006	2990
866.137	3032
866.269	2990
866.4	2956
866.531	2952
866.662	2910
866.793	2910
866.924	2933
867.055	3009
867.186	2922
867.317	2933
867.448	2861
867.579	2910
867.71	2864
867.841	2845
867.972	2914
868.103	2952
868.233	2899
868.364	2910
868.495	2929
868.625	3123
868.756	3169
868.886	3028
869.017	3047
869.147	3203
869.278	3169
869.408	3074
869.539	3066
869.669	3142
869.799	3058
869.929	3146
870.06	3127
870.19	3325
870.32	3279
870.45	3344
870.58	3405
870.71	3458
870.84	3443
870.97	3310
871.1	3256
871.23	3488
871.36	3485
871.489	3397
871.619	3397
871.749	3443
871.879	3462
872.008	3564
872.138	3359
872.267	3294
872.397	3127
872.526	3150
872.656	3070
872.785	3142
872.915	3264
873.044	3310
873.173	3226
873.303	3268
873.432	3245
873.561	3275
873.69	3150
873.819	3157
873.948	3195
874.077	3127
874.206	3081
874.335	3100
874.464	3260
874.593	3351
874.722	3211
874.851	3420
874.979	3374
875.108	3336
875.237	3214
875.365	3226
875.494	3195
875.623	3302
875.751	3123
875.88	3135
876.008	3195
876.136	3253
876.265	3412
876.393	3485
876.521	3466
876.65	3409
876.778	3393
876.906	3287
877.034	3211
877.162	3249
877.29	3176
877.418	3279
877.546	3279
877.674	3264
877.802	3264
877.93	3275
878.058	3176
878.185	3123
878.313	3214
878.441	3211
878.568	3123
878.696	3165
878.824	3249
878.951	3329
879.079	3466
879.206	3644
879.333	3454
879.461	3386
879.588	3378
879.715	3488
879.842	3663
879.97	3416
880.097	3184
880.224	3173
880.351	3245
880.478	3222
880.605	3237
880.732	3199
880.859	3515
880.986	3344
881.112	3340
881.239	3203
881.366	3161
881.493	3058
881.619	3051
881.746	3100
881.872	3135
881.999	3154
882.125	3157
882.252	3272
882.378	3272
882.505	3443
882.631	3317
882.757	3195
882.883	3260
883.01	3226
883.136	3165
883.262	3077
883.388	3146
883.514	3348
883.64	3431
883.766	3287
883.892	3195
884.018	3260
884.143	3458
884.269	3576
884.395	3233
884.52	3180
884.646	3176
884.772	3127
884.897	3116
885.023	3218
885.148	3401
885.274	3412
885.399	3389
885.524	3241
885.65	3313
885.775	3344
885.9	3291
886.025	3466
886.15	3389
886.275	3340
886.4	3291
886.525	3348
886.65	3321
886.775	3294
886.9	3496
887.025	3667
887.149	3454
887.274	3230
887.399	3195
887.523	3253
887.648	3188
887.773	3241
887.897	3393
888.021	3447
888.146	3317
888.27	3481
888.395	3591
888.519	3443
888.643	3466
888.767	3504
888.891	3302
889.015	3218
889.139	3332
889.263	3283
889.387	3466
889.511	3534
889.635	3450
889.759	3329
889.883	3332
890.006	3393
890.13	3462
890.254	3249
890.377	3363
890.501	3222
890.624	3211
890.748	3321
890.871	3222
890.995	3131
891.118	3119
891.241	3199
891.364	3237
891.488	3348
891.611	3154
891.734	3245
891.857	3317
891.98	3245
892.103	3351
892.226	3298
892.349	3241
892.471	3123
892.594	3279
892.717	3321
892.839	3302
892.962	3329
893.085	3382
893.207	3321
893.33	3184
893.452	3241
893.575	3367
893.697	3260
893.819	3500
893.941	3519
894.064	3454
894.186	3275
894.308	3313
894.43	3458
894.552	3538
894.674	3481
894.796	3302
894.918	3287
895.04	3321
895.161	3439
895.283	3420
895.405	3332
895.526	3397
895.648	3447
895.769	3450
895.891	3450
896.012	3496
896.134	3458
896.255	3431
896.376	3409
896.498	3389
896.619	3443
896.74	3397
896.861	3454
896.982	3717
897.103	3880
897.224	3614
897.345	3526
897.466	3492
897.587	3534
897.708	3663
897.828	3538
897.949	3450
898.07	3344
898.19	3409
898.311	3633
898.431	3492
898.552	3534
898.672	3603
898.792	3587
898.913	3519
899.033	3458
899.153	3279
899.273	3249
899.393	3313
899.513	3359
899.633	3321
899.753	3378
899.873	3332
899.993	3401
900.113	3374
900.232	3370
900.352	3382
900.472	3264
900.591	3237
900.711	3325
900.83	3253
900.95	3447
901.069	3473
901.189	3378
901.308	3195
901.427	3173
901.546	3211
901.665	3283
901.784	3367
901.904	3207
902.023	3135
902.141	3017
902.26	3017
902.379	3146
902.498	3085
902.617	3051
902.735	3256
902.854	3256
902.973	3188
903.091	3089
903.21	3062
903.328	3165
903.446	3089
903.565	3127
903.683	3253
903.801	3157
903.919	3283
904.038	3329
904.156	3226
904.274	3264
904.392	3294
904.51	3344
904.627	3302
904.745	3454
904.863	3462
904.981	3275
905.098	3150
905.216	3253
905.334	3287
905.451	3317
905.569	3291
905.686	3443
905.803	3428
905.921	3294
906.038	3420
906.155	3348
906.272	3272
906.389	3317
906.506	3211
906.623	3249
906.74	3283
906.857	3184
906.974	3275
907.091	3481
907.208	3610
907.324	3488
907.441	3386
907.557	3253
907.674	3230
907.79	3241
907.907	3306
908.023	3374
908.139	3397
908.256	3351
908.372	3378
908.488	3355
908.604	3294
908.72	3279
908.836	3310
908.952	3241
909.068	3355
909.184	3485
909.3	3462
909.415	3481
909.531	3466
909.647	3310
909.762	3272
909.878	3275
909.993	3340
910.108	3370
910.224	3332
910.339	3397
910.454	3351
910.57	3310
910.685	3260
910.8	3606
910.915	3564
911.03	3443
911.145	3310
911.259	3249
911.374	3294
911.489	3291
911.604	3195
911.718	3135
911.833	3142
911.947	3039
912.062	3005
912.176	3214
912.291	3199
912.405	3195
912.519	3439
912.633	3492
912.748	3344
912.862	3310
912.976	3180
913.09	3062
913.204	3138
913.318	3184
913.431	3336
913.545	3306
913.659	3492
913.772	3344
913.886	3233
914	3222
914.113	3374
914.226	3454
914.34	3401
914.453	3180
914.566	3409
914.68	3260
914.793	3313
914.906	3188
915.019	3108
915.132	3081
915.245	3157
915.358	3211
915.47	3207
915.583	3287
915.696	3253
915.809	3412
915.921	3469
916.034	3253
916.146	3241
916.259	3230
916.371	3401
916.483	3393
916.595	3287
916.708	3351
916.82	3340
916.932	3344
917.044	3313
917.156	3374
917.268	3218
917.38	3298
917.491	3325
917.603	3389
917.715	3462
917.826	3454
917.938	3378
918.049	3313
918.161	3454
918.272	3633
918.384	3576
918.495	3515
918.606	3344
918.717	3317
918.828	3424
918.939	3409
919.05	3287
919.161	3363
919.272	3161
919.383	3283
919.494	3511
919.604	3724
919.715	3492
919.826	3424
919.936	3477
920.047	3610
920.157	3561
920.267	3762
920.378	3629
920.488	3576
920.598	3819
920.708	3964
920.818	3808
920.928	3827
921.038	4006
921.148	3998
921.258	3728
921.368	3637
921.477	3584
921.587	3542
921.697	3454
921.806	3656
921.916	3580
922.025	3348
922.134	3393
922.244	3332
922.353	3431
922.462	3298
922.571	3226
922.68	3116
922.789	3085
922.898	3138
923.007	3097
923.116	3211
923.224	3173
923.333	3195
923.442	3138
923.55	3077
923.659	3135
923.767	3226
923.876	3123
923.984	3249
924.092	3089
924.201	3211
924.309	3184
924.417	3298
924.525	3195
924.633	3211
924.741	4177
924.849	3028
924.956	3302
925.064	3089
925.172	3043
925.279	3100
925.387	3226
925.494	3184
925.602	3363
925.709	3340
925.816	3203
925.924	3325
926.031	3367
926.138	3325
926.245	3363
926.352	3249
926.459	3409
926.566	3466
926.673	3321
926.779	3283
926.886	3233
926.993	3142
927.099	3173
927.206	3058
927.312	3127
927.419	3226
927.525	3226
927.631	3283
927.737	3165
927.843	3127
927.95	3020
928.056	3116
928.162	3226
928.267	3256
928.373	3846
928.479	3306
928.585	3074
928.69	3230
928.796	3256
928.901	3161
929.007	3028
929.112	3226
929.218	3173
929.323	3169
929.428	3146
929.533	3332
929.638	3169
929.743	3173
929.848	3279
929.953	3237
930.058	3150
930.163	2994
930.267	3039
930.372	3237
930.477	3066
930.581	3332
930.685	3180
930.79	3058
930.894	3161
930.998	3085
931.103	3291
931.207	2979
931.311	2971
931.415	2876
931.519	2762
931.623	2792
