Data from test_V78500241_766.txt Node
Date: Fri Mar 25 16:20:30 CST 2022
User: usil
Spectrometer: V785-0024
Trigger mode: 0
Integration Time (sec): 4.000000E-1
Scans to average: 1
Nonlinearity correction enabled: false
Boxcar width: 0
Storing dark spectrum: false
XAxis mode: Wavelengths
Number of Pixels in Spectrum: 1024
>>>>>Begin Spectral Data<<<<<
801.071	2887
801.214	2937
801.356	2868
801.499	2868
801.641	2883
801.783	2902
801.926	3028
802.068	2960
802.211	2990
802.353	3055
802.496	2941
802.638	3024
802.78	3032
802.923	3093
803.065	3020
803.208	2887
803.35	2887
803.492	2960
803.635	2956
803.777	2724
803.919	2891
804.061	3207
804.204	2948
804.346	2895
804.488	2838
804.63	2986
804.773	2842
804.915	2902
805.057	3089
805.199	2902
805.341	2948
805.483	3020
805.626	2990
805.768	2952
805.91	3100
806.052	3093
806.194	3013
806.336	3230
806.478	3013
806.62	2933
806.762	2963
806.904	3036
807.046	3157
807.188	2975
807.33	2887
807.472	3020
807.614	2899
807.756	2971
807.898	2910
808.04	2861
808.182	2975
808.324	2922
808.465	2887
808.607	2880
808.749	2788
808.891	2823
809.033	2990
809.174	2937
809.316	2880
809.458	2910
809.6	2762
809.741	2777
809.883	2785
810.025	2857
810.166	2834
810.308	2800
810.45	2834
810.591	2746
810.733	2773
810.875	2838
811.016	2792
811.158	2735
811.299	2796
811.441	2899
811.582	2861
811.724	2800
811.865	2823
812.007	2918
812.148	2861
812.29	2834
812.431	2872
812.573	2922
812.714	2986
812.855	3047
812.997	3024
813.138	3100
813.279	3017
813.421	2960
813.562	2925
813.703	2868
813.845	2902
813.986	2762
814.127	2739
814.268	2830
814.41	2849
814.551	2838
814.692	2868
814.833	2838
814.974	2868
815.115	2933
815.256	2857
815.397	2800
815.539	2834
815.68	2746
815.821	2743
815.962	2876
816.103	2906
816.244	2880
816.385	2857
816.526	2948
816.666	2902
816.807	2724
816.948	2853
817.089	2941
817.23	2864
817.371	2785
817.512	2800
817.653	2823
817.793	2819
817.934	2876
818.075	2941
818.216	2963
818.356	3051
818.497	2864
818.638	2785
818.778	2826
818.919	2766
819.06	2727
819.2	2872
819.341	2792
819.481	2800
819.622	2906
819.762	3081
819.903	3051
820.043	2906
820.184	2891
820.324	2906
820.465	3043
820.605	3055
820.746	3017
820.886	2944
821.026	3123
821.167	3165
821.307	3298
821.447	3283
821.588	3203
821.728	3203
821.868	3214
822.008	3062
822.149	3161
822.289	3218
822.429	3062
822.569	3104
822.709	3146
822.849	3028
822.99	3051
823.13	3142
823.27	3180
823.41	3077
823.55	3173
823.69	3165
823.83	3199
823.97	3116
824.11	2975
824.25	2963
824.389	3043
824.529	3123
824.669	3066
824.809	3199
824.949	3249
825.089	3233
825.228	3142
825.368	2990
825.508	2952
825.648	2937
825.787	3017
825.927	3047
826.067	2994
826.206	2925
826.346	3055
826.485	3112
826.625	3089
826.765	3264
826.904	3214
827.044	3001
827.183	2929
827.323	2834
827.462	2967
827.601	2948
827.741	2906
827.88	2906
828.02	2807
828.159	2956
828.298	3020
828.437	3131
828.577	2994
828.716	3222
828.855	3089
828.994	2861
829.134	2861
829.273	2899
829.412	2868
829.551	2861
829.69	2887
829.829	2990
829.968	3104
830.107	2998
830.246	3020
830.385	2895
830.524	2883
830.663	2792
830.802	2716
830.941	2667
831.08	2632
831.219	2746
831.357	2731
831.496	2982
831.635	2716
831.774	2651
831.913	2686
832.051	2518
832.19	2594
832.329	2663
832.467	2507
832.606	2507
832.744	2571
832.883	2655
833.022	2579
833.16	2644
833.299	2689
833.437	2689
833.576	2712
833.714	2727
833.852	2712
833.991	2701
834.129	2838
834.267	2849
834.406	2766
834.544	2880
834.682	2849
834.821	2830
834.959	3081
835.097	2899
835.235	3039
835.373	3009
835.511	2994
835.65	2918
835.788	2956
835.926	2792
836.064	2823
836.202	2838
836.34	3077
836.478	3157
836.615	3005
836.753	3108
836.891	3188
837.029	3119
837.167	3089
837.305	3039
837.443	3043
837.58	2971
837.718	3131
837.856	3020
837.993	3013
838.131	3108
838.269	3131
838.406	3104
838.544	3081
838.681	2922
838.819	2899
838.956	2792
839.094	2838
839.231	2914
839.369	3017
839.506	3382
839.643	3199
839.781	2971
839.918	2982
840.055	3043
840.193	3020
840.33	3062
840.467	3104
840.604	3142
840.742	3397
840.879	3051
841.016	3043
841.153	3104
841.29	3351
841.427	3272
841.564	3264
841.701	3306
841.838	3241
841.975	3173
842.112	3203
842.249	3055
842.385	3028
842.522	3226
842.659	3081
842.796	3055
842.933	3104
843.069	3013
843.206	3024
843.343	3165
843.479	3077
843.616	3123
843.752	2902
843.889	2872
844.025	3081
844.162	2864
844.298	3062
844.435	2906
844.571	2906
844.708	3043
844.844	3150
844.98	3233
845.117	3203
845.253	3055
845.389	2994
845.525	3146
845.661	3112
845.798	3009
845.934	3127
846.07	3039
846.206	3203
846.342	3321
846.478	3188
846.614	3074
846.75	3047
846.886	2998
847.022	3211
847.158	3100
847.294	3199
847.429	3203
847.565	3184
847.701	3477
847.837	3020
847.972	3005
848.108	3161
848.244	3131
848.379	3024
848.515	2906
848.65	2918
848.786	2986
848.921	3005
849.057	3100
849.192	3123
849.328	3036
849.463	3093
849.598	3005
849.734	3062
849.869	2994
850.004	2929
850.14	2979
850.275	2887
850.41	2857
850.545	2883
850.68	2918
850.815	2963
850.95	2979
851.085	3184
851.22	3108
851.355	3036
851.49	2979
851.625	2979
851.76	3047
851.895	2887
852.03	2914
852.165	3051
852.299	3116
852.434	3203
852.569	3104
852.703	3203
852.838	3214
852.973	3291
853.107	3298
853.242	3142
853.376	3081
853.511	2944
853.645	3013
853.78	3233
853.914	3104
854.048	3112
854.183	3047
854.317	3123
854.451	3291
854.585	3100
854.72	3100
854.854	3188
854.988	2994
855.122	3058
855.256	2998
855.39	3093
855.524	3214
855.658	3199
855.792	3138
855.926	3180
856.06	3233
856.194	3214
856.327	3104
856.461	3055
856.595	3043
856.729	3074
856.862	3192
856.996	3173
857.13	3222
857.263	3226
857.397	3264
857.53	3123
857.664	3203
857.797	3230
857.931	3245
858.064	3142
858.197	3226
858.331	3154
858.464	3089
858.597	3005
858.731	3070
858.864	3150
858.997	3093
859.13	3173
859.263	3150
859.396	3188
859.529	3070
859.662	3055
859.795	2998
859.928	3138
860.061	3279
860.194	3268
860.327	3104
860.46	3097
860.592	3214
860.725	3226
860.858	3230
860.99	3112
861.123	3055
861.256	3013
861.388	3123
861.521	3903
861.653	3005
861.786	2986
861.918	3005
862.05	3055
862.183	3070
862.315	3135
862.447	3211
862.58	3077
862.712	2952
862.844	2842
862.976	2990
863.108	2986
863.24	3447
863.372	2861
863.504	2963
863.636	2948
863.768	3024
863.9	2956
864.032	2895
864.164	2929
864.296	3028
864.428	3074
864.559	3093
864.691	3055
864.823	3055
864.954	3032
865.086	3074
865.217	2994
865.349	2982
865.48	2929
865.612	3005
865.743	3142
865.875	2941
866.006	2933
866.137	2986
866.269	2914
866.4	2883
866.531	2922
866.662	2918
866.793	2842
866.924	2842
867.055	2952
867.186	2922
867.317	2876
867.448	2807
867.579	2849
867.71	2864
867.841	2796
867.972	2880
868.103	2899
868.233	2880
868.364	2864
868.495	2895
868.625	3077
868.756	3169
868.886	2975
869.017	3013
869.147	3199
869.278	3146
869.408	3055
869.539	3028
869.669	3081
869.799	3062
869.929	3131
870.06	3070
870.19	3264
870.32	3260
870.45	3310
870.58	3348
870.71	3454
870.84	3397
870.97	3268
871.1	3211
871.23	3462
871.36	3473
871.489	3321
871.619	3351
871.749	3416
871.879	3473
872.008	3466
872.138	3367
872.267	3291
872.397	3150
872.526	3100
872.656	2994
872.785	3085
872.915	3253
873.044	3310
873.173	3211
873.303	3249
873.432	3184
873.561	3275
873.69	3138
873.819	3161
873.948	3180
874.077	3085
874.206	3024
874.335	3081
874.464	3184
874.593	3317
874.722	3214
874.851	3416
874.979	3351
875.108	3321
875.237	3192
875.365	3154
875.494	3116
875.623	3195
875.751	3074
875.88	3100
876.008	3173
876.136	3218
876.265	3317
876.393	3511
876.521	3424
876.65	3348
876.778	3313
876.906	3218
877.034	3214
877.162	3218
877.29	3173
877.418	3260
877.546	3222
877.674	3233
877.802	3241
877.93	3214
878.058	3150
878.185	3119
878.313	3169
878.441	3192
878.568	3043
878.696	3138
878.824	3218
878.951	3275
879.079	3454
879.206	3644
879.333	3424
879.461	3370
879.588	3393
879.715	3462
879.842	3534
879.97	3367
880.097	3123
880.224	3173
880.351	3207
880.478	3195
880.605	3180
880.732	3169
880.859	3496
880.986	3291
881.112	3359
881.239	3222
881.366	3070
881.493	2979
881.619	2982
881.746	3051
881.872	3074
881.999	3081
882.125	3138
882.252	3211
882.378	3253
882.505	3424
882.631	3272
882.757	3161
882.883	3260
883.01	3226
883.136	3142
883.262	3085
883.388	3097
883.514	3302
883.64	3401
883.766	3321
883.892	3157
884.018	3241
884.143	3401
884.269	3542
884.395	3203
884.52	3169
884.646	3154
884.772	3104
884.897	3074
885.023	3249
885.148	3340
885.274	3424
885.399	3359
885.524	3272
885.65	3241
885.775	3313
885.9	3283
886.025	3431
886.15	3310
886.275	3306
886.4	3241
886.525	3329
886.65	3272
886.775	3275
886.9	3462
887.025	3614
887.149	3401
887.274	3279
887.399	3157
887.523	3176
887.648	3150
887.773	3195
887.897	3321
888.021	3389
888.146	3291
888.27	3420
888.395	3515
888.519	3416
888.643	3466
888.767	3466
888.891	3344
889.015	3226
889.139	3268
889.263	3230
889.387	3420
889.511	3485
889.635	3492
889.759	3283
889.883	3253
890.006	3317
890.13	3511
890.254	3283
890.377	3329
890.501	3173
890.624	3195
890.748	3310
890.871	3176
890.995	3074
891.118	3077
891.241	3150
891.364	3214
891.488	3329
891.611	3173
891.734	3241
891.857	3268
891.98	3245
892.103	3310
892.226	3283
892.349	3214
892.471	3119
892.594	3245
892.717	3275
892.839	3272
892.962	3260
893.085	3344
893.207	3249
893.33	3165
893.452	3192
893.575	3332
893.697	3279
893.819	3443
893.941	3488
894.064	3454
894.186	3264
894.308	3226
894.43	3393
894.552	3519
894.674	3458
894.796	3260
894.918	3291
895.04	3279
895.161	3405
895.283	3382
895.405	3287
895.526	3382
895.648	3405
895.769	3416
895.891	3462
896.012	3481
896.134	3462
896.255	3428
896.376	3409
896.498	3340
896.619	3397
896.74	3332
896.861	3420
896.982	3629
897.103	3804
897.224	3599
897.345	3507
897.466	3420
897.587	3477
897.708	3591
897.828	3500
897.949	3420
898.07	3348
898.19	3397
898.311	3603
898.431	3412
898.552	3477
898.672	3576
898.792	3564
898.913	3507
899.033	3363
899.153	3256
899.273	3222
899.393	3249
899.513	3302
899.633	3291
899.753	3310
899.873	3268
899.993	3378
900.113	3325
900.232	3351
900.352	3344
900.472	3287
900.591	3180
900.711	3298
900.83	3226
900.95	3374
901.069	3466
901.189	3325
901.308	3184
901.427	3100
901.546	3161
901.665	3272
901.784	3340
901.904	3203
902.023	3142
902.141	3013
902.26	3009
902.379	3104
902.498	3089
902.617	3081
902.735	3176
902.854	3222
902.973	3207
903.091	3058
903.21	3013
903.328	3077
903.446	3085
903.565	3131
903.683	3173
903.801	3154
903.919	3249
904.038	3264
904.156	3135
904.274	3256
904.392	3268
904.51	3253
904.627	3325
904.745	3401
904.863	3439
904.981	3233
905.098	3161
905.216	3230
905.334	3302
905.451	3306
905.569	3260
905.686	3409
905.803	3439
905.921	3249
906.038	3439
906.155	3397
906.272	3233
906.389	3306
906.506	3180
906.623	3241
906.74	3260
906.857	3169
906.974	3245
907.091	3386
907.208	3587
907.324	3439
907.441	3370
907.557	3199
907.674	3214
907.79	3199
907.907	3256
908.023	3355
908.139	3363
908.256	3332
908.372	3344
908.488	3340
908.604	3245
908.72	3279
908.836	3237
908.952	3272
909.068	3336
909.184	3447
909.3	3401
909.415	3473
909.531	3454
909.647	3279
909.762	3237
909.878	3249
909.993	3344
910.108	3321
910.224	3310
910.339	3370
910.454	3340
910.57	3253
910.685	3180
910.8	3561
910.915	3564
911.03	3397
911.145	3241
911.259	3268
911.374	3272
911.489	3222
911.604	3218
911.718	3138
911.833	3119
911.947	3047
912.062	3005
912.176	3184
912.291	3173
912.405	3211
912.519	3443
912.633	3469
912.748	3340
912.862	3294
912.976	3195
913.09	3074
913.204	3150
913.318	3226
913.431	3348
913.545	3351
913.659	3431
913.772	3374
913.886	3230
914	3176
914.113	3363
914.226	3435
914.34	3359
914.453	3245
914.566	3447
914.68	3310
914.793	3325
914.906	3203
915.019	3146
915.132	3104
915.245	3226
915.358	3233
915.47	3249
915.583	3294
915.696	3336
915.809	3439
915.921	3435
916.034	3294
916.146	3275
916.259	3237
916.371	3424
916.483	3428
916.595	3302
916.708	3401
916.82	3386
916.932	3355
917.044	3389
917.156	3386
917.268	3287
917.38	3378
917.491	3329
917.603	3412
917.715	3443
917.826	3473
917.938	3386
918.049	3294
918.161	3462
918.272	3614
918.384	3614
918.495	3519
918.606	3348
918.717	3310
918.828	3428
918.939	3466
919.05	3351
919.161	3454
919.272	3264
919.383	3306
919.494	3549
919.604	3682
919.715	3545
919.826	3462
919.936	3504
920.047	3671
920.157	3595
920.267	3800
920.378	3641
920.488	3591
920.598	3793
920.708	3994
920.818	3873
920.928	3831
921.038	4044
921.148	4025
921.258	3743
921.368	3675
921.477	3629
921.587	3606
921.697	3469
921.806	3660
921.916	3523
922.025	3405
922.134	3374
922.244	3348
922.353	3488
922.462	3264
922.571	3253
922.68	3199
922.789	3119
922.898	3192
923.007	3142
923.116	3233
923.224	3207
923.333	3230
923.442	3100
923.55	3165
923.659	3214
923.767	3245
923.876	3123
923.984	3275
924.092	3112
924.201	3245
924.309	3253
924.417	3275
924.525	3233
924.633	3268
924.741	4185
924.849	3058
924.956	3283
925.064	3119
925.172	3051
925.279	3135
925.387	3192
925.494	3222
925.602	3367
925.709	3317
925.816	3192
925.924	3313
926.031	3397
926.138	3313
926.245	3386
926.352	3287
926.459	3447
926.566	3481
926.673	3355
926.779	3298
926.886	3283
926.993	3188
927.099	3146
927.206	3157
927.312	3173
927.419	3249
927.525	3226
927.631	3291
927.737	3188
927.843	3165
927.95	3020
928.056	3161
928.162	3230
928.267	3272
928.373	3785
928.479	3313
928.585	3058
928.69	3264
928.796	3287
928.901	3180
929.007	3066
929.112	3218
929.218	3192
929.323	3165
929.428	3161
929.533	3355
929.638	3150
929.743	3211
929.848	3294
929.953	3214
930.058	3192
930.163	3062
930.267	3047
930.372	3203
930.477	3089
930.581	3370
930.685	3226
930.79	3089
930.894	3150
930.998	3123
931.103	3272
931.207	3017
931.311	2982
931.415	2952
931.519	2811
931.623	2826
