Data from test_V78500241_1628.txt Node
Date: Fri Mar 25 16:26:28 CST 2022
User: usil
Spectrometer: V785-0024
Trigger mode: 0
Integration Time (sec): 4.000000E-1
Scans to average: 1
Nonlinearity correction enabled: false
Boxcar width: 0
Storing dark spectrum: false
XAxis mode: Wavelengths
Number of Pixels in Spectrum: 1024
>>>>>Begin Spectral Data<<<<<
801.071	2876
801.214	2941
801.356	2834
801.499	2883
801.641	2883
801.783	2933
801.926	3081
802.068	2994
802.211	3005
802.353	3028
802.496	2960
802.638	2994
802.78	3036
802.923	3062
803.065	2994
803.208	2899
803.35	2956
803.492	2960
803.635	2899
803.777	2746
803.919	2880
804.061	3245
804.204	2944
804.346	2941
804.488	2887
804.63	2986
804.773	2872
804.915	2910
805.057	3100
805.199	2952
805.341	2982
805.483	3028
805.626	3020
805.768	2960
805.91	3100
806.052	3131
806.194	3051
806.336	3245
806.478	3058
806.62	2998
806.762	2990
806.904	3058
807.046	3176
807.188	2998
807.33	2941
807.472	3051
807.614	2933
807.756	3032
807.898	2963
808.04	2902
808.182	3020
808.324	3009
808.465	2941
808.607	2918
808.749	2811
808.891	2883
809.033	2990
809.174	3013
809.316	2925
809.458	2914
809.6	2792
809.741	2800
809.883	2785
810.025	2883
810.166	2906
810.308	2876
810.45	2899
810.591	2811
810.733	2785
810.875	2868
811.016	2819
811.158	2785
811.299	2849
811.441	2952
811.582	2952
811.724	2868
811.865	2834
812.007	2948
812.148	2902
812.29	2895
812.431	2929
812.573	2971
812.714	2982
812.855	3077
812.997	3081
813.138	3154
813.279	3055
813.421	2986
813.562	3028
813.703	2910
813.845	2883
813.986	2796
814.127	2773
814.268	2861
814.41	2845
814.551	2868
814.692	2895
814.833	2830
814.974	2944
815.115	2994
815.256	2868
815.397	2880
815.539	2876
815.68	2838
815.821	2834
815.962	2933
816.103	2948
816.244	2902
816.385	2925
816.526	3009
816.666	2963
816.807	2750
816.948	2906
817.089	2960
817.23	2868
817.371	2834
817.512	2830
817.653	2906
817.793	2883
817.934	2948
818.075	2994
818.216	2971
818.356	3070
818.497	2918
818.638	2788
818.778	2857
818.919	2838
819.06	2807
819.2	2910
819.341	2804
819.481	2792
819.622	2971
819.762	3116
819.903	3077
820.043	2952
820.184	2922
820.324	2941
820.465	3047
820.605	3036
820.746	3043
820.886	2994
821.026	3119
821.167	3184
821.307	3283
821.447	3329
821.588	3310
821.728	3192
821.868	3214
822.008	3093
822.149	3199
822.289	3275
822.429	3135
822.569	3112
822.709	3173
822.849	3039
822.99	3116
823.13	3154
823.27	3188
823.41	3093
823.55	3195
823.69	3176
823.83	3256
823.97	3127
824.11	2986
824.25	2994
824.389	3085
824.529	3131
824.669	3051
824.809	3222
824.949	3275
825.089	3241
825.228	3161
825.368	3009
825.508	2948
825.648	3020
825.787	3058
825.927	3039
826.067	2982
826.206	3020
826.346	3093
826.485	3173
826.625	3157
826.765	3317
826.904	3226
827.044	3036
827.183	2967
827.323	2876
827.462	3032
827.601	2960
827.741	2952
827.88	2979
828.02	2899
828.159	3005
828.298	3077
828.437	3157
828.577	3081
828.716	3264
828.855	3108
828.994	2952
829.134	2910
829.273	2956
829.412	2895
829.551	2887
829.69	2948
829.829	3017
829.968	3138
830.107	3017
830.246	2998
830.385	2948
830.524	2899
830.663	2849
830.802	2773
830.941	2697
831.08	2697
831.219	2773
831.357	2792
831.496	2975
831.635	2743
831.774	2670
831.913	2621
832.051	2575
832.19	2587
832.329	2731
832.467	2541
832.606	2511
832.744	2602
832.883	2610
833.022	2613
833.16	2678
833.299	2708
833.437	2705
833.576	2716
833.714	2735
833.852	2724
833.991	2800
834.129	2868
834.267	2857
834.406	2807
834.544	2895
834.682	2910
834.821	2895
834.959	3104
835.097	2929
835.235	3085
835.373	3077
835.511	3039
835.65	2986
835.788	3005
835.926	2880
836.064	2838
836.202	2826
836.34	3146
836.478	3157
836.615	3070
836.753	3192
836.891	3279
837.029	3157
837.167	3146
837.305	3089
837.443	3062
837.58	3020
837.718	3146
837.856	3081
837.993	3047
838.131	3112
838.269	3119
838.406	3119
838.544	3089
838.681	2971
838.819	2956
838.956	2819
839.094	2861
839.231	2948
839.369	3058
839.506	3382
839.643	3222
839.781	3036
839.918	3005
840.055	3089
840.193	3047
840.33	3062
840.467	3135
840.604	3169
840.742	3401
840.879	3085
841.016	3070
841.153	3131
841.29	3367
841.427	3287
841.564	3268
841.701	3348
841.838	3233
841.975	3188
842.112	3230
842.249	3119
842.385	3093
842.522	3306
842.659	3074
842.796	3058
842.933	3131
843.069	3066
843.206	3051
843.343	3207
843.479	3097
843.616	3161
843.752	2906
843.889	2902
844.025	3100
844.162	2895
844.298	3104
844.435	2975
844.571	2922
844.708	3039
844.844	3192
844.98	3256
845.117	3226
845.253	3081
845.389	2975
845.525	3150
845.661	3074
845.798	3032
845.934	3119
846.07	3070
846.206	3222
846.342	3351
846.478	3241
846.614	3127
846.75	3070
846.886	3047
847.022	3237
847.158	3146
847.294	3195
847.429	3275
847.565	3195
847.701	3515
847.837	3058
847.972	3028
848.108	3165
848.244	3142
848.379	2994
848.515	2979
848.65	2952
848.786	2986
848.921	3032
849.057	3116
849.192	3188
849.328	3093
849.463	3138
849.598	3070
849.734	3058
849.869	3047
850.004	2895
850.14	2960
850.275	2963
850.41	2830
850.545	2891
850.68	2918
850.815	2982
850.95	2960
851.085	3226
851.22	3127
851.355	3047
851.49	2998
851.625	3039
851.76	3028
851.895	2948
852.03	2937
852.165	3070
852.299	3146
852.434	3211
852.569	3154
852.703	3188
852.838	3264
852.973	3374
853.107	3317
853.242	3207
853.376	3108
853.511	2990
853.645	3036
853.78	3264
853.914	3138
854.048	3116
854.183	3077
854.317	3157
854.451	3317
854.585	3180
854.72	3058
854.854	3211
854.988	3066
855.122	3070
855.256	2967
855.39	3146
855.524	3272
855.658	3214
855.792	3142
855.926	3207
856.06	3211
856.194	3256
856.327	3146
856.461	3097
856.595	3058
856.729	3108
856.862	3207
856.996	3169
857.13	3165
857.263	3207
857.397	3302
857.53	3123
857.664	3214
857.797	3256
857.931	3272
858.064	3195
858.197	3230
858.331	3138
858.464	3093
858.597	2982
858.731	3116
858.864	3154
858.997	3077
859.13	3203
859.263	3192
859.396	3230
859.529	3081
859.662	3089
859.795	3055
859.928	3150
860.061	3264
860.194	3275
860.327	3173
860.46	3138
860.592	3211
860.725	3249
860.858	3283
860.99	3127
861.123	3062
861.256	3055
861.388	3154
861.521	3842
861.653	3020
861.786	3009
861.918	3009
862.05	3058
862.183	3093
862.315	3161
862.447	3218
862.58	3066
862.712	2933
862.844	2883
862.976	3020
863.108	3047
863.24	3336
863.372	2880
863.504	2986
863.636	2986
863.768	3051
863.9	2948
864.032	2899
864.164	2967
864.296	3032
864.428	3062
864.559	3089
864.691	3062
864.823	3070
864.954	2994
865.086	3058
865.217	2990
865.349	2971
865.48	3001
865.612	3047
865.743	3173
865.875	2956
866.006	2967
866.137	2990
866.269	2941
866.4	2963
866.531	2922
866.662	2906
866.793	2933
866.924	2910
867.055	2933
867.186	2929
867.317	2880
867.448	2838
867.579	2887
867.71	2849
867.841	2811
867.972	2937
868.103	2910
868.233	2891
868.364	2872
868.495	2895
868.625	3093
868.756	3154
868.886	2971
869.017	3032
869.147	3195
869.278	3184
869.408	3058
869.539	3077
869.669	3112
869.799	3017
869.929	3150
870.06	3097
870.19	3302
870.32	3283
870.45	3283
870.58	3397
870.71	3435
870.84	3473
870.97	3302
871.1	3268
871.23	3492
871.36	3507
871.489	3355
871.619	3409
871.749	3416
871.879	3447
872.008	3504
872.138	3412
872.267	3313
872.397	3135
872.526	3104
872.656	2963
872.785	3119
872.915	3233
873.044	3329
873.173	3253
873.303	3218
873.432	3272
873.561	3222
873.69	3161
873.819	3180
873.948	3176
874.077	3089
874.206	3055
874.335	3108
874.464	3184
874.593	3336
874.722	3230
874.851	3420
874.979	3317
875.108	3351
875.237	3184
875.365	3192
875.494	3135
875.623	3253
875.751	3108
875.88	3127
876.008	3195
876.136	3237
876.265	3378
876.393	3504
876.521	3435
876.65	3405
876.778	3336
876.906	3272
877.034	3188
877.162	3230
877.29	3203
877.418	3256
877.546	3230
877.674	3241
877.802	3253
877.93	3291
878.058	3157
878.185	3089
878.313	3272
878.441	3203
878.568	3085
878.696	3176
878.824	3249
878.951	3310
879.079	3454
879.206	3625
879.333	3450
879.461	3344
879.588	3359
879.715	3488
879.842	3618
879.97	3397
880.097	3157
880.224	3097
880.351	3180
880.478	3214
880.605	3211
880.732	3192
880.859	3496
880.986	3321
881.112	3317
881.239	3165
881.366	3135
881.493	3039
881.619	3020
881.746	3104
881.872	3119
881.999	3062
882.125	3176
882.252	3249
882.378	3344
882.505	3454
882.631	3237
882.757	3157
882.883	3214
883.01	3207
883.136	3188
883.262	3104
883.388	3119
883.514	3355
883.64	3313
883.766	3313
883.892	3195
884.018	3237
884.143	3416
884.269	3561
884.395	3195
884.52	3150
884.646	3176
884.772	3135
884.897	3100
885.023	3214
885.148	3317
885.274	3401
885.399	3355
885.524	3298
885.65	3268
885.775	3272
885.9	3291
886.025	3416
886.15	3382
886.275	3306
886.4	3218
886.525	3306
886.65	3272
886.775	3294
886.9	3542
887.025	3641
887.149	3443
887.274	3241
887.399	3203
887.523	3173
887.648	3173
887.773	3192
887.897	3359
888.021	3389
888.146	3275
888.27	3466
888.395	3564
888.519	3462
888.643	3424
888.767	3466
888.891	3332
889.015	3226
889.139	3298
889.263	3218
889.387	3435
889.511	3534
889.635	3481
889.759	3321
889.883	3336
890.006	3367
890.13	3496
890.254	3291
890.377	3382
890.501	3245
890.624	3230
890.748	3283
890.871	3180
890.995	3127
891.118	3070
891.241	3214
891.364	3161
891.488	3344
891.611	3154
891.734	3214
891.857	3279
891.98	3245
892.103	3317
892.226	3279
892.349	3207
892.471	3119
892.594	3283
892.717	3268
892.839	3253
892.962	3310
893.085	3374
893.207	3291
893.33	3184
893.452	3237
893.575	3348
893.697	3294
893.819	3488
893.941	3504
894.064	3431
894.186	3283
894.308	3245
894.43	3462
894.552	3542
894.674	3485
894.796	3268
894.918	3302
895.04	3294
895.161	3431
895.283	3409
895.405	3313
895.526	3359
895.648	3405
895.769	3409
895.891	3428
896.012	3500
896.134	3469
896.255	3420
896.376	3412
896.498	3363
896.619	3447
896.74	3294
896.861	3389
896.982	3690
897.103	3869
897.224	3591
897.345	3504
897.466	3431
897.587	3481
897.708	3625
897.828	3561
897.949	3458
898.07	3332
898.19	3382
898.311	3614
898.431	3450
898.552	3481
898.672	3622
898.792	3576
898.913	3538
899.033	3412
899.153	3260
899.273	3226
899.393	3283
899.513	3325
899.633	3317
899.753	3344
899.873	3325
899.993	3401
900.113	3344
900.232	3340
900.352	3336
900.472	3287
900.591	3211
900.711	3275
900.83	3214
900.95	3420
901.069	3488
901.189	3378
901.308	3142
901.427	3116
901.546	3184
901.665	3287
901.784	3363
901.904	3237
902.023	3154
902.141	3005
902.26	2979
902.379	3138
902.498	3089
902.617	3066
902.735	3226
902.854	3233
902.973	3192
903.091	3036
903.21	3077
903.328	3154
903.446	3089
903.565	3093
903.683	3173
903.801	3119
903.919	3256
904.038	3329
904.156	3192
904.274	3256
904.392	3260
904.51	3283
904.627	3344
904.745	3378
904.863	3511
904.981	3222
905.098	3180
905.216	3233
905.334	3272
905.451	3291
905.569	3306
905.686	3439
905.803	3428
905.921	3283
906.038	3401
906.155	3348
906.272	3222
906.389	3340
906.506	3203
906.623	3287
906.74	3275
906.857	3173
906.974	3260
907.091	3443
907.208	3568
907.324	3488
907.441	3405
907.557	3260
907.674	3245
907.79	3226
907.907	3287
908.023	3405
908.139	3363
908.256	3317
908.372	3325
908.488	3363
908.604	3256
908.72	3218
908.836	3279
908.952	3294
909.068	3317
909.184	3439
909.3	3393
909.415	3523
909.531	3507
909.647	3245
909.762	3344
909.878	3237
909.993	3367
910.108	3344
910.224	3306
910.339	3393
910.454	3348
910.57	3294
910.685	3264
910.8	3584
910.915	3534
911.03	3416
911.145	3283
911.259	3287
911.374	3336
911.489	3211
911.604	3233
911.718	3119
911.833	3165
911.947	3036
912.062	2975
912.176	3169
912.291	3218
912.405	3230
912.519	3397
912.633	3469
912.748	3336
912.862	3291
912.976	3173
913.09	3089
913.204	3112
913.318	3222
913.431	3302
913.545	3340
913.659	3431
913.772	3336
913.886	3241
914	3180
914.113	3363
914.226	3435
914.34	3367
914.453	3211
914.566	3435
914.68	3287
914.793	3294
914.906	3146
915.019	3154
915.132	3020
915.245	3154
915.358	3211
915.47	3241
915.583	3283
915.696	3294
915.809	3431
915.921	3420
916.034	3245
916.146	3222
916.259	3253
916.371	3363
916.483	3374
916.595	3256
916.708	3310
916.82	3370
916.932	3340
917.044	3310
917.156	3355
917.268	3230
917.38	3302
917.491	3310
917.603	3367
917.715	3424
917.826	3496
917.938	3397
918.049	3272
918.161	3420
918.272	3534
918.384	3584
918.495	3488
918.606	3310
918.717	3287
918.828	3428
918.939	3378
919.05	3298
919.161	3367
919.272	3199
919.383	3272
919.494	3450
919.604	3682
919.715	3481
919.826	3416
919.936	3447
920.047	3542
920.157	3553
920.267	3732
920.378	3595
920.488	3557
920.598	3804
920.708	3956
920.818	3797
920.928	3831
921.038	4044
921.148	3987
921.258	3740
921.368	3641
921.477	3538
921.587	3507
921.697	3469
921.806	3599
921.916	3511
922.025	3344
922.134	3370
922.244	3370
922.353	3389
922.462	3268
922.571	3222
922.68	3135
922.789	3085
922.898	3108
923.007	3093
923.116	3192
923.224	3135
923.333	3165
923.442	3108
923.55	3074
923.659	3127
923.767	3230
923.876	3116
923.984	3241
924.092	3066
924.201	3180
924.309	3169
924.417	3211
924.525	3211
924.633	3275
924.741	4177
924.849	3024
924.956	3287
925.064	3089
925.172	3058
925.279	3077
925.387	3214
925.494	3233
925.602	3355
925.709	3348
925.816	3180
925.924	3237
926.031	3355
926.138	3344
926.245	3348
926.352	3253
926.459	3412
926.566	3462
926.673	3317
926.779	3275
926.886	3249
926.993	3169
927.099	3138
927.206	3100
927.312	3123
927.419	3237
927.525	3237
927.631	3272
927.737	3127
927.843	3077
927.95	3051
928.056	3154
928.162	3207
928.267	3237
928.373	3865
928.479	3298
928.585	3055
928.69	3199
928.796	3272
928.901	3165
929.007	3081
929.112	3214
929.218	3184
929.323	3112
929.428	3146
929.533	3317
929.638	3123
929.743	3176
929.848	3260
929.953	3180
930.058	3131
930.163	3024
930.267	3070
930.372	3214
930.477	3036
930.581	3310
930.685	3188
930.79	3032
930.894	3127
930.998	3085
931.103	3287
931.207	2971
931.311	2963
931.415	2956
931.519	2773
931.623	2826
