Data from test_V78500241_419.txt Node
Date: Fri Mar 25 16:18:06 CST 2022
User: usil
Spectrometer: V785-0024
Trigger mode: 0
Integration Time (sec): 4.000000E-1
Scans to average: 1
Nonlinearity correction enabled: false
Boxcar width: 0
Storing dark spectrum: false
XAxis mode: Wavelengths
Number of Pixels in Spectrum: 1024
>>>>>Begin Spectral Data<<<<<
801.071	2952
801.214	2963
801.356	2883
801.499	2925
801.641	2902
801.783	2952
801.926	3062
802.068	3009
802.211	3024
802.353	3043
802.496	2963
802.638	3009
802.78	3089
802.923	3081
803.065	3017
803.208	2922
803.35	2948
803.492	2963
803.635	2963
803.777	2777
803.919	2864
804.061	3195
804.204	2941
804.346	2914
804.488	2849
804.63	2979
804.773	2910
804.915	2902
805.057	3089
805.199	2952
805.341	3001
805.483	3043
805.626	2998
805.768	2998
805.91	3108
806.052	3097
806.194	3062
806.336	3260
806.478	3043
806.62	2975
806.762	2948
806.904	3070
807.046	3154
807.188	3017
807.33	2910
807.472	2998
807.614	2944
807.756	2998
807.898	2963
808.04	2929
808.182	2956
808.324	2998
808.465	2902
808.607	2872
808.749	2838
808.891	2834
809.033	3001
809.174	2998
809.316	2861
809.458	2922
809.6	2785
809.741	2788
809.883	2773
810.025	2853
810.166	2895
810.308	2857
810.45	2895
810.591	2785
810.733	2773
810.875	2853
811.016	2788
811.158	2792
811.299	2815
811.441	2891
811.582	2902
811.724	2853
811.865	2842
812.007	2929
812.148	2876
812.29	2849
812.431	2929
812.573	2963
812.714	3001
812.855	3047
812.997	3066
813.138	3135
813.279	3043
813.421	2979
813.562	2956
813.703	2876
813.845	2895
813.986	2819
814.127	2769
814.268	2838
814.41	2842
814.551	2823
814.692	2887
814.833	2830
814.974	2868
815.115	2971
815.256	2853
815.397	2861
815.539	2861
815.68	2773
815.821	2800
815.962	2933
816.103	2956
816.244	2883
816.385	2876
816.526	2982
816.666	2914
816.807	2754
816.948	2845
817.089	2948
817.23	2864
817.371	2800
817.512	2796
817.653	2853
817.793	2811
817.934	2891
818.075	2967
818.216	2967
818.356	3013
818.497	2906
818.638	2819
818.778	2849
818.919	2800
819.06	2766
819.2	2910
819.341	2826
819.481	2834
819.622	2941
819.762	3081
819.903	3039
820.043	2918
820.184	2933
820.324	2922
820.465	3043
820.605	3024
820.746	3036
820.886	2899
821.026	3119
821.167	3161
821.307	3268
821.447	3302
821.588	3226
821.728	3192
821.868	3230
822.008	3097
822.149	3222
822.289	3207
822.429	3100
822.569	3081
822.709	3211
822.849	3051
822.99	3070
823.13	3154
823.27	3195
823.41	3112
823.55	3169
823.69	3176
823.83	3199
823.97	3104
824.11	3036
824.25	3009
824.389	3055
824.529	3150
824.669	3085
824.809	3180
824.949	3249
825.089	3233
825.228	3180
825.368	2990
825.508	2967
825.648	2975
825.787	3013
825.927	3055
826.067	3013
826.206	2986
826.346	3074
826.485	3032
826.625	3116
826.765	3256
826.904	3211
827.044	2975
827.183	2937
827.323	2872
827.462	2967
827.601	2899
827.741	2918
827.88	2975
828.02	2876
828.159	2967
828.298	3062
828.437	3116
828.577	3032
828.716	3268
828.855	3104
828.994	2933
829.134	2887
829.273	2956
829.412	2914
829.551	2876
829.69	2922
829.829	2998
829.968	3104
830.107	3024
830.246	3032
830.385	2922
830.524	2914
830.663	2838
830.802	2746
830.941	2674
831.08	2640
831.219	2781
831.357	2781
831.496	2971
831.635	2739
831.774	2648
831.913	2670
832.051	2564
832.19	2575
832.329	2659
832.467	2579
832.606	2480
832.744	2602
832.883	2587
833.022	2590
833.16	2651
833.299	2670
833.437	2655
833.576	2697
833.714	2720
833.852	2731
833.991	2777
834.129	2834
834.267	2838
834.406	2785
834.544	2883
834.682	2876
834.821	2883
834.959	3066
835.097	2918
835.235	3074
835.373	2975
835.511	3013
835.65	2960
835.788	2948
835.926	2826
836.064	2838
836.202	2887
836.34	3089
836.478	3169
836.615	3039
836.753	3157
836.891	3226
837.029	3195
837.167	3138
837.305	3051
837.443	3070
837.58	2963
837.718	3142
837.856	3093
837.993	3005
838.131	3108
838.269	3142
838.406	3062
838.544	3081
838.681	2933
838.819	2914
838.956	2800
839.094	2857
839.231	2937
839.369	3036
839.506	3351
839.643	3195
839.781	3013
839.918	2971
840.055	3047
840.193	3093
840.33	3039
840.467	3104
840.604	3165
840.742	3393
840.879	3043
841.016	3066
841.153	3100
841.29	3317
841.427	3370
841.564	3268
841.701	3359
841.838	3214
841.975	3176
842.112	3192
842.249	3123
842.385	3081
842.522	3233
842.659	3112
842.796	3062
842.933	3142
843.069	3032
843.206	3058
843.343	3203
843.479	3131
843.616	3138
843.752	2899
843.889	2891
844.025	3062
844.162	2910
844.298	3100
844.435	2929
844.571	2910
844.708	3062
844.844	3195
844.98	3207
845.117	3188
845.253	3036
845.389	2990
845.525	3100
845.661	3097
845.798	3032
845.934	3119
846.07	3058
846.206	3245
846.342	3329
846.478	3226
846.614	3070
846.75	3089
846.886	3017
847.022	3222
847.158	3150
847.294	3184
847.429	3245
847.565	3192
847.701	3488
847.837	3051
847.972	3009
848.108	3173
848.244	3161
848.379	3005
848.515	2971
848.65	2948
848.786	2979
848.921	3032
849.057	3119
849.192	3154
849.328	3074
849.463	3131
849.598	3089
849.734	3043
849.869	2952
850.004	2899
850.14	3017
850.275	2925
850.41	2819
850.545	2887
850.68	2918
850.815	2937
850.95	2986
851.085	3203
851.22	3100
851.355	3020
851.49	2925
851.625	2979
851.76	3017
851.895	2941
852.03	2895
852.165	3036
852.299	3127
852.434	3184
852.569	3173
852.703	3161
852.838	3249
852.973	3344
853.107	3325
853.242	3123
853.376	3112
853.511	2944
853.645	3100
853.78	3249
853.914	3123
854.048	3089
854.183	3051
854.317	3165
854.451	3264
854.585	3116
854.72	3085
854.854	3176
854.988	3074
855.122	3112
855.256	2979
855.39	3089
855.524	3237
855.658	3142
855.792	3131
855.926	3180
856.06	3211
856.194	3256
856.327	3184
856.461	3047
856.595	3081
856.729	3077
856.862	3233
856.996	3161
857.13	3207
857.263	3249
857.397	3291
857.53	3135
857.664	3211
857.797	3233
857.931	3268
858.064	3207
858.197	3226
858.331	3127
858.464	3097
858.597	3017
858.731	3108
858.864	3127
858.997	3085
859.13	3176
859.263	3138
859.396	3195
859.529	3070
859.662	3085
859.795	3047
859.928	3146
860.061	3283
860.194	3294
860.327	3184
860.46	3116
860.592	3237
860.725	3268
860.858	3283
860.99	3112
861.123	3055
861.256	3047
861.388	3127
861.521	3945
861.653	3009
861.786	2975
861.918	3001
862.05	3055
862.183	3112
862.315	3142
862.447	3192
862.58	3116
862.712	2956
862.844	2880
862.976	3009
863.108	2979
863.24	3310
863.372	2868
863.504	2960
863.636	2925
863.768	3017
863.9	3009
864.032	2899
864.164	2963
864.296	2979
864.428	3081
864.559	3070
864.691	3108
864.823	3039
864.954	3036
865.086	3036
865.217	2960
865.349	2941
865.48	3009
865.612	3036
865.743	3157
865.875	2979
866.006	2933
866.137	2982
866.269	2952
866.4	2925
866.531	2883
866.662	2872
866.793	2876
866.924	2887
867.055	2982
867.186	2899
867.317	2861
867.448	2853
867.579	2861
867.71	2853
867.841	2842
867.972	2914
868.103	2910
868.233	2838
868.364	2872
868.495	2891
868.625	3058
868.756	3169
868.886	2982
869.017	3024
869.147	3188
869.278	3135
869.408	3005
869.539	3070
869.669	3123
869.799	3039
869.929	3157
870.06	3116
870.19	3313
870.32	3268
870.45	3329
870.58	3367
870.71	3454
870.84	3473
870.97	3298
871.1	3211
871.23	3507
871.36	3458
871.489	3348
871.619	3416
871.749	3393
871.879	3412
872.008	3496
872.138	3306
872.267	3256
872.397	3146
872.526	3146
872.656	2994
872.785	3100
872.915	3195
873.044	3306
873.173	3222
873.303	3272
873.432	3230
873.561	3260
873.69	3165
873.819	3169
873.948	3173
874.077	3123
874.206	3043
874.335	3081
874.464	3199
874.593	3325
874.722	3207
874.851	3344
874.979	3351
875.108	3329
875.237	3184
875.365	3188
875.494	3161
875.623	3245
875.751	3070
875.88	3116
876.008	3192
876.136	3268
876.265	3344
876.393	3500
876.521	3416
876.65	3397
876.778	3329
876.906	3233
877.034	3214
877.162	3230
877.29	3165
877.418	3294
877.546	3283
877.674	3253
877.802	3218
877.93	3249
878.058	3131
878.185	3089
878.313	3195
878.441	3184
878.568	3051
878.696	3131
878.824	3294
878.951	3306
879.079	3458
879.206	3610
879.333	3439
879.461	3355
879.588	3363
879.715	3420
879.842	3584
879.97	3386
880.097	3173
880.224	3150
880.351	3203
880.478	3195
880.605	3207
880.732	3199
880.859	3511
880.986	3294
881.112	3298
881.239	3207
881.366	3104
881.493	3039
881.619	3001
881.746	3039
881.872	3074
881.999	3100
882.125	3138
882.252	3214
882.378	3287
882.505	3450
882.631	3264
882.757	3165
882.883	3203
883.01	3226
883.136	3161
883.262	3081
883.388	3131
883.514	3348
883.64	3363
883.766	3291
883.892	3203
884.018	3237
884.143	3386
884.269	3507
884.395	3195
884.52	3127
884.646	3199
884.772	3100
884.897	3104
885.023	3199
885.148	3332
885.274	3435
885.399	3344
885.524	3287
885.65	3241
885.775	3317
885.9	3260
886.025	3431
886.15	3336
886.275	3264
886.4	3230
886.525	3329
886.65	3233
886.775	3272
886.9	3469
887.025	3587
887.149	3397
887.274	3287
887.399	3146
887.523	3230
887.648	3199
887.773	3203
887.897	3382
888.021	3378
888.146	3279
888.27	3420
888.395	3526
888.519	3439
888.643	3439
888.767	3435
888.891	3279
889.015	3260
889.139	3302
889.263	3256
889.387	3424
889.511	3488
889.635	3431
889.759	3298
889.883	3298
890.006	3389
890.13	3504
890.254	3275
890.377	3340
890.501	3241
890.624	3207
890.748	3313
890.871	3131
890.995	3127
891.118	3043
891.241	3142
891.364	3222
891.488	3321
891.611	3161
891.734	3211
891.857	3287
891.98	3283
892.103	3317
892.226	3260
892.349	3237
892.471	3100
892.594	3268
892.717	3264
892.839	3294
892.962	3287
893.085	3317
893.207	3287
893.33	3123
893.452	3192
893.575	3336
893.697	3230
893.819	3458
893.941	3511
894.064	3428
894.186	3249
894.308	3272
894.43	3439
894.552	3538
894.674	3458
894.796	3298
894.918	3321
895.04	3256
895.161	3454
895.283	3401
895.405	3294
895.526	3344
895.648	3435
895.769	3374
895.891	3454
896.012	3469
896.134	3485
896.255	3389
896.376	3393
896.498	3355
896.619	3416
896.74	3389
896.861	3416
896.982	3656
897.103	3827
897.224	3553
897.345	3488
897.466	3424
897.587	3485
897.708	3644
897.828	3545
897.949	3450
898.07	3298
898.19	3382
898.311	3614
898.431	3435
898.552	3511
898.672	3580
898.792	3538
898.913	3515
899.033	3431
899.153	3291
899.273	3214
899.393	3245
899.513	3310
899.633	3306
899.753	3363
899.873	3287
899.993	3363
900.113	3359
900.232	3386
900.352	3340
900.472	3306
900.591	3226
900.711	3329
900.83	3214
900.95	3389
901.069	3485
901.189	3317
901.308	3207
901.427	3154
901.546	3214
901.665	3317
901.784	3340
901.904	3188
902.023	3161
902.141	3017
902.26	2967
902.379	3123
902.498	3085
902.617	3043
902.735	3173
902.854	3233
902.973	3161
903.091	3020
903.21	3043
903.328	3081
903.446	3074
903.565	3100
903.683	3188
903.801	3123
903.919	3253
904.038	3283
904.156	3157
904.274	3268
904.392	3245
904.51	3253
904.627	3344
904.745	3439
904.863	3481
904.981	3279
905.098	3176
905.216	3233
905.334	3317
905.451	3264
905.569	3291
905.686	3389
905.803	3409
905.921	3279
906.038	3416
906.155	3359
906.272	3256
906.389	3332
906.506	3249
906.623	3268
906.74	3253
906.857	3169
906.974	3241
907.091	3439
907.208	3553
907.324	3409
907.441	3416
907.557	3211
907.674	3218
907.79	3184
907.907	3241
908.023	3344
908.139	3306
908.256	3291
908.372	3351
908.488	3359
908.604	3233
908.72	3241
908.836	3275
908.952	3294
909.068	3336
909.184	3477
909.3	3378
909.415	3481
909.531	3538
909.647	3218
909.762	3283
909.878	3256
909.993	3382
910.108	3321
910.224	3321
910.339	3401
910.454	3298
910.57	3268
910.685	3222
910.8	3580
910.915	3542
911.03	3409
911.145	3294
911.259	3245
911.374	3302
911.489	3237
911.604	3199
911.718	3157
911.833	3142
911.947	3032
912.062	3024
912.176	3161
912.291	3214
912.405	3192
912.519	3424
912.633	3458
912.748	3351
912.862	3253
912.976	3146
913.09	3058
913.204	3161
913.318	3230
913.431	3332
913.545	3294
913.659	3447
913.772	3298
913.886	3218
914	3222
914.113	3363
914.226	3401
914.34	3351
914.453	3237
914.566	3409
914.68	3306
914.793	3317
914.906	3176
915.019	3116
915.132	3089
915.245	3176
915.358	3192
915.47	3214
915.583	3260
915.696	3275
915.809	3409
915.921	3409
916.034	3272
916.146	3245
916.259	3218
916.371	3428
916.483	3355
916.595	3279
916.708	3344
916.82	3336
916.932	3298
917.044	3355
917.156	3351
917.268	3275
917.38	3310
917.491	3279
917.603	3329
917.715	3458
917.826	3462
917.938	3359
918.049	3279
918.161	3416
918.272	3580
918.384	3568
918.495	3515
918.606	3374
918.717	3264
918.828	3409
918.939	3405
919.05	3306
919.161	3355
919.272	3157
919.383	3275
919.494	3519
919.604	3656
919.715	3485
919.826	3412
919.936	3450
920.047	3572
920.157	3530
920.267	3770
920.378	3614
920.488	3587
920.598	3774
920.708	3941
920.818	3800
920.928	3819
921.038	4025
921.148	3960
921.258	3701
921.368	3610
921.477	3599
921.587	3587
921.697	3454
921.806	3625
921.916	3500
922.025	3332
922.134	3329
922.244	3306
922.353	3424
922.462	3287
922.571	3241
922.68	3127
922.789	3028
922.898	3112
923.007	3097
923.116	3184
923.224	3165
923.333	3192
923.442	3108
923.55	3074
923.659	3108
923.767	3184
923.876	3119
923.984	3226
924.092	3097
924.201	3188
924.309	3192
924.417	3203
924.525	3165
924.633	3199
924.741	4162
924.849	3039
924.956	3298
925.064	3100
925.172	3017
925.279	3047
925.387	3138
925.494	3207
925.602	3382
925.709	3363
925.816	3192
925.924	3253
926.031	3401
926.138	3321
926.245	3374
926.352	3287
926.459	3382
926.566	3443
926.673	3344
926.779	3233
926.886	3249
926.993	3138
927.099	3116
927.206	3142
927.312	3108
927.419	3218
927.525	3192
927.631	3291
927.737	3119
927.843	3100
927.95	3055
928.056	3123
928.162	3169
928.267	3268
928.373	3876
928.479	3272
928.585	3081
928.69	3233
928.796	3302
928.901	3184
929.007	3100
929.112	3180
929.218	3161
929.323	3104
929.428	3154
929.533	3317
929.638	3062
929.743	3188
929.848	3260
929.953	3195
930.058	3127
930.163	3001
930.267	3028
930.372	3195
930.477	3039
930.581	3321
930.685	3150
930.79	3062
930.894	3104
930.998	3085
931.103	3291
931.207	2975
931.311	2944
931.415	2906
931.519	2766
931.623	2788
