Data from test_V78500241_1688.txt Node
Date: Fri Mar 25 16:26:53 CST 2022
User: usil
Spectrometer: V785-0024
Trigger mode: 0
Integration Time (sec): 4.000000E-1
Scans to average: 1
Nonlinearity correction enabled: false
Boxcar width: 0
Storing dark spectrum: false
XAxis mode: Wavelengths
Number of Pixels in Spectrum: 1024
>>>>>Begin Spectral Data<<<<<
801.071	2956
801.214	2914
801.356	2849
801.499	2937
801.641	2906
801.783	2948
801.926	3055
802.068	2982
802.211	2986
802.353	3032
802.496	2979
802.638	3020
802.78	3032
802.923	3074
803.065	3017
803.208	2883
803.35	2941
803.492	2960
803.635	2944
803.777	2785
803.919	2872
804.061	3199
804.204	2944
804.346	2910
804.488	2864
804.63	3013
804.773	2883
804.915	2914
805.057	3085
805.199	2941
805.341	2998
805.483	3043
805.626	3017
805.768	2960
805.91	3108
806.052	3104
806.194	3017
806.336	3249
806.478	3051
806.62	2967
806.762	2975
806.904	3066
807.046	3173
807.188	3001
807.33	2918
807.472	3005
807.614	2914
807.756	3013
807.898	2891
808.04	2902
808.182	2967
808.324	2975
808.465	2899
808.607	2883
808.749	2815
808.891	2830
809.033	2967
809.174	2971
809.316	2914
809.458	2876
809.6	2750
809.741	2781
809.883	2796
810.025	2853
810.166	2895
810.308	2853
810.45	2864
810.591	2781
810.733	2792
810.875	2876
811.016	2773
811.158	2788
811.299	2823
811.441	2937
811.582	2876
811.724	2857
811.865	2838
812.007	2910
812.148	2895
812.29	2880
812.431	2887
812.573	2929
812.714	2956
812.855	3066
812.997	3066
813.138	3138
813.279	2994
813.421	3009
813.562	2925
813.703	2895
813.845	2902
813.986	2766
814.127	2708
814.268	2838
814.41	2838
814.551	2830
814.692	2883
814.833	2842
814.974	2895
815.115	2948
815.256	2853
815.397	2838
815.539	2872
815.68	2769
815.821	2819
815.962	2937
816.103	2918
816.244	2899
816.385	2899
816.526	2963
816.666	2887
816.807	2762
816.948	2887
817.089	2929
817.23	2861
817.371	2785
817.512	2804
817.653	2830
817.793	2807
817.934	2899
818.075	2982
818.216	2963
818.356	3047
818.497	2899
818.638	2766
818.778	2826
818.919	2823
819.06	2758
819.2	2880
819.341	2800
819.481	2788
819.622	2937
819.762	3074
819.903	3062
820.043	2944
820.184	2906
820.324	2895
820.465	3017
820.605	3036
820.746	3051
820.886	2910
821.026	3089
821.167	3142
821.307	3256
821.447	3268
821.588	3230
821.728	3211
821.868	3203
822.008	3077
822.149	3173
822.289	3256
822.429	3066
822.569	3081
822.709	3138
822.849	3024
822.99	3066
823.13	3188
823.27	3226
823.41	3146
823.55	3131
823.69	3154
823.83	3188
823.97	3116
824.11	3013
824.25	3009
824.389	3032
824.529	3108
824.669	3055
824.809	3230
824.949	3272
825.089	3218
825.228	3161
825.368	3032
825.508	2948
825.648	2986
825.787	3017
825.927	2998
826.067	2960
826.206	2948
826.346	3017
826.485	3047
826.625	3119
826.765	3260
826.904	3226
827.044	2994
827.183	2956
827.323	2895
827.462	2971
827.601	2891
827.741	2971
827.88	2982
828.02	2853
828.159	3005
828.298	3039
828.437	3123
828.577	3047
828.716	3245
828.855	3077
828.994	2914
829.134	2895
829.273	2929
829.412	2880
829.551	2849
829.69	2902
829.829	2979
829.968	3138
830.107	2986
830.246	3028
830.385	2902
830.524	2914
830.663	2830
830.802	2750
830.941	2632
831.08	2651
831.219	2739
831.357	2762
831.496	2994
831.635	2716
831.774	2667
831.913	2640
832.051	2545
832.19	2545
832.329	2689
832.467	2522
832.606	2495
832.744	2583
832.883	2583
833.022	2606
833.16	2663
833.299	2693
833.437	2678
833.576	2708
833.714	2701
833.852	2746
833.991	2796
834.129	2838
834.267	2838
834.406	2807
834.544	2872
834.682	2887
834.821	2857
834.959	3058
835.097	2887
835.235	3058
835.373	2979
835.511	3020
835.65	2956
835.788	2956
835.926	2826
836.064	2826
836.202	2876
836.34	3093
836.478	3146
836.615	3039
836.753	3138
836.891	3233
837.029	3138
837.167	3123
837.305	3043
837.443	3028
837.58	2937
837.718	3123
837.856	3058
837.993	3024
838.131	3116
838.269	3074
838.406	3123
838.544	3097
838.681	2937
838.819	2914
838.956	2826
839.094	2845
839.231	2925
839.369	2971
839.506	3401
839.643	3218
839.781	3017
839.918	2956
840.055	3058
840.193	3058
840.33	3070
840.467	3055
840.604	3169
840.742	3428
840.879	3047
841.016	3066
841.153	3112
841.29	3344
841.427	3283
841.564	3249
841.701	3367
841.838	3237
841.975	3127
842.112	3176
842.249	3077
842.385	3020
842.522	3237
842.659	3104
842.796	3085
842.933	3070
843.069	3043
843.206	3032
843.343	3207
843.479	3081
843.616	3104
843.752	2864
843.889	2861
844.025	3051
844.162	2895
844.298	3039
844.435	2960
844.571	2910
844.708	3036
844.844	3203
844.98	3230
845.117	3203
845.253	3047
845.389	3005
845.525	3085
845.661	3089
845.798	3017
845.934	3116
846.07	3062
846.206	3230
846.342	3268
846.478	3188
846.614	3104
846.75	3055
846.886	3005
847.022	3264
847.158	3154
847.294	3211
847.429	3279
847.565	3233
847.701	3477
847.837	3043
847.972	2998
848.108	3161
848.244	3097
848.379	2975
848.515	2941
848.65	2929
848.786	2956
848.921	3009
849.057	3055
849.192	3154
849.328	3047
849.463	3081
849.598	3066
849.734	3036
849.869	2971
850.004	2914
850.14	2998
850.275	2899
850.41	2804
850.545	2853
850.68	2918
850.815	2956
850.95	2986
851.085	3150
851.22	3085
851.355	3028
851.49	3005
851.625	2967
851.76	3017
851.895	2925
852.03	2891
852.165	3032
852.299	3100
852.434	3165
852.569	3123
852.703	3161
852.838	3230
852.973	3325
853.107	3329
853.242	3165
853.376	3097
853.511	2910
853.645	3047
853.78	3237
853.914	3104
854.048	3127
854.183	3066
854.317	3157
854.451	3302
854.585	3123
854.72	3097
854.854	3214
854.988	3074
855.122	3062
855.256	3001
855.39	3104
855.524	3275
855.658	3169
855.792	3116
855.926	3188
856.06	3222
856.194	3272
856.327	3146
856.461	3093
856.595	3112
856.729	3116
856.862	3169
856.996	3157
857.13	3199
857.263	3218
857.397	3218
857.53	3116
857.664	3253
857.797	3249
857.931	3294
858.064	3176
858.197	3233
858.331	3127
858.464	3089
858.597	3047
858.731	3119
858.864	3108
858.997	3100
859.13	3138
859.263	3127
859.396	3184
859.529	3043
859.662	3062
859.795	3051
859.928	3135
860.061	3256
860.194	3264
860.327	3127
860.46	3085
860.592	3226
860.725	3237
860.858	3256
860.99	3077
861.123	3077
861.256	3039
861.388	3165
861.521	3861
861.653	2994
861.786	2967
861.918	2960
862.05	3058
862.183	3055
862.315	3161
862.447	3211
862.58	3062
862.712	2937
862.844	2838
862.976	3013
863.108	3001
863.24	3405
863.372	2922
863.504	2952
863.636	2982
863.768	3032
863.9	2941
864.032	2922
864.164	2937
864.296	3009
864.428	3100
864.559	3089
864.691	3077
864.823	3032
864.954	3028
865.086	3028
865.217	3020
865.349	2944
865.48	2994
865.612	3005
865.743	3142
865.875	2956
866.006	2979
866.137	2952
866.269	2944
866.4	2906
866.531	2914
866.662	2868
866.793	2849
866.924	2857
867.055	3013
867.186	2872
867.317	2853
867.448	2819
867.579	2823
867.71	2830
867.841	2811
867.972	2880
868.103	2895
868.233	2906
868.364	2864
868.495	2880
868.625	3062
868.756	3157
868.886	2944
869.017	3028
869.147	3165
869.278	3127
869.408	3062
869.539	2986
869.669	3081
869.799	3051
869.929	3100
870.06	3119
870.19	3241
870.32	3294
870.45	3287
870.58	3393
870.71	3416
870.84	3439
870.97	3264
871.1	3218
871.23	3488
871.36	3473
871.489	3363
871.619	3374
871.749	3397
871.879	3439
872.008	3511
872.138	3325
872.267	3283
872.397	3119
872.526	3093
872.656	3055
872.785	3119
872.915	3260
873.044	3310
873.173	3192
873.303	3260
873.432	3268
873.561	3245
873.69	3154
873.819	3150
873.948	3165
874.077	3093
874.206	3047
874.335	3070
874.464	3226
874.593	3344
874.722	3226
874.851	3363
874.979	3332
875.108	3298
875.237	3214
875.365	3157
875.494	3169
875.623	3260
875.751	3043
875.88	3100
876.008	3211
876.136	3256
876.265	3382
876.393	3473
876.521	3382
876.65	3401
876.778	3355
876.906	3256
877.034	3230
877.162	3214
877.29	3138
877.418	3245
877.546	3245
877.674	3264
877.802	3211
877.93	3203
878.058	3154
878.185	3108
878.313	3195
878.441	3226
878.568	3066
878.696	3150
878.824	3249
878.951	3302
879.079	3405
879.206	3614
879.333	3424
879.461	3348
879.588	3351
879.715	3458
879.842	3576
879.97	3412
880.097	3203
880.224	3150
880.351	3195
880.478	3237
880.605	3169
880.732	3150
880.859	3462
880.986	3268
881.112	3336
881.239	3214
881.366	3081
881.493	3020
881.619	3036
881.746	3055
881.872	3077
881.999	3119
882.125	3154
882.252	3253
882.378	3283
882.505	3420
882.631	3241
882.757	3112
882.883	3214
883.01	3211
883.136	3154
883.262	3066
883.388	3116
883.514	3325
883.64	3382
883.766	3275
883.892	3203
884.018	3245
884.143	3389
884.269	3580
884.395	3218
884.52	3173
884.646	3180
884.772	3127
884.897	3089
885.023	3214
885.148	3355
885.274	3405
885.399	3374
885.524	3249
885.65	3226
885.775	3313
885.9	3283
886.025	3435
886.15	3374
886.275	3313
886.4	3279
886.525	3272
886.65	3275
886.775	3283
886.9	3500
887.025	3595
887.149	3378
887.274	3233
887.399	3154
887.523	3230
887.648	3214
887.773	3165
887.897	3378
888.021	3359
888.146	3249
888.27	3393
888.395	3557
888.519	3416
888.643	3431
888.767	3477
888.891	3310
889.015	3237
889.139	3302
889.263	3207
889.387	3397
889.511	3496
889.635	3454
889.759	3291
889.883	3279
890.006	3401
890.13	3469
890.254	3287
890.377	3367
890.501	3207
890.624	3192
890.748	3298
890.871	3169
890.995	3062
891.118	3058
891.241	3233
891.364	3211
891.488	3317
891.611	3138
891.734	3237
891.857	3287
891.98	3214
892.103	3306
892.226	3279
892.349	3245
892.471	3097
892.594	3241
892.717	3275
892.839	3256
892.962	3233
893.085	3344
893.207	3306
893.33	3097
893.452	3211
893.575	3298
893.697	3230
893.819	3492
893.941	3481
894.064	3401
894.186	3253
894.308	3264
894.43	3473
894.552	3553
894.674	3439
894.796	3260
894.918	3313
895.04	3268
895.161	3412
895.283	3321
895.405	3317
895.526	3363
895.648	3382
895.769	3412
895.891	3428
896.012	3504
896.134	3466
896.255	3401
896.376	3386
896.498	3359
896.619	3431
896.74	3359
896.861	3378
896.982	3698
897.103	3865
897.224	3572
897.345	3496
897.466	3420
897.587	3469
897.708	3599
897.828	3519
897.949	3458
898.07	3321
898.19	3420
898.311	3580
898.431	3462
898.552	3504
898.672	3572
898.792	3568
898.913	3534
899.033	3393
899.153	3264
899.273	3199
899.393	3275
899.513	3298
899.633	3268
899.753	3317
899.873	3264
899.993	3382
900.113	3306
900.232	3355
900.352	3336
900.472	3253
900.591	3233
900.711	3291
900.83	3226
900.95	3378
901.069	3466
901.189	3313
901.308	3165
901.427	3142
901.546	3184
901.665	3302
901.784	3355
901.904	3233
902.023	3135
902.141	2982
902.26	2971
902.379	3104
902.498	3047
902.617	3024
902.735	3222
902.854	3256
902.973	3180
903.091	3047
903.21	3074
903.328	3116
903.446	3150
903.565	3104
903.683	3203
903.801	3142
903.919	3241
904.038	3279
904.156	3173
904.274	3283
904.392	3279
904.51	3302
904.627	3359
904.745	3405
904.863	3492
904.981	3241
905.098	3184
905.216	3245
905.334	3294
905.451	3321
905.569	3313
905.686	3424
905.803	3439
905.921	3287
906.038	3466
906.155	3370
906.272	3279
906.389	3313
906.506	3237
906.623	3214
906.74	3260
906.857	3184
906.974	3241
907.091	3447
907.208	3545
907.324	3504
907.441	3374
907.557	3214
907.674	3245
907.79	3218
907.907	3291
908.023	3367
908.139	3378
908.256	3348
908.372	3298
908.488	3344
908.604	3233
908.72	3253
908.836	3298
908.952	3249
909.068	3329
909.184	3507
909.3	3367
909.415	3511
909.531	3492
909.647	3287
909.762	3279
909.878	3268
909.993	3344
910.108	3336
910.224	3302
910.339	3393
910.454	3359
910.57	3283
910.685	3253
910.8	3610
910.915	3504
911.03	3420
911.145	3294
911.259	3287
911.374	3321
911.489	3249
911.604	3192
911.718	3089
911.833	3146
911.947	3017
912.062	2998
912.176	3131
912.291	3188
912.405	3203
912.519	3435
912.633	3485
912.748	3321
912.862	3260
912.976	3214
913.09	3039
913.204	3112
913.318	3241
913.431	3351
913.545	3317
913.659	3393
913.772	3313
913.886	3211
914	3199
914.113	3325
914.226	3386
914.34	3340
914.453	3222
914.566	3393
914.68	3306
914.793	3336
914.906	3150
915.019	3150
915.132	3058
915.245	3157
915.358	3184
915.47	3195
915.583	3249
915.696	3329
915.809	3443
915.921	3431
916.034	3253
916.146	3233
916.259	3214
916.371	3374
916.483	3359
916.595	3287
916.708	3321
916.82	3359
916.932	3332
917.044	3363
917.156	3351
917.268	3211
917.38	3317
917.491	3329
917.603	3336
917.715	3462
917.826	3473
917.938	3386
918.049	3245
918.161	3370
918.272	3553
918.384	3561
918.495	3511
918.606	3325
918.717	3272
918.828	3409
918.939	3416
919.05	3298
919.161	3386
919.272	3199
919.383	3268
919.494	3526
919.604	3701
919.715	3485
919.826	3435
919.936	3454
920.047	3557
920.157	3545
920.267	3747
920.378	3629
920.488	3549
920.598	3762
920.708	3975
920.818	3800
920.928	3812
921.038	4006
921.148	4010
921.258	3705
921.368	3614
921.477	3572
921.587	3564
921.697	3511
921.806	3610
921.916	3500
922.025	3382
922.134	3317
922.244	3310
922.353	3420
922.462	3287
922.571	3188
922.68	3077
922.789	3070
922.898	3131
923.007	3116
923.116	3203
923.224	3146
923.333	3161
923.442	3066
923.55	3081
923.659	3119
923.767	3233
923.876	3138
923.984	3218
924.092	3089
924.201	3192
924.309	3222
924.417	3260
924.525	3188
924.633	3241
924.741	3987
924.849	3032
924.956	3226
925.064	3100
925.172	3100
925.279	3093
925.387	3211
925.494	3165
925.602	3370
925.709	3279
925.816	3195
925.924	3306
926.031	3363
926.138	3310
926.245	3355
926.352	3264
926.459	3424
926.566	3466
926.673	3306
926.779	3249
926.886	3253
926.993	3131
927.099	3165
927.206	3066
927.312	3108
927.419	3165
927.525	3214
927.631	3279
927.737	3131
927.843	3165
927.95	3047
928.056	3161
928.162	3173
928.267	3272
928.373	3869
928.479	3279
928.585	3058
928.69	3211
928.796	3294
928.901	3142
929.007	3081
929.112	3230
929.218	3180
929.323	3123
929.428	3176
929.533	3294
929.638	3112
929.743	3146
929.848	3260
929.953	3161
930.058	3127
930.163	3024
930.267	3028
930.372	3199
930.477	3017
930.581	3279
930.685	3165
930.79	3081
930.894	3085
930.998	3104
931.103	3256
931.207	2963
931.311	2967
931.415	2899
931.519	2777
931.623	2781
