Data from test_V78500241_1374.txt Node
Date: Fri Mar 25 16:24:43 CST 2022
User: usil
Spectrometer: V785-0024
Trigger mode: 0
Integration Time (sec): 4.000000E-1
Scans to average: 1
Nonlinearity correction enabled: false
Boxcar width: 0
Storing dark spectrum: false
XAxis mode: Wavelengths
Number of Pixels in Spectrum: 1024
>>>>>Begin Spectral Data<<<<<
801.071	2929
801.214	2967
801.356	2918
801.499	2899
801.641	2891
801.783	2941
801.926	3051
802.068	2967
802.211	3039
802.353	3032
802.496	3017
802.638	3013
802.78	3070
802.923	3077
803.065	3001
803.208	2937
803.35	2902
803.492	2967
803.635	2975
803.777	2800
803.919	2883
804.061	3203
804.204	2967
804.346	2906
804.488	2849
804.63	3020
804.773	2880
804.915	2918
805.057	3093
805.199	2952
805.341	2967
805.483	3043
805.626	3009
805.768	2975
805.91	3097
806.052	3100
806.194	3028
806.336	3199
806.478	3039
806.62	2998
806.762	2998
806.904	3077
807.046	3230
807.188	2979
807.33	2944
807.472	3009
807.614	2937
807.756	2982
807.898	2929
808.04	2956
808.182	2963
808.324	2963
808.465	2891
808.607	2899
808.749	2857
808.891	2891
809.033	2979
809.174	2975
809.316	2910
809.458	2902
809.6	2750
809.741	2739
809.883	2792
810.025	2883
810.166	2864
810.308	2864
810.45	2872
810.591	2804
810.733	2792
810.875	2842
811.016	2758
811.158	2769
811.299	2830
811.441	2944
811.582	2941
811.724	2857
811.865	2838
812.007	2906
812.148	2883
812.29	2864
812.431	2956
812.573	2891
812.714	2937
812.855	3024
812.997	3062
813.138	3127
813.279	3028
813.421	2990
813.562	2979
813.703	2899
813.845	2891
813.986	2762
814.127	2746
814.268	2823
814.41	2857
814.551	2826
814.692	2868
814.833	2838
814.974	2914
815.115	2952
815.256	2823
815.397	2838
815.539	2857
815.68	2781
815.821	2811
815.962	2952
816.103	2933
816.244	2883
816.385	2891
816.526	3001
816.666	2887
816.807	2788
816.948	2929
817.089	2906
817.23	2902
817.371	2792
817.512	2796
817.653	2861
817.793	2857
817.934	2868
818.075	2971
818.216	2982
818.356	3047
818.497	2868
818.638	2777
818.778	2804
818.919	2815
819.06	2769
819.2	2857
819.341	2853
819.481	2849
819.622	2929
819.762	3116
819.903	3074
820.043	2933
820.184	2929
820.324	2914
820.465	3013
820.605	3036
820.746	3028
820.886	2967
821.026	3074
821.167	3154
821.307	3306
821.447	3279
821.588	3214
821.728	3203
821.868	3176
822.008	3081
822.149	3184
822.289	3214
822.429	3077
822.569	3077
822.709	3165
822.849	3066
822.99	3051
823.13	3131
823.27	3207
823.41	3108
823.55	3173
823.69	3169
823.83	3192
823.97	3093
824.11	3024
824.25	2967
824.389	3055
824.529	3108
824.669	3074
824.809	3249
824.949	3260
825.089	3207
825.228	3150
825.368	3028
825.508	2960
825.648	3020
825.787	3009
825.927	3036
826.067	2948
826.206	2952
826.346	3077
826.485	3123
826.625	3112
826.765	3256
826.904	3214
827.044	2998
827.183	2944
827.323	2880
827.462	3047
827.601	2937
827.741	2914
827.88	2906
828.02	2883
828.159	2982
828.298	3039
828.437	3142
828.577	3066
828.716	3226
828.855	3089
828.994	2941
829.134	2876
829.273	2933
829.412	2857
829.551	2849
829.69	2914
829.829	3001
829.968	3131
830.107	2990
830.246	3039
830.385	2910
830.524	2902
830.663	2834
830.802	2724
830.941	2648
831.08	2670
831.219	2804
831.357	2750
831.496	2956
831.635	2743
831.774	2640
831.913	2667
832.051	2533
832.19	2602
832.329	2667
832.467	2545
832.606	2503
832.744	2594
832.883	2560
833.022	2613
833.16	2636
833.299	2705
833.437	2708
833.576	2708
833.714	2727
833.852	2716
833.991	2758
834.129	2807
834.267	2849
834.406	2773
834.544	2876
834.682	2914
834.821	2891
834.959	3085
835.097	2887
835.235	3058
835.373	2990
835.511	3047
835.65	2963
835.788	2929
835.926	2853
836.064	2838
836.202	2853
836.34	3070
836.478	3188
836.615	3081
836.753	3146
836.891	3214
837.029	3169
837.167	3142
837.305	3058
837.443	3070
837.58	2986
837.718	3119
837.856	3036
837.993	3036
838.131	3135
838.269	3112
838.406	3089
838.544	3085
838.681	2960
838.819	2922
838.956	2826
839.094	2811
839.231	2906
839.369	3051
839.506	3359
839.643	3237
839.781	2994
839.918	2941
840.055	3058
840.193	3066
840.33	3043
840.467	3085
840.604	3173
840.742	3409
840.879	3051
841.016	3062
841.153	3138
841.29	3336
841.427	3306
841.564	3279
841.701	3272
841.838	3237
841.975	3173
842.112	3195
842.249	3085
842.385	3058
842.522	3256
842.659	3097
842.796	3089
842.933	3108
843.069	3013
843.206	2986
843.343	3230
843.479	3123
843.616	3138
843.752	2895
843.889	2895
844.025	3093
844.162	2891
844.298	3055
844.435	2963
844.571	2883
844.708	3074
844.844	3188
844.98	3226
845.117	3184
845.253	3032
845.389	3005
845.525	3093
845.661	3131
845.798	2982
845.934	3135
846.07	3062
846.206	3230
846.342	3294
846.478	3230
846.614	3135
846.75	3058
846.886	3013
847.022	3237
847.158	3161
847.294	3203
847.429	3211
847.565	3237
847.701	3481
847.837	3036
847.972	2994
848.108	3127
848.244	3150
848.379	3009
848.515	2986
848.65	2929
848.786	2929
848.921	3028
849.057	3085
849.192	3161
849.328	3097
849.463	3135
849.598	3077
849.734	3043
849.869	2975
850.004	2956
850.14	2933
850.275	2902
850.41	2876
850.545	2861
850.68	2933
850.815	2975
850.95	2998
851.085	3188
851.22	3123
851.355	3001
851.49	2952
851.625	2990
851.76	2971
851.895	2937
852.03	2925
852.165	2998
852.299	3089
852.434	3218
852.569	3154
852.703	3146
852.838	3272
852.973	3310
853.107	3325
853.242	3116
853.376	3070
853.511	2982
853.645	2975
853.78	3214
853.914	3104
854.048	3146
854.183	3077
854.317	3131
854.451	3272
854.585	3108
854.72	3074
854.854	3188
854.988	3043
855.122	3070
855.256	2979
855.39	3112
855.524	3218
855.658	3188
855.792	3138
855.926	3192
856.06	3195
856.194	3253
856.327	3146
856.461	3077
856.595	3070
856.729	3108
856.862	3203
856.996	3173
857.13	3192
857.263	3226
857.397	3275
857.53	3119
857.664	3203
857.797	3260
857.931	3260
858.064	3142
858.197	3169
858.331	3142
858.464	3055
858.597	2963
858.731	3112
858.864	3116
858.997	3043
859.13	3146
859.263	3184
859.396	3199
859.529	3135
859.662	3039
859.795	3058
859.928	3195
860.061	3256
860.194	3245
860.327	3089
860.46	3085
860.592	3249
860.725	3222
860.858	3253
860.99	3085
861.123	3062
861.256	3058
861.388	3108
861.521	3759
861.653	3017
861.786	3009
861.918	3009
862.05	3055
862.183	3119
862.315	3146
862.447	3176
862.58	3112
862.712	2960
862.844	2861
862.976	3013
863.108	3043
863.24	3306
863.372	2864
863.504	2979
863.636	2925
863.768	3005
863.9	2944
864.032	2944
864.164	2944
864.296	2994
864.428	3108
864.559	3089
864.691	3077
864.823	3032
864.954	3047
865.086	3047
865.217	2975
865.349	2944
865.48	2994
865.612	2960
865.743	3157
865.875	2967
866.006	2944
866.137	2979
866.269	2956
866.4	2952
866.531	2941
866.662	2902
866.793	2883
866.924	2891
867.055	2929
867.186	2876
867.317	2868
867.448	2861
867.579	2857
867.71	2857
867.841	2807
867.972	2868
868.103	2887
868.233	2845
868.364	2849
868.495	2891
868.625	3066
868.756	3146
868.886	2956
869.017	3032
869.147	3135
869.278	3146
869.408	3074
869.539	2994
869.669	3100
869.799	3047
869.929	3123
870.06	3081
870.19	3321
870.32	3287
870.45	3302
870.58	3355
870.71	3431
870.84	3416
870.97	3294
871.1	3245
871.23	3504
871.36	3458
871.489	3359
871.619	3428
871.749	3386
871.879	3409
872.008	3488
872.138	3336
872.267	3264
872.397	3116
872.526	3108
872.656	3047
872.785	3100
872.915	3218
873.044	3306
873.173	3207
873.303	3272
873.432	3188
873.561	3226
873.69	3184
873.819	3142
873.948	3176
874.077	3085
874.206	3055
874.335	3058
874.464	3192
874.593	3363
874.722	3241
874.851	3386
874.979	3363
875.108	3332
875.237	3226
875.365	3173
875.494	3169
875.623	3237
875.751	3066
875.88	3093
876.008	3173
876.136	3218
876.265	3321
876.393	3477
876.521	3405
876.65	3389
876.778	3348
876.906	3226
877.034	3180
877.162	3233
877.29	3195
877.418	3237
877.546	3222
877.674	3214
877.802	3256
877.93	3192
878.058	3116
878.185	3093
878.313	3169
878.441	3184
878.568	3070
878.696	3157
878.824	3226
878.951	3302
879.079	3405
879.206	3603
879.333	3450
879.461	3332
879.588	3348
879.715	3428
879.842	3538
879.97	3374
880.097	3135
880.224	3138
880.351	3184
880.478	3237
880.605	3207
880.732	3157
880.859	3523
880.986	3264
881.112	3329
881.239	3218
881.366	3135
881.493	3062
881.619	3013
881.746	3097
881.872	3089
881.999	3089
882.125	3157
882.252	3260
882.378	3317
882.505	3454
882.631	3294
882.757	3157
882.883	3230
883.01	3222
883.136	3157
883.262	3116
883.388	3104
883.514	3283
883.64	3378
883.766	3336
883.892	3195
884.018	3222
884.143	3412
884.269	3542
884.395	3195
884.52	3104
884.646	3180
884.772	3157
884.897	3085
885.023	3214
885.148	3329
885.274	3397
885.399	3370
885.524	3317
885.65	3230
885.775	3332
885.9	3253
886.025	3420
886.15	3332
886.275	3283
886.4	3218
886.525	3272
886.65	3275
886.775	3253
886.9	3500
887.025	3610
887.149	3416
887.274	3245
887.399	3192
887.523	3176
887.648	3142
887.773	3226
887.897	3340
888.021	3363
888.146	3313
888.27	3401
888.395	3523
888.519	3397
888.643	3428
888.767	3473
888.891	3306
889.015	3264
889.139	3268
889.263	3310
889.387	3401
889.511	3530
889.635	3458
889.759	3302
889.883	3291
890.006	3389
890.13	3496
890.254	3272
890.377	3325
890.501	3180
890.624	3184
890.748	3294
890.871	3146
890.995	3074
891.118	3093
891.241	3188
891.364	3214
891.488	3325
891.611	3165
891.734	3195
891.857	3306
891.98	3237
892.103	3344
892.226	3321
892.349	3203
892.471	3142
892.594	3245
892.717	3279
892.839	3268
892.962	3272
893.085	3340
893.207	3321
893.33	3108
893.452	3169
893.575	3332
893.697	3256
893.819	3504
893.941	3488
894.064	3454
894.186	3275
894.308	3268
894.43	3424
894.552	3549
894.674	3466
894.796	3245
894.918	3317
895.04	3241
895.161	3443
895.283	3363
895.405	3321
895.526	3389
895.648	3416
895.769	3424
895.891	3443
896.012	3466
896.134	3477
896.255	3382
896.376	3370
896.498	3386
896.619	3428
896.74	3370
896.861	3405
896.982	3698
897.103	3804
897.224	3637
897.345	3496
897.466	3424
897.587	3504
897.708	3701
897.828	3507
897.949	3447
898.07	3306
898.19	3424
898.311	3584
898.431	3424
898.552	3526
898.672	3587
898.792	3580
898.913	3462
899.033	3386
899.153	3310
899.273	3203
899.393	3260
899.513	3344
899.633	3306
899.753	3367
899.873	3298
899.993	3397
900.113	3329
900.232	3386
900.352	3313
900.472	3272
900.591	3195
900.711	3321
900.83	3241
900.95	3409
901.069	3500
901.189	3325
901.308	3176
901.427	3150
901.546	3157
901.665	3256
901.784	3336
901.904	3218
902.023	3131
902.141	3020
902.26	2986
902.379	3127
902.498	3093
902.617	3055
902.735	3207
902.854	3211
902.973	3203
903.091	3062
903.21	3047
903.328	3119
903.446	3093
903.565	3108
903.683	3199
903.801	3138
903.919	3249
904.038	3306
904.156	3154
904.274	3241
904.392	3272
904.51	3287
904.627	3332
904.745	3389
904.863	3492
904.981	3256
905.098	3157
905.216	3245
905.334	3306
905.451	3291
905.569	3275
905.686	3447
905.803	3458
905.921	3253
906.038	3386
906.155	3374
906.272	3256
906.389	3382
906.506	3199
906.623	3249
906.74	3275
906.857	3226
906.974	3275
907.091	3416
907.208	3542
907.324	3477
907.441	3393
907.557	3199
907.674	3241
907.79	3237
907.907	3275
908.023	3367
908.139	3393
908.256	3336
908.372	3370
908.488	3348
908.604	3241
908.72	3230
908.836	3298
908.952	3310
909.068	3329
909.184	3469
909.3	3370
909.415	3466
909.531	3450
909.647	3287
909.762	3272
909.878	3230
909.993	3389
910.108	3340
910.224	3306
910.339	3409
910.454	3310
910.57	3287
910.685	3253
910.8	3549
910.915	3492
911.03	3431
911.145	3245
911.259	3275
911.374	3325
911.489	3222
911.604	3207
911.718	3093
911.833	3161
911.947	3051
912.062	2979
912.176	3138
912.291	3199
912.405	3154
912.519	3393
912.633	3526
912.748	3306
912.862	3272
912.976	3161
913.09	3055
913.204	3154
913.318	3241
913.431	3340
913.545	3291
913.659	3416
913.772	3313
913.886	3207
914	3199
914.113	3348
914.226	3420
914.34	3367
914.453	3199
914.566	3386
914.68	3253
914.793	3294
914.906	3127
915.019	3097
915.132	3058
915.245	3146
915.358	3180
915.47	3226
915.583	3287
915.696	3275
915.809	3359
915.921	3435
916.034	3253
916.146	3256
916.259	3253
916.371	3348
916.483	3370
916.595	3253
916.708	3336
916.82	3378
916.932	3321
917.044	3336
917.156	3340
917.268	3294
917.38	3321
917.491	3256
917.603	3367
917.715	3435
917.826	3428
917.938	3389
918.049	3264
918.161	3405
918.272	3572
918.384	3542
918.495	3511
918.606	3336
918.717	3256
918.828	3374
918.939	3424
919.05	3321
919.161	3416
919.272	3188
919.383	3272
919.494	3515
919.604	3637
919.715	3473
919.826	3386
919.936	3435
920.047	3587
920.157	3542
920.267	3766
920.378	3656
920.488	3584
920.598	3747
920.708	3991
920.818	3827
920.928	3823
921.038	4055
921.148	4021
921.258	3732
921.368	3603
921.477	3606
921.587	3504
921.697	3443
921.806	3614
921.916	3504
922.025	3378
922.134	3409
922.244	3359
922.353	3431
922.462	3272
922.571	3199
922.68	3085
922.789	3104
922.898	3131
923.007	3104
923.116	3222
923.224	3192
923.333	3195
923.442	3093
923.55	3112
923.659	3154
923.767	3199
923.876	3116
923.984	3249
924.092	3112
924.201	3218
924.309	3249
924.417	3268
924.525	3184
924.633	3256
924.741	4025
924.849	3001
924.956	3268
925.064	3112
925.172	3020
925.279	3119
925.387	3173
925.494	3176
925.602	3359
925.709	3310
925.816	3214
925.924	3283
926.031	3374
926.138	3306
926.245	3374
926.352	3272
926.459	3386
926.566	3523
926.673	3313
926.779	3268
926.886	3245
926.993	3150
927.099	3116
927.206	3097
927.312	3146
927.419	3222
927.525	3192
927.631	3283
927.737	3108
927.843	3112
927.95	3051
928.056	3150
928.162	3211
928.267	3245
928.373	3896
928.479	3306
928.585	3100
928.69	3233
928.796	3245
928.901	3146
929.007	3070
929.112	3192
929.218	3188
929.323	3123
929.428	3123
929.533	3332
929.638	3081
929.743	3176
929.848	3279
929.953	3218
930.058	3150
930.163	2975
930.267	3047
930.372	3218
930.477	3028
930.581	3268
930.685	3211
930.79	3036
930.894	3138
930.998	3108
931.103	3291
931.207	2929
931.311	2944
931.415	2929
931.519	2773
931.623	2819
