Data from test_V78500241_1851.txt Node
Date: Fri Mar 25 16:28:01 CST 2022
User: usil
Spectrometer: V785-0024
Trigger mode: 0
Integration Time (sec): 4.000000E-1
Scans to average: 1
Nonlinearity correction enabled: false
Boxcar width: 0
Storing dark spectrum: false
XAxis mode: Wavelengths
Number of Pixels in Spectrum: 1024
>>>>>Begin Spectral Data<<<<<
801.071	2883
801.214	2937
801.356	2857
801.499	2872
801.641	2864
801.783	2899
801.926	3062
802.068	2986
802.211	2979
802.353	3036
802.496	2941
802.638	3036
802.78	3013
802.923	3085
803.065	3009
803.208	2868
803.35	2895
803.492	2906
803.635	2941
803.777	2773
803.919	2876
804.061	3207
804.204	2899
804.346	2922
804.488	2815
804.63	2952
804.773	2899
804.915	2910
805.057	3089
805.199	2922
805.341	2948
805.483	3024
805.626	2990
805.768	2944
805.91	3036
806.052	3058
806.194	3039
806.336	3226
806.478	3051
806.62	2944
806.762	2990
806.904	3009
807.046	3142
807.188	2979
807.33	2918
807.472	2971
807.614	2948
807.756	2986
807.898	2918
808.04	2883
808.182	2979
808.324	2948
808.465	2849
808.607	2880
808.749	2804
808.891	2845
809.033	2979
809.174	2948
809.316	2872
809.458	2910
809.6	2766
809.741	2777
809.883	2758
810.025	2868
810.166	2861
810.308	2819
810.45	2861
810.591	2754
810.733	2758
810.875	2857
811.016	2796
811.158	2743
811.299	2819
811.441	2929
811.582	2883
811.724	2800
811.865	2838
812.007	2925
812.148	2857
812.29	2842
812.431	2899
812.573	2944
812.714	2971
812.855	3074
812.997	3070
813.138	3100
813.279	2998
813.421	2963
813.562	2948
813.703	2849
813.845	2872
813.986	2811
814.127	2735
814.268	2842
814.41	2849
814.551	2785
814.692	2857
814.833	2838
814.974	2899
815.115	2963
815.256	2853
815.397	2804
815.539	2842
815.68	2773
815.821	2781
815.962	2929
816.103	2937
816.244	2861
816.385	2864
816.526	2960
816.666	2925
816.807	2766
816.948	2899
817.089	2891
817.23	2830
817.371	2788
817.512	2781
817.653	2815
817.793	2815
817.934	2925
818.075	2952
818.216	3005
818.356	3043
818.497	2868
818.638	2766
818.778	2826
818.919	2773
819.06	2735
819.2	2914
819.341	2796
819.481	2800
819.622	2944
819.762	3116
819.903	3017
820.043	2895
820.184	2880
820.324	2849
820.465	3013
820.605	3028
820.746	3039
820.886	2941
821.026	3142
821.167	3184
821.307	3275
821.447	3275
821.588	3218
821.728	3188
821.868	3169
822.008	3055
822.149	3165
822.289	3199
822.429	3093
822.569	3066
822.709	3165
822.849	3020
822.99	3066
823.13	3150
823.27	3218
823.41	3119
823.55	3165
823.69	3157
823.83	3192
823.97	3116
824.11	2986
824.25	2998
824.389	3051
824.529	3077
824.669	3077
824.809	3184
824.949	3226
825.089	3211
825.228	3161
825.368	3001
825.508	2975
825.648	2971
825.787	3055
825.927	3017
826.067	2960
826.206	2948
826.346	3055
826.485	3070
826.625	3108
826.765	3294
826.904	3192
827.044	3028
827.183	2922
827.323	2876
827.462	2998
827.601	2933
827.741	2906
827.88	2982
828.02	2880
828.159	3024
828.298	3062
828.437	3100
828.577	3039
828.716	3226
828.855	3085
828.994	2914
829.134	2876
829.273	2914
829.412	2895
829.551	2883
829.69	2876
829.829	2967
829.968	3154
830.107	3001
830.246	3039
830.385	2925
830.524	2906
830.663	2819
830.802	2708
830.941	2663
831.08	2617
831.219	2739
831.357	2754
831.496	2914
831.635	2716
831.774	2629
831.913	2674
832.051	2522
832.19	2594
832.329	2640
832.467	2530
832.606	2492
832.744	2549
832.883	2590
833.022	2579
833.16	2655
833.299	2689
833.437	2716
833.576	2708
833.714	2724
833.852	2712
833.991	2766
834.129	2815
834.267	2864
834.406	2781
834.544	2868
834.682	2895
834.821	2861
834.959	3024
835.097	2887
835.235	3047
835.373	2979
835.511	2998
835.65	2967
835.788	2975
835.926	2826
836.064	2788
836.202	2834
836.34	3104
836.478	3154
836.615	3093
836.753	3188
836.891	3203
837.029	3180
837.167	3100
837.305	3036
837.443	3032
837.58	2918
837.718	3119
837.856	3062
837.993	2967
838.131	3127
838.269	3058
838.406	3089
838.544	3093
838.681	2948
838.819	2914
838.956	2800
839.094	2819
839.231	2899
839.369	3005
839.506	3336
839.643	3173
839.781	2982
839.918	2948
840.055	3047
840.193	3051
840.33	3036
840.467	3093
840.604	3097
840.742	3374
840.879	3001
841.016	3013
841.153	3119
841.29	3321
841.427	3283
841.564	3279
841.701	3302
841.838	3192
841.975	3142
842.112	3214
842.249	3077
842.385	3047
842.522	3279
842.659	3097
842.796	3032
842.933	3116
843.069	3032
843.206	2994
843.343	3176
843.479	3074
843.616	3100
843.752	2887
843.889	2872
844.025	3089
844.162	2902
844.298	3036
844.435	2944
844.571	2880
844.708	3074
844.844	3188
844.98	3249
845.117	3180
845.253	3028
845.389	2971
845.525	3116
845.661	3108
845.798	3013
845.934	3119
846.07	3039
846.206	3222
846.342	3329
846.478	3230
846.614	3097
846.75	3062
846.886	3001
847.022	3222
847.158	3169
847.294	3214
847.429	3195
847.565	3226
847.701	3466
847.837	3051
847.972	3005
848.108	3142
848.244	3138
848.379	3013
848.515	2960
848.65	2929
848.786	2960
848.921	2952
849.057	3100
849.192	3138
849.328	3081
849.463	3081
849.598	2998
849.734	3013
849.869	2979
850.004	2872
850.14	2937
850.275	2941
850.41	2834
850.545	2918
850.68	2929
850.815	2933
850.95	2990
851.085	3157
851.22	3077
851.355	3043
851.49	2982
851.625	3001
851.76	2994
851.895	2941
852.03	2902
852.165	3020
852.299	3074
852.434	3176
852.569	3112
852.703	3161
852.838	3245
852.973	3298
853.107	3351
853.242	3135
853.376	3070
853.511	2960
853.645	3005
853.78	3230
853.914	3108
854.048	3112
854.183	3055
854.317	3108
854.451	3287
854.585	3112
854.72	3070
854.854	3207
854.988	3058
855.122	3039
855.256	2971
855.39	3142
855.524	3253
855.658	3150
855.792	3127
855.926	3199
856.06	3211
856.194	3256
856.327	3173
856.461	3047
856.595	3093
856.729	3077
856.862	3195
856.996	3119
857.13	3161
857.263	3203
857.397	3253
857.53	3081
857.664	3195
857.797	3237
857.931	3233
858.064	3138
858.197	3173
858.331	3093
858.464	3074
858.597	2982
858.731	3123
858.864	3116
858.997	3081
859.13	3169
859.263	3157
859.396	3180
859.529	3055
859.662	3085
859.795	3028
859.928	3123
860.061	3256
860.194	3256
860.327	3089
860.46	3093
860.592	3226
860.725	3237
860.858	3195
860.99	3089
861.123	3024
861.256	3062
861.388	3146
861.521	3816
861.653	2952
861.786	2944
861.918	2952
862.05	3062
862.183	3066
862.315	3142
862.447	3188
862.58	3055
862.712	2944
862.844	2880
862.976	3005
863.108	3005
863.24	3428
863.372	2864
863.504	2963
863.636	2922
863.768	3017
863.9	2963
864.032	2902
864.164	2933
864.296	2971
864.428	3074
864.559	3074
864.691	3051
864.823	3062
864.954	3013
865.086	3020
865.217	2975
865.349	2956
865.48	2979
865.612	3051
865.743	3146
865.875	2994
866.006	2925
866.137	2937
866.269	2967
866.4	2910
866.531	2895
866.662	2883
866.793	2883
866.924	2876
867.055	2979
867.186	2925
867.317	2868
867.448	2826
867.579	2861
867.71	2872
867.841	2819
867.972	2895
868.103	2864
868.233	2861
868.364	2902
868.495	2906
868.625	3028
868.756	3135
868.886	2944
869.017	3009
869.147	3150
869.278	3165
869.408	3062
869.539	2998
869.669	3081
869.799	3020
869.929	3127
870.06	3112
870.19	3321
870.32	3313
870.45	3268
870.58	3386
870.71	3454
870.84	3393
870.97	3264
871.1	3260
871.23	3473
871.36	3462
871.489	3336
871.619	3409
871.749	3405
871.879	3439
872.008	3458
872.138	3355
872.267	3233
872.397	3165
872.526	3089
872.656	2994
872.785	3104
872.915	3207
873.044	3325
873.173	3241
873.303	3218
873.432	3268
873.561	3241
873.69	3146
873.819	3104
873.948	3180
874.077	3062
874.206	3039
874.335	3085
874.464	3233
874.593	3340
874.722	3245
874.851	3378
874.979	3348
875.108	3310
875.237	3176
875.365	3195
875.494	3146
875.623	3199
875.751	3085
875.88	3104
876.008	3176
876.136	3218
876.265	3355
876.393	3447
876.521	3424
876.65	3374
876.778	3302
876.906	3218
877.034	3218
877.162	3241
877.29	3184
877.418	3245
877.546	3222
877.674	3241
877.802	3218
877.93	3253
878.058	3142
878.185	3100
878.313	3214
878.441	3192
878.568	3055
878.696	3135
878.824	3226
878.951	3237
879.079	3435
879.206	3610
879.333	3450
879.461	3302
879.588	3344
879.715	3458
879.842	3557
879.97	3389
880.097	3184
880.224	3142
880.351	3176
880.478	3230
880.605	3192
880.732	3161
880.859	3462
880.986	3310
881.112	3317
881.239	3207
881.366	3123
881.493	3062
881.619	3024
881.746	3051
881.872	3081
881.999	3097
882.125	3146
882.252	3241
882.378	3279
882.505	3393
882.631	3249
882.757	3142
882.883	3233
883.01	3256
883.136	3169
883.262	3104
883.388	3100
883.514	3310
883.64	3389
883.766	3283
883.892	3195
884.018	3211
884.143	3370
884.269	3492
884.395	3184
884.52	3188
884.646	3142
884.772	3119
884.897	3100
885.023	3237
885.148	3298
885.274	3405
885.399	3363
885.524	3264
885.65	3249
885.775	3355
885.9	3294
886.025	3443
886.15	3370
886.275	3264
886.4	3222
886.525	3310
886.65	3256
886.775	3287
886.9	3485
887.025	3603
887.149	3401
887.274	3279
887.399	3154
887.523	3192
887.648	3169
887.773	3176
887.897	3348
888.021	3374
888.146	3310
888.27	3428
888.395	3507
888.519	3435
888.643	3443
888.767	3435
888.891	3336
889.015	3237
889.139	3291
889.263	3230
889.387	3405
889.511	3530
889.635	3431
889.759	3279
889.883	3264
890.006	3393
890.13	3477
890.254	3275
890.377	3317
890.501	3173
890.624	3184
890.748	3264
890.871	3146
890.995	3135
891.118	3066
891.241	3192
891.364	3203
891.488	3310
891.611	3165
891.734	3241
891.857	3287
891.98	3184
892.103	3355
892.226	3291
892.349	3214
892.471	3100
892.594	3226
892.717	3291
892.839	3268
892.962	3253
893.085	3386
893.207	3291
893.33	3127
893.452	3226
893.575	3355
893.697	3287
893.819	3462
893.941	3519
894.064	3454
894.186	3241
894.308	3268
894.43	3462
894.552	3549
894.674	3416
894.796	3275
894.918	3298
895.04	3268
895.161	3424
895.283	3386
895.405	3272
895.526	3393
895.648	3420
895.769	3389
895.891	3466
896.012	3477
896.134	3481
896.255	3416
896.376	3397
896.498	3336
896.619	3431
896.74	3336
896.861	3401
896.982	3675
897.103	3838
897.224	3629
897.345	3500
897.466	3416
897.587	3504
897.708	3595
897.828	3553
897.949	3420
898.07	3317
898.19	3420
898.311	3545
898.431	3435
898.552	3519
898.672	3633
898.792	3610
898.913	3500
899.033	3382
899.153	3325
899.273	3214
899.393	3256
899.513	3306
899.633	3294
899.753	3340
899.873	3313
899.993	3378
900.113	3313
900.232	3389
900.352	3329
900.472	3279
900.591	3214
900.711	3310
900.83	3237
900.95	3393
901.069	3488
901.189	3389
901.308	3173
901.427	3108
901.546	3157
901.665	3298
901.784	3306
901.904	3199
902.023	3142
902.141	3009
902.26	2982
902.379	3150
902.498	3055
902.617	3051
902.735	3199
902.854	3226
902.973	3165
903.091	3043
903.21	3055
903.328	3100
903.446	3131
903.565	3127
903.683	3214
903.801	3135
903.919	3237
904.038	3306
904.156	3161
904.274	3275
904.392	3241
904.51	3253
904.627	3313
904.745	3450
904.863	3481
904.981	3268
905.098	3173
905.216	3180
905.334	3264
905.451	3329
905.569	3313
905.686	3431
905.803	3454
905.921	3310
906.038	3409
906.155	3336
906.272	3294
906.389	3313
906.506	3230
906.623	3211
906.74	3260
906.857	3173
906.974	3279
907.091	3412
907.208	3534
907.324	3481
907.441	3401
907.557	3211
907.674	3249
907.79	3203
907.907	3291
908.023	3389
908.139	3325
908.256	3359
908.372	3336
908.488	3351
908.604	3249
908.72	3249
908.836	3313
908.952	3275
909.068	3336
909.184	3462
909.3	3336
909.415	3511
909.531	3477
909.647	3287
909.762	3287
909.878	3245
909.993	3382
910.108	3329
910.224	3329
910.339	3386
910.454	3332
910.57	3291
910.685	3256
910.8	3584
910.915	3530
911.03	3454
911.145	3230
911.259	3279
911.374	3298
911.489	3233
911.604	3218
911.718	3119
911.833	3188
911.947	3055
912.062	2986
912.176	3180
912.291	3184
912.405	3214
912.519	3412
912.633	3526
912.748	3329
912.862	3264
912.976	3169
913.09	3024
913.204	3154
913.318	3275
913.431	3340
913.545	3348
913.659	3416
913.772	3306
913.886	3207
914	3169
914.113	3405
914.226	3450
914.34	3321
914.453	3195
914.566	3447
914.68	3275
914.793	3302
914.906	3131
915.019	3112
915.132	3116
915.245	3180
915.358	3230
915.47	3207
915.583	3241
915.696	3310
915.809	3409
915.921	3412
916.034	3226
916.146	3249
916.259	3207
916.371	3344
916.483	3378
916.595	3275
916.708	3294
916.82	3348
916.932	3329
917.044	3340
917.156	3332
917.268	3256
917.38	3283
917.491	3260
917.603	3344
917.715	3424
917.826	3450
917.938	3386
918.049	3283
918.161	3424
918.272	3614
918.384	3564
918.495	3507
918.606	3310
918.717	3249
918.828	3367
918.939	3409
919.05	3313
919.161	3359
919.272	3169
919.383	3245
919.494	3488
919.604	3660
919.715	3443
919.826	3389
919.936	3492
920.047	3599
920.157	3545
920.267	3766
920.378	3629
920.488	3591
920.598	3778
920.708	3972
920.818	3766
920.928	3808
921.038	3991
921.148	3998
921.258	3701
921.368	3610
921.477	3576
921.587	3526
921.697	3428
921.806	3622
921.916	3485
922.025	3317
922.134	3329
922.244	3298
922.353	3416
922.462	3279
922.571	3218
922.68	3097
922.789	3081
922.898	3104
923.007	3146
923.116	3173
923.224	3169
923.333	3199
923.442	3138
923.55	3100
923.659	3161
923.767	3233
923.876	3100
923.984	3233
924.092	3085
924.201	3138
924.309	3207
924.417	3233
924.525	3199
924.633	3230
924.741	3956
924.849	3047
924.956	3253
925.064	3100
925.172	3013
925.279	3077
925.387	3195
925.494	3199
925.602	3351
925.709	3344
925.816	3195
925.924	3279
926.031	3397
926.138	3302
926.245	3355
926.352	3272
926.459	3378
926.566	3450
926.673	3336
926.779	3241
926.886	3214
926.993	3154
927.099	3100
927.206	3081
927.312	3100
927.419	3245
927.525	3173
927.631	3291
927.737	3104
927.843	3089
927.95	3032
928.056	3100
928.162	3157
928.267	3218
928.373	3789
928.479	3310
928.585	3055
928.69	3192
928.796	3253
928.901	3138
929.007	3024
929.112	3180
929.218	3203
929.323	3150
929.428	3104
929.533	3294
929.638	3123
929.743	3203
929.848	3253
929.953	3188
930.058	3138
930.163	2990
930.267	3017
930.372	3173
930.477	3013
930.581	3317
930.685	3138
930.79	3055
930.894	3108
930.998	3081
931.103	3230
931.207	2990
931.311	2918
931.415	2868
931.519	2796
931.623	2762
