Data from test_V78500241_1112.txt Node
Date: Fri Mar 25 16:22:54 CST 2022
User: usil
Spectrometer: V785-0024
Trigger mode: 0
Integration Time (sec): 4.000000E-1
Scans to average: 1
Nonlinearity correction enabled: false
Boxcar width: 0
Storing dark spectrum: false
XAxis mode: Wavelengths
Number of Pixels in Spectrum: 1024
>>>>>Begin Spectral Data<<<<<
801.071	2906
801.214	2960
801.356	2842
801.499	2880
801.641	2853
801.783	2929
801.926	3009
802.068	2998
802.211	2971
802.353	3085
802.496	2922
802.638	2963
802.78	3020
802.923	3051
803.065	2963
803.208	2910
803.35	2906
803.492	2910
803.635	2918
803.777	2727
803.919	2857
804.061	3173
804.204	2922
804.346	2918
804.488	2857
804.63	3062
804.773	2853
804.915	2887
805.057	3058
805.199	2933
805.341	2948
805.483	3055
805.626	2986
805.768	2967
805.91	3062
806.052	3104
806.194	3032
806.336	3211
806.478	3013
806.62	2975
806.762	3039
806.904	3070
807.046	3199
807.188	2952
807.33	2914
807.472	3017
807.614	2918
807.756	3017
807.898	2941
808.04	2891
808.182	2944
808.324	2971
808.465	2925
808.607	2887
808.749	2815
808.891	2838
809.033	3024
809.174	2990
809.316	2906
809.458	2883
809.6	2792
809.741	2773
809.883	2796
810.025	2864
810.166	2864
810.308	2804
810.45	2834
810.591	2788
810.733	2750
810.875	2849
811.016	2785
811.158	2758
811.299	2842
811.441	2906
811.582	2895
811.724	2819
811.865	2895
812.007	2902
812.148	2876
812.29	2830
812.431	2887
812.573	2952
812.714	2937
812.855	3032
812.997	3036
813.138	3112
813.279	3009
813.421	2975
813.562	2937
813.703	2838
813.845	2952
813.986	2773
814.127	2712
814.268	2819
814.41	2834
814.551	2815
814.692	2887
814.833	2823
814.974	2914
815.115	2971
815.256	2872
815.397	2842
815.539	2872
815.68	2773
815.821	2796
815.962	2937
816.103	2895
816.244	2849
816.385	2842
816.526	2948
816.666	2944
816.807	2724
816.948	2868
817.089	2902
817.23	2853
817.371	2796
817.512	2781
817.653	2838
817.793	2830
817.934	2906
818.075	2929
818.216	2971
818.356	3039
818.497	2887
818.638	2819
818.778	2807
818.919	2815
819.06	2769
819.2	2891
819.341	2842
819.481	2788
819.622	2925
819.762	3066
819.903	3043
820.043	2895
820.184	2902
820.324	2864
820.465	3017
820.605	3028
820.746	3032
820.886	2960
821.026	3089
821.167	3150
821.307	3279
821.447	3256
821.588	3256
821.728	3237
821.868	3207
822.008	3066
822.149	3180
822.289	3233
822.429	3085
822.569	3055
822.709	3188
822.849	3028
822.99	3085
823.13	3157
823.27	3195
823.41	3089
823.55	3157
823.69	3154
823.83	3192
823.97	3093
824.11	2971
824.25	3043
824.389	3081
824.529	3055
824.669	3093
824.809	3195
824.949	3245
825.089	3173
825.228	3173
825.368	3013
825.508	2967
825.648	2963
825.787	2998
825.927	3013
826.067	2952
826.206	2956
826.346	3043
826.485	3093
826.625	3108
826.765	3249
826.904	3226
827.044	2971
827.183	2918
827.323	2906
827.462	2971
827.601	2910
827.741	2914
827.88	2975
828.02	2838
828.159	2979
828.298	3036
828.437	3100
828.577	3036
828.716	3233
828.855	3055
828.994	2895
829.134	2922
829.273	2960
829.412	2853
829.551	2849
829.69	2899
829.829	3001
829.968	3157
830.107	3013
830.246	3024
830.385	2933
830.524	2899
830.663	2804
830.802	2754
830.941	2655
831.08	2651
831.219	2769
831.357	2750
831.496	2929
831.635	2731
831.774	2674
831.913	2651
832.051	2522
832.19	2560
832.329	2678
832.467	2530
832.606	2499
832.744	2564
832.883	2571
833.022	2583
833.16	2693
833.299	2670
833.437	2693
833.576	2712
833.714	2758
833.852	2727
833.991	2781
834.129	2811
834.267	2815
834.406	2777
834.544	2842
834.682	2845
834.821	2849
834.959	3051
835.097	2868
835.235	3081
835.373	3013
835.511	3039
835.65	2960
835.788	2975
835.926	2834
836.064	2796
836.202	2830
836.34	3112
836.478	3150
836.615	3009
836.753	3108
836.891	3241
837.029	3157
837.167	3119
837.305	3058
837.443	3066
837.58	2963
837.718	3116
837.856	3070
837.993	3028
838.131	3108
838.269	3093
838.406	3085
838.544	3081
838.681	2933
838.819	2864
838.956	2777
839.094	2830
839.231	2906
839.369	2998
839.506	3367
839.643	3192
839.781	3024
839.918	2944
840.055	3039
840.193	3039
840.33	3066
840.467	3062
840.604	3150
840.742	3386
840.879	3036
841.016	3074
841.153	3100
841.29	3298
841.427	3294
841.564	3298
841.701	3298
841.838	3161
841.975	3154
842.112	3211
842.249	3051
842.385	3036
842.522	3287
842.659	3055
842.796	3093
842.933	3085
843.069	3058
843.206	3077
843.343	3199
843.479	3108
843.616	3157
843.752	2914
843.889	2845
844.025	3066
844.162	2929
844.298	3089
844.435	2948
844.571	2925
844.708	3097
844.844	3192
844.98	3249
845.117	3180
845.253	3047
845.389	3009
845.525	3142
845.661	3112
845.798	2952
845.934	3138
846.07	3089
846.206	3214
846.342	3321
846.478	3230
846.614	3104
846.75	3055
846.886	3028
847.022	3222
847.158	3123
847.294	3195
847.429	3268
847.565	3211
847.701	3500
847.837	3028
847.972	2990
848.108	3157
848.244	3119
848.379	2986
848.515	2918
848.65	2922
848.786	2990
848.921	3032
849.057	3097
849.192	3146
849.328	3055
849.463	3100
849.598	3043
849.734	3039
849.869	2975
850.004	2929
850.14	2994
850.275	2883
850.41	2811
850.545	2895
850.68	2933
850.815	2948
850.95	2971
851.085	3237
851.22	3051
851.355	3013
851.49	2971
851.625	2998
851.76	3013
851.895	2910
852.03	2914
852.165	3051
852.299	3074
852.434	3180
852.569	3108
852.703	3169
852.838	3260
852.973	3332
853.107	3317
853.242	3131
853.376	3085
853.511	2982
853.645	3020
853.78	3195
853.914	3116
854.048	3104
854.183	3085
854.317	3161
854.451	3275
854.585	3131
854.72	3074
854.854	3184
854.988	3055
855.122	3093
855.256	2952
855.39	3081
855.524	3241
855.658	3165
855.792	3176
855.926	3188
856.06	3245
856.194	3245
856.327	3081
856.461	3097
856.595	3104
856.729	3093
856.862	3230
856.996	3157
857.13	3211
857.263	3230
857.397	3294
857.53	3123
857.664	3226
857.797	3230
857.931	3245
858.064	3211
858.197	3199
858.331	3184
858.464	3108
858.597	3001
858.731	3077
858.864	3138
858.997	3066
859.13	3138
859.263	3165
859.396	3199
859.529	3062
859.662	3055
859.795	3062
859.928	3119
860.061	3241
860.194	3291
860.327	3135
860.46	3112
860.592	3256
860.725	3237
860.858	3230
860.99	3104
861.123	3047
861.256	3070
861.388	3123
861.521	3698
861.653	3070
861.786	2963
861.918	3005
862.05	3062
862.183	3077
862.315	3097
862.447	3203
862.58	3089
862.712	2967
862.844	2914
862.976	3009
863.108	2979
863.24	3447
863.372	2872
863.504	2937
863.636	2944
863.768	3013
863.9	2971
864.032	2960
864.164	2914
864.296	3036
864.428	3051
864.559	3074
864.691	3055
864.823	3066
864.954	3020
865.086	3058
865.217	2982
865.349	2960
865.48	3005
865.612	2982
865.743	3135
865.875	2925
866.006	2960
866.137	2975
866.269	2960
866.4	2914
866.531	2902
866.662	2899
866.793	2857
866.924	2887
867.055	2982
867.186	2895
867.317	2864
867.448	2853
867.579	2842
867.71	2849
867.841	2842
867.972	2880
868.103	2918
868.233	2845
868.364	2887
868.495	2899
868.625	3043
868.756	3173
868.886	2963
869.017	3032
869.147	3165
869.278	3161
869.408	3017
869.539	3005
869.669	3112
869.799	3043
869.929	3135
870.06	3081
870.19	3287
870.32	3275
870.45	3306
870.58	3393
870.71	3454
870.84	3450
870.97	3306
871.1	3237
871.23	3477
871.36	3462
871.489	3321
871.619	3431
871.749	3393
871.879	3397
872.008	3447
872.138	3386
872.267	3283
872.397	3131
872.526	3119
872.656	3005
872.785	3123
872.915	3218
873.044	3283
873.173	3203
873.303	3249
873.432	3230
873.561	3226
873.69	3127
873.819	3062
873.948	3207
874.077	3104
874.206	3028
874.335	3051
874.464	3195
874.593	3340
874.722	3222
874.851	3397
874.979	3348
875.108	3321
875.237	3199
875.365	3173
875.494	3161
875.623	3279
875.751	3062
875.88	3089
876.008	3180
876.136	3218
876.265	3393
876.393	3496
876.521	3389
876.65	3401
876.778	3329
876.906	3233
877.034	3211
877.162	3230
877.29	3188
877.418	3222
877.546	3214
877.674	3218
877.802	3222
877.93	3184
878.058	3138
878.185	3093
878.313	3192
878.441	3188
878.568	3081
878.696	3184
878.824	3256
878.951	3253
879.079	3405
879.206	3564
879.333	3431
879.461	3298
879.588	3340
879.715	3454
879.842	3549
879.97	3348
880.097	3161
880.224	3135
880.351	3154
880.478	3245
880.605	3180
880.732	3188
880.859	3492
880.986	3313
881.112	3359
881.239	3207
881.366	3055
881.493	3017
881.619	3020
881.746	3066
881.872	3081
881.999	3093
882.125	3157
882.252	3241
882.378	3287
882.505	3416
882.631	3283
882.757	3142
882.883	3192
883.01	3222
883.136	3135
883.262	3097
883.388	3112
883.514	3336
883.64	3344
883.766	3310
883.892	3173
884.018	3218
884.143	3401
884.269	3511
884.395	3211
884.52	3169
884.646	3180
884.772	3097
884.897	3104
885.023	3207
885.148	3374
885.274	3420
885.399	3367
885.524	3279
885.65	3233
885.775	3336
885.9	3321
886.025	3435
886.15	3363
886.275	3294
886.4	3214
886.525	3317
886.65	3298
886.775	3294
886.9	3462
887.025	3652
887.149	3409
887.274	3268
887.399	3169
887.523	3203
887.648	3169
887.773	3180
887.897	3374
888.021	3382
888.146	3340
888.27	3393
888.395	3507
888.519	3382
888.643	3420
888.767	3450
888.891	3298
889.015	3218
889.139	3298
889.263	3233
889.387	3435
889.511	3496
889.635	3424
889.759	3264
889.883	3283
890.006	3367
890.13	3485
890.254	3283
890.377	3355
890.501	3192
890.624	3188
890.748	3268
890.871	3176
890.995	3097
891.118	3077
891.241	3157
891.364	3245
891.488	3306
891.611	3157
891.734	3237
891.857	3321
891.98	3230
892.103	3302
892.226	3287
892.349	3218
892.471	3127
892.594	3211
892.717	3283
892.839	3249
892.962	3306
893.085	3374
893.207	3306
893.33	3146
893.452	3230
893.575	3367
893.697	3233
893.819	3424
893.941	3481
894.064	3435
894.186	3298
894.308	3230
894.43	3466
894.552	3549
894.674	3481
894.796	3260
894.918	3313
895.04	3287
895.161	3469
895.283	3405
895.405	3351
895.526	3351
895.648	3435
895.769	3431
895.891	3469
896.012	3473
896.134	3424
896.255	3435
896.376	3386
896.498	3344
896.619	3359
896.74	3359
896.861	3405
896.982	3690
897.103	3842
897.224	3606
897.345	3500
897.466	3443
897.587	3511
897.708	3625
897.828	3534
897.949	3454
898.07	3348
898.19	3382
898.311	3572
898.431	3412
898.552	3485
898.672	3564
898.792	3580
898.913	3530
899.033	3447
899.153	3294
899.273	3184
899.393	3241
899.513	3344
899.633	3325
899.753	3336
899.873	3317
899.993	3386
900.113	3310
900.232	3374
900.352	3302
900.472	3306
900.591	3203
900.711	3306
900.83	3230
900.95	3363
901.069	3469
901.189	3374
901.308	3146
901.427	3146
901.546	3173
901.665	3275
901.784	3313
901.904	3165
902.023	3135
902.141	3005
902.26	2941
902.379	3169
902.498	3085
902.617	3020
902.735	3207
902.854	3256
902.973	3173
903.091	3062
903.21	3047
903.328	3138
903.446	3138
903.565	3104
903.683	3203
903.801	3127
903.919	3192
904.038	3310
904.156	3184
904.274	3241
904.392	3260
904.51	3298
904.627	3310
904.745	3443
904.863	3523
904.981	3253
905.098	3184
905.216	3233
905.334	3294
905.451	3310
905.569	3317
905.686	3397
905.803	3439
905.921	3275
906.038	3389
906.155	3401
906.272	3310
906.389	3325
906.506	3203
906.623	3256
906.74	3260
906.857	3195
906.974	3268
907.091	3473
907.208	3572
907.324	3473
907.441	3401
907.557	3230
907.674	3184
907.79	3199
907.907	3279
908.023	3363
908.139	3389
908.256	3344
908.372	3386
908.488	3344
908.604	3253
908.72	3195
908.836	3291
908.952	3306
909.068	3310
909.184	3439
909.3	3367
909.415	3473
909.531	3496
909.647	3268
909.762	3298
909.878	3241
909.993	3348
910.108	3329
910.224	3332
910.339	3405
910.454	3310
910.57	3275
910.685	3230
910.8	3553
910.915	3500
911.03	3416
911.145	3279
911.259	3272
911.374	3332
911.489	3241
911.604	3253
911.718	3112
911.833	3150
911.947	3001
912.062	2956
912.176	3203
912.291	3184
912.405	3207
912.519	3458
912.633	3420
912.748	3336
912.862	3264
912.976	3135
913.09	3051
913.204	3154
913.318	3230
913.431	3325
913.545	3348
913.659	3389
913.772	3382
913.886	3230
914	3245
914.113	3329
914.226	3386
914.34	3351
914.453	3203
914.566	3416
914.68	3294
914.793	3325
914.906	3150
915.019	3119
915.132	3062
915.245	3195
915.358	3192
915.47	3222
915.583	3291
915.696	3272
915.809	3439
915.921	3393
916.034	3245
916.146	3245
916.259	3226
916.371	3389
916.483	3351
916.595	3245
916.708	3359
916.82	3310
916.932	3329
917.044	3325
917.156	3367
917.268	3233
917.38	3302
917.491	3298
917.603	3340
917.715	3428
917.826	3462
917.938	3374
918.049	3260
918.161	3435
918.272	3549
918.384	3580
918.495	3477
918.606	3321
918.717	3260
918.828	3374
918.939	3420
919.05	3313
919.161	3348
919.272	3169
919.383	3268
919.494	3507
919.604	3671
919.715	3447
919.826	3420
919.936	3481
920.047	3542
920.157	3523
920.267	3759
920.378	3622
920.488	3557
920.598	3789
920.708	4006
920.818	3800
920.928	3823
921.038	3979
921.148	4006
921.258	3701
921.368	3614
921.477	3580
921.587	3534
921.697	3466
921.806	3614
921.916	3481
922.025	3340
922.134	3332
922.244	3291
922.353	3412
922.462	3249
922.571	3192
922.68	3131
922.789	3104
922.898	3085
923.007	3100
923.116	3195
923.224	3192
923.333	3199
923.442	3100
923.55	3100
923.659	3116
923.767	3188
923.876	3127
923.984	3249
924.092	3089
924.201	3188
924.309	3188
924.417	3279
924.525	3157
924.633	3241
924.741	4013
924.849	3051
924.956	3275
925.064	3093
925.172	3043
925.279	3074
925.387	3245
925.494	3173
925.602	3370
925.709	3302
925.816	3192
925.924	3317
926.031	3329
926.138	3306
926.245	3344
926.352	3245
926.459	3370
926.566	3443
926.673	3302
926.779	3260
926.886	3222
926.993	3127
927.099	3150
927.206	3127
927.312	3108
927.419	3226
927.525	3188
927.631	3317
927.737	3169
927.843	3131
927.95	3009
928.056	3123
928.162	3184
928.267	3283
928.373	3911
928.479	3264
928.585	3077
928.69	3192
928.796	3272
928.901	3169
929.007	3051
929.112	3192
929.218	3214
929.323	3169
929.428	3093
929.533	3310
929.638	3123
929.743	3138
929.848	3264
929.953	3214
930.058	3142
930.163	3024
930.267	3043
930.372	3184
930.477	3055
930.581	3332
930.685	3176
930.79	3066
930.894	3104
930.998	3081
931.103	3298
931.207	2994
931.311	2948
931.415	2937
931.519	2746
931.623	2819
