Data from test_V78500241_1817.txt Node
Date: Fri Mar 25 16:27:47 CST 2022
User: usil
Spectrometer: V785-0024
Trigger mode: 0
Integration Time (sec): 4.000000E-1
Scans to average: 1
Nonlinearity correction enabled: false
Boxcar width: 0
Storing dark spectrum: false
XAxis mode: Wavelengths
Number of Pixels in Spectrum: 1024
>>>>>Begin Spectral Data<<<<<
801.071	2925
801.214	3005
801.356	2845
801.499	2922
801.641	2895
801.783	2914
801.926	3066
802.068	3017
802.211	3001
802.353	3058
802.496	2975
802.638	3013
802.78	3081
802.923	3093
803.065	3001
803.208	2891
803.35	2963
803.492	2922
803.635	2948
803.777	2811
803.919	2842
804.061	3214
804.204	2986
804.346	2929
804.488	2834
804.63	2982
804.773	2845
804.915	2922
805.057	3100
805.199	2937
805.341	2994
805.483	3036
805.626	3028
805.768	2967
805.91	3074
806.052	3127
806.194	3051
806.336	3233
806.478	3055
806.62	2982
806.762	2952
806.904	3074
807.046	3161
807.188	3028
807.33	2941
807.472	3017
807.614	2925
807.756	2998
807.898	2933
808.04	2914
808.182	3005
808.324	2941
808.465	2910
808.607	2887
808.749	2823
808.891	2857
809.033	2986
809.174	2986
809.316	2918
809.458	2941
809.6	2762
809.741	2807
809.883	2766
810.025	2845
810.166	2872
810.308	2861
810.45	2819
810.591	2777
810.733	2758
810.875	2819
811.016	2807
811.158	2750
811.299	2819
811.441	2922
811.582	2910
811.724	2842
811.865	2838
812.007	2910
812.148	2876
812.29	2845
812.431	2891
812.573	2956
812.714	2956
812.855	3047
812.997	3074
813.138	3119
813.279	2990
813.421	2986
813.562	2975
813.703	2868
813.845	2899
813.986	2804
814.127	2720
814.268	2819
814.41	2853
814.551	2826
814.692	2868
814.833	2807
814.974	2899
815.115	2963
815.256	2838
815.397	2785
815.539	2872
815.68	2788
815.821	2807
815.962	2944
816.103	2880
816.244	2872
816.385	2902
816.526	3005
816.666	2933
816.807	2743
816.948	2929
817.089	2906
817.23	2864
817.371	2804
817.512	2823
817.653	2853
817.793	2849
817.934	2887
818.075	2982
818.216	3001
818.356	3024
818.497	2880
818.638	2796
818.778	2807
818.919	2807
819.06	2792
819.2	2906
819.341	2792
819.481	2811
819.622	2944
819.762	3100
819.903	3028
820.043	2906
820.184	2918
820.324	2910
820.465	3043
820.605	3070
820.746	2998
820.886	2933
821.026	3112
821.167	3176
821.307	3264
821.447	3283
821.588	3260
821.728	3211
821.868	3195
822.008	3116
822.149	3207
822.289	3283
822.429	3108
822.569	3097
822.709	3211
822.849	3028
822.99	3020
823.13	3138
823.27	3256
823.41	3104
823.55	3169
823.69	3150
823.83	3161
823.97	3127
824.11	2986
824.25	2960
824.389	3074
824.529	3074
824.669	3085
824.809	3169
824.949	3279
825.089	3184
825.228	3165
825.368	3009
825.508	2994
825.648	2963
825.787	3001
825.927	3036
826.067	2975
826.206	2975
826.346	3055
826.485	3104
826.625	3135
826.765	3264
826.904	3230
827.044	3009
827.183	2925
827.323	2864
827.462	3001
827.601	2933
827.741	2899
827.88	2937
828.02	2834
828.159	2963
828.298	2998
828.437	3100
828.577	3039
828.716	3214
828.855	3089
828.994	2914
829.134	2891
829.273	2918
829.412	2899
829.551	2845
829.69	2880
829.829	3020
829.968	3093
830.107	3028
830.246	3024
830.385	2887
830.524	2849
830.663	2800
830.802	2720
830.941	2640
831.08	2674
831.219	2731
831.357	2754
831.496	2963
831.635	2724
831.774	2644
831.913	2667
832.051	2571
832.19	2579
832.329	2712
832.467	2545
832.606	2495
832.744	2583
832.883	2587
833.022	2579
833.16	2655
833.299	2686
833.437	2693
833.576	2697
833.714	2689
833.852	2746
833.991	2766
834.129	2853
834.267	2807
834.406	2788
834.544	2876
834.682	2910
834.821	2876
834.959	3081
835.097	2910
835.235	3066
835.373	2994
835.511	3009
835.65	2963
835.788	2982
835.926	2842
836.064	2804
836.202	2849
836.34	3058
836.478	3165
836.615	3062
836.753	3127
836.891	3192
837.029	3184
837.167	3123
837.305	3089
837.443	3036
837.58	2982
837.718	3100
837.856	3066
837.993	3024
838.131	3093
838.269	3123
838.406	3100
838.544	3097
838.681	2910
838.819	2925
838.956	2788
839.094	2819
839.231	2937
839.369	3024
839.506	3317
839.643	3218
839.781	2990
839.918	2944
840.055	3058
840.193	3055
840.33	3062
840.467	3081
840.604	3150
840.742	3336
840.879	3036
841.016	3062
841.153	3108
841.29	3310
841.427	3306
841.564	3272
841.701	3272
841.838	3222
841.975	3131
842.112	3157
842.249	3100
842.385	3062
842.522	3260
842.659	3116
842.796	3039
842.933	3104
843.069	3066
843.206	3070
843.343	3237
843.479	3127
843.616	3100
843.752	2941
843.889	2899
844.025	3077
844.162	2910
844.298	3066
844.435	2982
844.571	2929
844.708	3081
844.844	3214
844.98	3306
845.117	3218
845.253	3104
845.389	3024
845.525	3138
845.661	3112
845.798	3081
845.934	3165
846.07	3119
846.206	3226
846.342	3340
846.478	3233
846.614	3131
846.75	3081
846.886	3036
847.022	3298
847.158	3161
847.294	3222
847.429	3264
847.565	3268
847.701	3542
847.837	3089
847.972	3028
848.108	3203
848.244	3169
848.379	3017
848.515	2979
848.65	2982
848.786	3039
848.921	3055
849.057	3138
849.192	3165
849.328	3108
849.463	3173
849.598	3100
849.734	3074
849.869	3020
850.004	2956
850.14	3009
850.275	2956
850.41	2864
850.545	2902
850.68	2979
850.815	3017
850.95	2990
851.085	3241
851.22	3146
851.355	3074
851.49	3009
851.625	3032
851.76	3043
851.895	2990
852.03	2944
852.165	3077
852.299	3157
852.434	3192
852.569	3195
852.703	3199
852.838	3298
852.973	3363
853.107	3359
853.242	3176
853.376	3135
853.511	3020
853.645	3062
853.78	3279
853.914	3165
854.048	3150
854.183	3131
854.317	3188
854.451	3325
854.585	3138
854.72	3116
854.854	3241
854.988	3089
855.122	3123
855.256	3043
855.39	3138
855.524	3253
855.658	3230
855.792	3176
855.926	3207
856.06	3264
856.194	3306
856.327	3173
856.461	3112
856.595	3135
856.729	3119
856.862	3264
856.996	3169
857.13	3226
857.263	3253
857.397	3302
857.53	3142
857.664	3203
857.797	3253
857.931	3291
858.064	3165
858.197	3260
858.331	3165
858.464	3138
858.597	3024
858.731	3180
858.864	3226
858.997	3112
859.13	3192
859.263	3211
859.396	3264
859.529	3138
859.662	3085
859.795	3058
859.928	3188
860.061	3306
860.194	3291
860.327	3180
860.46	3131
860.592	3272
860.725	3279
860.858	3279
860.99	3112
861.123	3116
861.256	3077
861.388	3165
861.521	3869
861.653	3074
861.786	3001
861.918	3020
862.05	3077
862.183	3138
862.315	3150
862.447	3245
862.58	3112
862.712	2952
862.844	2914
862.976	3009
863.108	3005
863.24	3450
863.372	2876
863.504	3005
863.636	2971
863.768	3085
863.9	3017
864.032	2922
864.164	2990
864.296	3036
864.428	3100
864.559	3127
864.691	3104
864.823	3093
864.954	3036
865.086	3070
865.217	3020
865.349	2986
865.48	3024
865.612	3085
865.743	3184
865.875	3013
866.006	2979
866.137	2979
866.269	2960
866.4	2967
866.531	2944
866.662	2883
866.793	2933
866.924	2899
867.055	2971
867.186	2941
867.317	2922
867.448	2899
867.579	2868
867.71	2861
867.841	2872
867.972	2906
868.103	2948
868.233	2910
868.364	2876
868.495	2941
868.625	3104
868.756	3211
868.886	3009
869.017	3043
869.147	3211
869.278	3188
869.408	3062
869.539	3043
869.669	3119
869.799	3100
869.929	3146
870.06	3119
870.19	3348
870.32	3310
870.45	3310
870.58	3382
870.71	3473
870.84	3473
870.97	3313
871.1	3279
871.23	3481
871.36	3488
871.489	3363
871.619	3412
871.749	3443
871.879	3515
872.008	3507
872.138	3389
872.267	3325
872.397	3165
872.526	3119
872.656	3039
872.785	3119
872.915	3272
873.044	3348
873.173	3260
873.303	3233
873.432	3272
873.561	3313
873.69	3161
873.819	3169
873.948	3226
874.077	3135
874.206	3074
874.335	3100
874.464	3253
874.593	3428
874.722	3253
874.851	3431
874.979	3370
875.108	3359
875.237	3203
875.365	3214
875.494	3188
875.623	3283
875.751	3138
875.88	3119
876.008	3237
876.136	3249
876.265	3405
876.393	3538
876.521	3416
876.65	3462
876.778	3351
876.906	3256
877.034	3195
877.162	3256
877.29	3195
877.418	3279
877.546	3268
877.674	3249
877.802	3313
877.93	3268
878.058	3176
878.185	3112
878.313	3253
878.441	3272
878.568	3097
878.696	3169
878.824	3325
878.951	3374
879.079	3485
879.206	3622
879.333	3443
879.461	3332
879.588	3378
879.715	3496
879.842	3587
879.97	3378
880.097	3214
880.224	3123
880.351	3195
880.478	3218
880.605	3237
880.732	3237
880.859	3515
880.986	3283
881.112	3359
881.239	3226
881.366	3100
881.493	3058
881.619	3036
881.746	3100
881.872	3119
881.999	3142
882.125	3150
882.252	3279
882.378	3306
882.505	3431
882.631	3279
882.757	3203
882.883	3233
883.01	3199
883.136	3184
883.262	3074
883.388	3119
883.514	3340
883.64	3409
883.766	3306
883.892	3226
884.018	3253
884.143	3428
884.269	3511
884.395	3230
884.52	3169
884.646	3245
884.772	3138
884.897	3123
885.023	3195
885.148	3348
885.274	3447
885.399	3374
885.524	3336
885.65	3256
885.775	3344
885.9	3291
886.025	3466
886.15	3378
886.275	3310
886.4	3272
886.525	3332
886.65	3306
886.775	3313
886.9	3515
887.025	3633
887.149	3397
887.274	3245
887.399	3199
887.523	3260
887.648	3188
887.773	3207
887.897	3397
888.021	3420
888.146	3306
888.27	3431
888.395	3538
888.519	3477
888.643	3492
888.767	3458
888.891	3332
889.015	3237
889.139	3340
889.263	3279
889.387	3397
889.511	3526
889.635	3466
889.759	3321
889.883	3310
890.006	3382
890.13	3496
890.254	3291
890.377	3363
890.501	3211
890.624	3207
890.748	3332
890.871	3203
890.995	3104
891.118	3085
891.241	3207
891.364	3249
891.488	3340
891.611	3176
891.734	3237
891.857	3336
891.98	3256
892.103	3409
892.226	3298
892.349	3245
892.471	3135
892.594	3291
892.717	3302
892.839	3272
892.962	3321
893.085	3351
893.207	3291
893.33	3199
893.452	3188
893.575	3344
893.697	3245
893.819	3511
893.941	3519
894.064	3443
894.186	3298
894.308	3260
894.43	3458
894.552	3549
894.674	3492
894.796	3287
894.918	3313
895.04	3256
895.161	3420
895.283	3454
895.405	3351
895.526	3359
895.648	3420
895.769	3450
895.891	3443
896.012	3504
896.134	3450
896.255	3386
896.376	3393
896.498	3378
896.619	3439
896.74	3348
896.861	3454
896.982	3717
897.103	3846
897.224	3614
897.345	3523
897.466	3439
897.587	3538
897.708	3614
897.828	3568
897.949	3416
898.07	3363
898.19	3409
898.311	3633
898.431	3428
898.552	3530
898.672	3644
898.792	3553
898.913	3564
899.033	3424
899.153	3275
899.273	3249
899.393	3302
899.513	3313
899.633	3367
899.753	3332
899.873	3302
899.993	3393
900.113	3348
900.232	3393
900.352	3348
900.472	3329
900.591	3249
900.711	3310
900.83	3249
900.95	3412
901.069	3488
901.189	3348
901.308	3207
901.427	3157
901.546	3218
901.665	3321
901.784	3313
901.904	3241
902.023	3169
902.141	3032
902.26	3036
902.379	3199
902.498	3142
902.617	3062
902.735	3237
902.854	3275
902.973	3226
903.091	3043
903.21	3043
903.328	3135
903.446	3127
903.565	3116
903.683	3214
903.801	3108
903.919	3233
904.038	3298
904.156	3176
904.274	3298
904.392	3287
904.51	3298
904.627	3378
904.745	3462
904.863	3526
904.981	3268
905.098	3195
905.216	3211
905.334	3287
905.451	3321
905.569	3332
905.686	3420
905.803	3454
905.921	3253
906.038	3431
906.155	3374
906.272	3298
906.389	3340
906.506	3222
906.623	3287
906.74	3302
906.857	3245
906.974	3264
907.091	3496
907.208	3587
907.324	3523
907.441	3370
907.557	3214
907.674	3249
907.79	3230
907.907	3268
908.023	3378
908.139	3386
908.256	3359
908.372	3405
908.488	3363
908.604	3264
908.72	3249
908.836	3291
908.952	3283
909.068	3313
909.184	3481
909.3	3416
909.415	3511
909.531	3477
909.647	3211
909.762	3279
909.878	3306
909.993	3386
910.108	3329
910.224	3340
910.339	3367
910.454	3348
910.57	3275
910.685	3275
910.8	3622
910.915	3542
911.03	3462
911.145	3272
911.259	3260
911.374	3325
911.489	3279
911.604	3207
911.718	3142
911.833	3157
911.947	3028
912.062	2982
912.176	3176
912.291	3233
912.405	3241
912.519	3439
912.633	3481
912.748	3370
912.862	3279
912.976	3203
913.09	3089
913.204	3161
913.318	3237
913.431	3344
913.545	3325
913.659	3409
913.772	3321
913.886	3233
914	3214
914.113	3355
914.226	3424
914.34	3370
914.453	3165
914.566	3397
914.68	3291
914.793	3287
914.906	3142
915.019	3097
915.132	3085
915.245	3176
915.358	3207
915.47	3226
915.583	3310
915.696	3317
915.809	3435
915.921	3466
916.034	3253
916.146	3291
916.259	3199
916.371	3405
916.483	3409
916.595	3306
916.708	3378
916.82	3329
916.932	3363
917.044	3367
917.156	3374
917.268	3272
917.38	3310
917.491	3317
917.603	3351
917.715	3443
917.826	3462
917.938	3389
918.049	3275
918.161	3458
918.272	3622
918.384	3595
918.495	3500
918.606	3374
918.717	3264
918.828	3344
918.939	3416
919.05	3291
919.161	3397
919.272	3180
919.383	3310
919.494	3534
919.604	3675
919.715	3507
919.826	3397
919.936	3439
920.047	3572
920.157	3549
920.267	3759
920.378	3625
920.488	3557
920.598	3740
920.708	3964
920.818	3838
920.928	3865
921.038	4036
921.148	4032
921.258	3717
921.368	3660
921.477	3576
921.587	3515
921.697	3458
921.806	3663
921.916	3557
922.025	3351
922.134	3374
922.244	3317
922.353	3431
922.462	3283
922.571	3253
922.68	3123
922.789	3085
922.898	3146
923.007	3085
923.116	3173
923.224	3165
923.333	3161
923.442	3154
923.55	3100
923.659	3116
923.767	3249
923.876	3116
923.984	3211
924.092	3116
924.201	3180
924.309	3230
924.417	3275
924.525	3173
924.633	3226
924.741	4196
924.849	3055
924.956	3294
925.064	3104
925.172	3051
925.279	3108
925.387	3195
925.494	3226
925.602	3355
925.709	3336
925.816	3222
925.924	3272
926.031	3359
926.138	3321
926.245	3355
926.352	3241
926.459	3447
926.566	3473
926.673	3302
926.779	3260
926.886	3237
926.993	3116
927.099	3135
927.206	3119
927.312	3123
927.419	3218
927.525	3222
927.631	3256
927.737	3146
927.843	3161
927.95	3020
928.056	3161
928.162	3214
928.267	3195
928.373	3770
928.479	3348
928.585	3074
928.69	3222
928.796	3268
928.901	3135
929.007	3036
929.112	3230
929.218	3169
929.323	3150
929.428	3150
929.533	3302
929.638	3150
929.743	3211
929.848	3279
929.953	3237
930.058	3165
930.163	2979
930.267	3032
930.372	3222
930.477	3043
930.581	3272
930.685	3180
930.79	3077
930.894	3123
930.998	3077
931.103	3275
931.207	2963
931.311	2941
931.415	2910
931.519	2788
931.623	2849
