Data from test_V78500241_170.txt Node
Date: Fri Mar 25 16:16:22 CST 2022
User: usil
Spectrometer: V785-0024
Trigger mode: 0
Integration Time (sec): 4.000000E-1
Scans to average: 1
Nonlinearity correction enabled: false
Boxcar width: 0
Storing dark spectrum: false
XAxis mode: Wavelengths
Number of Pixels in Spectrum: 1024
>>>>>Begin Spectral Data<<<<<
801.071	2944
801.214	3009
801.356	2922
801.499	2929
801.641	2944
801.783	2952
801.926	3081
802.068	3001
802.211	3028
802.353	3070
802.496	2998
802.638	3047
802.78	3051
802.923	3097
803.065	3055
803.208	2937
803.35	2979
803.492	2971
803.635	2994
803.777	2842
803.919	2868
804.061	3233
804.204	2967
804.346	2929
804.488	2880
804.63	3028
804.773	2887
804.915	2941
805.057	3119
805.199	2925
805.341	3001
805.483	3077
805.626	3036
805.768	2979
805.91	3104
806.052	3123
806.194	3043
806.336	3260
806.478	3070
806.62	2975
806.762	3001
806.904	3085
807.046	3165
807.188	3024
807.33	2948
807.472	3036
807.614	2956
807.756	3017
807.898	2929
808.04	2929
808.182	3039
808.324	2982
808.465	2910
808.607	2868
808.749	2823
808.891	2872
809.033	2975
809.174	2956
809.316	2910
809.458	2895
809.6	2819
809.741	2815
809.883	2792
810.025	2876
810.166	2887
810.308	2883
810.45	2876
810.591	2811
810.733	2788
810.875	2853
811.016	2781
811.158	2769
811.299	2864
811.441	2937
811.582	2906
811.724	2838
811.865	2876
812.007	2910
812.148	2914
812.29	2845
812.431	2910
812.573	2941
812.714	2982
812.855	3066
812.997	3074
813.138	3154
813.279	3036
813.421	2990
813.562	2998
813.703	2887
813.845	2902
813.986	2834
814.127	2781
814.268	2853
814.41	2876
814.551	2842
814.692	2944
814.833	2849
814.974	2906
815.115	2994
815.256	2823
815.397	2842
815.539	2891
815.68	2788
815.821	2815
815.962	2941
816.103	2963
816.244	2868
816.385	2872
816.526	3013
816.666	2933
816.807	2781
816.948	2861
817.089	2925
817.23	2910
817.371	2773
817.512	2785
817.653	2876
817.793	2887
817.934	2899
818.075	2971
818.216	3024
818.356	3036
818.497	2918
818.638	2815
818.778	2842
818.919	2815
819.06	2777
819.2	2910
819.341	2842
819.481	2773
819.622	2941
819.762	3119
819.903	3055
820.043	2948
820.184	2899
820.324	2956
820.465	3058
820.605	3047
820.746	3047
820.886	2979
821.026	3119
821.167	3180
821.307	3226
821.447	3294
821.588	3245
821.728	3275
821.868	3245
822.008	3116
822.149	3218
822.289	3241
822.429	3119
822.569	3097
822.709	3192
822.849	3051
822.99	3085
823.13	3176
823.27	3211
823.41	3150
823.55	3161
823.69	3211
823.83	3214
823.97	3097
824.11	3036
824.25	3024
824.389	3058
824.529	3135
824.669	3108
824.809	3214
824.949	3287
825.089	3222
825.228	3180
825.368	3028
825.508	2990
825.648	2986
825.787	3043
825.927	3051
826.067	2967
826.206	2956
826.346	3043
826.485	3093
826.625	3093
826.765	3256
826.904	3230
827.044	3001
827.183	2960
827.323	2880
827.462	2994
827.601	2944
827.741	2960
827.88	2990
828.02	2868
828.159	3009
828.298	3043
828.437	3131
828.577	3070
828.716	3272
828.855	3085
828.994	2933
829.134	2925
829.273	2937
829.412	2906
829.551	2868
829.69	2902
829.829	3009
829.968	3135
830.107	3020
830.246	3062
830.385	2929
830.524	2895
830.663	2842
830.802	2746
830.941	2674
831.08	2655
831.219	2792
831.357	2739
831.496	2963
831.635	2720
831.774	2663
831.913	2674
832.051	2571
832.19	2606
832.329	2739
832.467	2549
832.606	2473
832.744	2594
832.883	2575
833.022	2625
833.16	2651
833.299	2689
833.437	2727
833.576	2727
833.714	2731
833.852	2727
833.991	2746
834.129	2868
834.267	2891
834.406	2800
834.544	2883
834.682	2933
834.821	2887
834.959	3093
835.097	2929
835.235	3081
835.373	3009
835.511	3062
835.65	2975
835.788	2971
835.926	2845
836.064	2849
836.202	2830
836.34	3146
836.478	3169
836.615	3055
836.753	3157
836.891	3218
837.029	3169
837.167	3138
837.305	3051
837.443	3032
837.58	2998
837.718	3161
837.856	3089
837.993	3024
838.131	3150
838.269	3104
838.406	3161
838.544	3116
838.681	2941
838.819	2941
838.956	2849
839.094	2830
839.231	2899
839.369	3017
839.506	3401
839.643	3249
839.781	2998
839.918	2982
840.055	3074
840.193	3070
840.33	3070
840.467	3119
840.604	3138
840.742	3439
840.879	3085
841.016	3043
841.153	3142
841.29	3363
841.427	3294
841.564	3291
841.701	3291
841.838	3241
841.975	3165
842.112	3203
842.249	3119
842.385	3066
842.522	3272
842.659	3093
842.796	3085
842.933	3135
843.069	3081
843.206	3055
843.343	3195
843.479	3142
843.616	3157
843.752	2914
843.889	2918
844.025	3085
844.162	2891
844.298	3074
844.435	2960
844.571	2944
844.708	3058
844.844	3211
844.98	3253
845.117	3214
845.253	3066
845.389	2994
845.525	3131
845.661	3138
845.798	3032
845.934	3131
846.07	3032
846.206	3249
846.342	3359
846.478	3207
846.614	3116
846.75	3070
846.886	3070
847.022	3268
847.158	3154
847.294	3214
847.429	3211
847.565	3184
847.701	3504
847.837	3051
847.972	2994
848.108	3165
848.244	3146
848.379	3028
848.515	2941
848.65	2952
848.786	2990
848.921	3017
849.057	3123
849.192	3169
849.328	3077
849.463	3108
849.598	3081
849.734	3074
849.869	2990
850.004	2925
850.14	2979
850.275	2895
850.41	2864
850.545	2887
850.68	2899
850.815	2990
850.95	2956
851.085	3192
851.22	3154
851.355	3077
851.49	2979
851.625	3009
851.76	3047
851.895	2948
852.03	2933
852.165	3020
852.299	3154
852.434	3169
852.569	3097
852.703	3154
852.838	3291
852.973	3344
853.107	3348
853.242	3188
853.376	3089
853.511	2982
853.645	3074
853.78	3199
853.914	3123
854.048	3116
854.183	3051
854.317	3157
854.451	3279
854.585	3180
854.72	3146
854.854	3245
854.988	3085
855.122	3085
855.256	3024
855.39	3142
855.524	3249
855.658	3218
855.792	3173
855.926	3207
856.06	3207
856.194	3279
856.327	3180
856.461	3089
856.595	3127
856.729	3123
856.862	3214
856.996	3211
857.13	3226
857.263	3233
857.397	3325
857.53	3116
857.664	3188
857.797	3222
857.931	3264
858.064	3173
858.197	3237
858.331	3135
858.464	3116
858.597	2967
858.731	3173
858.864	3154
858.997	3074
859.13	3176
859.263	3180
859.396	3226
859.529	3070
859.662	3097
859.795	3077
859.928	3165
860.061	3306
860.194	3264
860.327	3150
860.46	3089
860.592	3275
860.725	3237
860.858	3233
860.99	3116
861.123	3051
861.256	3062
861.388	3161
861.521	3808
861.653	3024
861.786	2998
861.918	3028
862.05	3093
862.183	3119
862.315	3138
862.447	3211
862.58	3154
862.712	2948
862.844	2880
862.976	3017
863.108	3020
863.24	3302
863.372	2857
863.504	2982
863.636	2979
863.768	3051
863.9	2979
864.032	2918
864.164	2967
864.296	3089
864.428	3077
864.559	3116
864.691	3070
864.823	3097
864.954	3028
865.086	3077
865.217	3047
865.349	2960
865.48	2979
865.612	3066
865.743	3135
865.875	3024
866.006	2982
866.137	3009
866.269	2948
866.4	2990
866.531	2918
866.662	2891
866.793	2937
866.924	2925
867.055	2971
867.186	2929
867.317	2910
867.448	2849
867.579	2845
867.71	2868
867.841	2842
867.972	2929
868.103	2902
868.233	2902
868.364	2864
868.495	2922
868.625	3104
868.756	3184
868.886	3020
869.017	3066
869.147	3176
869.278	3203
869.408	3055
869.539	3039
869.669	3142
869.799	3070
869.929	3154
870.06	3116
870.19	3348
870.32	3272
870.45	3325
870.58	3397
870.71	3439
870.84	3454
870.97	3283
871.1	3268
871.23	3542
871.36	3424
871.489	3409
871.619	3428
871.749	3428
871.879	3443
872.008	3511
872.138	3389
872.267	3294
872.397	3150
872.526	3104
872.656	3047
872.785	3097
872.915	3256
873.044	3325
873.173	3214
873.303	3268
873.432	3264
873.561	3253
873.69	3138
873.819	3154
873.948	3199
874.077	3116
874.206	3028
874.335	3081
874.464	3230
874.593	3382
874.722	3275
874.851	3416
874.979	3344
875.108	3386
875.237	3230
875.365	3203
875.494	3207
875.623	3268
875.751	3058
875.88	3157
876.008	3230
876.136	3279
876.265	3382
876.393	3530
876.521	3405
876.65	3382
876.778	3317
876.906	3253
877.034	3218
877.162	3241
877.29	3173
877.418	3260
877.546	3275
877.674	3245
877.802	3237
877.93	3245
878.058	3165
878.185	3146
878.313	3180
878.441	3222
878.568	3070
878.696	3138
878.824	3237
878.951	3317
879.079	3466
879.206	3644
879.333	3416
879.461	3344
879.588	3332
879.715	3488
879.842	3622
879.97	3401
880.097	3214
880.224	3138
880.351	3203
880.478	3211
880.605	3192
880.732	3211
880.859	3492
880.986	3310
881.112	3317
881.239	3233
881.366	3055
881.493	3043
881.619	3055
881.746	3051
881.872	3112
881.999	3127
882.125	3173
882.252	3264
882.378	3306
882.505	3447
882.631	3294
882.757	3192
882.883	3230
883.01	3241
883.136	3207
883.262	3116
883.388	3104
883.514	3348
883.64	3374
883.766	3306
883.892	3199
884.018	3260
884.143	3393
884.269	3519
884.395	3241
884.52	3176
884.646	3203
884.772	3142
884.897	3123
885.023	3222
885.148	3329
885.274	3439
885.399	3355
885.524	3260
885.65	3256
885.775	3310
885.9	3325
886.025	3458
886.15	3363
886.275	3302
886.4	3249
886.525	3321
886.65	3321
886.775	3302
886.9	3519
887.025	3641
887.149	3405
887.274	3268
887.399	3180
887.523	3195
887.648	3233
887.773	3207
887.897	3378
888.021	3393
888.146	3340
888.27	3435
888.395	3557
888.519	3450
888.643	3458
888.767	3481
888.891	3321
889.015	3264
889.139	3313
889.263	3245
889.387	3424
889.511	3568
889.635	3488
889.759	3256
889.883	3287
890.006	3412
890.13	3519
890.254	3313
890.377	3374
890.501	3207
890.624	3230
890.748	3291
890.871	3199
890.995	3097
891.118	3127
891.241	3218
891.364	3253
891.488	3351
891.611	3195
891.734	3256
891.857	3302
891.98	3241
892.103	3344
892.226	3287
892.349	3230
892.471	3176
892.594	3253
892.717	3321
892.839	3302
892.962	3302
893.085	3374
893.207	3344
893.33	3192
893.452	3260
893.575	3363
893.697	3283
893.819	3443
893.941	3515
894.064	3477
894.186	3332
894.308	3302
894.43	3458
894.552	3561
894.674	3485
894.796	3298
894.918	3321
895.04	3272
895.161	3496
895.283	3424
895.405	3344
895.526	3336
895.648	3477
895.769	3428
895.891	3469
896.012	3504
896.134	3507
896.255	3420
896.376	3397
896.498	3359
896.619	3469
896.74	3363
896.861	3431
896.982	3709
897.103	3857
897.224	3660
897.345	3538
897.466	3439
897.587	3530
897.708	3637
897.828	3580
897.949	3481
898.07	3367
898.19	3401
898.311	3622
898.431	3454
898.552	3500
898.672	3614
898.792	3629
898.913	3549
899.033	3374
899.153	3306
899.273	3245
899.393	3310
899.513	3310
899.633	3332
899.753	3405
899.873	3306
899.993	3416
900.113	3348
900.232	3397
900.352	3321
900.472	3306
900.591	3241
900.711	3291
900.83	3256
900.95	3416
901.069	3526
901.189	3340
901.308	3199
901.427	3135
901.546	3165
901.665	3310
901.784	3351
901.904	3214
902.023	3169
902.141	3020
902.26	2990
902.379	3142
902.498	3104
902.617	3085
902.735	3233
902.854	3283
902.973	3192
903.091	3066
903.21	3085
903.328	3157
903.446	3123
903.565	3146
903.683	3230
903.801	3165
903.919	3272
904.038	3294
904.156	3184
904.274	3275
904.392	3249
904.51	3287
904.627	3340
904.745	3515
904.863	3519
904.981	3264
905.098	3157
905.216	3237
905.334	3332
905.451	3317
905.569	3332
905.686	3462
905.803	3431
905.921	3310
906.038	3439
906.155	3374
906.272	3279
906.389	3317
906.506	3260
906.623	3241
906.74	3226
906.857	3207
906.974	3272
907.091	3466
907.208	3564
907.324	3485
907.441	3420
907.557	3199
907.674	3275
907.79	3211
907.907	3298
908.023	3367
908.139	3378
908.256	3329
908.372	3370
908.488	3359
908.604	3325
908.72	3253
908.836	3294
908.952	3294
909.068	3355
909.184	3515
909.3	3405
909.415	3511
909.531	3500
909.647	3279
909.762	3310
909.878	3260
909.993	3370
910.108	3329
910.224	3359
910.339	3416
910.454	3340
910.57	3329
910.685	3264
910.8	3610
910.915	3538
911.03	3439
911.145	3275
911.259	3283
911.374	3313
911.489	3268
911.604	3233
911.718	3161
911.833	3203
911.947	3062
912.062	3020
912.176	3176
912.291	3192
912.405	3218
912.519	3447
912.633	3454
912.748	3374
912.862	3272
912.976	3150
913.09	3093
913.204	3180
913.318	3222
913.431	3325
913.545	3325
913.659	3450
913.772	3382
913.886	3230
914	3214
914.113	3370
914.226	3466
914.34	3405
914.453	3188
914.566	3416
914.68	3298
914.793	3325
914.906	3161
915.019	3108
915.132	3100
915.245	3195
915.358	3218
915.47	3233
915.583	3268
915.696	3310
915.809	3405
915.921	3431
916.034	3264
916.146	3275
916.259	3222
916.371	3370
916.483	3378
916.595	3256
916.708	3332
916.82	3344
916.932	3378
917.044	3370
917.156	3389
917.268	3268
917.38	3340
917.491	3313
917.603	3374
917.715	3485
917.826	3496
917.938	3382
918.049	3283
918.161	3420
918.272	3625
918.384	3568
918.495	3492
918.606	3386
918.717	3256
918.828	3405
918.939	3462
919.05	3355
919.161	3378
919.272	3188
919.383	3306
919.494	3515
919.604	3705
919.715	3515
919.826	3443
919.936	3454
920.047	3591
920.157	3595
920.267	3808
920.378	3644
920.488	3610
920.598	3819
920.708	3991
920.818	3850
920.928	3888
921.038	4074
921.148	4006
921.258	3720
921.368	3641
921.477	3587
921.587	3545
921.697	3454
921.806	3675
921.916	3580
922.025	3355
922.134	3412
922.244	3355
922.353	3393
922.462	3275
922.571	3245
922.68	3176
922.789	3058
922.898	3157
923.007	3097
923.116	3218
923.224	3180
923.333	3180
923.442	3100
923.55	3104
923.659	3157
923.767	3272
923.876	3138
923.984	3279
924.092	3062
924.201	3233
924.309	3184
924.417	3279
924.525	3192
924.633	3226
924.741	4211
924.849	3047
924.956	3249
925.064	3119
925.172	3047
925.279	3119
925.387	3180
925.494	3199
925.602	3355
925.709	3363
925.816	3237
925.924	3313
926.031	3382
926.138	3302
926.245	3412
926.352	3264
926.459	3424
926.566	3481
926.673	3329
926.779	3256
926.886	3272
926.993	3211
927.099	3154
927.206	3108
927.312	3131
927.419	3253
927.525	3211
927.631	3291
927.737	3173
927.843	3169
927.95	3070
928.056	3154
928.162	3188
928.267	3256
928.373	3861
928.479	3283
928.585	3100
928.69	3211
928.796	3268
928.901	3146
929.007	3043
929.112	3233
929.218	3214
929.323	3138
929.428	3150
929.533	3321
929.638	3116
929.743	3245
929.848	3306
929.953	3214
930.058	3203
930.163	3017
930.267	3074
930.372	3218
930.477	3043
930.581	3363
930.685	3192
930.79	3066
930.894	3131
930.998	3100
931.103	3291
931.207	2986
931.311	2971
931.415	2929
931.519	2773
931.623	2830
