Data from test_V78500241_1474.txt Node
Date: Fri Mar 25 16:25:24 CST 2022
User: usil
Spectrometer: V785-0024
Trigger mode: 0
Integration Time (sec): 4.000000E-1
Scans to average: 1
Nonlinearity correction enabled: false
Boxcar width: 0
Storing dark spectrum: false
XAxis mode: Wavelengths
Number of Pixels in Spectrum: 1024
>>>>>Begin Spectral Data<<<<<
801.071	2902
801.214	2967
801.356	2880
801.499	2872
801.641	2845
801.783	2918
801.926	3062
802.068	2990
802.211	3013
802.353	3017
802.496	2941
802.638	3028
802.78	3020
802.923	3062
803.065	2986
803.208	2895
803.35	2937
803.492	2960
803.635	2933
803.777	2769
803.919	2819
804.061	3188
804.204	2944
804.346	2880
804.488	2853
804.63	2990
804.773	2880
804.915	2910
805.057	3085
805.199	2918
805.341	2990
805.483	3055
805.626	3024
805.768	2929
805.91	3077
806.052	3100
806.194	3039
806.336	3222
806.478	3062
806.62	2906
806.762	2971
806.904	3039
807.046	3180
807.188	2963
807.33	2906
807.472	2979
807.614	2910
807.756	2975
807.898	2925
808.04	2864
808.182	2975
808.324	2971
808.465	2883
808.607	2868
808.749	2800
808.891	2781
809.033	2982
809.174	2948
809.316	2868
809.458	2891
809.6	2785
809.741	2773
809.883	2754
810.025	2883
810.166	2861
810.308	2834
810.45	2853
810.591	2800
810.733	2739
810.875	2807
811.016	2792
811.158	2712
811.299	2769
811.441	2944
811.582	2864
811.724	2792
811.865	2861
812.007	2899
812.148	2876
812.29	2819
812.431	2895
812.573	2948
812.714	2944
812.855	3062
812.997	3032
813.138	3142
813.279	3017
813.421	3009
813.562	2925
813.703	2876
813.845	2861
813.986	2750
814.127	2712
814.268	2845
814.41	2834
814.551	2842
814.692	2857
814.833	2823
814.974	2895
815.115	2948
815.256	2868
815.397	2830
815.539	2826
815.68	2777
815.821	2750
815.962	2933
816.103	2883
816.244	2891
816.385	2845
816.526	2933
816.666	2902
816.807	2750
816.948	2880
817.089	2895
817.23	2895
817.371	2773
817.512	2800
817.653	2842
817.793	2796
817.934	2906
818.075	2967
818.216	2990
818.356	3043
818.497	2895
818.638	2807
818.778	2819
818.919	2815
819.06	2773
819.2	2891
819.341	2766
819.481	2785
819.622	2910
819.762	3085
819.903	3051
820.043	2914
820.184	2918
820.324	2918
820.465	3001
820.605	3017
820.746	3036
820.886	2960
821.026	3112
821.167	3150
821.307	3256
821.447	3294
821.588	3237
821.728	3203
821.868	3195
822.008	3116
822.149	3173
822.289	3211
822.429	3058
822.569	3112
822.709	3184
822.849	3043
822.99	3070
823.13	3176
823.27	3188
823.41	3085
823.55	3146
823.69	3131
823.83	3157
823.97	3058
824.11	3005
824.25	2982
824.389	3024
824.529	3116
824.669	3066
824.809	3253
824.949	3253
825.089	3218
825.228	3119
825.368	2960
825.508	2918
825.648	2960
825.787	2986
825.927	2998
826.067	2952
826.206	2998
826.346	3039
826.485	3047
826.625	3104
826.765	3287
826.904	3203
827.044	2986
827.183	2948
827.323	2842
827.462	2960
827.601	2914
827.741	2952
827.88	2914
828.02	2842
828.159	2994
828.298	3062
828.437	3116
828.577	3055
828.716	3192
828.855	3055
828.994	2891
829.134	2883
829.273	2956
829.412	2864
829.551	2838
829.69	2918
829.829	3005
829.968	3093
830.107	3017
830.246	2986
830.385	2914
830.524	2887
830.663	2807
830.802	2716
830.941	2670
831.08	2636
831.219	2773
831.357	2796
831.496	2933
831.635	2705
831.774	2625
831.913	2659
832.051	2537
832.19	2564
832.329	2655
832.467	2499
832.606	2480
832.744	2545
832.883	2587
833.022	2579
833.16	2640
833.299	2670
833.437	2701
833.576	2674
833.714	2686
833.852	2754
833.991	2769
834.129	2807
834.267	2834
834.406	2815
834.544	2864
834.682	2857
834.821	2853
834.959	3066
835.097	2883
835.235	3081
835.373	2971
835.511	3005
835.65	2948
835.788	2944
835.926	2864
836.064	2823
836.202	2845
836.34	3043
836.478	3119
836.615	3036
836.753	3097
836.891	3237
837.029	3176
837.167	3081
837.305	3020
837.443	3043
837.58	2952
837.718	3112
837.856	3066
837.993	3047
838.131	3097
838.269	3093
838.406	3089
838.544	3047
838.681	2914
838.819	2906
838.956	2800
839.094	2804
839.231	2914
839.369	3017
839.506	3370
839.643	3207
839.781	3017
839.918	2979
840.055	3043
840.193	3051
840.33	3047
840.467	3081
840.604	3150
840.742	3378
840.879	3058
841.016	3024
841.153	3123
841.29	3321
841.427	3291
841.564	3291
841.701	3272
841.838	3203
841.975	3150
842.112	3226
842.249	3074
842.385	3055
842.522	3275
842.659	3100
842.796	3028
842.933	3123
843.069	3055
843.206	3058
843.343	3173
843.479	3104
843.616	3146
843.752	2872
843.889	2861
844.025	3051
844.162	2880
844.298	3100
844.435	2937
844.571	2929
844.708	3062
844.844	3176
844.98	3237
845.117	3192
845.253	3001
845.389	3009
845.525	3077
845.661	3081
845.798	2998
845.934	3119
846.07	3036
846.206	3256
846.342	3287
846.478	3211
846.614	3104
846.75	3062
846.886	3043
847.022	3253
847.158	3116
847.294	3203
847.429	3237
847.565	3192
847.701	3439
847.837	3039
847.972	2963
848.108	3157
848.244	3142
848.379	2986
848.515	2910
848.65	2914
848.786	2967
848.921	3001
849.057	3127
849.192	3157
849.328	3081
849.463	3089
849.598	3055
849.734	3043
849.869	2963
850.004	2948
850.14	2944
850.275	2918
850.41	2849
850.545	2906
850.68	2883
850.815	2937
850.95	2967
851.085	3165
851.22	3081
851.355	3028
851.49	2971
851.625	3032
851.76	3017
851.895	2933
852.03	2880
852.165	3028
852.299	3135
852.434	3184
852.569	3157
852.703	3180
852.838	3253
852.973	3340
853.107	3332
853.242	3131
853.376	3062
853.511	2986
853.645	3058
853.78	3218
853.914	3081
854.048	3123
854.183	3058
854.317	3135
854.451	3253
854.585	3100
854.72	3081
854.854	3192
854.988	3062
855.122	3085
855.256	2960
855.39	3119
855.524	3245
855.658	3211
855.792	3142
855.926	3180
856.06	3214
856.194	3245
856.327	3119
856.461	3058
856.595	3047
856.729	3112
856.862	3199
856.996	3123
857.13	3211
857.263	3218
857.397	3306
857.53	3123
857.664	3218
857.797	3211
857.931	3253
858.064	3116
858.197	3211
858.331	3142
858.464	3093
858.597	3017
858.731	3100
858.864	3112
858.997	3100
859.13	3108
859.263	3173
859.396	3180
859.529	3089
859.662	3077
859.795	3070
859.928	3093
860.061	3245
860.194	3260
860.327	3131
860.46	3077
860.592	3237
860.725	3241
860.858	3192
860.99	3093
861.123	3070
861.256	3036
861.388	3131
861.521	3838
861.653	3020
861.786	2960
861.918	2967
862.05	3009
862.183	3081
862.315	3150
862.447	3195
862.58	3085
862.712	2933
862.844	2872
862.976	3005
863.108	3020
863.24	3306
863.372	2861
863.504	2956
863.636	2933
863.768	3036
863.9	2948
864.032	2872
864.164	2960
864.296	3039
864.428	3085
864.559	3081
864.691	3097
864.823	3066
864.954	3047
865.086	3036
865.217	2998
865.349	2960
865.48	2994
865.612	3024
865.743	3176
865.875	2967
866.006	2929
866.137	2960
866.269	2941
866.4	2941
866.531	2918
866.662	2876
866.793	2880
866.924	2887
867.055	2944
867.186	2944
867.317	2891
867.448	2811
867.579	2849
867.71	2849
867.841	2838
867.972	2937
868.103	2899
868.233	2880
868.364	2842
868.495	2891
868.625	3055
868.756	3192
868.886	2963
869.017	2998
869.147	3150
869.278	3135
869.408	3058
869.539	3017
869.669	3093
869.799	3009
869.929	3116
870.06	3116
870.19	3298
870.32	3260
870.45	3298
870.58	3340
870.71	3416
870.84	3431
870.97	3294
871.1	3237
871.23	3462
871.36	3481
871.489	3363
871.619	3389
871.749	3412
871.879	3431
872.008	3458
872.138	3370
872.267	3222
872.397	3127
872.526	3077
872.656	2994
872.785	3089
872.915	3222
873.044	3306
873.173	3230
873.303	3253
873.432	3226
873.561	3184
873.69	3157
873.819	3135
873.948	3214
874.077	3108
874.206	3066
874.335	3077
874.464	3203
874.593	3370
874.722	3237
874.851	3367
874.979	3351
875.108	3336
875.237	3176
875.365	3142
875.494	3135
875.623	3233
875.751	3074
875.88	3112
876.008	3180
876.136	3218
876.265	3367
876.393	3469
876.521	3454
876.65	3340
876.778	3310
876.906	3214
877.034	3222
877.162	3226
877.29	3157
877.418	3260
877.546	3237
877.674	3233
877.802	3207
877.93	3211
878.058	3142
878.185	3108
878.313	3192
878.441	3222
878.568	3043
878.696	3131
878.824	3268
878.951	3302
879.079	3412
879.206	3625
879.333	3435
879.461	3310
879.588	3370
879.715	3447
879.842	3595
879.97	3386
880.097	3180
880.224	3100
880.351	3165
880.478	3233
880.605	3195
880.732	3207
880.859	3424
880.986	3294
881.112	3332
881.239	3237
881.366	3043
881.493	3066
881.619	2990
881.746	3074
881.872	3100
881.999	3157
882.125	3154
882.252	3218
882.378	3313
882.505	3401
882.631	3298
882.757	3131
882.883	3199
883.01	3237
883.136	3157
883.262	3077
883.388	3100
883.514	3268
883.64	3405
883.766	3317
883.892	3165
884.018	3249
884.143	3431
884.269	3576
884.395	3157
884.52	3169
884.646	3169
884.772	3108
884.897	3066
885.023	3150
885.148	3306
885.274	3409
885.399	3317
885.524	3298
885.65	3233
885.775	3279
885.9	3283
886.025	3431
886.15	3389
886.275	3298
886.4	3233
886.525	3340
886.65	3283
886.775	3275
886.9	3477
887.025	3644
887.149	3393
887.274	3233
887.399	3195
887.523	3199
887.648	3157
887.773	3176
887.897	3363
888.021	3439
888.146	3302
888.27	3439
888.395	3500
888.519	3431
888.643	3477
888.767	3477
888.891	3340
889.015	3218
889.139	3268
889.263	3264
889.387	3393
889.511	3515
889.635	3439
889.759	3283
889.883	3294
890.006	3374
890.13	3492
890.254	3275
890.377	3317
890.501	3199
890.624	3169
890.748	3340
890.871	3142
890.995	3097
891.118	3058
891.241	3173
891.364	3218
891.488	3272
891.611	3184
891.734	3260
891.857	3272
891.98	3222
892.103	3291
892.226	3283
892.349	3199
892.471	3119
892.594	3275
892.717	3272
892.839	3241
892.962	3283
893.085	3348
893.207	3264
893.33	3150
893.452	3211
893.575	3298
893.697	3241
893.819	3462
893.941	3462
894.064	3431
894.186	3279
894.308	3249
894.43	3428
894.552	3523
894.674	3454
894.796	3233
894.918	3294
895.04	3283
895.161	3386
895.283	3367
895.405	3291
895.526	3348
895.648	3443
895.769	3405
895.891	3443
896.012	3443
896.134	3428
896.255	3401
896.376	3412
896.498	3359
896.619	3393
896.74	3355
896.861	3386
896.982	3633
897.103	3842
897.224	3610
897.345	3462
897.466	3428
897.587	3469
897.708	3603
897.828	3534
897.949	3447
898.07	3355
898.19	3397
898.311	3618
898.431	3416
898.552	3458
898.672	3576
898.792	3587
898.913	3488
899.033	3382
899.153	3264
899.273	3207
899.393	3272
899.513	3268
899.633	3283
899.753	3332
899.873	3325
899.993	3351
900.113	3313
900.232	3355
900.352	3325
900.472	3268
900.591	3176
900.711	3294
900.83	3268
900.95	3397
901.069	3496
901.189	3363
901.308	3165
901.427	3135
901.546	3222
901.665	3283
901.784	3359
901.904	3233
902.023	3131
902.141	3017
902.26	3005
902.379	3100
902.498	3047
902.617	3028
902.735	3203
902.854	3241
902.973	3192
903.091	3005
903.21	3097
903.328	3154
903.446	3127
903.565	3077
903.683	3211
903.801	3127
903.919	3207
904.038	3272
904.156	3154
904.274	3279
904.392	3249
904.51	3306
904.627	3294
904.745	3462
904.863	3545
904.981	3268
905.098	3173
905.216	3188
905.334	3294
905.451	3306
905.569	3298
905.686	3439
905.803	3439
905.921	3310
906.038	3428
906.155	3332
906.272	3287
906.389	3298
906.506	3222
906.623	3264
906.74	3249
906.857	3165
906.974	3272
907.091	3428
907.208	3553
907.324	3443
907.441	3363
907.557	3188
907.674	3253
907.79	3188
907.907	3275
908.023	3386
908.139	3370
908.256	3325
908.372	3374
908.488	3367
908.604	3256
908.72	3192
908.836	3230
908.952	3279
909.068	3317
909.184	3458
909.3	3378
909.415	3492
909.531	3481
909.647	3256
909.762	3279
909.878	3222
909.993	3359
910.108	3340
910.224	3332
910.339	3409
910.454	3344
910.57	3298
910.685	3249
910.8	3599
910.915	3458
911.03	3420
911.145	3256
911.259	3283
911.374	3291
911.489	3253
911.604	3176
911.718	3104
911.833	3154
911.947	2986
912.062	3020
912.176	3176
912.291	3184
912.405	3218
912.519	3424
912.633	3450
912.748	3310
912.862	3283
912.976	3138
913.09	3028
913.204	3127
913.318	3237
913.431	3310
913.545	3321
913.659	3355
913.772	3325
913.886	3211
914	3176
914.113	3374
914.226	3397
914.34	3397
914.453	3203
914.566	3401
914.68	3306
914.793	3310
914.906	3112
915.019	3104
915.132	3070
915.245	3157
915.358	3173
915.47	3207
915.583	3275
915.696	3294
915.809	3355
915.921	3458
916.034	3249
916.146	3245
916.259	3176
916.371	3332
916.483	3344
916.595	3253
916.708	3279
916.82	3332
916.932	3310
917.044	3279
917.156	3313
917.268	3233
917.38	3291
917.491	3287
917.603	3382
917.715	3412
917.826	3469
917.938	3393
918.049	3241
918.161	3435
918.272	3553
918.384	3553
918.495	3473
918.606	3321
918.717	3222
918.828	3393
918.939	3420
919.05	3294
919.161	3355
919.272	3146
919.383	3325
919.494	3485
919.604	3644
919.715	3439
919.826	3389
919.936	3443
920.047	3637
920.157	3587
920.267	3812
920.378	3606
920.488	3542
920.598	3804
920.708	3960
920.818	3838
920.928	3800
921.038	4055
921.148	4010
921.258	3698
921.368	3648
921.477	3614
921.587	3568
921.697	3447
921.806	3667
921.916	3519
922.025	3336
922.134	3386
922.244	3310
922.353	3454
922.462	3317
922.571	3256
922.68	3150
922.789	3100
922.898	3138
923.007	3138
923.116	3222
923.224	3188
923.333	3237
923.442	3142
923.55	3127
923.659	3184
923.767	3260
923.876	3146
923.984	3264
924.092	3142
924.201	3233
924.309	3279
924.417	3321
924.525	3203
924.633	3268
924.741	4219
924.849	3127
924.956	3264
925.064	3112
925.172	3070
925.279	3176
925.387	3203
925.494	3233
925.602	3393
925.709	3325
925.816	3214
925.924	3382
926.031	3401
926.138	3355
926.245	3397
926.352	3283
926.459	3450
926.566	3515
926.673	3378
926.779	3249
926.886	3310
926.993	3192
927.099	3173
927.206	3176
927.312	3180
927.419	3272
927.525	3230
927.631	3302
927.737	3176
927.843	3192
927.95	3028
928.056	3180
928.162	3264
928.267	3264
928.373	3831
928.479	3348
928.585	3116
928.69	3264
928.796	3279
928.901	3165
929.007	3085
929.112	3272
929.218	3211
929.323	3211
929.428	3188
929.533	3321
929.638	3135
929.743	3233
929.848	3294
929.953	3218
930.058	3157
930.163	3058
930.267	3081
930.372	3199
930.477	3089
930.581	3344
930.685	3237
930.79	3077
930.894	3150
930.998	3123
931.103	3294
931.207	3009
931.311	3009
931.415	2956
931.519	2830
931.623	2876
