Data from test_V78500241_1627.txt Node
Date: Fri Mar 25 16:26:28 CST 2022
User: usil
Spectrometer: V785-0024
Trigger mode: 0
Integration Time (sec): 4.000000E-1
Scans to average: 1
Nonlinearity correction enabled: false
Boxcar width: 0
Storing dark spectrum: false
XAxis mode: Wavelengths
Number of Pixels in Spectrum: 1024
>>>>>Begin Spectral Data<<<<<
801.071	2906
801.214	2948
801.356	2883
801.499	2868
801.641	2849
801.783	2944
801.926	3039
802.068	2963
802.211	2963
802.353	3020
802.496	2963
802.638	3013
802.78	2982
802.923	3036
803.065	2979
803.208	2876
803.35	2922
803.492	2941
803.635	2922
803.777	2724
803.919	2838
804.061	3188
804.204	2952
804.346	2887
804.488	2849
804.63	2982
804.773	2887
804.915	2914
805.057	3077
805.199	2899
805.341	2956
805.483	3039
805.626	2986
805.768	2963
805.91	3100
806.052	3081
806.194	3043
806.336	3222
806.478	3017
806.62	2960
806.762	2967
806.904	3055
807.046	3154
807.188	2956
807.33	2922
807.472	2986
807.614	2906
807.756	2979
807.898	2914
808.04	2883
808.182	2960
808.324	2918
808.465	2849
808.607	2830
808.749	2766
808.891	2811
809.033	2941
809.174	2971
809.316	2868
809.458	2849
809.6	2796
809.741	2727
809.883	2766
810.025	2876
810.166	2864
810.308	2842
810.45	2868
810.591	2796
810.733	2746
810.875	2834
811.016	2762
811.158	2769
811.299	2769
811.441	2925
811.582	2891
811.724	2804
811.865	2830
812.007	2906
812.148	2864
812.29	2826
812.431	2883
812.573	2922
812.714	2925
812.855	3036
812.997	3039
813.138	3131
813.279	3009
813.421	2960
813.562	2956
813.703	2868
813.845	2876
813.986	2758
814.127	2689
814.268	2796
814.41	2815
814.551	2766
814.692	2861
814.833	2830
814.974	2902
815.115	2944
815.256	2826
815.397	2788
815.539	2864
815.68	2769
815.821	2773
815.962	2891
816.103	2906
816.244	2834
816.385	2857
816.526	2986
816.666	2895
816.807	2735
816.948	2887
817.089	2906
817.23	2838
817.371	2781
817.512	2762
817.653	2792
817.793	2842
817.934	2872
818.075	2941
818.216	2982
818.356	3009
818.497	2876
818.638	2769
818.778	2785
818.919	2746
819.06	2758
819.2	2849
819.341	2807
819.481	2762
819.622	2891
819.762	3119
819.903	3043
820.043	2902
820.184	2891
820.324	2887
820.465	2967
820.605	2998
820.746	2998
820.886	2960
821.026	3039
821.167	3165
821.307	3272
821.447	3283
821.588	3214
821.728	3176
821.868	3161
822.008	3100
822.149	3154
822.289	3230
822.429	3081
822.569	3089
822.709	3131
822.849	3020
822.99	3055
823.13	3154
823.27	3211
823.41	3077
823.55	3123
823.69	3157
823.83	3199
823.97	3074
824.11	2982
824.25	3001
824.389	3036
824.529	3131
824.669	3070
824.809	3184
824.949	3283
825.089	3211
825.228	3142
825.368	3013
825.508	2963
825.648	2956
825.787	2998
825.927	3020
826.067	2963
826.206	2937
826.346	3070
826.485	3058
826.625	3116
826.765	3279
826.904	3195
827.044	3020
827.183	2937
827.323	2891
827.462	2963
827.601	2883
827.741	2918
827.88	2967
828.02	2864
828.159	2998
828.298	3055
828.437	3066
828.577	3077
828.716	3283
828.855	3077
828.994	2944
829.134	2887
829.273	2918
829.412	2887
829.551	2895
829.69	2918
829.829	3017
829.968	3146
830.107	3013
830.246	3036
830.385	2933
830.524	2910
830.663	2872
830.802	2750
830.941	2678
831.08	2655
831.219	2792
831.357	2823
831.496	2979
831.635	2758
831.774	2678
831.913	2705
832.051	2549
832.19	2617
832.329	2743
832.467	2594
832.606	2526
832.744	2651
832.883	2640
833.022	2613
833.16	2670
833.299	2750
833.437	2743
833.576	2743
833.714	2788
833.852	2773
833.991	2785
834.129	2834
834.267	2868
834.406	2842
834.544	2941
834.682	2941
834.821	2910
834.959	3066
835.097	2929
835.235	3081
835.373	3062
835.511	3047
835.65	3009
835.788	2956
835.926	2857
836.064	2864
836.202	2887
836.34	3116
836.478	3214
836.615	3077
836.753	3150
836.891	3211
837.029	3184
837.167	3180
837.305	3119
837.443	3062
837.58	2990
837.718	3165
837.856	3097
837.993	3077
838.131	3150
838.269	3154
838.406	3138
838.544	3112
838.681	2986
838.819	2948
838.956	2823
839.094	2857
839.231	2971
839.369	3066
839.506	3431
839.643	3222
839.781	3024
839.918	3020
840.055	3074
840.193	3077
840.33	3116
840.467	3127
840.604	3188
840.742	3443
840.879	3062
841.016	3116
841.153	3116
841.29	3367
841.427	3294
841.564	3310
841.701	3367
841.838	3249
841.975	3207
842.112	3214
842.249	3097
842.385	3089
842.522	3340
842.659	3112
842.796	3085
842.933	3146
843.069	3066
843.206	3032
843.343	3233
843.479	3127
843.616	3184
843.752	2933
843.889	2887
844.025	3112
844.162	2941
844.298	3077
844.435	2952
844.571	2956
844.708	3108
844.844	3195
844.98	3264
845.117	3230
845.253	3070
845.389	3024
845.525	3150
845.661	3150
845.798	3032
845.934	3188
846.07	3051
846.206	3230
846.342	3344
846.478	3245
846.614	3142
846.75	3055
846.886	3032
847.022	3237
847.158	3184
847.294	3222
847.429	3260
847.565	3233
847.701	3504
847.837	3043
847.972	3009
848.108	3184
848.244	3184
848.379	2998
848.515	2990
848.65	2941
848.786	3009
848.921	2994
849.057	3112
849.192	3176
849.328	3081
849.463	3127
849.598	3058
849.734	3028
849.869	3020
850.004	2963
850.14	2986
850.275	2948
850.41	2853
850.545	2918
850.68	2986
850.815	3017
850.95	3020
851.085	3233
851.22	3150
851.355	3085
851.49	2975
851.625	3039
851.76	3043
851.895	2937
852.03	2933
852.165	3070
852.299	3127
852.434	3226
852.569	3176
852.703	3188
852.838	3283
852.973	3374
853.107	3348
853.242	3184
853.376	3123
853.511	3024
853.645	3089
853.78	3249
853.914	3112
854.048	3142
854.183	3108
854.317	3173
854.451	3302
854.585	3165
854.72	3146
854.854	3253
854.988	3070
855.122	3108
855.256	2990
855.39	3150
855.524	3268
855.658	3184
855.792	3150
855.926	3188
856.06	3283
856.194	3302
856.327	3211
856.461	3108
856.595	3089
856.729	3104
856.862	3241
856.996	3165
857.13	3253
857.263	3211
857.397	3310
857.53	3116
857.664	3222
857.797	3264
857.931	3272
858.064	3180
858.197	3249
858.331	3165
858.464	3131
858.597	3001
858.731	3127
858.864	3127
858.997	3093
859.13	3154
859.263	3184
859.396	3237
859.529	3112
859.662	3119
859.795	3043
859.928	3154
860.061	3298
860.194	3291
860.327	3157
860.46	3127
860.592	3256
860.725	3268
860.858	3264
860.99	3108
861.123	3085
861.256	3077
861.388	3157
861.521	3934
861.653	3055
861.786	3009
861.918	2998
862.05	3104
862.183	3131
862.315	3165
862.447	3233
862.58	3112
862.712	2971
862.844	2906
862.976	3001
863.108	3032
863.24	3374
863.372	2883
863.504	2937
863.636	2979
863.768	3074
863.9	2986
864.032	2910
864.164	2948
864.296	3039
864.428	3112
864.559	3135
864.691	3093
864.823	3127
864.954	3070
865.086	3051
865.217	3013
865.349	3013
865.48	2994
865.612	3009
865.743	3173
865.875	2990
866.006	2948
866.137	2971
866.269	3009
866.4	2937
866.531	2967
866.662	2925
866.793	2883
866.924	2929
867.055	2982
867.186	2925
867.317	2910
867.448	2880
867.579	2918
867.71	2876
867.841	2845
867.972	2944
868.103	2910
868.233	2899
868.364	2933
868.495	2948
868.625	3119
868.756	3188
868.886	2979
869.017	3028
869.147	3188
869.278	3184
869.408	3108
869.539	3055
869.669	3119
869.799	3062
869.929	3165
870.06	3146
870.19	3348
870.32	3275
870.45	3317
870.58	3359
870.71	3469
870.84	3500
870.97	3325
871.1	3253
871.23	3481
871.36	3477
871.489	3389
871.619	3416
871.749	3428
871.879	3473
872.008	3511
872.138	3363
872.267	3287
872.397	3180
872.526	3146
872.656	3047
872.785	3104
872.915	3233
873.044	3336
873.173	3264
873.303	3275
873.432	3260
873.561	3283
873.69	3150
873.819	3154
873.948	3169
874.077	3131
874.206	3074
874.335	3135
874.464	3249
874.593	3374
874.722	3253
874.851	3439
874.979	3374
875.108	3325
875.237	3230
875.365	3188
875.494	3184
875.623	3272
875.751	3104
875.88	3138
876.008	3226
876.136	3188
876.265	3378
876.393	3504
876.521	3439
876.65	3428
876.778	3294
876.906	3256
877.034	3218
877.162	3233
877.29	3218
877.418	3298
877.546	3264
877.674	3256
877.802	3249
877.93	3233
878.058	3169
878.185	3127
878.313	3214
878.441	3188
878.568	3093
878.696	3176
878.824	3237
878.951	3332
879.079	3473
879.206	3641
879.333	3450
879.461	3367
879.588	3363
879.715	3504
879.842	3629
879.97	3378
880.097	3173
880.224	3123
880.351	3237
880.478	3233
880.605	3218
880.732	3207
880.859	3504
880.986	3340
881.112	3344
881.239	3207
881.366	3127
881.493	3039
881.619	3032
881.746	3093
881.872	3100
881.999	3135
882.125	3154
882.252	3237
882.378	3325
882.505	3420
882.631	3302
882.757	3146
882.883	3207
883.01	3253
883.136	3192
883.262	3112
883.388	3093
883.514	3336
883.64	3363
883.766	3310
883.892	3161
884.018	3249
884.143	3401
884.269	3580
884.395	3230
884.52	3188
884.646	3195
884.772	3138
884.897	3142
885.023	3218
885.148	3325
885.274	3428
885.399	3393
885.524	3321
885.65	3275
885.775	3329
885.9	3291
886.025	3435
886.15	3382
886.275	3283
886.4	3268
886.525	3340
886.65	3313
886.775	3291
886.9	3481
887.025	3629
887.149	3450
887.274	3241
887.399	3176
887.523	3226
887.648	3218
887.773	3230
887.897	3416
888.021	3424
888.146	3317
888.27	3435
888.395	3557
888.519	3424
888.643	3515
888.767	3462
888.891	3351
889.015	3237
889.139	3302
889.263	3249
889.387	3420
889.511	3523
889.635	3458
889.759	3294
889.883	3275
890.006	3393
890.13	3496
890.254	3287
890.377	3344
890.501	3226
890.624	3192
890.748	3336
890.871	3165
890.995	3146
891.118	3093
891.241	3180
891.364	3287
891.488	3313
891.611	3211
891.734	3241
891.857	3325
891.98	3260
892.103	3321
892.226	3317
892.349	3214
892.471	3146
892.594	3245
892.717	3253
892.839	3272
892.962	3317
893.085	3393
893.207	3283
893.33	3150
893.452	3207
893.575	3382
893.697	3253
893.819	3485
893.941	3496
894.064	3405
894.186	3294
894.308	3287
894.43	3458
894.552	3534
894.674	3466
894.796	3264
894.918	3302
895.04	3355
895.161	3431
895.283	3416
895.405	3321
895.526	3389
895.648	3439
895.769	3447
895.891	3443
896.012	3511
896.134	3481
896.255	3431
896.376	3416
896.498	3370
896.619	3431
896.74	3405
896.861	3435
896.982	3728
897.103	3831
897.224	3584
897.345	3515
897.466	3428
897.587	3557
897.708	3603
897.828	3580
897.949	3428
898.07	3351
898.19	3428
898.311	3580
898.431	3492
898.552	3542
898.672	3629
898.792	3580
898.913	3519
899.033	3382
899.153	3310
899.273	3199
899.393	3298
899.513	3329
899.633	3355
899.753	3336
899.873	3340
899.993	3416
900.113	3336
900.232	3409
900.352	3374
900.472	3302
900.591	3184
900.711	3298
900.83	3230
900.95	3416
901.069	3511
901.189	3321
901.308	3173
901.427	3169
901.546	3195
901.665	3256
901.784	3351
901.904	3207
902.023	3195
902.141	3055
902.26	3005
902.379	3150
902.498	3127
902.617	3070
902.735	3230
902.854	3249
902.973	3253
903.091	3085
903.21	3093
903.328	3188
903.446	3161
903.565	3104
903.683	3272
903.801	3176
903.919	3268
904.038	3329
904.156	3218
904.274	3294
904.392	3306
904.51	3340
904.627	3416
904.745	3500
904.863	3500
904.981	3294
905.098	3195
905.216	3264
905.334	3317
905.451	3344
905.569	3348
905.686	3504
905.803	3477
905.921	3340
906.038	3466
906.155	3412
906.272	3321
906.389	3348
906.506	3268
906.623	3355
906.74	3294
906.857	3218
906.974	3253
907.091	3492
907.208	3644
907.324	3523
907.441	3443
907.557	3291
907.674	3272
907.79	3241
907.907	3336
908.023	3409
908.139	3443
908.256	3355
908.372	3397
908.488	3378
908.604	3287
908.72	3283
908.836	3325
908.952	3348
909.068	3389
909.184	3538
909.3	3409
909.415	3553
909.531	3507
909.647	3317
909.762	3321
909.878	3283
909.993	3412
910.108	3393
910.224	3374
910.339	3420
910.454	3374
910.57	3336
910.685	3287
910.8	3675
910.915	3568
911.03	3428
911.145	3302
911.259	3298
911.374	3351
911.489	3275
911.604	3272
911.718	3161
911.833	3207
911.947	3100
912.062	3009
912.176	3176
912.291	3211
912.405	3253
912.519	3466
912.633	3485
912.748	3386
912.862	3302
912.976	3207
913.09	3093
913.204	3173
913.318	3256
913.431	3378
913.545	3382
913.659	3439
913.772	3397
913.886	3249
914	3260
914.113	3355
914.226	3481
914.34	3416
914.453	3253
914.566	3428
914.68	3294
914.793	3348
914.906	3161
915.019	3161
915.132	3108
915.245	3226
915.358	3268
915.47	3287
915.583	3302
915.696	3340
915.809	3450
915.921	3473
916.034	3291
916.146	3294
916.259	3241
916.371	3431
916.483	3412
916.595	3302
916.708	3351
916.82	3405
916.932	3367
917.044	3344
917.156	3416
917.268	3298
917.38	3313
917.491	3317
917.603	3378
917.715	3439
917.826	3507
917.938	3431
918.049	3283
918.161	3458
918.272	3618
918.384	3553
918.495	3549
918.606	3363
918.717	3306
918.828	3420
918.939	3454
919.05	3351
919.161	3386
919.272	3192
919.383	3283
919.494	3534
919.604	3732
919.715	3534
919.826	3466
919.936	3496
920.047	3610
920.157	3625
920.267	3812
920.378	3622
920.488	3591
920.598	3804
920.708	3956
920.818	3869
920.928	3842
921.038	4093
921.148	4017
921.258	3701
921.368	3694
921.477	3587
921.587	3542
921.697	3500
921.806	3663
921.916	3519
922.025	3397
922.134	3374
922.244	3382
922.353	3450
922.462	3317
922.571	3241
922.68	3123
922.789	3100
922.898	3150
923.007	3123
923.116	3226
923.224	3211
923.333	3211
923.442	3089
923.55	3104
923.659	3173
923.767	3249
923.876	3127
923.984	3260
924.092	3131
924.201	3241
924.309	3253
924.417	3310
924.525	3237
924.633	3253
924.741	4215
924.849	3074
924.956	3260
925.064	3150
925.172	3085
925.279	3123
925.387	3214
925.494	3237
925.602	3344
925.709	3363
925.816	3268
925.924	3317
926.031	3389
926.138	3355
926.245	3386
926.352	3287
926.459	3469
926.566	3511
926.673	3355
926.779	3264
926.886	3298
926.993	3188
927.099	3173
927.206	3176
927.312	3135
927.419	3256
927.525	3237
927.631	3294
927.737	3192
927.843	3131
927.95	3047
928.056	3173
928.162	3195
928.267	3306
928.373	3915
928.479	3336
928.585	3127
928.69	3245
928.796	3313
928.901	3218
929.007	3104
929.112	3268
929.218	3188
929.323	3154
929.428	3176
929.533	3313
929.638	3142
929.743	3218
929.848	3302
929.953	3279
930.058	3161
930.163	3047
930.267	3077
930.372	3245
930.477	3074
930.581	3332
930.685	3192
930.79	3081
930.894	3138
930.998	3154
931.103	3321
931.207	2998
931.311	3001
931.415	2914
931.519	2781
931.623	2864
