Data from test_V78500241_347.txt Node
Date: Fri Mar 25 16:17:36 CST 2022
User: usil
Spectrometer: V785-0024
Trigger mode: 0
Integration Time (sec): 4.000000E-1
Scans to average: 1
Nonlinearity correction enabled: false
Boxcar width: 0
Storing dark spectrum: false
XAxis mode: Wavelengths
Number of Pixels in Spectrum: 1024
>>>>>Begin Spectral Data<<<<<
801.071	2948
801.214	2956
801.356	2887
801.499	2883
801.641	2868
801.783	2937
801.926	3051
802.068	3020
802.211	3024
802.353	3055
802.496	2975
802.638	3036
802.78	3055
802.923	3123
803.065	2998
803.208	2918
803.35	2925
803.492	2933
803.635	2929
803.777	2750
803.919	2895
804.061	3184
804.204	2944
804.346	2880
804.488	2861
804.63	2994
804.773	2895
804.915	2914
805.057	3100
805.199	2937
805.341	2982
805.483	3032
805.626	3020
805.768	2941
805.91	3066
806.052	3116
806.194	3058
806.336	3260
806.478	3009
806.62	2986
806.762	3001
806.904	3081
807.046	3184
807.188	2986
807.33	2960
807.472	3013
807.614	2895
807.756	3009
807.898	2902
808.04	2887
808.182	2986
808.324	2952
808.465	2902
808.607	2872
808.749	2785
808.891	2845
809.033	2975
809.174	2960
809.316	2895
809.458	2883
809.6	2777
809.741	2762
809.883	2762
810.025	2853
810.166	2845
810.308	2807
810.45	2864
810.591	2727
810.733	2746
810.875	2823
811.016	2785
811.158	2743
811.299	2811
811.441	2902
811.582	2925
811.724	2830
811.865	2845
812.007	2925
812.148	2872
812.29	2861
812.431	2899
812.573	2952
812.714	2933
812.855	3051
812.997	3051
813.138	3108
813.279	3020
813.421	2998
813.562	2971
813.703	2861
813.845	2872
813.986	2746
814.127	2735
814.268	2823
814.41	2842
814.551	2804
814.692	2872
814.833	2819
814.974	2883
815.115	2906
815.256	2807
815.397	2788
815.539	2853
815.68	2769
815.821	2811
815.962	2944
816.103	2899
816.244	2868
816.385	2883
816.526	2967
816.666	2918
816.807	2739
816.948	2857
817.089	2906
817.23	2842
817.371	2792
817.512	2800
817.653	2834
817.793	2815
817.934	2880
818.075	2971
818.216	2941
818.356	3013
818.497	2906
818.638	2773
818.778	2804
818.919	2796
819.06	2785
819.2	2906
819.341	2823
819.481	2804
819.622	2918
819.762	3062
819.903	3028
820.043	2933
820.184	2895
820.324	2872
820.465	3013
820.605	3009
820.746	3051
820.886	2895
821.026	3089
821.167	3135
821.307	3272
821.447	3279
821.588	3275
821.728	3222
821.868	3207
822.008	3100
822.149	3207
822.289	3260
822.429	3077
822.569	3108
822.709	3176
822.849	3070
822.99	3085
823.13	3150
823.27	3207
823.41	3150
823.55	3169
823.69	3203
823.83	3214
823.97	3085
824.11	3051
824.25	3017
824.389	3116
824.529	3176
824.669	3123
824.809	3230
824.949	3306
825.089	3283
825.228	3154
825.368	3036
825.508	2998
825.648	3017
825.787	3051
825.927	3047
826.067	3028
826.206	3013
826.346	3089
826.485	3093
826.625	3161
826.765	3317
826.904	3249
827.044	3005
827.183	2975
827.323	2922
827.462	3020
827.601	2937
827.741	2941
827.88	2990
828.02	2895
828.159	3024
828.298	3097
828.437	3142
828.577	3093
828.716	3317
828.855	3123
828.994	2952
829.134	2929
829.273	2937
829.412	2902
829.551	2933
829.69	2948
829.829	3043
829.968	3138
830.107	3055
830.246	3062
830.385	2967
830.524	2925
830.663	2868
830.802	2804
830.941	2693
831.08	2701
831.219	2792
831.357	2811
831.496	2956
831.635	2785
831.774	2701
831.913	2667
832.051	2571
832.19	2579
832.329	2731
832.467	2590
832.606	2549
832.744	2613
832.883	2606
833.022	2644
833.16	2720
833.299	2735
833.437	2712
833.576	2716
833.714	2750
833.852	2796
833.991	2785
834.129	2910
834.267	2849
834.406	2830
834.544	2895
834.682	2906
834.821	2883
834.959	3104
835.097	2925
835.235	3089
835.373	3005
835.511	3009
835.65	2975
835.788	3009
835.926	2849
836.064	2861
836.202	2872
836.34	3119
836.478	3199
836.615	3097
836.753	3184
836.891	3241
837.029	3154
837.167	3165
837.305	3119
837.443	3081
837.58	2998
837.718	3165
837.856	3093
837.993	3024
838.131	3154
838.269	3154
838.406	3135
838.544	3097
838.681	2998
838.819	2967
838.956	2857
839.094	2868
839.231	2948
839.369	3066
839.506	3409
839.643	3249
839.781	3051
839.918	3009
840.055	3108
840.193	3062
840.33	3100
840.467	3142
840.604	3169
840.742	3462
840.879	3070
841.016	3058
841.153	3154
841.29	3351
841.427	3325
841.564	3298
841.701	3344
841.838	3241
841.975	3233
842.112	3260
842.249	3119
842.385	3051
842.522	3256
842.659	3074
842.796	3097
842.933	3127
843.069	3089
843.206	3055
843.343	3218
843.479	3135
843.616	3176
843.752	2933
843.889	2918
844.025	3070
844.162	2922
844.298	3093
844.435	2967
844.571	2902
844.708	3100
844.844	3222
844.98	3256
845.117	3249
845.253	3112
845.389	3028
845.525	3176
845.661	3138
845.798	3066
845.934	3188
846.07	3116
846.206	3237
846.342	3363
846.478	3233
846.614	3131
846.75	3043
846.886	3058
847.022	3264
847.158	3146
847.294	3260
847.429	3287
847.565	3245
847.701	3500
847.837	3020
847.972	3085
848.108	3199
848.244	3188
848.379	3020
848.515	2975
848.65	2963
848.786	3020
848.921	3047
849.057	3104
849.192	3211
849.328	3116
849.463	3123
849.598	3085
849.734	3017
849.869	2994
850.004	2960
850.14	3009
850.275	2971
850.41	2868
850.545	2902
850.68	2948
850.815	2990
850.95	3017
851.085	3203
851.22	3135
851.355	3055
851.49	3020
851.625	3009
851.76	3028
851.895	2918
852.03	2956
852.165	3062
852.299	3184
852.434	3222
852.569	3161
852.703	3207
852.838	3249
852.973	3348
853.107	3355
853.242	3218
853.376	3142
853.511	3001
853.645	3085
853.78	3272
853.914	3146
854.048	3138
854.183	3146
854.317	3195
854.451	3306
854.585	3154
854.72	3131
854.854	3241
854.988	3058
855.122	3100
855.256	2998
855.39	3146
855.524	3268
855.658	3230
855.792	3184
855.926	3230
856.06	3222
856.194	3279
856.327	3176
856.461	3089
856.595	3081
856.729	3112
856.862	3222
856.996	3165
857.13	3253
857.263	3233
857.397	3302
857.53	3142
857.664	3233
857.797	3256
857.931	3275
858.064	3192
858.197	3237
858.331	3173
858.464	3157
858.597	3024
858.731	3108
858.864	3127
858.997	3112
859.13	3195
859.263	3214
859.396	3207
859.529	3108
859.662	3100
859.795	3070
859.928	3180
860.061	3283
860.194	3351
860.327	3135
860.46	3165
860.592	3268
860.725	3264
860.858	3268
860.99	3123
861.123	3081
861.256	3066
861.388	3146
861.521	3743
861.653	3051
861.786	2979
861.918	3036
862.05	3066
862.183	3119
862.315	3176
862.447	3218
862.58	3112
862.712	2971
862.844	2906
862.976	3036
863.108	3024
863.24	3454
863.372	2952
863.504	2979
863.636	2990
863.768	3077
863.9	2990
864.032	2910
864.164	2956
864.296	3020
864.428	3123
864.559	3123
864.691	3119
864.823	3135
864.954	3051
865.086	3100
865.217	3028
865.349	2941
865.48	2990
865.612	3036
865.743	3165
865.875	2994
866.006	2941
866.137	3001
866.269	2998
866.4	2979
866.531	2944
866.662	2887
866.793	2929
866.924	2910
867.055	3032
867.186	2971
867.317	2941
867.448	2868
867.579	2864
867.71	2845
867.841	2845
867.972	2922
868.103	2918
868.233	2895
868.364	2891
868.495	2937
868.625	3116
868.756	3195
868.886	3005
869.017	3039
869.147	3188
869.278	3226
869.408	3058
869.539	3066
869.669	3142
869.799	3001
869.929	3161
870.06	3100
870.19	3332
870.32	3291
870.45	3313
870.58	3393
870.71	3469
870.84	3488
870.97	3321
871.1	3291
871.23	3526
871.36	3443
871.489	3405
871.619	3428
871.749	3397
871.879	3500
872.008	3519
872.138	3359
872.267	3279
872.397	3195
872.526	3123
872.656	3043
872.785	3157
872.915	3268
873.044	3317
873.173	3241
873.303	3275
873.432	3241
873.561	3226
873.69	3138
873.819	3199
873.948	3245
874.077	3131
874.206	3085
874.335	3123
874.464	3211
874.593	3367
874.722	3279
874.851	3428
874.979	3367
875.108	3313
875.237	3188
875.365	3146
875.494	3173
875.623	3275
875.751	3077
875.88	3180
876.008	3211
876.136	3222
876.265	3340
876.393	3507
876.521	3435
876.65	3416
876.778	3310
876.906	3275
877.034	3241
877.162	3256
877.29	3199
877.418	3298
877.546	3245
877.674	3272
877.802	3264
877.93	3245
878.058	3142
878.185	3108
878.313	3245
878.441	3237
878.568	3112
878.696	3173
878.824	3306
878.951	3306
879.079	3477
879.206	3625
879.333	3481
879.461	3355
879.588	3382
879.715	3500
879.842	3629
879.97	3416
880.097	3207
880.224	3146
880.351	3207
880.478	3230
880.605	3203
880.732	3203
880.859	3485
880.986	3340
881.112	3332
881.239	3241
881.366	3131
881.493	3032
881.619	3051
881.746	3097
881.872	3123
881.999	3119
882.125	3195
882.252	3298
882.378	3283
882.505	3439
882.631	3325
882.757	3154
882.883	3249
883.01	3249
883.136	3188
883.262	3116
883.388	3157
883.514	3351
883.64	3389
883.766	3294
883.892	3214
884.018	3279
884.143	3416
884.269	3576
884.395	3256
884.52	3199
884.646	3260
884.772	3142
884.897	3104
885.023	3203
885.148	3351
885.274	3477
885.399	3378
885.524	3329
885.65	3291
885.775	3317
885.9	3313
886.025	3439
886.15	3382
886.275	3306
886.4	3249
886.525	3348
886.65	3253
886.775	3283
886.9	3511
887.025	3629
887.149	3412
887.274	3260
887.399	3180
887.523	3245
887.648	3157
887.773	3207
887.897	3412
888.021	3397
888.146	3325
888.27	3409
888.395	3515
888.519	3496
888.643	3409
888.767	3526
888.891	3325
889.015	3253
889.139	3321
889.263	3272
889.387	3454
889.511	3530
889.635	3428
889.759	3321
889.883	3325
890.006	3401
890.13	3504
890.254	3241
890.377	3348
890.501	3199
890.624	3176
890.748	3306
890.871	3180
890.995	3108
891.118	3089
891.241	3180
891.364	3249
891.488	3340
891.611	3176
891.734	3245
891.857	3310
891.98	3260
892.103	3344
892.226	3287
892.349	3218
892.471	3131
892.594	3279
892.717	3317
892.839	3264
892.962	3272
893.085	3351
893.207	3287
893.33	3180
893.452	3233
893.575	3367
893.697	3264
893.819	3492
893.941	3534
894.064	3466
894.186	3279
894.308	3294
894.43	3454
894.552	3523
894.674	3477
894.796	3264
894.918	3340
895.04	3272
895.161	3412
895.283	3389
895.405	3325
895.526	3321
895.648	3424
895.769	3401
895.891	3485
896.012	3462
896.134	3515
896.255	3416
896.376	3401
896.498	3386
896.619	3409
896.74	3389
896.861	3397
896.982	3709
897.103	3831
897.224	3637
897.345	3545
897.466	3443
897.587	3500
897.708	3648
897.828	3538
897.949	3428
898.07	3332
898.19	3389
898.311	3606
898.431	3473
898.552	3572
898.672	3603
898.792	3606
898.913	3534
899.033	3386
899.153	3245
899.273	3214
899.393	3283
899.513	3348
899.633	3321
899.753	3329
899.873	3336
899.993	3363
900.113	3348
900.232	3397
900.352	3348
900.472	3321
900.591	3230
900.711	3287
900.83	3272
900.95	3409
901.069	3496
901.189	3359
901.308	3157
901.427	3119
901.546	3184
901.665	3313
901.784	3378
901.904	3203
902.023	3142
902.141	3020
902.26	2975
902.379	3100
902.498	3104
902.617	3001
902.735	3214
902.854	3249
902.973	3188
903.091	3074
903.21	3058
903.328	3142
903.446	3104
903.565	3154
903.683	3226
903.801	3116
903.919	3268
904.038	3253
904.156	3165
904.274	3272
904.392	3253
904.51	3287
904.627	3340
904.745	3439
904.863	3492
904.981	3256
905.098	3135
905.216	3260
905.334	3317
905.451	3310
905.569	3291
905.686	3443
905.803	3469
905.921	3294
906.038	3420
906.155	3355
906.272	3310
906.389	3291
906.506	3268
906.623	3287
906.74	3275
906.857	3230
906.974	3233
907.091	3443
907.208	3595
907.324	3473
907.441	3374
907.557	3249
907.674	3226
907.79	3173
907.907	3283
908.023	3355
908.139	3355
908.256	3348
908.372	3401
908.488	3389
908.604	3264
908.72	3214
908.836	3298
908.952	3279
909.068	3370
909.184	3496
909.3	3416
909.415	3538
909.531	3481
909.647	3291
909.762	3283
909.878	3321
909.993	3374
910.108	3336
910.224	3378
910.339	3454
910.454	3317
910.57	3287
910.685	3230
910.8	3618
910.915	3553
911.03	3443
911.145	3283
911.259	3272
911.374	3287
911.489	3264
911.604	3256
911.718	3123
911.833	3123
911.947	3058
912.062	3013
912.176	3154
912.291	3188
912.405	3195
912.519	3492
912.633	3488
912.748	3310
912.862	3264
912.976	3138
913.09	3051
913.204	3123
913.318	3211
913.431	3367
913.545	3336
913.659	3370
913.772	3348
913.886	3226
914	3195
914.113	3325
914.226	3374
914.34	3374
914.453	3184
914.566	3424
914.68	3283
914.793	3336
914.906	3169
915.019	3074
915.132	3058
915.245	3157
915.358	3199
915.47	3264
915.583	3256
915.696	3287
915.809	3374
915.921	3450
916.034	3241
916.146	3245
916.259	3222
916.371	3397
916.483	3344
916.595	3275
916.708	3336
916.82	3298
916.932	3340
917.044	3374
917.156	3367
917.268	3260
917.38	3317
917.491	3317
917.603	3397
917.715	3454
917.826	3424
917.938	3431
918.049	3279
918.161	3401
918.272	3587
918.384	3606
918.495	3488
918.606	3359
918.717	3302
918.828	3397
918.939	3378
919.05	3329
919.161	3405
919.272	3211
919.383	3294
919.494	3500
919.604	3667
919.715	3500
919.826	3409
919.936	3424
920.047	3576
920.157	3515
920.267	3755
920.378	3618
920.488	3557
920.598	3793
920.708	3983
920.818	3873
920.928	3865
921.038	3960
921.148	4063
921.258	3713
921.368	3641
921.477	3568
921.587	3526
921.697	3469
921.806	3637
921.916	3523
922.025	3359
922.134	3355
922.244	3310
922.353	3431
922.462	3287
922.571	3230
922.68	3085
922.789	3066
922.898	3138
923.007	3093
923.116	3233
923.224	3184
923.333	3169
923.442	3123
923.55	3081
923.659	3108
923.767	3214
923.876	3097
923.984	3253
924.092	3097
924.201	3180
924.309	3233
924.417	3256
924.525	3226
924.633	3199
924.741	4154
924.849	3039
924.956	3249
925.064	3135
925.172	3058
925.279	3058
925.387	3203
925.494	3180
925.602	3348
925.709	3363
925.816	3146
925.924	3332
926.031	3332
926.138	3321
926.245	3397
926.352	3249
926.459	3428
926.566	3485
926.673	3325
926.779	3283
926.886	3203
926.993	3169
927.099	3142
927.206	3112
927.312	3100
927.419	3218
927.525	3176
927.631	3275
927.737	3131
927.843	3081
927.95	3047
928.056	3131
928.162	3176
928.267	3222
928.373	3880
928.479	3317
928.585	3051
928.69	3230
928.796	3302
928.901	3195
929.007	3055
929.112	3184
929.218	3188
929.323	3157
929.428	3119
929.533	3275
929.638	3123
929.743	3180
929.848	3264
929.953	3195
930.058	3157
930.163	3009
930.267	3028
930.372	3226
930.477	3028
930.581	3298
930.685	3192
930.79	3036
930.894	3097
930.998	3097
931.103	3306
931.207	2956
931.311	2948
931.415	2937
931.519	2785
931.623	2766
