Data from test_V78500241_518.txt Node
Date: Fri Mar 25 16:18:47 CST 2022
User: usil
Spectrometer: V785-0024
Trigger mode: 0
Integration Time (sec): 4.000000E-1
Scans to average: 1
Nonlinearity correction enabled: false
Boxcar width: 0
Storing dark spectrum: false
XAxis mode: Wavelengths
Number of Pixels in Spectrum: 1024
>>>>>Begin Spectral Data<<<<<
801.071	2937
801.214	2952
801.356	2891
801.499	2918
801.641	2857
801.783	2925
801.926	3051
802.068	2963
802.211	3009
802.353	3020
802.496	2948
802.638	3055
802.78	3077
802.923	3062
803.065	3036
803.208	2937
803.35	2906
803.492	2922
803.635	2910
803.777	2724
803.919	2872
804.061	3188
804.204	2948
804.346	2910
804.488	2853
804.63	2975
804.773	2891
804.915	2872
805.057	3062
805.199	2952
805.341	2975
805.483	3032
805.626	3036
805.768	2963
805.91	3108
806.052	3123
806.194	3017
806.336	3211
806.478	3024
806.62	2963
806.762	2990
806.904	3066
807.046	3154
807.188	3009
807.33	2925
807.472	3017
807.614	2887
807.756	2998
807.898	2914
808.04	2902
808.182	2963
808.324	2941
808.465	2880
808.607	2876
808.749	2830
808.891	2800
809.033	2986
809.174	2933
809.316	2895
809.458	2891
809.6	2758
809.741	2754
809.883	2750
810.025	2842
810.166	2857
810.308	2864
810.45	2853
810.591	2788
810.733	2823
810.875	2834
811.016	2781
811.158	2766
811.299	2788
811.441	2899
811.582	2895
811.724	2830
811.865	2819
812.007	2895
812.148	2883
812.29	2853
812.431	2872
812.573	2902
812.714	2933
812.855	3032
812.997	3081
813.138	3116
813.279	3024
813.421	2941
813.562	2906
813.703	2849
813.845	2883
813.986	2773
814.127	2796
814.268	2830
814.41	2838
814.551	2804
814.692	2876
814.833	2807
814.974	2876
815.115	2948
815.256	2811
815.397	2830
815.539	2819
815.68	2800
815.821	2777
815.962	2906
816.103	2922
816.244	2857
816.385	2857
816.526	2986
816.666	2914
816.807	2727
816.948	2899
817.089	2887
817.23	2845
817.371	2792
817.512	2796
817.653	2823
817.793	2811
817.934	2857
818.075	2944
818.216	2998
818.356	2998
818.497	2895
818.638	2769
818.778	2823
818.919	2785
819.06	2735
819.2	2861
819.341	2788
819.481	2781
819.622	2891
819.762	3058
819.903	3077
820.043	2944
820.184	2899
820.324	2944
820.465	3028
820.605	2986
820.746	3036
820.886	2929
821.026	3100
821.167	3150
821.307	3253
821.447	3245
821.588	3256
821.728	3268
821.868	3222
822.008	3062
822.149	3203
822.289	3214
822.429	3085
822.569	3112
822.709	3157
822.849	3066
822.99	3108
823.13	3176
823.27	3214
823.41	3176
823.55	3154
823.69	3184
823.83	3226
823.97	3131
824.11	3032
824.25	3028
824.389	3116
824.529	3138
824.669	3089
824.809	3214
824.949	3192
825.089	3275
825.228	3245
825.368	3032
825.508	2979
825.648	2986
825.787	3058
825.927	3043
826.067	3017
826.206	3001
826.346	3119
826.485	3062
826.625	3142
826.765	3294
826.904	3264
827.044	3020
827.183	2979
827.323	2902
827.462	2998
827.601	2922
827.741	3009
827.88	2948
828.02	2887
828.159	2975
828.298	3074
828.437	3157
828.577	3085
828.716	3283
828.855	3097
828.994	2956
829.134	2891
829.273	2971
829.412	2891
829.551	2914
829.69	2914
829.829	3009
829.968	3207
830.107	3039
830.246	3074
830.385	2944
830.524	2937
830.663	2868
830.802	2750
830.941	2659
831.08	2686
831.219	2804
831.357	2766
831.496	2998
831.635	2754
831.774	2674
831.913	2697
832.051	2587
832.19	2594
832.329	2686
832.467	2606
832.606	2522
832.744	2594
832.883	2583
833.022	2617
833.16	2701
833.299	2705
833.437	2739
833.576	2727
833.714	2743
833.852	2769
833.991	2796
834.129	2891
834.267	2876
834.406	2807
834.544	2918
834.682	2906
834.821	2925
834.959	3081
835.097	2944
835.235	3070
835.373	3039
835.511	3058
835.65	2956
835.788	3009
835.926	2891
836.064	2861
836.202	2842
836.34	3127
836.478	3207
836.615	3062
836.753	3176
836.891	3222
837.029	3173
837.167	3135
837.305	3116
837.443	3093
837.58	2967
837.718	3146
837.856	3097
837.993	3055
838.131	3146
838.269	3112
838.406	3100
838.544	3081
838.681	2967
838.819	2975
838.956	2849
839.094	2902
839.231	2956
839.369	3036
839.506	3412
839.643	3279
839.781	3058
839.918	2979
840.055	3089
840.193	3085
840.33	3100
840.467	3146
840.604	3203
840.742	3439
840.879	3043
841.016	3066
841.153	3104
841.29	3367
841.427	3294
841.564	3313
841.701	3351
841.838	3253
841.975	3203
842.112	3253
842.249	3100
842.385	3051
842.522	3287
842.659	3047
842.796	3047
842.933	3097
843.069	3047
843.206	3058
843.343	3199
843.479	3131
843.616	3173
843.752	2952
843.889	2899
844.025	3127
844.162	2933
844.298	3127
844.435	3001
844.571	2933
844.708	3150
844.844	3211
844.98	3256
845.117	3203
845.253	3100
845.389	3020
845.525	3108
845.661	3085
845.798	3058
845.934	3192
846.07	3055
846.206	3260
846.342	3313
846.478	3211
846.614	3112
846.75	3043
846.886	3039
847.022	3279
847.158	3199
847.294	3211
847.429	3268
847.565	3237
847.701	3534
847.837	3020
847.972	3024
848.108	3180
848.244	3226
848.379	2998
848.515	2979
848.65	2952
848.786	2982
848.921	3036
849.057	3131
849.192	3135
849.328	3100
849.463	3127
849.598	3108
849.734	3074
849.869	3017
850.004	2937
850.14	2975
850.275	2944
850.41	2876
850.545	2910
850.68	2960
850.815	2982
850.95	3005
851.085	3173
851.22	3131
851.355	3070
851.49	2975
851.625	3020
851.76	3039
851.895	2933
852.03	2933
852.165	3074
852.299	3131
852.434	3214
852.569	3161
852.703	3192
852.838	3287
852.973	3340
853.107	3397
853.242	3211
853.376	3112
853.511	3017
853.645	3055
853.78	3241
853.914	3100
854.048	3157
854.183	3104
854.317	3123
854.451	3344
854.585	3146
854.72	3104
854.854	3211
854.988	3066
855.122	3093
855.256	2986
855.39	3135
855.524	3268
855.658	3222
855.792	3150
855.926	3184
856.06	3237
856.194	3287
856.327	3142
856.461	3093
856.595	3131
856.729	3085
856.862	3241
856.996	3169
857.13	3214
857.263	3260
857.397	3283
857.53	3100
857.664	3230
857.797	3211
857.931	3279
858.064	3184
858.197	3256
858.331	3165
858.464	3116
858.597	3024
858.731	3146
858.864	3150
858.997	3089
859.13	3157
859.263	3195
859.396	3272
859.529	3123
859.662	3077
859.795	3039
859.928	3203
860.061	3329
860.194	3340
860.327	3127
860.46	3135
860.592	3264
860.725	3279
860.858	3272
860.99	3097
861.123	3062
861.256	3085
861.388	3150
861.521	3854
861.653	3001
861.786	2982
861.918	3043
862.05	3093
862.183	3093
862.315	3165
862.447	3192
862.58	3150
862.712	2986
862.844	2872
862.976	3043
863.108	2982
863.24	3454
863.372	2864
863.504	2963
863.636	2918
863.768	3032
863.9	3001
864.032	2895
864.164	2975
864.296	3028
864.428	3097
864.559	3100
864.691	3089
864.823	3074
864.954	3032
865.086	3104
865.217	3017
865.349	2971
865.48	3005
865.612	3036
865.743	3165
865.875	2967
866.006	2986
866.137	2982
866.269	2986
866.4	2963
866.531	2948
866.662	2933
866.793	2883
866.924	2906
867.055	2971
867.186	2933
867.317	2902
867.448	2864
867.579	2883
867.71	2891
867.841	2872
867.972	2963
868.103	2941
868.233	2906
868.364	2849
868.495	2948
868.625	3058
868.756	3176
868.886	2998
869.017	3005
869.147	3173
869.278	3165
869.408	3070
869.539	3020
869.669	3104
869.799	3058
869.929	3169
870.06	3127
870.19	3291
870.32	3321
870.45	3302
870.58	3363
870.71	3492
870.84	3488
870.97	3332
871.1	3241
871.23	3504
871.36	3488
871.489	3370
871.619	3382
871.749	3458
871.879	3454
872.008	3485
872.138	3401
872.267	3272
872.397	3127
872.526	3112
872.656	3024
872.785	3119
872.915	3249
873.044	3310
873.173	3253
873.303	3230
873.432	3256
873.561	3233
873.69	3173
873.819	3180
873.948	3184
874.077	3123
874.206	3043
874.335	3131
874.464	3169
874.593	3332
874.722	3256
874.851	3405
874.979	3378
875.108	3344
875.237	3237
875.365	3161
875.494	3180
875.623	3272
875.751	3093
875.88	3097
876.008	3211
876.136	3237
876.265	3355
876.393	3538
876.521	3412
876.65	3416
876.778	3344
876.906	3256
877.034	3199
877.162	3241
877.29	3184
877.418	3256
877.546	3226
877.674	3218
877.802	3249
877.93	3253
878.058	3154
878.185	3123
878.313	3207
878.441	3214
878.568	3100
878.696	3142
878.824	3249
878.951	3306
879.079	3458
879.206	3606
879.333	3481
879.461	3340
879.588	3367
879.715	3485
879.842	3610
879.97	3393
880.097	3146
880.224	3150
880.351	3211
880.478	3249
880.605	3218
880.732	3195
880.859	3515
880.986	3298
881.112	3294
881.239	3233
881.366	3085
881.493	3074
881.619	3013
881.746	3077
881.872	3093
881.999	3119
882.125	3154
882.252	3264
882.378	3294
882.505	3462
882.631	3287
882.757	3165
882.883	3222
883.01	3249
883.136	3157
883.262	3100
883.388	3123
883.514	3321
883.64	3416
883.766	3325
883.892	3218
884.018	3249
884.143	3443
884.269	3561
884.395	3207
884.52	3154
884.646	3237
884.772	3123
884.897	3146
885.023	3192
885.148	3336
885.274	3420
885.399	3378
885.524	3272
885.65	3249
885.775	3325
885.9	3310
886.025	3435
886.15	3363
886.275	3325
886.4	3218
886.525	3317
886.65	3294
886.775	3260
886.9	3492
887.025	3633
887.149	3420
887.274	3272
887.399	3180
887.523	3192
887.648	3192
887.773	3241
887.897	3412
888.021	3409
888.146	3321
888.27	3424
888.395	3530
888.519	3428
888.643	3507
888.767	3473
888.891	3348
889.015	3275
889.139	3306
889.263	3249
889.387	3416
889.511	3545
889.635	3443
889.759	3313
889.883	3317
890.006	3359
890.13	3500
890.254	3283
890.377	3310
890.501	3233
890.624	3184
890.748	3275
890.871	3142
890.995	3127
891.118	3077
891.241	3233
891.364	3199
891.488	3348
891.611	3161
891.734	3249
891.857	3268
891.98	3245
892.103	3340
892.226	3310
892.349	3192
892.471	3146
892.594	3249
892.717	3332
892.839	3264
892.962	3294
893.085	3370
893.207	3313
893.33	3135
893.452	3245
893.575	3405
893.697	3268
893.819	3439
893.941	3511
894.064	3458
894.186	3291
894.308	3275
894.43	3439
894.552	3553
894.674	3469
894.796	3230
894.918	3313
895.04	3332
895.161	3428
895.283	3389
895.405	3291
895.526	3370
895.648	3409
895.769	3435
895.891	3462
896.012	3466
896.134	3473
896.255	3435
896.376	3409
896.498	3367
896.619	3401
896.74	3397
896.861	3424
896.982	3660
897.103	3793
897.224	3606
897.345	3511
897.466	3450
897.587	3500
897.708	3633
897.828	3584
897.949	3420
898.07	3344
898.19	3382
898.311	3622
898.431	3469
898.552	3515
898.672	3614
898.792	3572
898.913	3545
899.033	3424
899.153	3298
899.273	3188
899.393	3272
899.513	3344
899.633	3332
899.753	3344
899.873	3313
899.993	3393
900.113	3325
900.232	3401
900.352	3378
900.472	3275
900.591	3226
900.711	3302
900.83	3214
900.95	3412
901.069	3488
901.189	3325
901.308	3188
901.427	3135
901.546	3233
901.665	3325
901.784	3340
901.904	3211
902.023	3161
902.141	3005
902.26	3013
902.379	3173
902.498	3077
902.617	3074
902.735	3222
902.854	3233
902.973	3188
903.091	3055
903.21	3070
903.328	3165
903.446	3116
903.565	3093
903.683	3226
903.801	3142
903.919	3264
904.038	3253
904.156	3142
904.274	3272
904.392	3275
904.51	3264
904.627	3325
904.745	3412
904.863	3496
904.981	3272
905.098	3184
905.216	3237
905.334	3298
905.451	3310
905.569	3287
905.686	3431
905.803	3447
905.921	3253
906.038	3405
906.155	3325
906.272	3260
906.389	3302
906.506	3256
906.623	3264
906.74	3272
906.857	3192
906.974	3253
907.091	3416
907.208	3587
907.324	3496
907.441	3382
907.557	3230
907.674	3291
907.79	3188
907.907	3329
908.023	3363
908.139	3374
908.256	3313
908.372	3332
908.488	3351
908.604	3260
908.72	3275
908.836	3275
908.952	3272
909.068	3325
909.184	3504
909.3	3397
909.415	3504
909.531	3462
909.647	3302
909.762	3294
909.878	3249
909.993	3351
910.108	3313
910.224	3325
910.339	3412
910.454	3329
910.57	3306
910.685	3287
910.8	3564
910.915	3561
911.03	3454
911.145	3260
911.259	3264
911.374	3291
911.489	3260
911.604	3249
911.718	3097
911.833	3165
911.947	3043
912.062	2998
912.176	3165
912.291	3180
912.405	3230
912.519	3382
912.633	3447
912.748	3348
912.862	3325
912.976	3192
913.09	3062
913.204	3161
913.318	3207
913.431	3310
913.545	3298
913.659	3435
913.772	3306
913.886	3218
914	3214
914.113	3351
914.226	3405
914.34	3344
914.453	3226
914.566	3420
914.68	3313
914.793	3298
914.906	3142
915.019	3154
915.132	3085
915.245	3211
915.358	3230
915.47	3211
915.583	3218
915.696	3275
915.809	3386
915.921	3382
916.034	3241
916.146	3260
916.259	3245
916.371	3348
916.483	3397
916.595	3302
916.708	3329
916.82	3317
916.932	3329
917.044	3389
917.156	3370
917.268	3264
917.38	3313
917.491	3298
917.603	3332
917.715	3409
917.826	3439
917.938	3374
918.049	3272
918.161	3420
918.272	3561
918.384	3587
918.495	3500
918.606	3348
918.717	3256
918.828	3363
918.939	3382
919.05	3313
919.161	3355
919.272	3146
919.383	3321
919.494	3454
919.604	3675
919.715	3488
919.826	3409
919.936	3504
920.047	3587
920.157	3519
920.267	3778
920.378	3614
920.488	3564
920.598	3770
920.708	3956
920.818	3816
920.928	3823
921.038	4051
921.148	3975
921.258	3732
921.368	3637
921.477	3572
921.587	3545
921.697	3435
921.806	3629
921.916	3500
922.025	3355
922.134	3370
922.244	3386
922.353	3424
922.462	3233
922.571	3245
922.68	3085
922.789	3058
922.898	3131
923.007	3119
923.116	3230
923.224	3142
923.333	3176
923.442	3097
923.55	3093
923.659	3150
923.767	3195
923.876	3135
923.984	3203
924.092	3081
924.201	3154
924.309	3226
924.417	3264
924.525	3192
924.633	3287
924.741	4177
924.849	3062
924.956	3245
925.064	3055
925.172	3043
925.279	3116
925.387	3176
925.494	3192
925.602	3355
925.709	3306
925.816	3180
925.924	3256
926.031	3378
926.138	3325
926.245	3344
926.352	3249
926.459	3386
926.566	3496
926.673	3302
926.779	3256
926.886	3256
926.993	3169
927.099	3131
927.206	3081
927.312	3112
927.419	3237
927.525	3203
927.631	3272
927.737	3154
927.843	3116
927.95	3009
928.056	3108
928.162	3138
928.267	3245
928.373	3808
928.479	3291
928.585	3055
928.69	3192
928.796	3268
928.901	3142
929.007	3062
929.112	3207
929.218	3142
929.323	3135
929.428	3154
929.533	3302
929.638	3112
929.743	3161
929.848	3275
929.953	3214
930.058	3154
930.163	2982
930.267	3062
930.372	3180
930.477	3058
930.581	3291
930.685	3173
930.79	3047
930.894	3097
930.998	3119
931.103	3298
931.207	2956
931.311	2975
931.415	2929
931.519	2762
931.623	2823
