Data from test_V78500241_345.txt Node
Date: Fri Mar 25 16:17:35 CST 2022
User: usil
Spectrometer: V785-0024
Trigger mode: 0
Integration Time (sec): 4.000000E-1
Scans to average: 1
Nonlinearity correction enabled: false
Boxcar width: 0
Storing dark spectrum: false
XAxis mode: Wavelengths
Number of Pixels in Spectrum: 1024
>>>>>Begin Spectral Data<<<<<
801.071	2937
801.214	2929
801.356	2864
801.499	2902
801.641	2872
801.783	2902
801.926	3020
802.068	2967
802.211	3017
802.353	3024
802.496	2971
802.638	3024
802.78	2994
802.923	3062
803.065	3005
803.208	2937
803.35	2922
803.492	2929
803.635	2914
803.777	2762
803.919	2845
804.061	3226
804.204	2971
804.346	2906
804.488	2819
804.63	3001
804.773	2849
804.915	2948
805.057	3028
805.199	2925
805.341	2960
805.483	3058
805.626	2982
805.768	2929
805.91	3058
806.052	3089
806.194	3051
806.336	3241
806.478	3020
806.62	2990
806.762	3001
806.904	3062
807.046	3199
807.188	2982
807.33	2914
807.472	2994
807.614	2929
807.756	2922
807.898	2914
808.04	2868
808.182	2994
808.324	2922
808.465	2849
808.607	2883
808.749	2792
808.891	2857
809.033	2963
809.174	2956
809.316	2891
809.458	2891
809.6	2762
809.741	2739
809.883	2766
810.025	2838
810.166	2857
810.308	2800
810.45	2845
810.591	2746
810.733	2777
810.875	2876
811.016	2766
811.158	2762
811.299	2819
811.441	2929
811.582	2895
811.724	2800
811.865	2792
812.007	2906
812.148	2895
812.29	2880
812.431	2941
812.573	2937
812.714	2960
812.855	3020
812.997	3036
813.138	3104
813.279	3005
813.421	2975
813.562	2982
813.703	2864
813.845	2899
813.986	2792
814.127	2708
814.268	2823
814.41	2857
814.551	2807
814.692	2872
814.833	2849
814.974	2887
815.115	2956
815.256	2819
815.397	2792
815.539	2857
815.68	2758
815.821	2758
815.962	2933
816.103	2922
816.244	2876
816.385	2826
816.526	2967
816.666	2941
816.807	2762
816.948	2906
817.089	2899
817.23	2857
817.371	2807
817.512	2785
817.653	2826
817.793	2830
817.934	2883
818.075	2933
818.216	3009
818.356	2994
818.497	2895
818.638	2811
818.778	2792
818.919	2819
819.06	2750
819.2	2864
819.341	2815
819.481	2842
819.622	2922
819.762	3123
819.903	3009
820.043	2922
820.184	2902
820.324	2868
820.465	2998
820.605	2998
820.746	3005
820.886	2933
821.026	3104
821.167	3165
821.307	3264
821.447	3279
821.588	3199
821.728	3157
821.868	3184
822.008	3024
822.149	3207
822.289	3222
822.429	3074
822.569	3066
822.709	3154
822.849	3005
822.99	3070
823.13	3135
823.27	3173
823.41	3089
823.55	3142
823.69	3135
823.83	3188
823.97	3077
824.11	3005
824.25	2986
824.389	3093
824.529	3097
824.669	3066
824.809	3188
824.949	3230
825.089	3195
825.228	3131
825.368	3001
825.508	2986
825.648	2963
825.787	3017
825.927	2990
826.067	2944
826.206	2982
826.346	3036
826.485	3112
826.625	3112
826.765	3264
826.904	3207
827.044	2990
827.183	2895
827.323	2845
827.462	2944
827.601	2902
827.741	2887
827.88	2994
828.02	2872
828.159	2975
828.298	3028
828.437	3154
828.577	3077
828.716	3218
828.855	3077
828.994	2891
829.134	2876
829.273	2933
829.412	2880
829.551	2849
829.69	2849
829.829	2994
829.968	3104
830.107	2990
830.246	3020
830.385	2929
830.524	2868
830.663	2815
830.802	2754
830.941	2674
831.08	2621
831.219	2754
831.357	2727
831.496	2941
831.635	2762
831.774	2667
831.913	2686
832.051	2556
832.19	2571
832.329	2716
832.467	2549
832.606	2488
832.744	2575
832.883	2590
833.022	2606
833.16	2659
833.299	2678
833.437	2697
833.576	2743
833.714	2708
833.852	2735
833.991	2720
834.129	2845
834.267	2826
834.406	2811
834.544	2872
834.682	2887
834.821	2849
834.959	3043
835.097	2899
835.235	3074
835.373	3001
835.511	2994
835.65	2937
835.788	2929
835.926	2849
836.064	2788
836.202	2826
836.34	3089
836.478	3138
836.615	3047
836.753	3135
836.891	3218
837.029	3157
837.167	3112
837.305	3047
837.443	3028
837.58	2941
837.718	3150
837.856	3074
837.993	3009
838.131	3127
838.269	3138
838.406	3089
838.544	3089
838.681	2933
838.819	2933
838.956	2796
839.094	2830
839.231	2906
839.369	3051
839.506	3393
839.643	3211
839.781	2971
839.918	2982
840.055	3039
840.193	3055
840.33	3089
840.467	3077
840.604	3154
840.742	3378
840.879	3043
841.016	3024
841.153	3104
841.29	3378
841.427	3302
841.564	3294
841.701	3294
841.838	3203
841.975	3176
842.112	3233
842.249	3047
842.385	2998
842.522	3268
842.659	3104
842.796	3070
842.933	3097
843.069	3020
843.206	3043
843.343	3199
843.479	3093
843.616	3146
843.752	2876
843.889	2857
844.025	3051
844.162	2868
844.298	3070
844.435	2952
844.571	2914
844.708	3089
844.844	3226
844.98	3264
845.117	3161
845.253	3032
845.389	2986
845.525	3104
845.661	3127
845.798	3043
845.934	3097
846.07	3058
846.206	3233
846.342	3317
846.478	3226
846.614	3089
846.75	3028
846.886	3017
847.022	3245
847.158	3093
847.294	3165
847.429	3294
847.565	3218
847.701	3492
847.837	3058
847.972	2986
848.108	3146
848.244	3135
848.379	3028
848.515	2952
848.65	2925
848.786	2979
848.921	2994
849.057	3097
849.192	3131
849.328	3058
849.463	3081
849.598	3066
849.734	3028
849.869	2918
850.004	2918
850.14	2963
850.275	2902
850.41	2864
850.545	2887
850.68	2918
850.815	2941
850.95	2944
851.085	3199
851.22	3093
851.355	3017
851.49	2994
851.625	2975
851.76	3039
851.895	2910
852.03	2937
852.165	2998
852.299	3123
852.434	3188
852.569	3142
852.703	3184
852.838	3241
852.973	3344
853.107	3302
853.242	3138
853.376	3058
853.511	2998
853.645	3039
853.78	3226
853.914	3112
854.048	3100
854.183	3070
854.317	3123
854.451	3287
854.585	3131
854.72	3051
854.854	3203
854.988	3043
855.122	3077
855.256	2967
855.39	3108
855.524	3249
855.658	3169
855.792	3123
855.926	3214
856.06	3203
856.194	3260
856.327	3161
856.461	3066
856.595	3074
856.729	3047
856.862	3195
856.996	3150
857.13	3195
857.263	3241
857.397	3245
857.53	3127
857.664	3218
857.797	3218
857.931	3233
858.064	3180
858.197	3203
858.331	3112
858.464	3108
858.597	2990
858.731	3058
858.864	3112
858.997	3081
859.13	3146
859.263	3226
859.396	3180
859.529	3077
859.662	3070
859.795	3055
859.928	3207
860.061	3302
860.194	3279
860.327	3161
860.46	3093
860.592	3188
860.725	3203
860.858	3230
860.99	3116
861.123	3085
861.256	3043
861.388	3150
861.521	3728
861.653	3017
861.786	3001
861.918	2990
862.05	3001
862.183	3077
862.315	3165
862.447	3165
862.58	3070
862.712	2960
862.844	2864
862.976	3001
863.108	3043
863.24	3321
863.372	2876
863.504	2914
863.636	2971
863.768	3005
863.9	2967
864.032	2902
864.164	2975
864.296	3020
864.428	3112
864.559	3123
864.691	3028
864.823	3081
864.954	3036
865.086	3032
865.217	3013
865.349	2956
865.48	2975
865.612	3032
865.743	3119
865.875	2986
866.006	2933
866.137	2963
866.269	2948
866.4	2914
866.531	2960
866.662	2906
866.793	2922
866.924	2891
867.055	2952
867.186	2906
867.317	2838
867.448	2830
867.579	2842
867.71	2849
867.841	2872
867.972	2906
868.103	2880
868.233	2918
868.364	2853
868.495	2944
868.625	3116
868.756	3173
868.886	2986
869.017	2998
869.147	3188
869.278	3176
869.408	3047
869.539	3081
869.669	3097
869.799	3047
869.929	3119
870.06	3070
870.19	3317
870.32	3317
870.45	3310
870.58	3378
870.71	3454
870.84	3431
870.97	3325
871.1	3230
871.23	3466
871.36	3450
871.489	3367
871.619	3409
871.749	3405
871.879	3466
872.008	3481
872.138	3389
872.267	3233
872.397	3165
872.526	3077
872.656	2990
872.785	3100
872.915	3230
873.044	3344
873.173	3222
873.303	3222
873.432	3233
873.561	3207
873.69	3119
873.819	3116
873.948	3180
874.077	3104
874.206	3024
874.335	3127
874.464	3256
874.593	3332
874.722	3237
874.851	3355
874.979	3348
875.108	3298
875.237	3146
875.365	3211
875.494	3138
875.623	3218
875.751	3074
875.88	3119
876.008	3157
876.136	3241
876.265	3359
876.393	3500
876.521	3466
876.65	3351
876.778	3321
876.906	3237
877.034	3203
877.162	3222
877.29	3199
877.418	3287
877.546	3249
877.674	3233
877.802	3260
877.93	3226
878.058	3138
878.185	3116
878.313	3203
878.441	3226
878.568	3043
878.696	3138
878.824	3253
878.951	3298
879.079	3424
879.206	3584
879.333	3443
879.461	3317
879.588	3363
879.715	3496
879.842	3606
879.97	3393
880.097	3203
880.224	3119
880.351	3127
880.478	3256
880.605	3207
880.732	3214
880.859	3477
880.986	3291
881.112	3332
881.239	3237
881.366	3089
881.493	3017
881.619	3005
881.746	3043
881.872	3085
881.999	3116
882.125	3077
882.252	3253
882.378	3287
882.505	3439
882.631	3310
882.757	3176
882.883	3195
883.01	3192
883.136	3146
883.262	3077
883.388	3093
883.514	3298
883.64	3359
883.766	3340
883.892	3222
884.018	3268
884.143	3378
884.269	3534
884.395	3207
884.52	3176
884.646	3218
884.772	3123
884.897	3062
885.023	3222
885.148	3287
885.274	3409
885.399	3397
885.524	3310
885.65	3245
885.775	3336
885.9	3256
886.025	3435
886.15	3363
886.275	3321
886.4	3241
886.525	3291
886.65	3230
886.775	3272
886.9	3469
887.025	3663
887.149	3416
887.274	3268
887.399	3146
887.523	3192
887.648	3176
887.773	3173
887.897	3374
888.021	3397
888.146	3329
888.27	3397
888.395	3542
888.519	3378
888.643	3435
888.767	3439
888.891	3302
889.015	3237
889.139	3249
889.263	3226
889.387	3412
889.511	3511
889.635	3424
889.759	3256
889.883	3291
890.006	3412
890.13	3431
890.254	3253
890.377	3325
890.501	3203
890.624	3150
890.748	3268
890.871	3154
890.995	3104
891.118	3070
891.241	3150
891.364	3218
891.488	3313
891.611	3165
891.734	3226
891.857	3275
891.98	3256
892.103	3348
892.226	3294
892.349	3180
892.471	3116
892.594	3237
892.717	3298
892.839	3245
892.962	3294
893.085	3374
893.207	3260
893.33	3157
893.452	3199
893.575	3351
893.697	3241
893.819	3485
893.941	3450
894.064	3431
894.186	3245
894.308	3272
894.43	3409
894.552	3511
894.674	3481
894.796	3245
894.918	3344
895.04	3275
895.161	3397
895.283	3370
895.405	3275
895.526	3374
895.648	3435
895.769	3401
895.891	3420
896.012	3473
896.134	3466
896.255	3389
896.376	3363
896.498	3367
896.619	3420
896.74	3397
896.861	3397
896.982	3675
897.103	3816
897.224	3603
897.345	3473
897.466	3447
897.587	3481
897.708	3610
897.828	3557
897.949	3450
898.07	3325
898.19	3405
898.311	3603
898.431	3439
898.552	3500
898.672	3595
898.792	3564
898.913	3526
899.033	3428
899.153	3294
899.273	3211
899.393	3313
899.513	3332
899.633	3336
899.753	3298
899.873	3268
899.993	3397
900.113	3378
900.232	3382
900.352	3359
900.472	3275
900.591	3195
900.711	3268
900.83	3256
900.95	3363
901.069	3507
901.189	3363
901.308	3165
901.427	3146
901.546	3211
901.665	3321
901.784	3336
901.904	3211
902.023	3127
902.141	2975
902.26	2986
902.379	3108
902.498	3097
902.617	3051
902.735	3195
902.854	3226
902.973	3203
903.091	3013
903.21	3085
903.328	3150
903.446	3142
903.565	3127
903.683	3207
903.801	3116
903.919	3268
904.038	3313
904.156	3135
904.274	3287
904.392	3245
904.51	3329
904.627	3302
904.745	3481
904.863	3496
904.981	3275
905.098	3214
905.216	3195
905.334	3291
905.451	3332
905.569	3340
905.686	3428
905.803	3447
905.921	3264
906.038	3424
906.155	3340
906.272	3287
906.389	3367
906.506	3230
906.623	3260
906.74	3233
906.857	3233
906.974	3275
907.091	3466
907.208	3530
907.324	3477
907.441	3420
907.557	3226
907.674	3195
907.79	3203
907.907	3287
908.023	3363
908.139	3355
908.256	3321
908.372	3374
908.488	3348
908.604	3260
908.72	3161
908.836	3283
908.952	3287
909.068	3367
909.184	3507
909.3	3412
909.415	3534
909.531	3485
909.647	3283
909.762	3287
909.878	3214
909.993	3359
910.108	3378
910.224	3348
910.339	3439
910.454	3329
910.57	3294
910.685	3226
910.8	3580
910.915	3507
911.03	3462
911.145	3256
911.259	3233
911.374	3340
911.489	3249
911.604	3195
911.718	3154
911.833	3150
911.947	3074
912.062	2986
912.176	3150
912.291	3226
912.405	3233
912.519	3454
912.633	3481
912.748	3329
912.862	3313
912.976	3146
913.09	3062
913.204	3135
913.318	3233
913.431	3351
913.545	3329
913.659	3420
913.772	3306
913.886	3207
914	3188
914.113	3355
914.226	3416
914.34	3382
914.453	3249
914.566	3439
914.68	3283
914.793	3298
914.906	3165
915.019	3135
915.132	3070
915.245	3180
915.358	3214
915.47	3176
915.583	3256
915.696	3256
915.809	3367
915.921	3393
916.034	3241
916.146	3256
916.259	3241
916.371	3378
916.483	3382
916.595	3233
916.708	3336
916.82	3344
916.932	3313
917.044	3363
917.156	3344
917.268	3279
917.38	3294
917.491	3298
917.603	3409
917.715	3431
917.826	3466
917.938	3382
918.049	3272
918.161	3428
918.272	3622
918.384	3584
918.495	3530
918.606	3348
918.717	3260
918.828	3367
918.939	3397
919.05	3313
919.161	3340
919.272	3176
919.383	3294
919.494	3477
919.604	3637
919.715	3473
919.826	3439
919.936	3507
920.047	3572
920.157	3557
920.267	3728
920.378	3603
920.488	3580
920.598	3766
920.708	3945
920.818	3838
920.928	3835
921.038	4032
921.148	4051
921.258	3686
921.368	3637
921.477	3595
921.587	3576
921.697	3439
921.806	3622
921.916	3538
922.025	3336
922.134	3412
922.244	3279
922.353	3386
922.462	3230
922.571	3218
922.68	3116
922.789	3066
922.898	3135
923.007	3131
923.116	3211
923.224	3157
923.333	3203
923.442	3116
923.55	3123
923.659	3146
923.767	3180
923.876	3157
923.984	3253
924.092	3097
924.201	3195
924.309	3241
924.417	3287
924.525	3226
924.633	3241
924.741	4192
924.849	3074
924.956	3256
925.064	3119
925.172	3047
925.279	3058
925.387	3226
925.494	3169
925.602	3336
925.709	3298
925.816	3192
925.924	3275
926.031	3370
926.138	3336
926.245	3359
926.352	3253
926.459	3462
926.566	3439
926.673	3317
926.779	3241
926.886	3241
926.993	3146
927.099	3176
927.206	3131
927.312	3127
927.419	3264
927.525	3211
927.631	3279
927.737	3169
927.843	3150
927.95	3039
928.056	3142
928.162	3184
928.267	3237
928.373	3823
928.479	3321
928.585	3089
928.69	3211
928.796	3245
928.901	3142
929.007	3036
929.112	3188
929.218	3199
929.323	3119
929.428	3169
929.533	3264
929.638	3135
929.743	3157
929.848	3241
929.953	3245
930.058	3112
930.163	3013
930.267	3085
930.372	3214
930.477	3017
930.581	3313
930.685	3199
930.79	3051
930.894	3154
930.998	3081
931.103	3302
931.207	2948
931.311	2941
931.415	2906
931.519	2754
931.623	2796
