Data from test_V78500241_1831.txt Node
Date: Fri Mar 25 16:27:53 CST 2022
User: usil
Spectrometer: V785-0024
Trigger mode: 0
Integration Time (sec): 4.000000E-1
Scans to average: 1
Nonlinearity correction enabled: false
Boxcar width: 0
Storing dark spectrum: false
XAxis mode: Wavelengths
Number of Pixels in Spectrum: 1024
>>>>>Begin Spectral Data<<<<<
801.071	2868
801.214	2929
801.356	2857
801.499	2895
801.641	2823
801.783	2895
801.926	3058
802.068	2933
802.211	2967
802.353	3028
802.496	2952
802.638	2975
802.78	2979
802.923	3074
803.065	2998
803.208	2883
803.35	2899
803.492	2929
803.635	2864
803.777	2769
803.919	2842
804.061	3222
804.204	2906
804.346	2872
804.488	2853
804.63	2929
804.773	2845
804.915	2914
805.057	3097
805.199	2906
805.341	2963
805.483	3058
805.626	2967
805.768	2933
805.91	3055
806.052	3097
806.194	3009
806.336	3214
806.478	3001
806.62	2929
806.762	2933
806.904	3009
807.046	3195
807.188	2971
807.33	2922
807.472	3001
807.614	2941
807.756	2971
807.898	2910
808.04	2876
808.182	2948
808.324	2941
808.465	2872
808.607	2838
808.749	2773
808.891	2830
809.033	2979
809.174	2960
809.316	2887
809.458	2902
809.6	2762
809.741	2788
809.883	2762
810.025	2830
810.166	2845
810.308	2826
810.45	2834
810.591	2800
810.733	2739
810.875	2819
811.016	2754
811.158	2758
811.299	2785
811.441	2941
811.582	2895
811.724	2830
811.865	2815
812.007	2914
812.148	2872
812.29	2830
812.431	2872
812.573	2956
812.714	2986
812.855	3028
812.997	3009
813.138	3131
813.279	3009
813.421	2971
813.562	2971
813.703	2872
813.845	2880
813.986	2746
814.127	2727
814.268	2811
814.41	2845
814.551	2815
814.692	2883
814.833	2838
814.974	2883
815.115	2963
815.256	2857
815.397	2826
815.539	2883
815.68	2788
815.821	2781
815.962	2937
816.103	2982
816.244	2895
816.385	2823
816.526	2963
816.666	2941
816.807	2746
816.948	2887
817.089	2891
817.23	2868
817.371	2758
817.512	2807
817.653	2842
817.793	2842
817.934	2864
818.075	2956
818.216	2963
818.356	2998
818.497	2891
818.638	2758
818.778	2792
818.919	2766
819.06	2727
819.2	2887
819.341	2807
819.481	2800
819.622	2929
819.762	3100
819.903	3047
820.043	2937
820.184	2918
820.324	2876
820.465	2986
820.605	3024
820.746	3009
820.886	2910
821.026	3108
821.167	3146
821.307	3256
821.447	3272
821.588	3256
821.728	3222
821.868	3169
822.008	3047
822.149	3161
822.289	3195
822.429	3089
822.569	3104
822.709	3138
822.849	3001
822.99	3039
823.13	3146
823.27	3157
823.41	3108
823.55	3138
823.69	3180
823.83	3176
823.97	3070
824.11	2967
824.25	2998
824.389	3066
824.529	3093
824.669	3085
824.809	3154
824.949	3249
825.089	3180
825.228	3146
825.368	2994
825.508	2960
825.648	3001
825.787	2982
825.927	3043
826.067	2971
826.206	2963
826.346	3051
826.485	3085
826.625	3131
826.765	3260
826.904	3230
827.044	2994
827.183	2933
827.323	2880
827.462	2994
827.601	2929
827.741	2918
827.88	2975
828.02	2887
828.159	3001
828.298	3047
828.437	3100
828.577	3058
828.716	3260
828.855	3051
828.994	2914
829.134	2918
829.273	2937
829.412	2868
829.551	2891
829.69	2910
829.829	2990
829.968	3173
830.107	3020
830.246	3039
830.385	2960
830.524	2914
830.663	2876
830.802	2758
830.941	2670
831.08	2667
831.219	2804
831.357	2769
831.496	2948
831.635	2758
831.774	2670
831.913	2686
832.051	2610
832.19	2602
832.329	2754
832.467	2549
832.606	2526
832.744	2625
832.883	2613
833.022	2621
833.16	2697
833.299	2705
833.437	2727
833.576	2712
833.714	2750
833.852	2758
833.991	2804
834.129	2872
834.267	2868
834.406	2853
834.544	2910
834.682	2880
834.821	2937
834.959	3070
835.097	2933
835.235	3138
835.373	3036
835.511	3074
835.65	2986
835.788	2967
835.926	2845
836.064	2857
836.202	2906
836.34	3138
836.478	3169
836.615	3070
836.753	3150
836.891	3253
837.029	3207
837.167	3142
837.305	3108
837.443	3089
837.58	2994
837.718	3195
837.856	3104
837.993	3066
838.131	3146
838.269	3127
838.406	3135
838.544	3138
838.681	2963
838.819	2979
838.956	2876
839.094	2842
839.231	2971
839.369	3070
839.506	3424
839.643	3203
839.781	3051
839.918	2982
840.055	3070
840.193	3077
840.33	3097
840.467	3135
840.604	3192
840.742	3481
840.879	3089
841.016	3100
841.153	3119
841.29	3393
841.427	3340
841.564	3291
841.701	3374
841.838	3241
841.975	3226
842.112	3237
842.249	3127
842.385	3085
842.522	3283
842.659	3108
842.796	3070
842.933	3138
843.069	3089
843.206	3066
843.343	3184
843.479	3116
843.616	3173
843.752	2963
843.889	2864
844.025	3135
844.162	2925
844.298	3127
844.435	2963
844.571	2944
844.708	3085
844.844	3207
844.98	3230
845.117	3180
845.253	3070
845.389	3039
845.525	3127
845.661	3146
845.798	3028
845.934	3150
846.07	3047
846.206	3233
846.342	3363
846.478	3233
846.614	3146
846.75	3142
846.886	3062
847.022	3256
847.158	3154
847.294	3233
847.429	3249
847.565	3241
847.701	3485
847.837	3093
847.972	3043
848.108	3195
848.244	3157
848.379	3055
848.515	2971
848.65	2967
848.786	2967
848.921	3074
849.057	3119
849.192	3176
849.328	3089
849.463	3146
849.598	3108
849.734	3039
849.869	3001
850.004	2948
850.14	2998
850.275	2960
850.41	2864
850.545	2914
850.68	2975
850.815	2998
850.95	3009
851.085	3237
851.22	3116
851.355	3047
851.49	2990
851.625	2979
851.76	3036
851.895	2952
852.03	2960
852.165	3077
852.299	3142
852.434	3192
852.569	3169
852.703	3214
852.838	3260
852.973	3382
853.107	3348
853.242	3199
853.376	3100
853.511	3039
853.645	3085
853.78	3230
853.914	3104
854.048	3123
854.183	3062
854.317	3180
854.451	3336
854.585	3142
854.72	3116
854.854	3230
854.988	3081
855.122	3127
855.256	2982
855.39	3123
855.524	3279
855.658	3211
855.792	3180
855.926	3199
856.06	3260
856.194	3317
856.327	3180
856.461	3100
856.595	3074
856.729	3093
856.862	3214
856.996	3161
857.13	3180
857.263	3253
857.397	3310
857.53	3157
857.664	3203
857.797	3256
857.931	3260
858.064	3176
858.197	3237
858.331	3127
858.464	3157
858.597	3081
858.731	3093
858.864	3165
858.997	3135
859.13	3154
859.263	3211
859.396	3211
859.529	3089
859.662	3108
859.795	3039
859.928	3131
860.061	3329
860.194	3298
860.327	3195
860.46	3074
860.592	3230
860.725	3245
860.858	3283
860.99	3131
861.123	3039
861.256	3051
861.388	3154
861.521	3865
861.653	3051
861.786	3020
861.918	2994
862.05	3112
862.183	3123
862.315	3203
862.447	3226
862.58	3146
862.712	2982
862.844	2895
862.976	3062
863.108	3020
863.24	3412
863.372	2853
863.504	2971
863.636	2967
863.768	3055
863.9	3001
864.032	2941
864.164	2963
864.296	3062
864.428	3081
864.559	3104
864.691	3074
864.823	3104
864.954	3043
865.086	3062
865.217	3028
865.349	2986
865.48	2986
865.612	3024
865.743	3188
865.875	2998
866.006	2971
866.137	3013
866.269	3017
866.4	2922
866.531	2971
866.662	2914
866.793	2929
866.924	2891
867.055	3001
867.186	2982
867.317	2937
867.448	2864
867.579	2842
867.71	2883
867.841	2857
867.972	2929
868.103	2918
868.233	2883
868.364	2849
868.495	2922
868.625	3093
868.756	3188
868.886	2986
869.017	2994
869.147	3203
869.278	3169
869.408	3062
869.539	3005
869.669	3119
869.799	3051
869.929	3150
870.06	3135
870.19	3317
870.32	3306
870.45	3321
870.58	3397
870.71	3439
870.84	3462
870.97	3325
871.1	3268
871.23	3526
871.36	3485
871.489	3424
871.619	3420
871.749	3462
871.879	3439
872.008	3530
872.138	3378
872.267	3306
872.397	3180
872.526	3131
872.656	3013
872.785	3112
872.915	3260
873.044	3329
873.173	3260
873.303	3275
873.432	3256
873.561	3233
873.69	3180
873.819	3165
873.948	3207
874.077	3131
874.206	3070
874.335	3097
874.464	3237
874.593	3348
874.722	3233
874.851	3439
874.979	3397
875.108	3344
875.237	3199
875.365	3188
875.494	3150
875.623	3241
875.751	3093
875.88	3108
876.008	3211
876.136	3199
876.265	3351
876.393	3481
876.521	3435
876.65	3389
876.778	3332
876.906	3272
877.034	3226
877.162	3195
877.29	3184
877.418	3264
877.546	3294
877.674	3275
877.802	3218
877.93	3260
878.058	3180
878.185	3138
878.313	3188
878.441	3184
878.568	3043
878.696	3180
878.824	3268
878.951	3306
879.079	3450
879.206	3641
879.333	3481
879.461	3329
879.588	3340
879.715	3454
879.842	3595
879.97	3370
880.097	3161
880.224	3184
880.351	3203
880.478	3218
880.605	3233
880.732	3222
880.859	3496
880.986	3294
881.112	3355
881.239	3211
881.366	3070
881.493	3051
881.619	3039
881.746	3055
881.872	3135
881.999	3123
882.125	3169
882.252	3245
882.378	3294
882.505	3481
882.631	3306
882.757	3165
882.883	3241
883.01	3237
883.136	3184
883.262	3112
883.388	3131
883.514	3329
883.64	3393
883.766	3363
883.892	3226
884.018	3256
884.143	3405
884.269	3534
884.395	3222
884.52	3161
884.646	3203
884.772	3119
884.897	3142
885.023	3214
885.148	3359
885.274	3443
885.399	3412
885.524	3306
885.65	3260
885.775	3310
885.9	3329
886.025	3481
886.15	3397
886.275	3317
886.4	3237
886.525	3306
886.65	3283
886.775	3256
886.9	3511
887.025	3648
887.149	3405
887.274	3249
887.399	3169
887.523	3218
887.648	3211
887.773	3211
887.897	3397
888.021	3401
888.146	3317
888.27	3439
888.395	3500
888.519	3435
888.643	3485
888.767	3492
888.891	3325
889.015	3264
889.139	3313
889.263	3283
889.387	3447
889.511	3526
889.635	3431
889.759	3275
889.883	3336
890.006	3420
890.13	3523
890.254	3298
890.377	3363
890.501	3180
890.624	3176
890.748	3264
890.871	3184
890.995	3142
891.118	3097
891.241	3180
891.364	3249
891.488	3310
891.611	3154
891.734	3195
891.857	3313
891.98	3272
892.103	3367
892.226	3272
892.349	3249
892.471	3154
892.594	3298
892.717	3306
892.839	3256
892.962	3332
893.085	3389
893.207	3329
893.33	3184
893.452	3226
893.575	3378
893.697	3287
893.819	3447
893.941	3519
894.064	3447
894.186	3253
894.308	3256
894.43	3447
894.552	3534
894.674	3473
894.796	3275
894.918	3294
895.04	3272
895.161	3409
895.283	3428
895.405	3332
895.526	3355
895.648	3443
895.769	3447
895.891	3458
896.012	3462
896.134	3473
896.255	3416
896.376	3382
896.498	3378
896.619	3450
896.74	3378
896.861	3416
896.982	3652
897.103	3823
897.224	3625
897.345	3526
897.466	3431
897.587	3523
897.708	3603
897.828	3568
897.949	3412
898.07	3340
898.19	3351
898.311	3603
898.431	3466
898.552	3496
898.672	3622
898.792	3545
898.913	3564
899.033	3424
899.153	3298
899.273	3222
899.393	3272
899.513	3332
899.633	3336
899.753	3351
899.873	3317
899.993	3374
900.113	3329
900.232	3336
900.352	3325
900.472	3302
900.591	3237
900.711	3332
900.83	3218
900.95	3435
901.069	3526
901.189	3310
901.308	3169
901.427	3131
901.546	3176
901.665	3260
901.784	3355
901.904	3188
902.023	3157
902.141	3013
902.26	2986
902.379	3138
902.498	3070
902.617	3039
902.735	3180
902.854	3199
902.973	3161
903.091	3074
903.21	3055
903.328	3138
903.446	3135
903.565	3138
903.683	3192
903.801	3119
903.919	3241
904.038	3325
904.156	3169
904.274	3325
904.392	3283
904.51	3329
904.627	3378
904.745	3454
904.863	3511
904.981	3264
905.098	3161
905.216	3260
905.334	3275
905.451	3279
905.569	3351
905.686	3412
905.803	3412
905.921	3260
906.038	3458
906.155	3359
906.272	3287
906.389	3351
906.506	3233
906.623	3283
906.74	3275
906.857	3188
906.974	3302
907.091	3485
907.208	3595
907.324	3462
907.441	3367
907.557	3245
907.674	3207
907.79	3203
907.907	3253
908.023	3382
908.139	3405
908.256	3313
908.372	3332
908.488	3351
908.604	3245
908.72	3298
908.836	3291
908.952	3306
909.068	3306
909.184	3504
909.3	3363
909.415	3504
909.531	3462
909.647	3287
909.762	3302
909.878	3260
909.993	3401
910.108	3317
910.224	3382
910.339	3447
910.454	3325
910.57	3294
910.685	3256
910.8	3595
910.915	3526
911.03	3424
911.145	3283
911.259	3256
911.374	3302
911.489	3249
911.604	3230
911.718	3157
911.833	3157
911.947	3100
912.062	3005
912.176	3173
912.291	3203
912.405	3214
912.519	3435
912.633	3496
912.748	3344
912.862	3310
912.976	3195
913.09	3081
913.204	3142
913.318	3214
913.431	3351
913.545	3336
913.659	3424
913.772	3302
913.886	3211
914	3222
914.113	3405
914.226	3389
914.34	3367
914.453	3214
914.566	3382
914.68	3279
914.793	3329
914.906	3131
915.019	3100
915.132	3093
915.245	3154
915.358	3245
915.47	3230
915.583	3283
915.696	3302
915.809	3397
915.921	3409
916.034	3249
916.146	3245
916.259	3207
916.371	3359
916.483	3389
916.595	3226
916.708	3351
916.82	3378
916.932	3340
917.044	3370
917.156	3321
917.268	3260
917.38	3302
917.491	3256
917.603	3386
917.715	3447
917.826	3466
917.938	3336
918.049	3279
918.161	3435
918.272	3580
918.384	3545
918.495	3526
918.606	3329
918.717	3279
918.828	3359
918.939	3420
919.05	3306
919.161	3382
919.272	3180
919.383	3287
919.494	3496
919.604	3686
919.715	3496
919.826	3439
919.936	3462
920.047	3584
920.157	3549
920.267	3766
920.378	3595
920.488	3568
920.598	3743
920.708	3937
920.818	3812
920.928	3827
921.038	4048
921.148	3998
921.258	3701
921.368	3603
921.477	3584
921.587	3584
921.697	3409
921.806	3603
921.916	3568
922.025	3370
922.134	3363
922.244	3348
922.353	3450
922.462	3260
922.571	3199
922.68	3123
922.789	3047
922.898	3142
923.007	3146
923.116	3165
923.224	3199
923.333	3207
923.442	3089
923.55	3142
923.659	3157
923.767	3214
923.876	3123
923.984	3272
924.092	3116
924.201	3222
924.309	3260
924.417	3233
924.525	3207
924.633	3226
924.741	4192
924.849	3055
924.956	3233
925.064	3081
925.172	3017
925.279	3108
925.387	3199
925.494	3199
925.602	3359
925.709	3351
925.816	3184
925.924	3298
926.031	3378
926.138	3317
926.245	3310
926.352	3222
926.459	3405
926.566	3485
926.673	3332
926.779	3260
926.886	3272
926.993	3157
927.099	3116
927.206	3165
927.312	3154
927.419	3203
927.525	3211
927.631	3291
927.737	3150
927.843	3116
927.95	3017
928.056	3146
928.162	3135
928.267	3237
928.373	3762
928.479	3298
928.585	3093
928.69	3207
928.796	3275
928.901	3192
929.007	3074
929.112	3203
929.218	3188
929.323	3127
929.428	3173
929.533	3306
929.638	3108
929.743	3169
929.848	3279
929.953	3173
930.058	3154
930.163	3024
930.267	3036
930.372	3192
930.477	3062
930.581	3283
930.685	3161
930.79	3043
930.894	3138
930.998	3123
931.103	3298
931.207	2948
931.311	2956
931.415	2941
931.519	2766
931.623	2804
