Data from test_V78500241_788.txt Node
Date: Fri Mar 25 16:20:40 CST 2022
User: usil
Spectrometer: V785-0024
Trigger mode: 0
Integration Time (sec): 4.000000E-1
Scans to average: 1
Nonlinearity correction enabled: false
Boxcar width: 0
Storing dark spectrum: false
XAxis mode: Wavelengths
Number of Pixels in Spectrum: 1024
>>>>>Begin Spectral Data<<<<<
801.071	2910
801.214	2902
801.356	2864
801.499	2910
801.641	2849
801.783	2922
801.926	3043
802.068	2960
802.211	2982
802.353	3043
802.496	2941
802.638	2971
802.78	3005
802.923	3062
803.065	2982
803.208	2887
803.35	2891
803.492	2910
803.635	2899
803.777	2766
803.919	2845
804.061	3199
804.204	2960
804.346	2895
804.488	2823
804.63	2956
804.773	2883
804.915	2880
805.057	3039
805.199	2899
805.341	2952
805.483	2956
805.626	3017
805.768	2967
805.91	3104
806.052	3131
806.194	3036
806.336	3199
806.478	2994
806.62	2933
806.762	2975
806.904	3039
807.046	3146
807.188	2998
807.33	2895
807.472	2994
807.614	2922
807.756	2998
807.898	2933
808.04	2880
808.182	2979
808.324	2994
808.465	2887
808.607	2853
808.749	2800
808.891	2830
809.033	2956
809.174	2960
809.316	2868
809.458	2857
809.6	2739
809.741	2762
809.883	2758
810.025	2826
810.166	2823
810.308	2849
810.45	2830
810.591	2777
810.733	2754
810.875	2838
811.016	2792
811.158	2762
811.299	2834
811.441	2925
811.582	2891
811.724	2807
811.865	2811
812.007	2922
812.148	2842
812.29	2826
812.431	2891
812.573	2902
812.714	2994
812.855	3017
812.997	3036
813.138	3093
813.279	2967
813.421	2986
813.562	2960
813.703	2853
813.845	2906
813.986	2796
814.127	2670
814.268	2826
814.41	2815
814.551	2826
814.692	2899
814.833	2792
814.974	2899
815.115	2960
815.256	2834
815.397	2811
815.539	2849
815.68	2800
815.821	2819
815.962	2944
816.103	2929
816.244	2872
816.385	2864
816.526	2994
816.666	2922
816.807	2720
816.948	2876
817.089	2887
817.23	2853
817.371	2788
817.512	2804
817.653	2838
817.793	2815
817.934	2906
818.075	2967
818.216	3020
818.356	3020
818.497	2876
818.638	2800
818.778	2788
818.919	2773
819.06	2766
819.2	2899
819.341	2796
819.481	2785
819.622	2910
819.762	3062
819.903	3055
820.043	2891
820.184	2933
820.324	2880
820.465	3001
820.605	3028
820.746	3066
820.886	2929
821.026	3093
821.167	3154
821.307	3214
821.447	3279
821.588	3222
821.728	3195
821.868	3203
822.008	3074
822.149	3199
822.289	3279
822.429	3070
822.569	3093
822.709	3214
822.849	2998
822.99	3039
823.13	3169
823.27	3180
823.41	3123
823.55	3154
823.69	3131
823.83	3176
823.97	3108
824.11	2990
824.25	3005
824.389	3108
824.529	3108
824.669	3032
824.809	3184
824.949	3184
825.089	3241
825.228	3169
825.368	3013
825.508	2952
825.648	2990
825.787	2994
825.927	2990
826.067	2960
826.206	2918
826.346	3058
826.485	3074
826.625	3150
826.765	3253
826.904	3199
827.044	3001
827.183	2937
827.323	2891
827.462	2948
827.601	2925
827.741	2922
827.88	2937
828.02	2864
828.159	2975
828.298	3036
828.437	3112
828.577	3032
828.716	3249
828.855	3074
828.994	2914
829.134	2868
829.273	2937
829.412	2887
829.551	2899
829.69	2876
829.829	2944
829.968	3123
830.107	3013
830.246	3051
830.385	2895
830.524	2895
830.663	2838
830.802	2739
830.941	2629
831.08	2644
831.219	2731
831.357	2754
831.496	2933
831.635	2693
831.774	2663
831.913	2678
832.051	2518
832.19	2533
832.329	2686
832.467	2537
832.606	2480
832.744	2568
832.883	2541
833.022	2587
833.16	2629
833.299	2686
833.437	2693
833.576	2682
833.714	2678
833.852	2746
833.991	2758
834.129	2823
834.267	2807
834.406	2788
834.544	2853
834.682	2883
834.821	2914
834.959	3062
835.097	2922
835.235	3055
835.373	3009
835.511	3013
835.65	3013
835.788	2979
835.926	2800
836.064	2811
836.202	2834
836.34	3058
836.478	3135
836.615	3024
836.753	3097
836.891	3222
837.029	3157
837.167	3127
837.305	3077
837.443	3005
837.58	2979
837.718	3131
837.856	3077
837.993	3036
838.131	3108
838.269	3116
838.406	3062
838.544	3062
838.681	2956
838.819	2910
838.956	2842
839.094	2819
839.231	2914
839.369	2967
839.506	3386
839.643	3214
839.781	3032
839.918	2956
840.055	3020
840.193	3028
840.33	3058
840.467	3077
840.604	3116
840.742	3409
840.879	3066
841.016	3062
841.153	3104
841.29	3325
841.427	3279
841.564	3237
841.701	3332
841.838	3222
841.975	3218
842.112	3184
842.249	3043
842.385	3058
842.522	3241
842.659	3058
842.796	3043
842.933	3070
843.069	3036
843.206	3051
843.343	3173
843.479	3123
843.616	3173
843.752	2902
843.889	2830
844.025	3093
844.162	2864
844.298	3097
844.435	2982
844.571	2918
844.708	3055
844.844	3169
844.98	3237
845.117	3192
845.253	3074
845.389	3005
845.525	3131
845.661	3085
845.798	2975
845.934	3108
846.07	3066
846.206	3222
846.342	3313
846.478	3188
846.614	3058
846.75	3051
846.886	3009
847.022	3226
847.158	3150
847.294	3207
847.429	3249
847.565	3226
847.701	3473
847.837	3036
847.972	2994
848.108	3165
848.244	3146
848.379	2986
848.515	2948
848.65	2933
848.786	2948
848.921	3020
849.057	3093
849.192	3138
849.328	3100
849.463	3116
849.598	3009
849.734	3020
849.869	2967
850.004	2899
850.14	2944
850.275	2895
850.41	2819
850.545	2861
850.68	2948
850.815	2929
850.95	2952
851.085	3173
851.22	3112
851.355	3036
851.49	2956
851.625	3001
851.76	3024
851.895	2944
852.03	2880
852.165	3020
852.299	3070
852.434	3173
852.569	3150
852.703	3127
852.838	3233
852.973	3325
853.107	3275
853.242	3150
853.376	3051
853.511	2971
853.645	3013
853.78	3245
853.914	3119
854.048	3127
854.183	3055
854.317	3154
854.451	3272
854.585	3089
854.72	3093
854.854	3211
854.988	3058
855.122	3089
855.256	2971
855.39	3089
855.524	3230
855.658	3188
855.792	3123
855.926	3180
856.06	3203
856.194	3230
856.327	3180
856.461	3062
856.595	3085
856.729	3081
856.862	3233
856.996	3157
857.13	3203
857.263	3226
857.397	3268
857.53	3108
857.664	3165
857.797	3214
857.931	3283
858.064	3116
858.197	3199
858.331	3116
858.464	3112
858.597	3013
858.731	3116
858.864	3135
858.997	3085
859.13	3192
859.263	3195
859.396	3180
859.529	3066
859.662	3074
859.795	3020
859.928	3135
860.061	3241
860.194	3275
860.327	3146
860.46	3077
860.592	3226
860.725	3237
860.858	3233
860.99	3093
861.123	3039
861.256	3055
861.388	3165
861.521	3949
861.653	3009
861.786	2971
861.918	2960
862.05	3051
862.183	3112
862.315	3176
862.447	3218
862.58	3070
862.712	2952
862.844	2891
862.976	3009
863.108	3005
863.24	3329
863.372	2849
863.504	2922
863.636	2944
863.768	3013
863.9	2971
864.032	2918
864.164	2960
864.296	2982
864.428	3093
864.559	3085
864.691	3058
864.823	3070
864.954	3024
865.086	3043
865.217	3005
865.349	2948
865.48	3013
865.612	3036
865.743	3116
865.875	3020
866.006	2982
866.137	2990
866.269	2918
866.4	2922
866.531	2895
866.662	2883
866.793	2902
866.924	2883
867.055	2967
867.186	2902
867.317	2872
867.448	2857
867.579	2842
867.71	2853
867.841	2807
867.972	2899
868.103	2918
868.233	2826
868.364	2853
868.495	2895
868.625	3055
868.756	3161
868.886	2944
869.017	2975
869.147	3131
869.278	3180
869.408	3039
869.539	3009
869.669	3074
869.799	3055
869.929	3127
870.06	3089
870.19	3298
870.32	3272
870.45	3264
870.58	3332
870.71	3439
870.84	3424
870.97	3268
871.1	3218
871.23	3454
871.36	3401
871.489	3359
871.619	3409
871.749	3431
871.879	3481
872.008	3485
872.138	3332
872.267	3272
872.397	3108
872.526	3108
872.656	3001
872.785	3116
872.915	3241
873.044	3302
873.173	3203
873.303	3222
873.432	3249
873.561	3241
873.69	3142
873.819	3150
873.948	3218
874.077	3138
874.206	3089
874.335	3100
874.464	3230
874.593	3332
874.722	3249
874.851	3401
874.979	3329
875.108	3294
875.237	3192
875.365	3161
875.494	3161
875.623	3245
875.751	3062
875.88	3138
876.008	3195
876.136	3237
876.265	3336
876.393	3507
876.521	3431
876.65	3420
876.778	3321
876.906	3207
877.034	3180
877.162	3218
877.29	3165
877.418	3298
877.546	3230
877.674	3241
877.802	3233
877.93	3230
878.058	3184
878.185	3093
878.313	3176
878.441	3226
878.568	3062
878.696	3112
878.824	3237
878.951	3291
879.079	3450
879.206	3595
879.333	3382
879.461	3310
879.588	3355
879.715	3462
879.842	3599
879.97	3393
880.097	3154
880.224	3093
880.351	3203
880.478	3222
880.605	3180
880.732	3207
880.859	3500
880.986	3279
881.112	3291
881.239	3192
881.366	3112
881.493	3036
881.619	3001
881.746	3066
881.872	3116
881.999	3039
882.125	3135
882.252	3214
882.378	3302
882.505	3435
882.631	3268
882.757	3157
882.883	3184
883.01	3214
883.136	3142
883.262	3085
883.388	3127
883.514	3340
883.64	3374
883.766	3302
883.892	3165
884.018	3230
884.143	3420
884.269	3526
884.395	3207
884.52	3146
884.646	3150
884.772	3119
884.897	3085
885.023	3173
885.148	3336
885.274	3409
885.399	3329
885.524	3268
885.65	3291
885.775	3317
885.9	3291
886.025	3409
886.15	3351
886.275	3302
886.4	3218
886.525	3275
886.65	3294
886.775	3245
886.9	3458
887.025	3622
887.149	3405
887.274	3256
887.399	3203
887.523	3188
887.648	3188
887.773	3173
887.897	3348
888.021	3386
888.146	3283
888.27	3439
888.395	3523
888.519	3416
888.643	3412
888.767	3447
888.891	3302
889.015	3207
889.139	3253
889.263	3272
889.387	3386
889.511	3511
889.635	3454
889.759	3294
889.883	3302
890.006	3378
890.13	3485
890.254	3294
890.377	3340
890.501	3169
890.624	3169
890.748	3275
890.871	3169
890.995	3100
891.118	3062
891.241	3195
891.364	3226
891.488	3329
891.611	3218
891.734	3214
891.857	3367
891.98	3211
892.103	3351
892.226	3287
892.349	3180
892.471	3108
892.594	3264
892.717	3291
892.839	3241
892.962	3241
893.085	3336
893.207	3291
893.33	3169
893.452	3226
893.575	3355
893.697	3268
893.819	3466
893.941	3523
894.064	3420
894.186	3275
894.308	3272
894.43	3439
894.552	3530
894.674	3454
894.796	3268
894.918	3325
895.04	3298
895.161	3447
895.283	3370
895.405	3317
895.526	3393
895.648	3439
895.769	3412
895.891	3450
896.012	3488
896.134	3473
896.255	3424
896.376	3378
896.498	3344
896.619	3439
896.74	3344
896.861	3401
896.982	3682
897.103	3812
897.224	3610
897.345	3481
897.466	3435
897.587	3496
897.708	3622
897.828	3557
897.949	3450
898.07	3260
898.19	3382
898.311	3584
898.431	3447
898.552	3500
898.672	3610
898.792	3538
898.913	3492
899.033	3389
899.153	3336
899.273	3218
899.393	3291
899.513	3298
899.633	3283
899.753	3291
899.873	3325
899.993	3382
900.113	3351
900.232	3367
900.352	3367
900.472	3298
900.591	3218
900.711	3268
900.83	3218
900.95	3420
901.069	3469
901.189	3325
901.308	3199
901.427	3176
901.546	3138
901.665	3283
901.784	3283
901.904	3207
902.023	3138
902.141	3036
902.26	3013
902.379	3169
902.498	3066
902.617	3051
902.735	3207
902.854	3222
902.973	3188
903.091	3055
903.21	3066
903.328	3165
903.446	3127
903.565	3100
903.683	3237
903.801	3116
903.919	3207
904.038	3306
904.156	3157
904.274	3291
904.392	3260
904.51	3298
904.627	3351
904.745	3454
904.863	3485
904.981	3264
905.098	3195
905.216	3260
905.334	3241
905.451	3332
905.569	3302
905.686	3409
905.803	3435
905.921	3302
906.038	3424
906.155	3321
906.272	3260
906.389	3329
906.506	3203
906.623	3222
906.74	3268
906.857	3192
906.974	3256
907.091	3401
907.208	3549
907.324	3466
907.441	3378
907.557	3211
907.674	3241
907.79	3233
907.907	3264
908.023	3325
908.139	3378
908.256	3294
908.372	3355
908.488	3359
908.604	3275
908.72	3192
908.836	3279
908.952	3317
909.068	3325
909.184	3454
909.3	3370
909.415	3477
909.531	3515
909.647	3237
909.762	3302
909.878	3237
909.993	3378
910.108	3291
910.224	3329
910.339	3428
910.454	3317
910.57	3283
910.685	3233
910.8	3591
910.915	3526
911.03	3454
911.145	3256
911.259	3230
911.374	3313
911.489	3275
911.604	3211
911.718	3142
911.833	3154
911.947	2990
912.062	2960
912.176	3157
912.291	3230
912.405	3245
912.519	3424
912.633	3504
912.748	3351
912.862	3245
912.976	3176
913.09	3070
913.204	3142
913.318	3218
913.431	3283
913.545	3374
913.659	3378
913.772	3344
913.886	3214
914	3222
914.113	3363
914.226	3420
914.34	3405
914.453	3173
914.566	3420
914.68	3336
914.793	3268
914.906	3131
915.019	3119
915.132	3051
915.245	3157
915.358	3203
915.47	3214
915.583	3287
915.696	3310
915.809	3431
915.921	3386
916.034	3241
916.146	3275
916.259	3214
916.371	3412
916.483	3367
916.595	3256
916.708	3298
916.82	3317
916.932	3374
917.044	3340
917.156	3359
917.268	3237
917.38	3275
917.491	3321
917.603	3359
917.715	3454
917.826	3462
917.938	3401
918.049	3268
918.161	3447
918.272	3553
918.384	3538
918.495	3504
918.606	3317
918.717	3264
918.828	3386
918.939	3401
919.05	3287
919.161	3355
919.272	3173
919.383	3283
919.494	3473
919.604	3671
919.715	3477
919.826	3370
919.936	3435
920.047	3584
920.157	3564
920.267	3793
920.378	3606
920.488	3610
920.598	3797
920.708	3956
920.818	3827
920.928	3827
921.038	4025
921.148	3972
921.258	3732
921.368	3625
921.477	3595
921.587	3591
921.697	3462
921.806	3667
921.916	3526
922.025	3382
922.134	3351
922.244	3325
922.353	3435
922.462	3249
922.571	3218
922.68	3127
922.789	3070
922.898	3138
923.007	3157
923.116	3218
923.224	3161
923.333	3169
923.442	3066
923.55	3131
923.659	3131
923.767	3203
923.876	3119
923.984	3260
924.092	3104
924.201	3188
924.309	3211
924.417	3275
924.525	3165
924.633	3226
924.741	4185
924.849	3032
924.956	3260
925.064	3123
925.172	3062
925.279	3123
925.387	3195
925.494	3214
925.602	3344
925.709	3355
925.816	3207
925.924	3298
926.031	3393
926.138	3344
926.245	3382
926.352	3218
926.459	3382
926.566	3473
926.673	3298
926.779	3249
926.886	3230
926.993	3138
927.099	3142
927.206	3157
927.312	3135
927.419	3230
927.525	3207
927.631	3325
927.737	3097
927.843	3127
927.95	3009
928.056	3116
928.162	3184
928.267	3268
928.373	3793
928.479	3233
928.585	3085
928.69	3195
928.796	3287
928.901	3157
929.007	3028
929.112	3233
929.218	3150
929.323	3097
929.428	3146
929.533	3313
929.638	3112
929.743	3116
929.848	3260
929.953	3207
930.058	3138
930.163	3005
930.267	3058
930.372	3199
930.477	3047
930.581	3321
930.685	3157
930.79	3066
930.894	3112
930.998	3112
931.103	3237
931.207	2948
931.311	2902
931.415	2906
931.519	2758
931.623	2800
