Data from test_V78500241_573.txt Node
Date: Fri Mar 25 16:19:10 CST 2022
User: usil
Spectrometer: V785-0024
Trigger mode: 0
Integration Time (sec): 4.000000E-1
Scans to average: 1
Nonlinearity correction enabled: false
Boxcar width: 0
Storing dark spectrum: false
XAxis mode: Wavelengths
Number of Pixels in Spectrum: 1024
>>>>>Begin Spectral Data<<<<<
801.071	2899
801.214	2956
801.356	2929
801.499	2922
801.641	2891
801.783	2944
801.926	3047
802.068	2986
802.211	3032
802.353	3024
802.496	3013
802.638	3058
802.78	3036
802.923	3089
803.065	3039
803.208	2944
803.35	2960
803.492	2986
803.635	2986
803.777	2804
803.919	2891
804.061	3218
804.204	3013
804.346	2967
804.488	2887
804.63	3017
804.773	2902
804.915	2956
805.057	3112
805.199	2944
805.341	2994
805.483	3093
805.626	3077
805.768	2986
805.91	3127
806.052	3157
806.194	3085
806.336	3298
806.478	3077
806.62	3005
806.762	3024
806.904	3116
807.046	3203
807.188	3036
807.33	2975
807.472	3070
807.614	2979
807.756	3013
807.898	2975
808.04	2902
808.182	3028
808.324	2994
808.465	2902
808.607	2918
808.749	2834
808.891	2880
809.033	3009
809.174	2994
809.316	2937
809.458	2925
809.6	2838
809.741	2781
809.883	2788
810.025	2857
810.166	2849
810.308	2876
810.45	2872
810.591	2823
810.733	2792
810.875	2834
811.016	2834
811.158	2819
811.299	2838
811.441	2967
811.582	2880
811.724	2845
811.865	2868
812.007	2937
812.148	2956
812.29	2876
812.431	2906
812.573	2948
812.714	2986
812.855	3058
812.997	3085
813.138	3161
813.279	3005
813.421	3005
813.562	2971
813.703	2868
813.845	2944
813.986	2811
814.127	2762
814.268	2876
814.41	2868
814.551	2853
814.692	2914
814.833	2849
814.974	2895
815.115	2975
815.256	2864
815.397	2853
815.539	2929
815.68	2807
815.821	2823
815.962	2963
816.103	2998
816.244	2891
816.385	2906
816.526	2982
816.666	2975
816.807	2781
816.948	2914
817.089	2937
817.23	2872
817.371	2849
817.512	2872
817.653	2887
817.793	2861
817.934	2933
818.075	2971
818.216	3062
818.356	3047
818.497	2918
818.638	2838
818.778	2857
818.919	2842
819.06	2796
819.2	2899
819.341	2800
819.481	2838
819.622	2948
819.762	3123
819.903	3089
820.043	2929
820.184	2906
820.324	2922
820.465	3070
820.605	3070
820.746	3036
820.886	2967
821.026	3131
821.167	3195
821.307	3245
821.447	3294
821.588	3249
821.728	3249
821.868	3214
822.008	3100
822.149	3199
822.289	3241
822.429	3119
822.569	3123
822.709	3207
822.849	3024
822.99	3089
823.13	3180
823.27	3203
823.41	3154
823.55	3203
823.69	3176
823.83	3214
823.97	3131
824.11	3009
824.25	3043
824.389	3112
824.529	3173
824.669	3085
824.809	3230
824.949	3268
825.089	3245
825.228	3195
825.368	3036
825.508	2975
825.648	2994
825.787	3013
825.927	3058
826.067	2998
826.206	2990
826.346	3039
826.485	3062
826.625	3154
826.765	3272
826.904	3272
827.044	2982
827.183	2941
827.323	2880
827.462	3013
827.601	2944
827.741	2941
827.88	2948
828.02	2918
828.159	2979
828.298	3043
828.437	3116
828.577	3047
828.716	3268
828.855	3104
828.994	2944
829.134	2906
829.273	2956
829.412	2876
829.551	2887
829.69	2883
829.829	3024
829.968	3157
830.107	3085
830.246	3039
830.385	2956
830.524	2956
830.663	2857
830.802	2758
830.941	2670
831.08	2663
831.219	2807
831.357	2769
831.496	2956
831.635	2727
831.774	2682
831.913	2667
832.051	2587
832.19	2602
832.329	2724
832.467	2556
832.606	2518
832.744	2629
832.883	2625
833.022	2594
833.16	2678
833.299	2739
833.437	2720
833.576	2731
833.714	2743
833.852	2773
833.991	2781
834.129	2853
834.267	2857
834.406	2800
834.544	2899
834.682	2910
834.821	2906
834.959	3074
835.097	2887
835.235	3085
835.373	3028
835.511	3036
835.65	2998
835.788	3017
835.926	2864
836.064	2842
836.202	2872
836.34	3127
836.478	3165
836.615	3043
836.753	3142
836.891	3214
837.029	3192
837.167	3123
837.305	3119
837.443	3093
837.58	3001
837.718	3142
837.856	3085
837.993	3085
838.131	3138
838.269	3116
838.406	3123
838.544	3097
838.681	2937
838.819	2937
838.956	2781
839.094	2899
839.231	2918
839.369	3036
839.506	3409
839.643	3241
839.781	3017
839.918	2990
840.055	3066
840.193	3085
840.33	3070
840.467	3108
840.604	3207
840.742	3443
840.879	3112
841.016	3089
841.153	3119
841.29	3389
841.427	3306
841.564	3298
841.701	3325
841.838	3279
841.975	3199
842.112	3233
842.249	3089
842.385	3055
842.522	3249
842.659	3100
842.796	3081
842.933	3142
843.069	3043
843.206	3036
843.343	3184
843.479	3135
843.616	3157
843.752	2899
843.889	2895
844.025	3104
844.162	2876
844.298	3089
844.435	2956
844.571	2933
844.708	3093
844.844	3211
844.98	3253
845.117	3230
845.253	3081
845.389	3013
845.525	3097
845.661	3135
845.798	3017
845.934	3131
846.07	3058
846.206	3233
846.342	3340
846.478	3272
846.614	3119
846.75	3062
846.886	3032
847.022	3256
847.158	3135
847.294	3218
847.429	3237
847.565	3245
847.701	3500
847.837	3036
847.972	3009
848.108	3180
848.244	3123
848.379	3028
848.515	2960
848.65	2971
848.786	2994
848.921	3066
849.057	3116
849.192	3142
849.328	3032
849.463	3142
849.598	3116
849.734	3051
849.869	3024
850.004	2937
850.14	2952
850.275	2902
850.41	2845
850.545	2925
850.68	2960
850.815	2960
850.95	3001
851.085	3214
851.22	3093
851.355	3047
851.49	2975
851.625	3058
851.76	2986
851.895	2963
852.03	2944
852.165	2979
852.299	3104
852.434	3203
852.569	3138
852.703	3226
852.838	3264
852.973	3329
853.107	3363
853.242	3161
853.376	3112
853.511	2998
853.645	3028
853.78	3237
853.914	3138
854.048	3138
854.183	3100
854.317	3154
854.451	3325
854.585	3108
854.72	3089
854.854	3222
854.988	3062
855.122	3089
855.256	2960
855.39	3119
855.524	3253
855.658	3180
855.792	3165
855.926	3180
856.06	3245
856.194	3272
856.327	3195
856.461	3108
856.595	3100
856.729	3127
856.862	3207
856.996	3173
857.13	3207
857.263	3214
857.397	3283
857.53	3108
857.664	3211
857.797	3279
857.931	3233
858.064	3142
858.197	3241
858.331	3142
858.464	3081
858.597	3032
858.731	3127
858.864	3157
858.997	3097
859.13	3123
859.263	3199
859.396	3230
859.529	3123
859.662	3058
859.795	3070
859.928	3173
860.061	3294
860.194	3306
860.327	3150
860.46	3077
860.592	3218
860.725	3237
860.858	3283
860.99	3100
861.123	3043
861.256	3062
861.388	3150
861.521	3724
861.653	3051
861.786	2994
861.918	2982
862.05	3066
862.183	3116
862.315	3188
862.447	3233
862.58	3108
862.712	2948
862.844	2864
862.976	3020
863.108	3005
863.24	3397
863.372	2891
863.504	2975
863.636	2963
863.768	3043
863.9	3039
864.032	2933
864.164	2956
864.296	2990
864.428	3108
864.559	3066
864.691	3070
864.823	3047
864.954	3093
865.086	3058
865.217	2979
865.349	2956
865.48	2998
865.612	2986
865.743	3157
865.875	3001
866.006	2948
866.137	3001
866.269	2986
866.4	2933
866.531	2933
866.662	2876
866.793	2910
866.924	2933
867.055	3017
867.186	2910
867.317	2864
867.448	2838
867.579	2876
867.71	2895
867.841	2864
867.972	2941
868.103	2914
868.233	2876
868.364	2868
868.495	2918
868.625	3104
868.756	3188
868.886	3009
869.017	3032
869.147	3161
869.278	3161
869.408	3062
869.539	3043
869.669	3074
869.799	3077
869.929	3138
870.06	3108
870.19	3355
870.32	3272
870.45	3279
870.58	3374
870.71	3439
870.84	3424
870.97	3306
871.1	3256
871.23	3477
871.36	3496
871.489	3370
871.619	3409
871.749	3435
871.879	3428
872.008	3492
872.138	3382
872.267	3230
872.397	3123
872.526	3104
872.656	3039
872.785	3123
872.915	3260
873.044	3329
873.173	3268
873.303	3253
873.432	3306
873.561	3222
873.69	3176
873.819	3176
873.948	3230
874.077	3108
874.206	3047
874.335	3100
874.464	3199
874.593	3336
874.722	3237
874.851	3389
874.979	3351
875.108	3313
875.237	3233
875.365	3176
875.494	3165
875.623	3245
875.751	3077
875.88	3100
876.008	3180
876.136	3211
876.265	3348
876.393	3542
876.521	3435
876.65	3397
876.778	3355
876.906	3233
877.034	3218
877.162	3203
877.29	3218
877.418	3237
877.546	3245
877.674	3241
877.802	3260
877.93	3226
878.058	3138
878.185	3119
878.313	3207
878.441	3211
878.568	3112
878.696	3161
878.824	3241
878.951	3283
879.079	3443
879.206	3633
879.333	3428
879.461	3344
879.588	3363
879.715	3473
879.842	3610
879.97	3405
880.097	3176
880.224	3135
880.351	3195
880.478	3256
880.605	3150
880.732	3203
880.859	3511
880.986	3279
881.112	3332
881.239	3192
881.366	3097
881.493	3074
881.619	2979
881.746	3032
881.872	3104
881.999	3131
882.125	3138
882.252	3241
882.378	3272
882.505	3420
882.631	3275
882.757	3138
882.883	3253
883.01	3199
883.136	3192
883.262	3077
883.388	3047
883.514	3332
883.64	3386
883.766	3329
883.892	3192
884.018	3203
884.143	3435
884.269	3576
884.395	3192
884.52	3211
884.646	3131
884.772	3161
884.897	3070
885.023	3173
885.148	3332
885.274	3389
885.399	3351
885.524	3294
885.65	3211
885.775	3306
885.9	3260
886.025	3420
886.15	3351
886.275	3268
886.4	3237
886.525	3294
886.65	3272
886.775	3272
886.9	3526
887.025	3580
887.149	3424
887.274	3291
887.399	3192
887.523	3211
887.648	3161
887.773	3211
887.897	3386
888.021	3405
888.146	3291
888.27	3447
888.395	3511
888.519	3443
888.643	3405
888.767	3458
888.891	3351
889.015	3268
889.139	3268
889.263	3306
889.387	3382
889.511	3538
889.635	3382
889.759	3249
889.883	3306
890.006	3393
890.13	3492
890.254	3253
890.377	3332
890.501	3188
890.624	3180
890.748	3291
890.871	3173
890.995	3123
891.118	3051
891.241	3165
891.364	3214
891.488	3291
891.611	3211
891.734	3237
891.857	3260
891.98	3218
892.103	3310
892.226	3256
892.349	3180
892.471	3150
892.594	3237
892.717	3291
892.839	3260
892.962	3264
893.085	3370
893.207	3275
893.33	3116
893.452	3245
893.575	3325
893.697	3237
893.819	3462
893.941	3504
894.064	3454
894.186	3287
894.308	3275
894.43	3420
894.552	3507
894.674	3462
894.796	3310
894.918	3329
895.04	3283
895.161	3424
895.283	3386
895.405	3336
895.526	3363
895.648	3397
895.769	3401
895.891	3443
896.012	3466
896.134	3420
896.255	3405
896.376	3374
896.498	3367
896.619	3435
896.74	3340
896.861	3382
896.982	3682
897.103	3873
897.224	3595
897.345	3500
897.466	3412
897.587	3473
897.708	3591
897.828	3549
897.949	3454
898.07	3279
898.19	3428
898.311	3603
898.431	3431
898.552	3469
898.672	3603
898.792	3564
898.913	3500
899.033	3454
899.153	3283
899.273	3214
899.393	3245
899.513	3279
899.633	3355
899.753	3317
899.873	3313
899.993	3389
900.113	3317
900.232	3412
900.352	3344
900.472	3275
900.591	3237
900.711	3268
900.83	3207
900.95	3420
901.069	3500
901.189	3348
901.308	3188
901.427	3138
901.546	3169
901.665	3253
901.784	3329
901.904	3203
902.023	3116
902.141	3028
902.26	2994
902.379	3119
902.498	3093
902.617	3085
902.735	3218
902.854	3203
902.973	3211
903.091	3085
903.21	3093
903.328	3127
903.446	3116
903.565	3093
903.683	3173
903.801	3154
903.919	3203
904.038	3256
904.156	3169
904.274	3279
904.392	3230
904.51	3287
904.627	3321
904.745	3466
904.863	3485
904.981	3253
905.098	3154
905.216	3256
905.334	3298
905.451	3291
905.569	3272
905.686	3485
905.803	3416
905.921	3249
906.038	3420
906.155	3367
906.272	3264
906.389	3294
906.506	3241
906.623	3264
906.74	3317
906.857	3211
906.974	3272
907.091	3443
907.208	3557
907.324	3458
907.441	3363
907.557	3245
907.674	3245
907.79	3203
907.907	3264
908.023	3393
908.139	3363
908.256	3363
908.372	3386
908.488	3355
908.604	3192
908.72	3199
908.836	3283
908.952	3298
909.068	3332
909.184	3477
909.3	3409
909.415	3519
909.531	3485
909.647	3214
909.762	3310
909.878	3260
909.993	3348
910.108	3355
910.224	3336
910.339	3412
910.454	3367
910.57	3264
910.685	3249
910.8	3572
910.915	3545
911.03	3439
911.145	3249
911.259	3298
911.374	3306
911.489	3222
911.604	3237
911.718	3112
911.833	3157
911.947	3024
912.062	2963
912.176	3180
912.291	3222
912.405	3207
912.519	3401
912.633	3431
912.748	3310
912.862	3272
912.976	3138
913.09	3032
913.204	3165
913.318	3195
913.431	3351
913.545	3298
913.659	3420
913.772	3344
913.886	3226
914	3192
914.113	3348
914.226	3397
914.34	3386
914.453	3161
914.566	3416
914.68	3283
914.793	3351
914.906	3127
915.019	3112
915.132	3074
915.245	3176
915.358	3176
915.47	3237
915.583	3241
915.696	3325
915.809	3378
915.921	3405
916.034	3306
916.146	3268
916.259	3199
916.371	3386
916.483	3374
916.595	3237
916.708	3325
916.82	3363
916.932	3329
917.044	3344
917.156	3329
917.268	3245
917.38	3302
917.491	3245
917.603	3401
917.715	3466
917.826	3435
917.938	3359
918.049	3268
918.161	3435
918.272	3606
918.384	3568
918.495	3447
918.606	3302
918.717	3264
918.828	3344
918.939	3454
919.05	3302
919.161	3317
919.272	3222
919.383	3298
919.494	3507
919.604	3686
919.715	3477
919.826	3409
919.936	3447
920.047	3549
920.157	3564
920.267	3785
920.378	3618
920.488	3595
920.598	3785
920.708	3937
920.818	3842
920.928	3797
921.038	4048
921.148	3968
921.258	3648
921.368	3610
921.477	3557
921.587	3584
921.697	3405
921.806	3614
921.916	3542
922.025	3363
922.134	3348
922.244	3336
922.353	3412
922.462	3264
922.571	3211
922.68	3093
922.789	3066
922.898	3150
923.007	3100
923.116	3214
923.224	3138
923.333	3154
923.442	3108
923.55	3085
923.659	3142
923.767	3222
923.876	3116
923.984	3222
924.092	3100
924.201	3180
924.309	3192
924.417	3249
924.525	3207
924.633	3233
924.741	4025
924.849	3024
924.956	3275
925.064	3097
925.172	3047
925.279	3085
925.387	3222
925.494	3249
925.602	3344
925.709	3317
925.816	3176
925.924	3313
926.031	3329
926.138	3302
926.245	3355
926.352	3245
926.459	3401
926.566	3469
926.673	3298
926.779	3256
926.886	3230
926.993	3161
927.099	3100
927.206	3112
927.312	3131
927.419	3233
927.525	3203
927.631	3256
927.737	3142
927.843	3131
927.95	3020
928.056	3112
928.162	3157
928.267	3214
928.373	3747
928.479	3268
928.585	3055
928.69	3180
928.796	3260
928.901	3165
929.007	3058
929.112	3207
929.218	3199
929.323	3135
929.428	3157
929.533	3310
929.638	3112
929.743	3176
929.848	3279
929.953	3241
930.058	3165
930.163	3017
930.267	3104
930.372	3199
930.477	3055
930.581	3317
930.685	3165
930.79	3077
930.894	3123
930.998	3070
931.103	3294
931.207	2979
931.311	2887
931.415	2941
931.519	2773
931.623	2807
