Data from test_V78500241_1810.txt Node
Date: Fri Mar 25 16:27:44 CST 2022
User: usil
Spectrometer: V785-0024
Trigger mode: 0
Integration Time (sec): 4.000000E-1
Scans to average: 1
Nonlinearity correction enabled: false
Boxcar width: 0
Storing dark spectrum: false
XAxis mode: Wavelengths
Number of Pixels in Spectrum: 1024
>>>>>Begin Spectral Data<<<<<
801.071	2906
801.214	2929
801.356	2845
801.499	2891
801.641	2807
801.783	2944
801.926	3058
802.068	2975
802.211	3009
802.353	3047
802.496	2922
802.638	3032
802.78	3036
802.923	3043
803.065	2967
803.208	2868
803.35	2910
803.492	2944
803.635	2899
803.777	2746
803.919	2800
804.061	3199
804.204	2922
804.346	2914
804.488	2838
804.63	2994
804.773	2872
804.915	2891
805.057	3093
805.199	2929
805.341	2944
805.483	3020
805.626	2971
805.768	2975
805.91	3039
806.052	3131
806.194	3036
806.336	3218
806.478	2998
806.62	2910
806.762	2979
806.904	3020
807.046	3119
807.188	2952
807.33	2902
807.472	2956
807.614	2899
807.756	2971
807.898	2910
808.04	2891
808.182	2944
808.324	2941
808.465	2857
808.607	2838
808.749	2811
808.891	2804
809.033	2960
809.174	2967
809.316	2849
809.458	2868
809.6	2766
809.741	2766
809.883	2804
810.025	2811
810.166	2834
810.308	2853
810.45	2815
810.591	2739
810.733	2785
810.875	2845
811.016	2750
811.158	2735
811.299	2815
811.441	2925
811.582	2857
811.724	2815
811.865	2811
812.007	2895
812.148	2849
812.29	2834
812.431	2872
812.573	2914
812.714	2933
812.855	3001
812.997	3077
813.138	3142
813.279	2994
813.421	2952
813.562	2960
813.703	2861
813.845	2891
813.986	2807
814.127	2712
814.268	2785
814.41	2826
814.551	2766
814.692	2883
814.833	2785
814.974	2857
815.115	2944
815.256	2800
815.397	2788
815.539	2876
815.68	2788
815.821	2788
815.962	2906
816.103	2880
816.244	2868
816.385	2853
816.526	2963
816.666	2902
816.807	2731
816.948	2864
817.089	2883
817.23	2842
817.371	2800
817.512	2746
817.653	2838
817.793	2792
817.934	2864
818.075	2956
818.216	2960
818.356	3024
818.497	2853
818.638	2766
818.778	2788
818.919	2788
819.06	2739
819.2	2883
819.341	2796
819.481	2766
819.622	2952
819.762	3097
819.903	3020
820.043	2891
820.184	2956
820.324	2880
820.465	2982
820.605	3024
820.746	3032
820.886	2914
821.026	3112
821.167	3157
821.307	3214
821.447	3256
821.588	3275
821.728	3218
821.868	3207
822.008	3036
822.149	3176
822.289	3230
822.429	3058
822.569	3093
822.709	3138
822.849	3005
822.99	3062
823.13	3142
823.27	3142
823.41	3089
823.55	3104
823.69	3131
823.83	3146
823.97	3062
824.11	3009
824.25	2967
824.389	3055
824.529	3089
824.669	3070
824.809	3150
824.949	3249
825.089	3199
825.228	3157
825.368	2986
825.508	2937
825.648	2963
825.787	3013
825.927	2967
826.067	2971
826.206	2937
826.346	2982
826.485	3051
826.625	3100
826.765	3237
826.904	3192
827.044	3001
827.183	2895
827.323	2868
827.462	2971
827.601	2868
827.741	2925
827.88	2967
828.02	2853
828.159	2933
828.298	3020
828.437	3055
828.577	3020
828.716	3195
828.855	3058
828.994	2902
829.134	2861
829.273	2883
829.412	2872
829.551	2849
829.69	2861
829.829	2967
829.968	3135
830.107	3005
830.246	3024
830.385	2910
830.524	2876
830.663	2830
830.802	2731
830.941	2640
831.08	2644
831.219	2804
831.357	2796
831.496	2944
831.635	2716
831.774	2640
831.913	2651
832.051	2530
832.19	2625
832.329	2678
832.467	2564
832.606	2495
832.744	2602
832.883	2598
833.022	2610
833.16	2686
833.299	2705
833.437	2693
833.576	2724
833.714	2754
833.852	2754
833.991	2815
834.129	2838
834.267	2849
834.406	2830
834.544	2914
834.682	2933
834.821	2899
834.959	3108
835.097	2925
835.235	3074
835.373	3020
835.511	3077
835.65	3005
835.788	3013
835.926	2849
836.064	2849
836.202	2845
836.34	3119
836.478	3214
836.615	3116
836.753	3180
836.891	3211
837.029	3218
837.167	3165
837.305	3100
837.443	3074
837.58	3013
837.718	3192
837.856	3116
837.993	3047
838.131	3192
838.269	3142
838.406	3138
838.544	3104
838.681	2956
838.819	2948
838.956	2868
839.094	2876
839.231	2971
839.369	3097
839.506	3450
839.643	3207
839.781	3043
839.918	2971
840.055	3085
840.193	3142
840.33	3131
840.467	3131
840.604	3192
840.742	3443
840.879	3077
841.016	3085
841.153	3142
841.29	3393
841.427	3332
841.564	3283
841.701	3340
841.838	3230
841.975	3188
842.112	3214
842.249	3077
842.385	3074
842.522	3321
842.659	3085
842.796	3097
842.933	3066
843.069	3047
843.206	3085
843.343	3237
843.479	3161
843.616	3154
843.752	2944
843.889	2914
844.025	3127
844.162	2895
844.298	3119
844.435	2986
844.571	2952
844.708	3135
844.844	3203
844.98	3268
845.117	3241
845.253	3116
845.389	3043
845.525	3154
845.661	3108
845.798	3039
845.934	3176
846.07	3085
846.206	3222
846.342	3325
846.478	3203
846.614	3142
846.75	3066
846.886	3055
847.022	3272
847.158	3173
847.294	3211
847.429	3313
847.565	3218
847.701	3523
847.837	3077
847.972	3013
848.108	3154
848.244	3165
848.379	3013
848.515	2960
848.65	2967
848.786	3028
848.921	3028
849.057	3138
849.192	3214
849.328	3089
849.463	3154
849.598	3062
849.734	3055
849.869	3047
850.004	2956
850.14	2990
850.275	2967
850.41	2880
850.545	2929
850.68	2914
850.815	2952
850.95	2990
851.085	3218
851.22	3123
851.355	3100
851.49	3005
851.625	2998
851.76	3085
851.895	2929
852.03	2937
852.165	3028
852.299	3138
852.434	3180
852.569	3154
852.703	3184
852.838	3283
852.973	3370
853.107	3321
853.242	3169
853.376	3116
853.511	2994
853.645	3070
853.78	3283
853.914	3165
854.048	3150
854.183	3119
854.317	3176
854.451	3302
854.585	3161
854.72	3100
854.854	3241
854.988	3108
855.122	3138
855.256	3013
855.39	3161
855.524	3287
855.658	3165
855.792	3176
855.926	3214
856.06	3268
856.194	3272
856.327	3192
856.461	3119
856.595	3112
856.729	3104
856.862	3268
856.996	3169
857.13	3275
857.263	3241
857.397	3313
857.53	3150
857.664	3207
857.797	3192
857.931	3291
858.064	3184
858.197	3233
858.331	3135
858.464	3089
858.597	3055
858.731	3173
858.864	3165
858.997	3108
859.13	3169
859.263	3192
859.396	3245
859.529	3127
859.662	3116
859.795	3070
859.928	3135
860.061	3275
860.194	3287
860.327	3161
860.46	3123
860.592	3283
860.725	3268
860.858	3302
860.99	3127
861.123	3074
861.256	3077
861.388	3161
861.521	3884
861.653	3028
861.786	3024
861.918	3039
862.05	3119
862.183	3097
862.315	3176
862.447	3214
862.58	3116
862.712	2975
862.844	2887
862.976	3074
863.108	2979
863.24	3458
863.372	2933
863.504	3005
863.636	3013
863.768	3081
863.9	3028
864.032	2929
864.164	2960
864.296	3020
864.428	3089
864.559	3138
864.691	3097
864.823	3074
864.954	3047
865.086	3062
865.217	3005
865.349	2986
865.48	3009
865.612	3062
865.743	3188
865.875	3024
866.006	2960
866.137	2990
866.269	2998
866.4	2986
866.531	2986
866.662	2929
866.793	2944
866.924	2914
867.055	2971
867.186	2914
867.317	2872
867.448	2864
867.579	2880
867.71	2842
867.841	2826
867.972	2941
868.103	2925
868.233	2925
868.364	2891
868.495	2925
868.625	3142
868.756	3161
868.886	2998
869.017	3055
869.147	3192
869.278	3161
869.408	3058
869.539	3032
869.669	3146
869.799	3074
869.929	3165
870.06	3161
870.19	3359
870.32	3306
870.45	3302
870.58	3412
870.71	3428
870.84	3477
870.97	3332
871.1	3268
871.23	3473
871.36	3466
871.489	3401
871.619	3397
871.749	3439
871.879	3492
872.008	3443
872.138	3420
872.267	3287
872.397	3195
872.526	3135
872.656	2990
872.785	3127
872.915	3298
873.044	3348
873.173	3253
873.303	3237
873.432	3241
873.561	3310
873.69	3180
873.819	3195
873.948	3207
874.077	3135
874.206	3074
874.335	3074
874.464	3203
874.593	3405
874.722	3294
874.851	3409
874.979	3382
875.108	3374
875.237	3241
875.365	3165
875.494	3203
875.623	3279
875.751	3116
875.88	3131
876.008	3161
876.136	3279
876.265	3382
876.393	3515
876.521	3439
876.65	3409
876.778	3336
876.906	3249
877.034	3199
877.162	3256
877.29	3203
877.418	3249
877.546	3272
877.674	3253
877.802	3237
877.93	3237
878.058	3173
878.185	3127
878.313	3203
878.441	3226
878.568	3119
878.696	3169
878.824	3302
878.951	3302
879.079	3454
879.206	3610
879.333	3492
879.461	3367
879.588	3393
879.715	3515
879.842	3629
879.97	3416
880.097	3157
880.224	3131
880.351	3207
880.478	3260
880.605	3222
880.732	3180
880.859	3564
880.986	3313
881.112	3344
881.239	3207
881.366	3116
881.493	3077
881.619	3024
881.746	3062
881.872	3119
881.999	3116
882.125	3146
882.252	3245
882.378	3298
882.505	3382
882.631	3298
882.757	3192
882.883	3253
883.01	3199
883.136	3138
883.262	3116
883.388	3112
883.514	3317
883.64	3401
883.766	3310
883.892	3195
884.018	3272
884.143	3462
884.269	3549
884.395	3249
884.52	3211
884.646	3188
884.772	3077
884.897	3066
885.023	3207
885.148	3332
885.274	3378
885.399	3351
885.524	3310
885.65	3279
885.775	3329
885.9	3249
886.025	3481
886.15	3355
886.275	3287
886.4	3241
886.525	3310
886.65	3260
886.775	3279
886.9	3519
887.025	3679
887.149	3473
887.274	3268
887.399	3214
887.523	3211
887.648	3207
887.773	3207
887.897	3370
888.021	3439
888.146	3291
888.27	3443
888.395	3538
888.519	3454
888.643	3454
888.767	3458
888.891	3332
889.015	3253
889.139	3291
889.263	3268
889.387	3428
889.511	3534
889.635	3492
889.759	3321
889.883	3298
890.006	3378
890.13	3511
890.254	3279
890.377	3340
890.501	3214
890.624	3218
890.748	3321
890.871	3203
890.995	3150
891.118	3081
891.241	3195
891.364	3226
891.488	3313
891.611	3207
891.734	3253
891.857	3279
891.98	3253
892.103	3382
892.226	3253
892.349	3233
892.471	3123
892.594	3241
892.717	3298
892.839	3321
892.962	3336
893.085	3351
893.207	3291
893.33	3184
893.452	3226
893.575	3397
893.697	3230
893.819	3507
893.941	3511
894.064	3500
894.186	3291
894.308	3279
894.43	3458
894.552	3530
894.674	3526
894.796	3287
894.918	3321
895.04	3302
895.161	3466
895.283	3431
895.405	3287
895.526	3393
895.648	3428
895.769	3447
895.891	3462
896.012	3496
896.134	3519
896.255	3477
896.376	3435
896.498	3367
896.619	3405
896.74	3374
896.861	3397
896.982	3698
897.103	3831
897.224	3587
897.345	3496
897.466	3481
897.587	3526
897.708	3648
897.828	3561
897.949	3443
898.07	3325
898.19	3409
898.311	3584
898.431	3492
898.552	3542
898.672	3644
898.792	3580
898.913	3530
899.033	3397
899.153	3298
899.273	3203
899.393	3294
899.513	3291
899.633	3344
899.753	3340
899.873	3310
899.993	3370
900.113	3355
900.232	3397
900.352	3355
900.472	3317
900.591	3199
900.711	3302
900.83	3268
900.95	3412
901.069	3504
901.189	3336
901.308	3218
901.427	3097
901.546	3195
901.665	3272
901.784	3329
901.904	3195
902.023	3157
902.141	3036
902.26	3009
902.379	3138
902.498	3074
902.617	3036
902.735	3222
902.854	3237
902.973	3192
903.091	3028
903.21	3089
903.328	3116
903.446	3116
903.565	3146
903.683	3207
903.801	3131
903.919	3253
904.038	3321
904.156	3146
904.274	3291
904.392	3211
904.51	3291
904.627	3348
904.745	3428
904.863	3534
904.981	3260
905.098	3142
905.216	3272
905.334	3306
905.451	3321
905.569	3310
905.686	3409
905.803	3469
905.921	3306
906.038	3458
906.155	3401
906.272	3275
906.389	3348
906.506	3192
906.623	3260
906.74	3287
906.857	3165
906.974	3245
907.091	3462
907.208	3572
907.324	3485
907.441	3363
907.557	3230
907.674	3283
907.79	3207
907.907	3275
908.023	3374
908.139	3389
908.256	3344
908.372	3363
908.488	3351
908.604	3230
908.72	3268
908.836	3302
908.952	3302
909.068	3351
909.184	3473
909.3	3409
909.415	3492
909.531	3454
909.647	3272
909.762	3310
909.878	3253
909.993	3382
910.108	3344
910.224	3340
910.339	3367
910.454	3340
910.57	3298
910.685	3233
910.8	3595
910.915	3549
911.03	3458
911.145	3283
911.259	3283
911.374	3332
911.489	3256
911.604	3218
911.718	3131
911.833	3157
911.947	3032
912.062	3028
912.176	3150
912.291	3195
912.405	3192
912.519	3492
912.633	3458
912.748	3340
912.862	3256
912.976	3157
913.09	3058
913.204	3142
913.318	3222
913.431	3386
913.545	3359
913.659	3405
913.772	3363
913.886	3268
914	3176
914.113	3370
914.226	3393
914.34	3348
914.453	3222
914.566	3393
914.68	3313
914.793	3325
914.906	3150
915.019	3058
915.132	3070
915.245	3195
915.358	3233
915.47	3237
915.583	3249
915.696	3275
915.809	3412
915.921	3405
916.034	3249
916.146	3279
916.259	3230
916.371	3359
916.483	3363
916.595	3260
916.708	3302
916.82	3317
916.932	3336
917.044	3321
917.156	3393
917.268	3245
917.38	3287
917.491	3302
917.603	3374
917.715	3431
917.826	3477
917.938	3401
918.049	3264
918.161	3431
918.272	3580
918.384	3587
918.495	3496
918.606	3370
918.717	3256
918.828	3367
918.939	3462
919.05	3294
919.161	3389
919.272	3211
919.383	3283
919.494	3519
919.604	3694
919.715	3462
919.826	3462
919.936	3420
920.047	3591
920.157	3538
920.267	3785
920.378	3622
920.488	3568
920.598	3755
920.708	3994
920.818	3823
920.928	3835
921.038	3994
921.148	3949
921.258	3690
921.368	3648
921.477	3587
921.587	3534
921.697	3450
921.806	3606
921.916	3526
922.025	3359
922.134	3348
922.244	3336
922.353	3405
922.462	3298
922.571	3207
922.68	3119
922.789	3081
922.898	3127
923.007	3089
923.116	3195
923.224	3211
923.333	3203
923.442	3100
923.55	3100
923.659	3150
923.767	3169
923.876	3123
923.984	3233
924.092	3116
924.201	3150
924.309	3154
924.417	3211
924.525	3176
924.633	3226
924.741	4032
924.849	3058
924.956	3268
925.064	3104
925.172	3047
925.279	3123
925.387	3241
925.494	3195
925.602	3363
925.709	3321
925.816	3241
925.924	3291
926.031	3382
926.138	3291
926.245	3359
926.352	3253
926.459	3397
926.566	3504
926.673	3329
926.779	3226
926.886	3264
926.993	3199
927.099	3127
927.206	3077
927.312	3116
927.419	3222
927.525	3207
927.631	3264
927.737	3146
927.843	3100
927.95	3024
928.056	3135
928.162	3195
928.267	3226
928.373	3740
928.479	3310
928.585	3077
928.69	3188
928.796	3283
928.901	3142
929.007	3070
929.112	3237
929.218	3169
929.323	3150
929.428	3116
929.533	3291
929.638	3127
929.743	3176
929.848	3237
929.953	3222
930.058	3150
930.163	2998
930.267	3055
930.372	3207
930.477	3047
930.581	3279
930.685	3188
930.79	3100
930.894	3142
930.998	3097
931.103	3268
931.207	2975
931.311	2922
931.415	2902
931.519	2769
931.623	2811
