Data from test_V78500241_1397.txt Node
Date: Fri Mar 25 16:24:52 CST 2022
User: usil
Spectrometer: V785-0024
Trigger mode: 0
Integration Time (sec): 4.000000E-1
Scans to average: 1
Nonlinearity correction enabled: false
Boxcar width: 0
Storing dark spectrum: false
XAxis mode: Wavelengths
Number of Pixels in Spectrum: 1024
>>>>>Begin Spectral Data<<<<<
801.071	2914
801.214	2925
801.356	2880
801.499	2902
801.641	2864
801.783	2941
801.926	3032
802.068	2925
802.211	2986
802.353	3039
802.496	2960
802.638	3032
802.78	3051
802.923	3100
803.065	3013
803.208	2918
803.35	2933
803.492	2948
803.635	2906
803.777	2754
803.919	2845
804.061	3214
804.204	2922
804.346	2880
804.488	2804
804.63	2975
804.773	2902
804.915	2902
805.057	3024
805.199	2952
805.341	2956
805.483	3043
805.626	2990
805.768	2956
805.91	3108
806.052	3119
806.194	2986
806.336	3222
806.478	3013
806.62	2944
806.762	2979
806.904	3017
807.046	3154
807.188	2956
807.33	2891
807.472	2986
807.614	2899
807.756	2963
807.898	2910
808.04	2895
808.182	2967
808.324	2937
808.465	2910
808.607	2864
808.749	2796
808.891	2857
809.033	2982
809.174	2982
809.316	2914
809.458	2899
809.6	2766
809.741	2800
809.883	2792
810.025	2807
810.166	2876
810.308	2887
810.45	2830
810.591	2762
810.733	2766
810.875	2842
811.016	2739
811.158	2800
811.299	2819
811.441	2902
811.582	2906
811.724	2815
811.865	2819
812.007	2891
812.148	2872
812.29	2834
812.431	2906
812.573	2948
812.714	2933
812.855	3047
812.997	3039
813.138	3119
813.279	3009
813.421	2963
813.562	2948
813.703	2880
813.845	2891
813.986	2804
814.127	2754
814.268	2823
814.41	2849
814.551	2781
814.692	2826
814.833	2792
814.974	2883
815.115	2933
815.256	2811
815.397	2819
815.539	2849
815.68	2758
815.821	2796
815.962	2910
816.103	2922
816.244	2857
816.385	2861
816.526	2960
816.666	2967
816.807	2724
816.948	2899
817.089	2891
817.23	2838
817.371	2743
817.512	2766
817.653	2849
817.793	2811
817.934	2876
818.075	2937
818.216	3009
818.356	3036
818.497	2842
818.638	2796
818.778	2811
818.919	2800
819.06	2758
819.2	2902
819.341	2800
819.481	2766
819.622	2944
819.762	3051
819.903	3028
820.043	2910
820.184	2891
820.324	2899
820.465	3001
820.605	2971
820.746	3032
820.886	2925
821.026	3085
821.167	3142
821.307	3287
821.447	3298
821.588	3211
821.728	3195
821.868	3165
822.008	3085
822.149	3165
822.289	3279
822.429	3066
822.569	3070
822.709	3161
822.849	2998
822.99	3051
823.13	3192
823.27	3195
823.41	3085
823.55	3157
823.69	3142
823.83	3169
823.97	3039
824.11	2998
824.25	2990
824.389	3058
824.529	3123
824.669	3051
824.809	3214
824.949	3218
825.089	3222
825.228	3165
825.368	3005
825.508	2941
825.648	2918
825.787	3001
825.927	2937
826.067	2963
826.206	2963
826.346	3013
826.485	3051
826.625	3081
826.765	3253
826.904	3176
827.044	2986
827.183	2918
827.323	2830
827.462	2960
827.601	2899
827.741	2933
827.88	2952
828.02	2830
828.159	2982
828.298	3081
828.437	3043
828.577	3055
828.716	3214
828.855	3047
828.994	2910
829.134	2895
829.273	2925
829.412	2876
829.551	2861
829.69	2891
829.829	2979
829.968	3097
830.107	3001
830.246	3028
830.385	2914
830.524	2880
830.663	2842
830.802	2720
830.941	2648
831.08	2613
831.219	2743
831.357	2766
831.496	2948
831.635	2697
831.774	2617
831.913	2670
832.051	2511
832.19	2587
832.329	2693
832.467	2541
832.606	2450
832.744	2587
832.883	2594
833.022	2533
833.16	2636
833.299	2712
833.437	2659
833.576	2667
833.714	2678
833.852	2720
833.991	2762
834.129	2842
834.267	2826
834.406	2815
834.544	2880
834.682	2853
834.821	2853
834.959	3058
835.097	2872
835.235	3055
835.373	2986
835.511	3001
835.65	2956
835.788	2960
835.926	2868
836.064	2785
836.202	2849
836.34	3039
836.478	3161
836.615	3024
836.753	3146
836.891	3184
837.029	3157
837.167	3112
837.305	3028
837.443	3036
837.58	2952
837.718	3119
837.856	3051
837.993	3028
838.131	3108
838.269	3108
838.406	3116
838.544	3100
838.681	2910
838.819	2910
838.956	2811
839.094	2788
839.231	2918
839.369	3017
839.506	3401
839.643	3211
839.781	2948
839.918	2956
840.055	3089
840.193	3017
840.33	3047
840.467	3097
840.604	3127
840.742	3405
840.879	3066
841.016	3055
841.153	3108
841.29	3359
841.427	3283
841.564	3226
841.701	3275
841.838	3230
841.975	3211
842.112	3256
842.249	3104
842.385	3055
842.522	3237
842.659	3070
842.796	3039
842.933	3100
843.069	3043
843.206	3077
843.343	3233
843.479	3081
843.616	3135
843.752	2918
843.889	2853
844.025	3104
844.162	2910
844.298	3070
844.435	2937
844.571	2906
844.708	3032
844.844	3135
844.98	3226
845.117	3207
845.253	3039
845.389	2963
845.525	3097
845.661	3062
845.798	3013
845.934	3108
846.07	3047
846.206	3222
846.342	3298
846.478	3237
846.614	3062
846.75	3028
846.886	2994
847.022	3214
847.158	3112
847.294	3218
847.429	3226
847.565	3188
847.701	3504
847.837	3013
847.972	3009
848.108	3135
848.244	3135
848.379	3009
848.515	2922
848.65	2937
848.786	2941
848.921	3005
849.057	3085
849.192	3154
849.328	3043
849.463	3062
849.598	3077
849.734	3058
849.869	2994
850.004	2918
850.14	2975
850.275	2933
850.41	2845
850.545	2895
850.68	2971
850.815	2948
850.95	2971
851.085	3203
851.22	3100
851.355	2994
851.49	2971
851.625	3036
851.76	3005
851.895	2933
852.03	2880
852.165	3013
852.299	3116
852.434	3176
852.569	3104
852.703	3123
852.838	3264
852.973	3329
853.107	3325
853.242	3169
853.376	3070
853.511	2956
853.645	3036
853.78	3214
853.914	3112
854.048	3085
854.183	3089
854.317	3150
854.451	3260
854.585	3112
854.72	3104
854.854	3241
854.988	3017
855.122	3081
855.256	2982
855.39	3089
855.524	3207
855.658	3180
855.792	3161
855.926	3195
856.06	3199
856.194	3245
856.327	3154
856.461	3055
856.595	3070
856.729	3070
856.862	3199
856.996	3138
857.13	3180
857.263	3203
857.397	3230
857.53	3108
857.664	3176
857.797	3233
857.931	3272
858.064	3154
858.197	3203
858.331	3108
858.464	3066
858.597	2990
858.731	3100
858.864	3100
858.997	3100
859.13	3127
859.263	3176
859.396	3241
859.529	3077
859.662	3081
859.795	3039
859.928	3119
860.061	3291
860.194	3298
860.327	3123
860.46	3112
860.592	3211
860.725	3214
860.858	3264
860.99	3131
861.123	3077
861.256	3024
861.388	3116
861.521	3869
861.653	2982
861.786	2975
861.918	3028
862.05	3062
862.183	3097
862.315	3142
862.447	3203
862.58	3074
862.712	2922
862.844	2876
862.976	3028
863.108	2986
863.24	3298
863.372	2876
863.504	2975
863.636	2933
863.768	3032
863.9	2982
864.032	2872
864.164	2925
864.296	3024
864.428	3104
864.559	3104
864.691	3062
864.823	3043
864.954	2986
865.086	3051
865.217	2990
865.349	2933
865.48	3013
865.612	3039
865.743	3146
865.875	3005
866.006	2933
866.137	2960
866.269	2948
866.4	2941
866.531	2922
866.662	2902
866.793	2876
866.924	2887
867.055	2952
867.186	2941
867.317	2933
867.448	2842
867.579	2880
867.71	2834
867.841	2800
867.972	2887
868.103	2864
868.233	2883
868.364	2891
868.495	2895
868.625	3074
868.756	3138
868.886	2948
869.017	2990
869.147	3142
869.278	3154
869.408	3058
869.539	3036
869.669	3089
869.799	3043
869.929	3108
870.06	3081
870.19	3310
870.32	3256
870.45	3256
870.58	3363
870.71	3443
870.84	3397
870.97	3291
871.1	3199
871.23	3485
871.36	3443
871.489	3329
871.619	3378
871.749	3401
871.879	3447
872.008	3469
872.138	3340
872.267	3245
872.397	3157
872.526	3081
872.656	3028
872.785	3089
872.915	3264
873.044	3321
873.173	3169
873.303	3237
873.432	3218
873.561	3237
873.69	3142
873.819	3116
873.948	3188
874.077	3104
874.206	3028
874.335	3097
874.464	3192
874.593	3340
874.722	3237
874.851	3378
874.979	3336
875.108	3329
875.237	3245
875.365	3097
875.494	3169
875.623	3237
875.751	3093
875.88	3085
876.008	3184
876.136	3233
876.265	3378
876.393	3504
876.521	3397
876.65	3386
876.778	3351
876.906	3226
877.034	3199
877.162	3218
877.29	3180
877.418	3230
877.546	3245
877.674	3199
877.802	3264
877.93	3222
878.058	3176
878.185	3112
878.313	3226
878.441	3203
878.568	3047
878.696	3154
878.824	3264
878.951	3275
879.079	3435
879.206	3641
879.333	3431
879.461	3294
879.588	3367
879.715	3458
879.842	3587
879.97	3355
880.097	3142
880.224	3108
880.351	3207
880.478	3226
880.605	3188
880.732	3211
880.859	3485
880.986	3279
881.112	3291
881.239	3207
881.366	3093
881.493	3032
881.619	3005
881.746	3043
881.872	3070
881.999	3093
882.125	3173
882.252	3226
882.378	3291
882.505	3447
882.631	3283
882.757	3138
882.883	3207
883.01	3253
883.136	3135
883.262	3070
883.388	3093
883.514	3287
883.64	3389
883.766	3298
883.892	3161
884.018	3249
884.143	3466
884.269	3538
884.395	3203
884.52	3173
884.646	3176
884.772	3089
884.897	3104
885.023	3211
885.148	3351
885.274	3462
885.399	3367
885.524	3241
885.65	3272
885.775	3317
885.9	3283
886.025	3447
886.15	3378
886.275	3283
886.4	3230
886.525	3302
886.65	3222
886.775	3306
886.9	3504
887.025	3652
887.149	3382
887.274	3249
887.399	3157
887.523	3180
887.648	3169
887.773	3195
887.897	3310
888.021	3382
888.146	3287
888.27	3409
888.395	3504
888.519	3409
888.643	3443
888.767	3450
888.891	3275
889.015	3237
889.139	3211
889.263	3211
889.387	3386
889.511	3507
889.635	3435
889.759	3268
889.883	3275
890.006	3355
890.13	3466
890.254	3260
890.377	3344
890.501	3195
890.624	3165
890.748	3298
890.871	3138
890.995	3104
891.118	2998
891.241	3188
891.364	3203
891.488	3336
891.611	3161
891.734	3233
891.857	3264
891.98	3245
892.103	3344
892.226	3306
892.349	3214
892.471	3108
892.594	3272
892.717	3298
892.839	3260
892.962	3294
893.085	3344
893.207	3272
893.33	3157
893.452	3245
893.575	3302
893.697	3230
893.819	3439
893.941	3488
894.064	3462
894.186	3214
894.308	3275
894.43	3443
894.552	3488
894.674	3450
894.796	3218
894.918	3283
895.04	3298
895.161	3409
895.283	3393
895.405	3294
895.526	3382
895.648	3447
895.769	3428
895.891	3473
896.012	3454
896.134	3458
896.255	3424
896.376	3378
896.498	3348
896.619	3378
896.74	3386
896.861	3424
896.982	3663
897.103	3831
897.224	3595
897.345	3523
897.466	3458
897.587	3488
897.708	3618
897.828	3553
897.949	3428
898.07	3329
898.19	3431
898.311	3584
898.431	3409
898.552	3496
898.672	3564
898.792	3595
898.913	3538
899.033	3416
899.153	3283
899.273	3237
899.393	3256
899.513	3344
899.633	3348
899.753	3291
899.873	3332
899.993	3340
900.113	3340
900.232	3386
900.352	3370
900.472	3344
900.591	3211
900.711	3298
900.83	3264
900.95	3359
901.069	3481
901.189	3340
901.308	3173
901.427	3142
901.546	3165
901.665	3275
901.784	3374
901.904	3207
902.023	3142
902.141	3024
902.26	3024
902.379	3165
902.498	3077
902.617	3066
902.735	3203
902.854	3237
902.973	3192
903.091	3028
903.21	3081
903.328	3146
903.446	3089
903.565	3081
903.683	3176
903.801	3108
903.919	3233
904.038	3256
904.156	3165
904.274	3249
904.392	3256
904.51	3272
904.627	3340
904.745	3420
904.863	3504
904.981	3260
905.098	3150
905.216	3226
905.334	3287
905.451	3310
905.569	3306
905.686	3450
905.803	3496
905.921	3275
906.038	3409
906.155	3370
906.272	3291
906.389	3306
906.506	3211
906.623	3222
906.74	3298
906.857	3188
906.974	3233
907.091	3428
907.208	3572
907.324	3428
907.441	3386
907.557	3195
907.674	3214
907.79	3184
907.907	3264
908.023	3359
908.139	3329
908.256	3355
908.372	3374
908.488	3332
908.604	3272
908.72	3195
908.836	3264
908.952	3283
909.068	3310
909.184	3496
909.3	3382
909.415	3496
909.531	3435
909.647	3249
909.762	3268
909.878	3275
909.993	3340
910.108	3329
910.224	3359
910.339	3382
910.454	3317
910.57	3279
910.685	3230
910.8	3599
910.915	3530
911.03	3450
911.145	3272
911.259	3264
911.374	3310
911.489	3214
911.604	3226
911.718	3116
911.833	3157
911.947	3036
912.062	2956
912.176	3188
912.291	3207
912.405	3165
912.519	3443
912.633	3530
912.748	3317
912.862	3245
912.976	3150
913.09	3058
913.204	3161
913.318	3218
913.431	3302
913.545	3329
913.659	3405
913.772	3359
913.886	3214
914	3218
914.113	3351
914.226	3420
914.34	3389
914.453	3237
914.566	3401
914.68	3291
914.793	3336
914.906	3100
915.019	3116
915.132	3043
915.245	3161
915.358	3199
915.47	3207
915.583	3283
915.696	3321
915.809	3397
915.921	3431
916.034	3237
916.146	3245
916.259	3260
916.371	3370
916.483	3374
916.595	3279
916.708	3348
916.82	3310
916.932	3340
917.044	3336
917.156	3336
917.268	3230
917.38	3298
917.491	3272
917.603	3325
917.715	3401
917.826	3420
917.938	3370
918.049	3264
918.161	3466
918.272	3568
918.384	3587
918.495	3466
918.606	3363
918.717	3283
918.828	3374
918.939	3428
919.05	3306
919.161	3332
919.272	3207
919.383	3249
919.494	3500
919.604	3671
919.715	3473
919.826	3405
919.936	3443
920.047	3599
920.157	3542
920.267	3759
920.378	3545
920.488	3564
920.598	3793
920.708	3964
920.818	3819
920.928	3854
921.038	4036
921.148	4010
921.258	3713
921.368	3603
921.477	3542
921.587	3538
921.697	3481
921.806	3625
921.916	3492
922.025	3348
922.134	3336
922.244	3329
922.353	3409
922.462	3272
922.571	3199
922.68	3097
922.789	3077
922.898	3131
923.007	3077
923.116	3214
923.224	3146
923.333	3226
923.442	3104
923.55	3104
923.659	3146
923.767	3192
923.876	3127
923.984	3230
924.092	3089
924.201	3195
924.309	3195
924.417	3264
924.525	3188
924.633	3214
924.741	4013
924.849	3066
924.956	3291
925.064	3070
925.172	3074
925.279	3074
925.387	3161
925.494	3222
925.602	3359
925.709	3302
925.816	3192
925.924	3241
926.031	3389
926.138	3351
926.245	3329
926.352	3264
926.459	3424
926.566	3454
926.673	3321
926.779	3226
926.886	3214
926.993	3123
927.099	3146
927.206	3108
927.312	3116
927.419	3195
927.525	3218
927.631	3268
927.737	3142
927.843	3138
927.95	3036
928.056	3135
928.162	3161
928.267	3256
928.373	3854
928.479	3302
928.585	3051
928.69	3214
928.796	3264
928.901	3135
929.007	3066
929.112	3184
929.218	3203
929.323	3116
929.428	3184
929.533	3302
929.638	3104
929.743	3146
929.848	3222
929.953	3157
930.058	3135
930.163	2979
930.267	3051
930.372	3226
930.477	3055
930.581	3298
930.685	3199
930.79	3089
930.894	3123
930.998	3123
931.103	3264
931.207	2960
931.311	2944
931.415	2895
931.519	2800
931.623	2800
