Data from test_V78500241_1691.txt Node
Date: Fri Mar 25 16:26:55 CST 2022
User: usil
Spectrometer: V785-0024
Trigger mode: 0
Integration Time (sec): 4.000000E-1
Scans to average: 1
Nonlinearity correction enabled: false
Boxcar width: 0
Storing dark spectrum: false
XAxis mode: Wavelengths
Number of Pixels in Spectrum: 1024
>>>>>Begin Spectral Data<<<<<
801.071	2922
801.214	2948
801.356	2880
801.499	2906
801.641	2895
801.783	2914
801.926	3043
802.068	2929
802.211	3013
802.353	3013
802.496	2944
802.638	3036
802.78	2986
802.923	3077
803.065	3043
803.208	2849
803.35	2895
803.492	2925
803.635	2918
803.777	2788
803.919	2834
804.061	3188
804.204	2922
804.346	2929
804.488	2849
804.63	2979
804.773	2849
804.915	2880
805.057	3062
805.199	2887
805.341	2925
805.483	3047
805.626	2944
805.768	2971
805.91	3089
806.052	3074
806.194	3055
806.336	3226
806.478	3001
806.62	2944
806.762	2937
806.904	3062
807.046	3131
807.188	2982
807.33	2864
807.472	2986
807.614	2872
807.756	2967
807.898	2929
808.04	2849
808.182	2956
808.324	2948
808.465	2922
808.607	2864
808.749	2792
808.891	2819
809.033	2937
809.174	2994
809.316	2826
809.458	2887
809.6	2758
809.741	2758
809.883	2727
810.025	2853
810.166	2838
810.308	2849
810.45	2853
810.591	2777
810.733	2739
810.875	2823
811.016	2758
811.158	2766
811.299	2800
811.441	2895
811.582	2872
811.724	2781
811.865	2804
812.007	2887
812.148	2868
812.29	2876
812.431	2861
812.573	2925
812.714	2944
812.855	3039
812.997	3036
813.138	3104
813.279	2990
813.421	2952
813.562	2944
813.703	2868
813.845	2864
813.986	2804
814.127	2731
814.268	2857
814.41	2868
814.551	2830
814.692	2849
814.833	2838
814.974	2880
815.115	2960
815.256	2819
815.397	2876
815.539	2872
815.68	2766
815.821	2811
815.962	2918
816.103	2933
816.244	2883
816.385	2857
816.526	2948
816.666	2891
816.807	2739
816.948	2864
817.089	2941
817.23	2853
817.371	2796
817.512	2815
817.653	2823
817.793	2823
817.934	2876
818.075	2952
818.216	2986
818.356	3043
818.497	2887
818.638	2796
818.778	2823
818.919	2796
819.06	2769
819.2	2880
819.341	2785
819.481	2800
819.622	2910
819.762	3104
819.903	3013
820.043	2937
820.184	2883
820.324	2864
820.465	3047
820.605	3017
820.746	2998
820.886	2922
821.026	3157
821.167	3180
821.307	3233
821.447	3237
821.588	3256
821.728	3203
821.868	3199
822.008	3081
822.149	3184
822.289	3237
822.429	3093
822.569	3123
822.709	3165
822.849	3024
822.99	3081
823.13	3146
823.27	3195
823.41	3093
823.55	3165
823.69	3161
823.83	3161
823.97	3081
824.11	3009
824.25	2998
824.389	3070
824.529	3093
824.669	3077
824.809	3207
824.949	3256
825.089	3211
825.228	3135
825.368	3017
825.508	2929
825.648	2937
825.787	3013
825.927	3017
826.067	2967
826.206	2937
826.346	3028
826.485	3081
826.625	3119
826.765	3256
826.904	3207
827.044	3005
827.183	2914
827.323	2864
827.462	3028
827.601	2952
827.741	2937
827.88	2990
828.02	2880
828.159	2944
828.298	3020
828.437	3093
828.577	3032
828.716	3249
828.855	3123
828.994	2895
829.134	2880
829.273	2914
829.412	2887
829.551	2887
829.69	2895
829.829	2971
829.968	3142
830.107	3028
830.246	3055
830.385	2925
830.524	2876
830.663	2819
830.802	2731
830.941	2655
831.08	2636
831.219	2746
831.357	2743
831.496	2914
831.635	2750
831.774	2655
831.913	2610
832.051	2526
832.19	2602
832.329	2670
832.467	2526
832.606	2495
832.744	2568
832.883	2598
833.022	2587
833.16	2640
833.299	2712
833.437	2689
833.576	2670
833.714	2773
833.852	2746
833.991	2766
834.129	2807
834.267	2845
834.406	2796
834.544	2849
834.682	2826
834.821	2880
834.959	3047
835.097	2880
835.235	3036
835.373	3032
835.511	3039
835.65	2937
835.788	2922
835.926	2815
836.064	2807
836.202	2845
836.34	3112
836.478	3161
836.615	3039
836.753	3161
836.891	3207
837.029	3176
837.167	3081
837.305	3070
837.443	3020
837.58	2944
837.718	3119
837.856	3051
837.993	3009
838.131	3104
838.269	3116
838.406	3097
838.544	3066
838.681	2918
838.819	2887
838.956	2781
839.094	2842
839.231	2902
839.369	3028
839.506	3363
839.643	3195
839.781	2979
839.918	2937
840.055	3036
840.193	3051
840.33	3051
840.467	3081
840.604	3138
840.742	3348
840.879	3017
841.016	3028
841.153	3112
841.29	3329
841.427	3275
841.564	3302
841.701	3310
841.838	3180
841.975	3157
842.112	3214
842.249	3043
842.385	3028
842.522	3272
842.659	3093
842.796	3043
842.933	3097
843.069	3024
843.206	3028
843.343	3176
843.479	3112
843.616	3146
843.752	2872
843.889	2864
844.025	3051
844.162	2899
844.298	3058
844.435	2929
844.571	2948
844.708	3074
844.844	3199
844.98	3211
845.117	3199
845.253	3062
845.389	2971
845.525	3112
845.661	3116
845.798	3001
845.934	3127
846.07	3062
846.206	3226
846.342	3279
846.478	3218
846.614	3074
846.75	3032
846.886	2979
847.022	3249
847.158	3119
847.294	3192
847.429	3218
847.565	3192
847.701	3466
847.837	3013
847.972	2994
848.108	3138
848.244	3112
848.379	2998
848.515	2960
848.65	2933
848.786	2982
848.921	2998
849.057	3097
849.192	3154
849.328	3062
849.463	3119
849.598	3062
849.734	3058
849.869	2967
850.004	2891
850.14	2982
850.275	2895
850.41	2800
850.545	2891
850.68	2960
850.815	2941
850.95	2925
851.085	3214
851.22	3066
851.355	3024
851.49	2960
851.625	3017
851.76	3020
851.895	2891
852.03	2918
852.165	3066
852.299	3108
852.434	3173
852.569	3150
852.703	3184
852.838	3256
852.973	3298
853.107	3317
853.242	3142
853.376	3085
853.511	2979
853.645	3032
853.78	3203
853.914	3108
854.048	3074
854.183	3074
854.317	3165
854.451	3272
854.585	3123
854.72	3097
854.854	3245
854.988	3089
855.122	3077
855.256	2941
855.39	3116
855.524	3214
855.658	3146
855.792	3150
855.926	3214
856.06	3195
856.194	3279
856.327	3108
856.461	3089
856.595	3077
856.729	3097
856.862	3237
856.996	3150
857.13	3226
857.263	3214
857.397	3302
857.53	3123
857.664	3214
857.797	3264
857.931	3264
858.064	3116
858.197	3188
858.331	3131
858.464	3108
858.597	2998
858.731	3116
858.864	3142
858.997	3074
859.13	3131
859.263	3195
859.396	3146
859.529	3077
859.662	3047
859.795	3032
859.928	3108
860.061	3287
860.194	3268
860.327	3157
860.46	3074
860.592	3230
860.725	3245
860.858	3218
860.99	3108
861.123	3062
861.256	3055
861.388	3154
861.521	3835
861.653	3001
861.786	2971
861.918	3001
862.05	3017
862.183	3104
862.315	3138
862.447	3207
862.58	3089
862.712	2922
862.844	2872
862.976	2979
863.108	3005
863.24	3409
863.372	2887
863.504	2933
863.636	2929
863.768	3009
863.9	2956
864.032	2906
864.164	2960
864.296	2998
864.428	3104
864.559	3100
864.691	3097
864.823	3036
864.954	3017
865.086	3058
865.217	2994
865.349	2933
865.48	2948
865.612	3032
865.743	3104
865.875	2960
866.006	2952
866.137	2967
866.269	2925
866.4	2925
866.531	2918
866.662	2902
866.793	2895
866.924	2918
867.055	2986
867.186	2925
867.317	2845
867.448	2853
867.579	2826
867.71	2834
867.841	2807
867.972	2925
868.103	2887
868.233	2849
868.364	2887
868.495	2899
868.625	3093
868.756	3135
868.886	2971
869.017	3009
869.147	3192
869.278	3157
869.408	3051
869.539	2990
869.669	3097
869.799	3028
869.929	3146
870.06	3097
870.19	3310
870.32	3283
870.45	3291
870.58	3367
870.71	3428
870.84	3466
870.97	3294
871.1	3218
871.23	3481
871.36	3431
871.489	3336
871.619	3405
871.749	3412
871.879	3428
872.008	3469
872.138	3367
872.267	3268
872.397	3142
872.526	3077
872.656	3028
872.785	3093
872.915	3241
873.044	3325
873.173	3218
873.303	3241
873.432	3230
873.561	3199
873.69	3176
873.819	3123
873.948	3169
874.077	3116
874.206	3055
874.335	3032
874.464	3226
874.593	3367
874.722	3230
874.851	3382
874.979	3367
875.108	3348
875.237	3173
875.365	3169
875.494	3150
875.623	3245
875.751	3039
875.88	3100
876.008	3138
876.136	3245
876.265	3382
876.393	3500
876.521	3412
876.65	3412
876.778	3386
876.906	3298
877.034	3157
877.162	3222
877.29	3203
877.418	3253
877.546	3230
877.674	3211
877.802	3253
877.93	3237
878.058	3142
878.185	3097
878.313	3169
878.441	3180
878.568	3055
878.696	3150
878.824	3245
878.951	3279
879.079	3428
879.206	3648
879.333	3443
879.461	3336
879.588	3370
879.715	3507
879.842	3629
879.97	3386
880.097	3131
880.224	3116
880.351	3214
880.478	3192
880.605	3173
880.732	3211
880.859	3462
880.986	3264
881.112	3336
881.239	3165
881.366	3066
881.493	3005
881.619	2982
881.746	3066
881.872	3058
881.999	3077
882.125	3173
882.252	3256
882.378	3256
882.505	3405
882.631	3298
882.757	3154
882.883	3218
883.01	3260
883.136	3192
883.262	3112
883.388	3123
883.514	3351
883.64	3367
883.766	3260
883.892	3199
884.018	3226
884.143	3416
884.269	3523
884.395	3192
884.52	3169
884.646	3184
884.772	3142
884.897	3097
885.023	3142
885.148	3253
885.274	3416
885.399	3367
885.524	3306
885.65	3272
885.775	3275
885.9	3283
886.025	3428
886.15	3378
886.275	3283
886.4	3245
886.525	3275
886.65	3279
886.775	3268
886.9	3511
887.025	3587
887.149	3397
887.274	3237
887.399	3176
887.523	3192
887.648	3184
887.773	3180
887.897	3367
888.021	3416
888.146	3287
888.27	3416
888.395	3523
888.519	3424
888.643	3485
888.767	3477
888.891	3344
889.015	3226
889.139	3253
889.263	3230
889.387	3409
889.511	3523
889.635	3439
889.759	3294
889.883	3298
890.006	3359
890.13	3511
890.254	3256
890.377	3336
890.501	3218
890.624	3176
890.748	3272
890.871	3207
890.995	3123
891.118	3017
891.241	3165
891.364	3207
891.488	3321
891.611	3154
891.734	3226
891.857	3302
891.98	3214
892.103	3336
892.226	3294
892.349	3226
892.471	3112
892.594	3245
892.717	3317
892.839	3256
892.962	3260
893.085	3363
893.207	3298
893.33	3135
893.452	3214
893.575	3351
893.697	3226
893.819	3450
893.941	3500
894.064	3450
894.186	3268
894.308	3253
894.43	3435
894.552	3530
894.674	3469
894.796	3253
894.918	3260
895.04	3302
895.161	3450
895.283	3355
895.405	3355
895.526	3329
895.648	3435
895.769	3374
895.891	3435
896.012	3454
896.134	3481
896.255	3401
896.376	3374
896.498	3329
896.619	3473
896.74	3367
896.861	3393
896.982	3682
897.103	3816
897.224	3625
897.345	3515
897.466	3443
897.587	3477
897.708	3633
897.828	3523
897.949	3435
898.07	3310
898.19	3424
898.311	3576
898.431	3454
898.552	3511
898.672	3614
898.792	3580
898.913	3496
899.033	3389
899.153	3291
899.273	3214
899.393	3298
899.513	3332
899.633	3317
899.753	3355
899.873	3317
899.993	3382
900.113	3332
900.232	3409
900.352	3306
900.472	3256
900.591	3184
900.711	3298
900.83	3233
900.95	3397
901.069	3485
901.189	3382
901.308	3173
901.427	3116
901.546	3226
901.665	3279
901.784	3340
901.904	3199
902.023	3146
902.141	3013
902.26	3017
902.379	3112
902.498	3074
902.617	3058
902.735	3199
902.854	3291
902.973	3222
903.091	3077
903.21	3058
903.328	3142
903.446	3123
903.565	3093
903.683	3211
903.801	3138
903.919	3203
904.038	3298
904.156	3192
904.274	3272
904.392	3241
904.51	3256
904.627	3344
904.745	3450
904.863	3507
904.981	3272
905.098	3154
905.216	3211
905.334	3291
905.451	3302
905.569	3298
905.686	3435
905.803	3424
905.921	3256
906.038	3412
906.155	3332
906.272	3287
906.389	3313
906.506	3222
906.623	3264
906.74	3321
906.857	3188
906.974	3256
907.091	3454
907.208	3523
907.324	3481
907.441	3367
907.557	3241
907.674	3192
907.79	3207
907.907	3287
908.023	3393
908.139	3317
908.256	3306
908.372	3351
908.488	3348
908.604	3264
908.72	3233
908.836	3294
908.952	3283
909.068	3332
909.184	3500
909.3	3405
909.415	3523
909.531	3488
909.647	3260
909.762	3317
909.878	3268
909.993	3351
910.108	3329
910.224	3332
910.339	3397
910.454	3329
910.57	3279
910.685	3253
910.8	3557
910.915	3496
911.03	3447
911.145	3253
911.259	3275
911.374	3287
911.489	3214
911.604	3226
911.718	3108
911.833	3150
911.947	3009
912.062	3017
912.176	3138
912.291	3192
912.405	3188
912.519	3428
912.633	3424
912.748	3332
912.862	3275
912.976	3188
913.09	3085
913.204	3150
913.318	3207
913.431	3348
913.545	3325
913.659	3393
913.772	3317
913.886	3222
914	3176
914.113	3367
914.226	3409
914.34	3428
914.453	3203
914.566	3378
914.68	3283
914.793	3287
914.906	3150
915.019	3116
915.132	3097
915.245	3146
915.358	3237
915.47	3237
915.583	3260
915.696	3264
915.809	3397
915.921	3412
916.034	3264
916.146	3230
916.259	3237
916.371	3393
916.483	3355
916.595	3253
916.708	3351
916.82	3302
916.932	3344
917.044	3313
917.156	3378
917.268	3214
917.38	3283
917.491	3283
917.603	3386
917.715	3466
917.826	3473
917.938	3344
918.049	3264
918.161	3424
918.272	3561
918.384	3580
918.495	3447
918.606	3325
918.717	3310
918.828	3336
918.939	3382
919.05	3336
919.161	3378
919.272	3203
919.383	3256
919.494	3462
919.604	3671
919.715	3477
919.826	3466
919.936	3477
920.047	3587
920.157	3523
920.267	3743
920.378	3595
920.488	3580
920.598	3778
920.708	3983
920.818	3804
920.928	3819
921.038	4017
921.148	3934
921.258	3736
921.368	3675
921.477	3561
921.587	3538
921.697	3481
921.806	3660
921.916	3542
922.025	3332
922.134	3321
922.244	3306
922.353	3393
922.462	3283
922.571	3211
922.68	3131
922.789	3081
922.898	3138
923.007	3104
923.116	3199
923.224	3154
923.333	3161
923.442	3116
923.55	3100
923.659	3131
923.767	3195
923.876	3093
923.984	3207
924.092	3081
924.201	3211
924.309	3222
924.417	3241
924.525	3176
924.633	3237
924.741	3991
924.849	3047
924.956	3279
925.064	3100
925.172	3028
925.279	3093
925.387	3226
925.494	3192
925.602	3348
925.709	3370
925.816	3161
925.924	3294
926.031	3367
926.138	3310
926.245	3389
926.352	3272
926.459	3447
926.566	3473
926.673	3317
926.779	3237
926.886	3268
926.993	3150
927.099	3161
927.206	3085
927.312	3127
927.419	3214
927.525	3199
927.631	3283
927.737	3131
927.843	3135
927.95	3001
928.056	3085
928.162	3184
928.267	3253
928.373	3835
928.479	3306
928.585	3055
928.69	3211
928.796	3294
928.901	3157
929.007	3028
929.112	3199
929.218	3176
929.323	3116
929.428	3154
929.533	3317
929.638	3127
929.743	3165
929.848	3245
929.953	3249
930.058	3165
930.163	2990
930.267	3036
930.372	3203
930.477	3032
930.581	3302
930.685	3161
930.79	3097
930.894	3116
930.998	3093
931.103	3272
931.207	2952
931.311	2971
931.415	2914
931.519	2773
931.623	2811
