Data from test_V78500241_1503.txt Node
Date: Fri Mar 25 16:25:36 CST 2022
User: usil
Spectrometer: V785-0024
Trigger mode: 0
Integration Time (sec): 4.000000E-1
Scans to average: 1
Nonlinearity correction enabled: false
Boxcar width: 0
Storing dark spectrum: false
XAxis mode: Wavelengths
Number of Pixels in Spectrum: 1024
>>>>>Begin Spectral Data<<<<<
801.071	2952
801.214	2960
801.356	2899
801.499	2922
801.641	2910
801.783	2990
801.926	3081
802.068	2998
802.211	2967
802.353	3047
802.496	2998
802.638	3066
802.78	3070
802.923	3104
803.065	2967
803.208	2922
803.35	2929
803.492	2960
803.635	2941
803.777	2804
803.919	2887
804.061	3214
804.204	2990
804.346	2956
804.488	2880
804.63	3020
804.773	2899
804.915	2933
805.057	3097
805.199	2944
805.341	3024
805.483	3047
805.626	3032
805.768	2971
805.91	3081
806.052	3135
806.194	3047
806.336	3241
806.478	3009
806.62	2956
806.762	2982
806.904	3085
807.046	3150
807.188	2982
807.33	2914
807.472	2986
807.614	2925
807.756	2967
807.898	2944
808.04	2853
808.182	3020
808.324	2963
808.465	2887
808.607	2861
808.749	2800
808.891	2842
809.033	2982
809.174	2975
809.316	2929
809.458	2902
809.6	2792
809.741	2785
809.883	2804
810.025	2853
810.166	2845
810.308	2845
810.45	2864
810.591	2781
810.733	2750
810.875	2845
811.016	2796
811.158	2785
811.299	2834
811.441	2956
811.582	2910
811.724	2857
811.865	2845
812.007	2933
812.148	2891
812.29	2845
812.431	2857
812.573	2933
812.714	2956
812.855	3028
812.997	3085
813.138	3127
813.279	3028
813.421	2998
813.562	2986
813.703	2880
813.845	2887
813.986	2758
814.127	2758
814.268	2819
814.41	2830
814.551	2815
814.692	2883
814.833	2819
814.974	2906
815.115	2986
815.256	2842
815.397	2800
815.539	2883
815.68	2758
815.821	2796
815.962	2967
816.103	2960
816.244	2883
816.385	2891
816.526	2986
816.666	2937
816.807	2766
816.948	2902
817.089	2933
817.23	2815
817.371	2804
817.512	2815
817.653	2845
817.793	2826
817.934	2906
818.075	2937
818.216	2994
818.356	3028
818.497	2868
818.638	2819
818.778	2853
818.919	2788
819.06	2811
819.2	2880
819.341	2792
819.481	2849
819.622	2956
819.762	3108
819.903	3032
820.043	2963
820.184	2906
820.324	2891
820.465	3047
820.605	3024
820.746	3020
820.886	2941
821.026	3097
821.167	3176
821.307	3283
821.447	3302
821.588	3279
821.728	3237
821.868	3199
822.008	3047
822.149	3188
822.289	3260
822.429	3077
822.569	3085
822.709	3157
822.849	3039
822.99	3093
823.13	3195
823.27	3226
823.41	3116
823.55	3161
823.69	3154
823.83	3207
823.97	3138
824.11	3032
824.25	2967
824.389	3074
824.529	3135
824.669	3070
824.809	3199
824.949	3245
825.089	3253
825.228	3127
825.368	2967
825.508	2975
825.648	2952
825.787	3024
825.927	3028
826.067	2941
826.206	2952
826.346	3051
826.485	3077
826.625	3100
826.765	3264
826.904	3218
827.044	2998
827.183	2960
827.323	2811
827.462	3017
827.601	2910
827.741	2941
827.88	2960
828.02	2845
828.159	2944
828.298	3036
828.437	3097
828.577	3055
828.716	3256
828.855	3085
828.994	2952
829.134	2918
829.273	2895
829.412	2895
829.551	2868
829.69	2914
829.829	2998
829.968	3146
830.107	3009
830.246	3051
830.385	2941
830.524	2887
830.663	2857
830.802	2750
830.941	2644
831.08	2655
831.219	2750
831.357	2754
831.496	2944
831.635	2743
831.774	2659
831.913	2701
832.051	2571
832.19	2587
832.329	2667
832.467	2526
832.606	2476
832.744	2610
832.883	2579
833.022	2587
833.16	2682
833.299	2678
833.437	2686
833.576	2708
833.714	2739
833.852	2739
833.991	2754
834.129	2826
834.267	2845
834.406	2815
834.544	2880
834.682	2872
834.821	2883
834.959	3070
835.097	2883
835.235	3089
835.373	2986
835.511	3028
835.65	2952
835.788	2979
835.926	2849
836.064	2815
836.202	2849
836.34	3116
836.478	3173
836.615	3039
836.753	3070
836.891	3214
837.029	3207
837.167	3104
837.305	3047
837.443	3024
837.58	2960
837.718	3116
837.856	3081
837.993	3020
838.131	3123
838.269	3089
838.406	3127
838.544	3081
838.681	2952
838.819	2967
838.956	2834
839.094	2834
839.231	2925
839.369	3017
839.506	3348
839.643	3218
839.781	3036
839.918	2960
840.055	3047
840.193	3062
840.33	3066
840.467	3100
840.604	3138
840.742	3397
840.879	3081
841.016	3036
841.153	3138
841.29	3363
841.427	3291
841.564	3294
841.701	3291
841.838	3226
841.975	3180
842.112	3192
842.249	3085
842.385	3062
842.522	3260
842.659	3112
842.796	3055
842.933	3100
843.069	3051
843.206	3020
843.343	3192
843.479	3112
843.616	3165
843.752	2914
843.889	2887
844.025	3085
844.162	2868
844.298	3039
844.435	2975
844.571	2906
844.708	3066
844.844	3180
844.98	3207
845.117	3188
845.253	3032
845.389	3036
845.525	3066
845.661	3112
845.798	2994
845.934	3119
846.07	3032
846.206	3203
846.342	3332
846.478	3241
846.614	3100
846.75	3036
846.886	3009
847.022	3226
847.158	3097
847.294	3173
847.429	3207
847.565	3222
847.701	3488
847.837	3020
847.972	3013
848.108	3161
848.244	3123
848.379	2998
848.515	2963
848.65	2910
848.786	2971
848.921	3017
849.057	3108
849.192	3116
849.328	3051
849.463	3100
849.598	3089
849.734	3005
849.869	2963
850.004	2922
850.14	2956
850.275	2918
850.41	2826
850.545	2899
850.68	2937
850.815	2990
850.95	2979
851.085	3180
851.22	3093
851.355	3058
851.49	2956
851.625	3039
851.76	3032
851.895	2929
852.03	2868
852.165	3043
852.299	3131
852.434	3218
852.569	3157
852.703	3184
852.838	3302
852.973	3344
853.107	3306
853.242	3142
853.376	3081
853.511	2994
853.645	3058
853.78	3188
853.914	3093
854.048	3127
854.183	3062
854.317	3135
854.451	3253
854.585	3135
854.72	3119
854.854	3195
854.988	3039
855.122	3062
855.256	2944
855.39	3131
855.524	3253
855.658	3161
855.792	3146
855.926	3173
856.06	3222
856.194	3279
856.327	3142
856.461	3097
856.595	3066
856.729	3100
856.862	3207
856.996	3142
857.13	3207
857.263	3237
857.397	3325
857.53	3074
857.664	3195
857.797	3253
857.931	3260
858.064	3176
858.197	3230
858.331	3135
858.464	3085
858.597	3009
858.731	3093
858.864	3123
858.997	3047
859.13	3180
859.263	3161
859.396	3173
859.529	3119
859.662	3058
859.795	3028
859.928	3119
860.061	3279
860.194	3256
860.327	3108
860.46	3119
860.592	3241
860.725	3249
860.858	3218
860.99	3093
861.123	3039
861.256	3039
861.388	3142
861.521	3785
861.653	2998
861.786	2967
861.918	2990
862.05	3089
862.183	3100
862.315	3123
862.447	3226
862.58	3093
862.712	2937
862.844	2864
862.976	2998
863.108	2994
863.24	3321
863.372	2887
863.504	2998
863.636	2963
863.768	3020
863.9	2975
864.032	2899
864.164	2929
864.296	3005
864.428	3070
864.559	3108
864.691	3047
864.823	3066
864.954	3020
865.086	3039
865.217	3001
865.349	2929
865.48	2979
865.612	2994
865.743	3131
865.875	2986
866.006	2956
866.137	2990
866.269	2922
866.4	2899
866.531	2963
866.662	2887
866.793	2887
866.924	2876
867.055	2963
867.186	2910
867.317	2872
867.448	2834
867.579	2838
867.71	2876
867.841	2830
867.972	2914
868.103	2933
868.233	2864
868.364	2864
868.495	2895
868.625	3070
868.756	3169
868.886	2941
869.017	3009
869.147	3173
869.278	3123
869.408	3020
869.539	3005
869.669	3100
869.799	3039
869.929	3123
870.06	3093
870.19	3283
870.32	3245
870.45	3302
870.58	3363
870.71	3458
870.84	3443
870.97	3279
871.1	3253
871.23	3477
871.36	3431
871.489	3340
871.619	3382
871.749	3386
871.879	3386
872.008	3477
872.138	3355
872.267	3283
872.397	3131
872.526	3089
872.656	3020
872.785	3051
872.915	3222
873.044	3344
873.173	3207
873.303	3226
873.432	3245
873.561	3264
873.69	3176
873.819	3150
873.948	3192
874.077	3085
874.206	3039
874.335	3085
874.464	3199
874.593	3321
874.722	3241
874.851	3359
874.979	3336
875.108	3348
875.237	3195
875.365	3154
875.494	3142
875.623	3241
875.751	3066
875.88	3116
876.008	3176
876.136	3233
876.265	3359
876.393	3481
876.521	3397
876.65	3420
876.778	3340
876.906	3268
877.034	3176
877.162	3188
877.29	3188
877.418	3256
877.546	3256
877.674	3195
877.802	3253
877.93	3192
878.058	3138
878.185	3108
878.313	3222
878.441	3211
878.568	3112
878.696	3123
878.824	3283
878.951	3294
879.079	3485
879.206	3641
879.333	3443
879.461	3332
879.588	3359
879.715	3466
879.842	3633
879.97	3382
880.097	3154
880.224	3116
880.351	3173
880.478	3230
880.605	3180
880.732	3218
880.859	3473
880.986	3321
881.112	3367
881.239	3195
881.366	3104
881.493	3001
881.619	3009
881.746	3112
881.872	3074
881.999	3123
882.125	3157
882.252	3268
882.378	3302
882.505	3431
882.631	3329
882.757	3119
882.883	3199
883.01	3253
883.136	3127
883.262	3119
883.388	3123
883.514	3306
883.64	3348
883.766	3298
883.892	3226
884.018	3256
884.143	3405
884.269	3553
884.395	3203
884.52	3195
884.646	3192
884.772	3108
884.897	3062
885.023	3214
885.148	3351
885.274	3397
885.399	3412
885.524	3321
885.65	3260
885.775	3298
885.9	3291
886.025	3416
886.15	3386
886.275	3272
886.4	3245
886.525	3287
886.65	3256
886.775	3279
886.9	3454
887.025	3618
887.149	3405
887.274	3256
887.399	3226
887.523	3188
887.648	3169
887.773	3222
887.897	3370
888.021	3409
888.146	3310
888.27	3412
888.395	3500
888.519	3428
888.643	3393
888.767	3485
888.891	3344
889.015	3241
889.139	3294
889.263	3249
889.387	3370
889.511	3504
889.635	3424
889.759	3287
889.883	3317
890.006	3374
890.13	3500
890.254	3237
890.377	3313
890.501	3192
890.624	3169
890.748	3287
890.871	3173
890.995	3116
891.118	3055
891.241	3176
891.364	3233
891.488	3306
891.611	3192
891.734	3245
891.857	3298
891.98	3237
892.103	3306
892.226	3283
892.349	3211
892.471	3112
892.594	3184
892.717	3279
892.839	3275
892.962	3302
893.085	3340
893.207	3256
893.33	3142
893.452	3211
893.575	3321
893.697	3272
893.819	3466
893.941	3500
894.064	3469
894.186	3260
894.308	3298
894.43	3424
894.552	3564
894.674	3481
894.796	3294
894.918	3313
895.04	3275
895.161	3454
895.283	3344
895.405	3298
895.526	3340
895.648	3386
895.769	3412
895.891	3462
896.012	3485
896.134	3424
896.255	3389
896.376	3370
896.498	3340
896.619	3466
896.74	3351
896.861	3393
896.982	3633
897.103	3842
897.224	3641
897.345	3500
897.466	3424
897.587	3485
897.708	3595
897.828	3557
897.949	3435
898.07	3344
898.19	3389
898.311	3606
898.431	3462
898.552	3526
898.672	3591
898.792	3603
898.913	3488
899.033	3405
899.153	3283
899.273	3203
899.393	3275
899.513	3279
899.633	3321
899.753	3321
899.873	3279
899.993	3348
900.113	3336
900.232	3401
900.352	3348
900.472	3302
900.591	3203
900.711	3298
900.83	3237
900.95	3443
901.069	3485
901.189	3317
901.308	3176
901.427	3108
901.546	3165
901.665	3249
901.784	3348
901.904	3207
902.023	3173
902.141	2990
902.26	2998
902.379	3150
902.498	3058
902.617	3085
902.735	3203
902.854	3249
902.973	3237
903.091	3043
903.21	3074
903.328	3176
903.446	3112
903.565	3119
903.683	3146
903.801	3123
903.919	3245
904.038	3260
904.156	3146
904.274	3287
904.392	3287
904.51	3268
904.627	3313
904.745	3469
904.863	3534
904.981	3230
905.098	3184
905.216	3233
905.334	3302
905.451	3279
905.569	3306
905.686	3431
905.803	3435
905.921	3275
906.038	3469
906.155	3378
906.272	3275
906.389	3306
906.506	3237
906.623	3226
906.74	3298
906.857	3192
906.974	3291
907.091	3416
907.208	3587
907.324	3458
907.441	3367
907.557	3230
907.674	3222
907.79	3176
907.907	3279
908.023	3416
908.139	3389
908.256	3321
908.372	3351
908.488	3329
908.604	3237
908.72	3211
908.836	3306
908.952	3264
909.068	3348
909.184	3507
909.3	3336
909.415	3481
909.531	3504
909.647	3294
909.762	3291
909.878	3264
909.993	3370
910.108	3336
910.224	3336
910.339	3409
910.454	3359
910.57	3249
910.685	3214
910.8	3603
910.915	3526
911.03	3443
911.145	3264
911.259	3272
911.374	3313
911.489	3245
911.604	3203
911.718	3093
911.833	3138
911.947	3043
912.062	2975
912.176	3119
912.291	3180
912.405	3192
912.519	3431
912.633	3443
912.748	3306
912.862	3260
912.976	3207
913.09	3032
913.204	3108
913.318	3222
913.431	3329
913.545	3332
913.659	3412
913.772	3378
913.886	3211
914	3192
914.113	3363
914.226	3401
914.34	3355
914.453	3195
914.566	3378
914.68	3283
914.793	3348
914.906	3150
915.019	3081
915.132	3062
915.245	3173
915.358	3199
915.47	3253
915.583	3233
915.696	3279
915.809	3374
915.921	3409
916.034	3233
916.146	3237
916.259	3233
916.371	3420
916.483	3374
916.595	3264
916.708	3325
916.82	3363
916.932	3344
917.044	3340
917.156	3370
917.268	3230
917.38	3272
917.491	3310
917.603	3359
917.715	3424
917.826	3424
917.938	3367
918.049	3275
918.161	3409
918.272	3580
918.384	3580
918.495	3488
918.606	3329
918.717	3245
918.828	3325
918.939	3405
919.05	3298
919.161	3374
919.272	3176
919.383	3279
919.494	3466
919.604	3652
919.715	3469
919.826	3393
919.936	3477
920.047	3568
920.157	3572
920.267	3747
920.378	3637
920.488	3530
920.598	3747
920.708	3968
920.818	3793
920.928	3842
921.038	4017
921.148	4013
921.258	3728
921.368	3622
921.477	3561
921.587	3534
921.697	3473
921.806	3652
921.916	3561
922.025	3367
922.134	3374
922.244	3302
922.353	3397
922.462	3226
922.571	3241
922.68	3112
922.789	3097
922.898	3123
923.007	3119
923.116	3253
923.224	3157
923.333	3150
923.442	3119
923.55	3112
923.659	3142
923.767	3195
923.876	3131
923.984	3226
924.092	3161
924.201	3233
924.309	3211
924.417	3230
924.525	3211
924.633	3211
924.741	4051
924.849	3032
924.956	3245
925.064	3081
925.172	3043
925.279	3112
925.387	3214
925.494	3207
925.602	3382
925.709	3332
925.816	3146
925.924	3283
926.031	3374
926.138	3340
926.245	3374
926.352	3279
926.459	3435
926.566	3469
926.673	3313
926.779	3264
926.886	3298
926.993	3135
927.099	3093
927.206	3119
927.312	3100
927.419	3230
927.525	3211
927.631	3279
927.737	3127
927.843	3142
927.95	3043
928.056	3154
928.162	3142
928.267	3245
928.373	3736
928.479	3336
928.585	3074
928.69	3214
928.796	3260
928.901	3173
929.007	3036
929.112	3222
929.218	3157
929.323	3127
929.428	3142
929.533	3306
929.638	3100
929.743	3146
929.848	3233
929.953	3218
930.058	3165
930.163	3009
930.267	3032
930.372	3211
930.477	3077
930.581	3336
930.685	3188
930.79	3077
930.894	3150
930.998	3070
931.103	3291
931.207	2944
931.311	2948
931.415	2899
931.519	2766
931.623	2811
