Data from test_V78500241_968.txt Node
Date: Fri Mar 25 16:21:54 CST 2022
User: usil
Spectrometer: V785-0024
Trigger mode: 0
Integration Time (sec): 4.000000E-1
Scans to average: 1
Nonlinearity correction enabled: false
Boxcar width: 0
Storing dark spectrum: false
XAxis mode: Wavelengths
Number of Pixels in Spectrum: 1024
>>>>>Begin Spectral Data<<<<<
801.071	2906
801.214	2948
801.356	2880
801.499	2910
801.641	2861
801.783	2937
801.926	3058
802.068	2998
802.211	3032
802.353	3036
802.496	2986
802.638	3005
802.78	3036
802.923	3036
803.065	3032
803.208	2887
803.35	2941
803.492	2929
803.635	2902
803.777	2750
803.919	2849
804.061	3195
804.204	2944
804.346	2914
804.488	2842
804.63	2971
804.773	2880
804.915	2910
805.057	3066
805.199	2929
805.341	2998
805.483	3066
805.626	2998
805.768	2948
805.91	3070
806.052	3104
806.194	3005
806.336	3264
806.478	3005
806.62	2937
806.762	2967
806.904	3051
807.046	3184
807.188	3020
807.33	2952
807.472	2986
807.614	2880
807.756	2967
807.898	2922
808.04	2922
808.182	2994
808.324	2933
808.465	2868
808.607	2868
808.749	2777
808.891	2849
809.033	2952
809.174	2941
809.316	2872
809.458	2883
809.6	2773
809.741	2754
809.883	2750
810.025	2823
810.166	2868
810.308	2815
810.45	2845
810.591	2777
810.733	2762
810.875	2811
811.016	2777
811.158	2754
811.299	2773
811.441	2902
811.582	2899
811.724	2864
811.865	2826
812.007	2899
812.148	2872
812.29	2876
812.431	2872
812.573	2918
812.714	2990
812.855	3051
812.997	3051
813.138	3112
813.279	3001
813.421	2960
813.562	2944
813.703	2883
813.845	2857
813.986	2758
814.127	2727
814.268	2785
814.41	2861
814.551	2773
814.692	2868
814.833	2819
814.974	2902
815.115	2986
815.256	2849
815.397	2804
815.539	2872
815.68	2773
815.821	2815
815.962	2967
816.103	2922
816.244	2891
816.385	2845
816.526	2956
816.666	2895
816.807	2743
816.948	2899
817.089	2902
817.23	2876
817.371	2773
817.512	2811
817.653	2842
817.793	2800
817.934	2861
818.075	2967
818.216	2982
818.356	3009
818.497	2864
818.638	2781
818.778	2788
818.919	2773
819.06	2766
819.2	2891
819.341	2804
819.481	2796
819.622	2918
819.762	3112
819.903	3043
820.043	2979
820.184	2895
820.324	2887
820.465	3017
820.605	3009
820.746	3043
820.886	2902
821.026	3108
821.167	3146
821.307	3218
821.447	3287
821.588	3233
821.728	3226
821.868	3131
822.008	3089
822.149	3188
822.289	3237
822.429	3108
822.569	3093
822.709	3138
822.849	3028
822.99	3024
823.13	3142
823.27	3188
823.41	3081
823.55	3127
823.69	3127
823.83	3135
823.97	3127
824.11	2975
824.25	3001
824.389	3070
824.529	3131
824.669	3074
824.809	3157
824.949	3241
825.089	3233
825.228	3165
825.368	2979
825.508	2937
825.648	2971
825.787	3001
825.927	2979
826.067	2979
826.206	2967
826.346	3032
826.485	3039
826.625	3089
826.765	3287
826.904	3230
827.044	2990
827.183	2960
827.323	2861
827.462	2941
827.601	2906
827.741	2929
827.88	2929
828.02	2849
828.159	2948
828.298	3051
828.437	3116
828.577	3024
828.716	3233
828.855	3081
828.994	2883
829.134	2895
829.273	2918
829.412	2853
829.551	2868
829.69	2887
829.829	2998
829.968	3097
830.107	2979
830.246	3024
830.385	2845
830.524	2857
830.663	2796
830.802	2727
830.941	2636
831.08	2606
831.219	2727
831.357	2746
831.496	2941
831.635	2720
831.774	2617
831.913	2670
832.051	2545
832.19	2579
832.329	2697
832.467	2530
832.606	2488
832.744	2598
832.883	2606
833.022	2602
833.16	2667
833.299	2648
833.437	2682
833.576	2686
833.714	2701
833.852	2746
833.991	2769
834.129	2830
834.267	2857
834.406	2792
834.544	2883
834.682	2899
834.821	2849
834.959	3036
835.097	2868
835.235	3085
835.373	2967
835.511	3005
835.65	2948
835.788	2971
835.926	2830
836.064	2762
836.202	2830
836.34	3077
836.478	3150
836.615	3005
836.753	3138
836.891	3222
837.029	3173
837.167	3104
837.305	3039
837.443	3051
837.58	2975
837.718	3085
837.856	3074
837.993	3020
838.131	3127
838.269	3085
838.406	3112
838.544	3089
838.681	2922
838.819	2914
838.956	2785
839.094	2826
839.231	2914
839.369	3032
839.506	3329
839.643	3192
839.781	3032
839.918	2944
840.055	3036
840.193	3066
840.33	3058
840.467	3112
840.604	3150
840.742	3405
840.879	3058
841.016	3051
841.153	3108
841.29	3351
841.427	3279
841.564	3279
841.701	3260
841.838	3214
841.975	3184
842.112	3218
842.249	3077
842.385	3009
842.522	3268
842.659	3119
842.796	3077
842.933	3077
843.069	3051
843.206	3032
843.343	3169
843.479	3097
843.616	3119
843.752	2887
843.889	2876
844.025	3097
844.162	2845
844.298	3032
844.435	2971
844.571	2960
844.708	3047
844.844	3184
844.98	3249
845.117	3199
845.253	3051
845.389	3013
845.525	3112
845.661	3055
845.798	2998
845.934	3104
846.07	3055
846.206	3169
846.342	3321
846.478	3218
846.614	3119
846.75	3043
846.886	3028
847.022	3260
847.158	3146
847.294	3176
847.429	3249
847.565	3184
847.701	3477
847.837	3017
847.972	2963
848.108	3119
848.244	3123
848.379	2998
848.515	2922
848.65	2929
848.786	2944
848.921	2971
849.057	3058
849.192	3135
849.328	3043
849.463	3070
849.598	3036
849.734	3036
849.869	2960
850.004	2895
850.14	2933
850.275	2914
850.41	2819
850.545	2853
850.68	2914
850.815	2925
850.95	2956
851.085	3157
851.22	3108
851.355	3051
851.49	2963
851.625	2990
851.76	3024
851.895	2933
852.03	2914
852.165	3043
852.299	3062
852.434	3165
852.569	3127
852.703	3180
852.838	3233
852.973	3287
853.107	3332
853.242	3154
853.376	3112
853.511	2967
853.645	3020
853.78	3268
853.914	3127
854.048	3070
854.183	3081
854.317	3127
854.451	3294
854.585	3135
854.72	3116
854.854	3211
854.988	3043
855.122	3097
855.256	2979
855.39	3093
855.524	3207
855.658	3180
855.792	3192
855.926	3184
856.06	3218
856.194	3222
856.327	3203
856.461	3093
856.595	3093
856.729	3116
856.862	3203
856.996	3161
857.13	3203
857.263	3214
857.397	3283
857.53	3135
857.664	3199
857.797	3199
857.931	3245
858.064	3161
858.197	3173
858.331	3123
858.464	3100
858.597	2975
858.731	3119
858.864	3112
858.997	3097
859.13	3154
859.263	3176
859.396	3211
859.529	3062
859.662	3032
859.795	3043
859.928	3119
860.061	3245
860.194	3272
860.327	3135
860.46	3062
860.592	3256
860.725	3226
860.858	3268
860.99	3077
861.123	3047
861.256	3081
861.388	3135
861.521	3869
861.653	3001
861.786	2990
861.918	3005
862.05	3039
862.183	3055
862.315	3154
862.447	3203
862.58	3058
862.712	2956
862.844	2864
862.976	3005
863.108	3013
863.24	3405
863.372	2864
863.504	2914
863.636	2952
863.768	3055
863.9	2952
864.032	2925
864.164	2956
864.296	3028
864.428	3085
864.559	3074
864.691	3070
864.823	3055
864.954	3005
865.086	3047
865.217	2986
865.349	2922
865.48	2982
865.612	2990
865.743	3123
865.875	2975
866.006	2948
866.137	2986
866.269	2952
866.4	2952
866.531	2906
866.662	2887
866.793	2845
866.924	2861
867.055	2963
867.186	2941
867.317	2853
867.448	2849
867.579	2819
867.71	2849
867.841	2796
867.972	2918
868.103	2922
868.233	2918
868.364	2899
868.495	2868
868.625	3070
868.756	3173
868.886	2952
869.017	3013
869.147	3188
869.278	3180
869.408	3051
869.539	3028
869.669	3085
869.799	3024
869.929	3116
870.06	3123
870.19	3306
870.32	3256
870.45	3279
870.58	3393
870.71	3447
870.84	3424
870.97	3287
871.1	3245
871.23	3454
871.36	3389
871.489	3351
871.619	3359
871.749	3397
871.879	3409
872.008	3477
872.138	3363
872.267	3249
872.397	3135
872.526	3108
872.656	2960
872.785	3112
872.915	3222
873.044	3283
873.173	3226
873.303	3218
873.432	3233
873.561	3211
873.69	3150
873.819	3154
873.948	3192
874.077	3157
874.206	3024
874.335	3081
874.464	3188
874.593	3367
874.722	3226
874.851	3359
874.979	3348
875.108	3294
875.237	3127
875.365	3154
875.494	3150
875.623	3260
875.751	3066
875.88	3116
876.008	3180
876.136	3199
876.265	3378
876.393	3507
876.521	3435
876.65	3401
876.778	3332
876.906	3226
877.034	3211
877.162	3214
877.29	3173
877.418	3291
877.546	3237
877.674	3245
877.802	3218
877.93	3211
878.058	3138
878.185	3104
878.313	3203
878.441	3203
878.568	3066
878.696	3127
878.824	3222
878.951	3264
879.079	3443
879.206	3625
879.333	3435
879.461	3317
879.588	3409
879.715	3485
879.842	3587
879.97	3378
880.097	3154
880.224	3150
880.351	3157
880.478	3218
880.605	3184
880.732	3180
880.859	3496
880.986	3302
881.112	3325
881.239	3188
881.366	3112
881.493	3024
881.619	3001
881.746	3047
881.872	3127
881.999	3074
882.125	3142
882.252	3283
882.378	3287
882.505	3428
882.631	3279
882.757	3157
882.883	3245
883.01	3211
883.136	3211
883.262	3112
883.388	3100
883.514	3317
883.64	3329
883.766	3237
883.892	3188
884.018	3188
884.143	3367
884.269	3500
884.395	3214
884.52	3150
884.646	3180
884.772	3085
884.897	3077
885.023	3207
885.148	3294
885.274	3412
885.399	3348
885.524	3313
885.65	3264
885.775	3253
885.9	3260
886.025	3420
886.15	3340
886.275	3249
886.4	3199
886.525	3268
886.65	3233
886.775	3291
886.9	3469
887.025	3671
887.149	3382
887.274	3222
887.399	3195
887.523	3165
887.648	3203
887.773	3184
887.897	3355
888.021	3374
888.146	3317
888.27	3412
888.395	3534
888.519	3458
888.643	3420
888.767	3454
888.891	3317
889.015	3291
889.139	3268
889.263	3218
889.387	3450
889.511	3466
889.635	3462
889.759	3272
889.883	3294
890.006	3367
890.13	3473
890.254	3275
890.377	3302
890.501	3211
890.624	3207
890.748	3268
890.871	3173
890.995	3089
891.118	3058
891.241	3180
891.364	3195
891.488	3336
891.611	3161
891.734	3180
891.857	3317
891.98	3230
892.103	3378
892.226	3256
892.349	3226
892.471	3097
892.594	3233
892.717	3336
892.839	3317
892.962	3275
893.085	3401
893.207	3298
893.33	3173
893.452	3188
893.575	3317
893.697	3230
893.819	3466
893.941	3515
894.064	3447
894.186	3256
894.308	3256
894.43	3428
894.552	3526
894.674	3466
894.796	3249
894.918	3313
895.04	3294
895.161	3397
895.283	3397
895.405	3310
895.526	3363
895.648	3397
895.769	3424
895.891	3443
896.012	3500
896.134	3458
896.255	3348
896.376	3393
896.498	3367
896.619	3420
896.74	3351
896.861	3405
896.982	3679
897.103	3876
897.224	3564
897.345	3523
897.466	3405
897.587	3519
897.708	3633
897.828	3553
897.949	3401
898.07	3294
898.19	3374
898.311	3603
898.431	3469
898.552	3485
898.672	3576
898.792	3549
898.913	3519
899.033	3431
899.153	3294
899.273	3207
899.393	3268
899.513	3317
899.633	3287
899.753	3336
899.873	3344
899.993	3355
900.113	3313
900.232	3405
900.352	3363
900.472	3287
900.591	3195
900.711	3245
900.83	3214
900.95	3351
901.069	3507
901.189	3325
901.308	3150
901.427	3135
901.546	3230
901.665	3298
901.784	3332
901.904	3184
902.023	3154
902.141	3036
902.26	2979
902.379	3173
902.498	3051
902.617	3058
902.735	3222
902.854	3207
902.973	3199
903.091	3074
903.21	3070
903.328	3100
903.446	3100
903.565	3097
903.683	3218
903.801	3116
903.919	3230
904.038	3249
904.156	3188
904.274	3298
904.392	3233
904.51	3287
904.627	3291
904.745	3443
904.863	3492
904.981	3199
905.098	3161
905.216	3184
905.334	3283
905.451	3310
905.569	3344
905.686	3401
905.803	3431
905.921	3260
906.038	3424
906.155	3336
906.272	3275
906.389	3321
906.506	3199
906.623	3249
906.74	3260
906.857	3195
906.974	3249
907.091	3450
907.208	3561
907.324	3488
907.441	3370
907.557	3226
907.674	3226
907.79	3180
907.907	3214
908.023	3401
908.139	3386
908.256	3310
908.372	3367
908.488	3348
908.604	3226
908.72	3233
908.836	3275
908.952	3279
909.068	3348
909.184	3519
909.3	3401
909.415	3477
909.531	3500
909.647	3268
909.762	3283
909.878	3249
909.993	3340
910.108	3382
910.224	3378
910.339	3382
910.454	3317
910.57	3283
910.685	3222
910.8	3606
910.915	3576
911.03	3416
911.145	3268
911.259	3260
911.374	3291
911.489	3237
911.604	3203
911.718	3108
911.833	3173
911.947	3047
912.062	2979
912.176	3154
912.291	3157
912.405	3192
912.519	3431
912.633	3420
912.748	3332
912.862	3287
912.976	3138
913.09	3074
913.204	3112
913.318	3161
913.431	3332
913.545	3332
913.659	3416
913.772	3332
913.886	3211
914	3230
914.113	3351
914.226	3409
914.34	3329
914.453	3169
914.566	3420
914.68	3283
914.793	3306
914.906	3127
915.019	3058
915.132	3051
915.245	3169
915.358	3214
915.47	3253
915.583	3272
915.696	3325
915.809	3389
915.921	3428
916.034	3256
916.146	3237
916.259	3264
916.371	3374
916.483	3367
916.595	3275
916.708	3317
916.82	3340
916.932	3340
917.044	3325
917.156	3355
917.268	3241
917.38	3283
917.491	3272
917.603	3348
917.715	3462
917.826	3405
917.938	3405
918.049	3226
918.161	3405
918.272	3576
918.384	3564
918.495	3496
918.606	3294
918.717	3249
918.828	3397
918.939	3416
919.05	3313
919.161	3367
919.272	3207
919.383	3340
919.494	3492
919.604	3701
919.715	3469
919.826	3424
919.936	3439
920.047	3595
920.157	3549
920.267	3732
920.378	3606
920.488	3568
920.598	3766
920.708	3899
920.818	3759
920.928	3789
921.038	4036
921.148	3972
921.258	3705
921.368	3652
921.477	3576
921.587	3526
921.697	3473
921.806	3618
921.916	3492
922.025	3321
922.134	3374
922.244	3332
922.353	3431
922.462	3256
922.571	3249
922.68	3112
922.789	3066
922.898	3131
923.007	3097
923.116	3195
923.224	3180
923.333	3184
923.442	3070
923.55	3074
923.659	3184
923.767	3237
923.876	3089
923.984	3207
924.092	3085
924.201	3214
924.309	3207
924.417	3268
924.525	3180
924.633	3253
924.741	4158
924.849	3013
924.956	3302
925.064	3077
925.172	3024
925.279	3085
925.387	3169
925.494	3192
925.602	3332
925.709	3302
925.816	3180
925.924	3294
926.031	3393
926.138	3336
926.245	3359
926.352	3268
926.459	3409
926.566	3462
926.673	3340
926.779	3218
926.886	3256
926.993	3195
927.099	3108
927.206	3077
927.312	3127
927.419	3214
927.525	3241
927.631	3294
927.737	3127
927.843	3112
927.95	3009
928.056	3150
928.162	3207
928.267	3241
928.373	3892
928.479	3348
928.585	3039
928.69	3184
928.796	3260
928.901	3173
929.007	3036
929.112	3169
929.218	3142
929.323	3135
929.428	3093
929.533	3291
929.638	3127
929.743	3176
929.848	3214
929.953	3188
930.058	3157
930.163	2960
930.267	3020
930.372	3169
930.477	3051
930.581	3313
930.685	3176
930.79	3036
930.894	3119
930.998	3085
931.103	3283
931.207	2963
931.311	2933
931.415	2925
931.519	2746
931.623	2819
