Data from test_V78500241_1240.txt Node
Date: Fri Mar 25 16:23:47 CST 2022
User: usil
Spectrometer: V785-0024
Trigger mode: 0
Integration Time (sec): 4.000000E-1
Scans to average: 1
Nonlinearity correction enabled: false
Boxcar width: 0
Storing dark spectrum: false
XAxis mode: Wavelengths
Number of Pixels in Spectrum: 1024
>>>>>Begin Spectral Data<<<<<
801.071	2891
801.214	2971
801.356	2883
801.499	2872
801.641	2887
801.783	2929
801.926	3005
802.068	2975
802.211	2994
802.353	3043
802.496	2986
802.638	2979
802.78	3032
802.923	3070
803.065	3001
803.208	2922
803.35	2929
803.492	2963
803.635	2899
803.777	2712
803.919	2857
804.061	3207
804.204	2925
804.346	2929
804.488	2823
804.63	2960
804.773	2887
804.915	2910
805.057	3070
805.199	2880
805.341	2979
805.483	3020
805.626	3024
805.768	2971
805.91	3089
806.052	3089
806.194	3020
806.336	3253
806.478	3047
806.62	2937
806.762	2967
806.904	3036
807.046	3154
807.188	3001
807.33	2929
807.472	2994
807.614	2918
807.756	3009
807.898	2948
808.04	2872
808.182	2948
808.324	2948
808.465	2891
808.607	2918
808.749	2777
808.891	2891
809.033	2948
809.174	2975
809.316	2895
809.458	2861
809.6	2769
809.741	2788
809.883	2807
810.025	2861
810.166	2883
810.308	2857
810.45	2864
810.591	2766
810.733	2788
810.875	2811
811.016	2769
811.158	2781
811.299	2823
811.441	2956
811.582	2891
811.724	2842
811.865	2830
812.007	2880
812.148	2918
812.29	2826
812.431	2902
812.573	2922
812.714	2982
812.855	3047
812.997	3077
813.138	3150
813.279	2998
813.421	2971
813.562	2918
813.703	2845
813.845	2891
813.986	2762
814.127	2712
814.268	2807
814.41	2861
814.551	2800
814.692	2872
814.833	2819
814.974	2887
815.115	2986
815.256	2811
815.397	2796
815.539	2922
815.68	2792
815.821	2792
815.962	2902
816.103	2956
816.244	2891
816.385	2864
816.526	2979
816.666	2914
816.807	2773
816.948	2902
817.089	2914
817.23	2876
817.371	2758
817.512	2796
817.653	2842
817.793	2811
817.934	2902
818.075	2971
818.216	2990
818.356	3009
818.497	2872
818.638	2804
818.778	2834
818.919	2807
819.06	2769
819.2	2883
819.341	2777
819.481	2785
819.622	2937
819.762	3104
819.903	3081
820.043	2948
820.184	2876
820.324	2899
820.465	3017
820.605	3017
820.746	2998
820.886	2956
821.026	3097
821.167	3184
821.307	3279
821.447	3253
821.588	3207
821.728	3199
821.868	3184
822.008	3085
822.149	3222
822.289	3199
822.429	3081
822.569	3062
822.709	3192
822.849	2994
822.99	3062
823.13	3146
823.27	3195
823.41	3070
823.55	3180
823.69	3154
823.83	3195
823.97	3077
824.11	3032
824.25	2971
824.389	3055
824.529	3119
824.669	3066
824.809	3211
824.949	3203
825.089	3230
825.228	3161
825.368	3017
825.508	2990
825.648	2994
825.787	2998
825.927	2998
826.067	2956
826.206	2963
826.346	3043
826.485	3062
826.625	3074
826.765	3237
826.904	3203
827.044	2986
827.183	2944
827.323	2876
827.462	2952
827.601	2906
827.741	2963
827.88	2975
828.02	2849
828.159	2944
828.298	3013
828.437	3093
828.577	3066
828.716	3253
828.855	3058
828.994	2883
829.134	2872
829.273	2910
829.412	2883
829.551	2815
829.69	2864
829.829	2937
829.968	3127
830.107	3009
830.246	3032
830.385	2937
830.524	2906
830.663	2857
830.802	2720
830.941	2667
831.08	2632
831.219	2758
831.357	2750
831.496	2929
831.635	2708
831.774	2670
831.913	2636
832.051	2571
832.19	2545
832.329	2686
832.467	2530
832.606	2492
832.744	2549
832.883	2590
833.022	2613
833.16	2655
833.299	2731
833.437	2682
833.576	2701
833.714	2697
833.852	2758
833.991	2731
834.129	2811
834.267	2830
834.406	2815
834.544	2826
834.682	2868
834.821	2864
834.959	3032
835.097	2868
835.235	3024
835.373	2990
835.511	2998
835.65	2918
835.788	2967
835.926	2849
836.064	2807
836.202	2830
836.34	3058
836.478	3169
836.615	3032
836.753	3123
836.891	3203
837.029	3180
837.167	3085
837.305	3028
837.443	3055
837.58	2956
837.718	3104
837.856	3039
837.993	3032
838.131	3127
838.269	3093
838.406	3119
838.544	3070
838.681	2910
838.819	2906
838.956	2838
839.094	2834
839.231	2891
839.369	3009
839.506	3321
839.643	3188
839.781	3009
839.918	2933
840.055	3070
840.193	3055
840.33	3062
840.467	3123
840.604	3146
840.742	3382
840.879	3028
841.016	3017
841.153	3085
841.29	3348
841.427	3268
841.564	3249
841.701	3291
841.838	3207
841.975	3154
842.112	3233
842.249	3081
842.385	3043
842.522	3245
842.659	3039
842.796	3039
842.933	3104
843.069	3077
843.206	3039
843.343	3150
843.479	3104
843.616	3176
843.752	2857
843.889	2880
844.025	3089
844.162	2883
844.298	3062
844.435	2933
844.571	2933
844.708	3077
844.844	3157
844.98	3233
845.117	3169
845.253	3051
845.389	3024
845.525	3093
845.661	3089
845.798	2960
845.934	3135
846.07	3055
846.206	3226
846.342	3344
846.478	3207
846.614	3081
846.75	3024
846.886	3013
847.022	3218
847.158	3123
847.294	3214
847.429	3222
847.565	3192
847.701	3477
847.837	3017
847.972	2982
848.108	3127
848.244	3116
848.379	3009
848.515	2960
848.65	2929
848.786	2941
848.921	2986
849.057	3100
849.192	3135
849.328	3066
849.463	3100
849.598	3058
849.734	3051
849.869	2952
850.004	2929
850.14	2960
850.275	2910
850.41	2838
850.545	2883
850.68	2906
850.815	2963
850.95	2925
851.085	3176
851.22	3108
851.355	3013
851.49	2975
851.625	3017
851.76	3036
851.895	2941
852.03	2895
852.165	3081
852.299	3074
852.434	3157
852.569	3157
852.703	3176
852.838	3264
852.973	3298
853.107	3310
853.242	3146
853.376	3089
853.511	2929
853.645	3047
853.78	3253
853.914	3089
854.048	3100
854.183	3104
854.317	3146
854.451	3279
854.585	3116
854.72	3074
854.854	3237
854.988	3047
855.122	3089
855.256	2937
855.39	3142
855.524	3230
855.658	3199
855.792	3142
855.926	3176
856.06	3237
856.194	3249
856.327	3180
856.461	3116
856.595	3089
856.729	3070
856.862	3218
856.996	3165
857.13	3161
857.263	3233
857.397	3245
857.53	3093
857.664	3199
857.797	3233
857.931	3211
858.064	3176
858.197	3199
858.331	3100
858.464	3081
858.597	3028
858.731	3100
858.864	3077
858.997	3055
859.13	3138
859.263	3154
859.396	3157
859.529	3093
859.662	3085
859.795	3055
859.928	3119
860.061	3279
860.194	3317
860.327	3135
860.46	3070
860.592	3214
860.725	3218
860.858	3218
860.99	3100
861.123	3043
861.256	3039
861.388	3127
861.521	3675
861.653	3032
861.786	3001
861.918	2990
862.05	3077
862.183	3070
862.315	3127
862.447	3146
862.58	3077
862.712	2948
862.844	2880
862.976	3001
863.108	2979
863.24	3340
863.372	2857
863.504	2952
863.636	2902
863.768	3036
863.9	2982
864.032	2922
864.164	2937
864.296	3017
864.428	3085
864.559	3085
864.691	3062
864.823	3043
864.954	3020
865.086	3058
865.217	2967
865.349	2979
865.48	2948
865.612	3032
865.743	3150
865.875	3001
866.006	2918
866.137	2952
866.269	2937
866.4	2906
866.531	2925
866.662	2914
866.793	2880
866.924	2853
867.055	2979
867.186	2929
867.317	2864
867.448	2811
867.579	2842
867.71	2853
867.841	2804
867.972	2880
868.103	2922
868.233	2887
868.364	2861
868.495	2883
868.625	3070
868.756	3169
868.886	2982
869.017	3036
869.147	3165
869.278	3150
869.408	3036
869.539	2998
869.669	3127
869.799	3039
869.929	3146
870.06	3093
870.19	3294
870.32	3260
870.45	3291
870.58	3344
870.71	3424
870.84	3424
870.97	3302
871.1	3241
871.23	3477
871.36	3443
871.489	3317
871.619	3435
871.749	3386
871.879	3450
872.008	3473
872.138	3363
872.267	3279
872.397	3176
872.526	3119
872.656	2967
872.785	3077
872.915	3233
873.044	3310
873.173	3211
873.303	3260
873.432	3245
873.561	3264
873.69	3188
873.819	3169
873.948	3211
874.077	3131
874.206	3055
874.335	3085
874.464	3211
874.593	3306
874.722	3226
874.851	3397
874.979	3325
875.108	3336
875.237	3169
875.365	3146
875.494	3165
875.623	3226
875.751	3093
875.88	3070
876.008	3165
876.136	3218
876.265	3382
876.393	3504
876.521	3393
876.65	3348
876.778	3325
876.906	3279
877.034	3218
877.162	3218
877.29	3184
877.418	3264
877.546	3222
877.674	3230
877.802	3249
877.93	3226
878.058	3131
878.185	3074
878.313	3211
878.441	3207
878.568	3077
878.696	3176
878.824	3241
878.951	3291
879.079	3416
879.206	3587
879.333	3412
879.461	3272
879.588	3348
879.715	3469
879.842	3599
879.97	3351
880.097	3173
880.224	3108
880.351	3195
880.478	3222
880.605	3195
880.732	3195
880.859	3466
880.986	3306
881.112	3325
881.239	3176
881.366	3077
881.493	3058
881.619	3024
881.746	3077
881.872	3047
881.999	3108
882.125	3108
882.252	3237
882.378	3283
882.505	3412
882.631	3237
882.757	3131
882.883	3214
883.01	3275
883.136	3138
883.262	3112
883.388	3116
883.514	3302
883.64	3336
883.766	3291
883.892	3218
884.018	3199
884.143	3416
884.269	3492
884.395	3222
884.52	3123
884.646	3180
884.772	3131
884.897	3089
885.023	3176
885.148	3310
885.274	3409
885.399	3359
885.524	3275
885.65	3207
885.775	3298
885.9	3226
886.025	3389
886.15	3374
886.275	3272
886.4	3218
886.525	3279
886.65	3272
886.775	3302
886.9	3504
887.025	3667
887.149	3393
887.274	3245
887.399	3192
887.523	3195
887.648	3188
887.773	3176
887.897	3374
888.021	3386
888.146	3294
888.27	3435
888.395	3526
888.519	3431
888.643	3439
888.767	3485
888.891	3294
889.015	3256
889.139	3313
889.263	3214
889.387	3405
889.511	3530
889.635	3420
889.759	3272
889.883	3272
890.006	3416
890.13	3454
890.254	3294
890.377	3329
890.501	3165
890.624	3188
890.748	3287
890.871	3157
890.995	3066
891.118	3077
891.241	3203
891.364	3245
891.488	3336
891.611	3146
891.734	3241
891.857	3268
891.98	3253
892.103	3310
892.226	3325
892.349	3192
892.471	3100
892.594	3237
892.717	3256
892.839	3272
892.962	3279
893.085	3393
893.207	3272
893.33	3146
893.452	3169
893.575	3351
893.697	3268
893.819	3443
893.941	3466
894.064	3424
894.186	3241
894.308	3253
894.43	3401
894.552	3542
894.674	3488
894.796	3249
894.918	3310
895.04	3298
895.161	3439
895.283	3344
895.405	3355
895.526	3351
895.648	3424
895.769	3435
895.891	3454
896.012	3488
896.134	3454
896.255	3435
896.376	3378
896.498	3363
896.619	3412
896.74	3367
896.861	3412
896.982	3671
897.103	3869
897.224	3564
897.345	3511
897.466	3435
897.587	3477
897.708	3606
897.828	3511
897.949	3435
898.07	3313
898.19	3435
898.311	3599
898.431	3439
898.552	3454
898.672	3572
898.792	3625
898.913	3511
899.033	3409
899.153	3264
899.273	3192
899.393	3287
899.513	3302
899.633	3317
899.753	3317
899.873	3332
899.993	3344
900.113	3332
900.232	3367
900.352	3340
900.472	3275
900.591	3157
900.711	3310
900.83	3279
900.95	3393
901.069	3492
901.189	3332
901.308	3195
901.427	3135
901.546	3165
901.665	3298
901.784	3340
901.904	3192
902.023	3154
902.141	3043
902.26	3005
902.379	3150
902.498	3081
902.617	3058
902.735	3218
902.854	3233
902.973	3188
903.091	3074
903.21	3077
903.328	3146
903.446	3127
903.565	3150
903.683	3214
903.801	3123
903.919	3249
904.038	3256
904.156	3169
904.274	3279
904.392	3230
904.51	3287
904.627	3348
904.745	3386
904.863	3469
904.981	3291
905.098	3192
905.216	3241
905.334	3329
905.451	3329
905.569	3283
905.686	3450
905.803	3420
905.921	3283
906.038	3420
906.155	3351
906.272	3291
906.389	3298
906.506	3195
906.623	3256
906.74	3272
906.857	3150
906.974	3275
907.091	3424
907.208	3572
907.324	3447
907.441	3378
907.557	3230
907.674	3203
907.79	3192
907.907	3283
908.023	3386
908.139	3370
908.256	3306
908.372	3374
908.488	3367
908.604	3237
908.72	3237
908.836	3226
908.952	3260
909.068	3355
909.184	3454
909.3	3370
909.415	3511
909.531	3458
909.647	3294
909.762	3294
909.878	3272
909.993	3340
910.108	3351
910.224	3321
910.339	3439
910.454	3336
910.57	3283
910.685	3214
910.8	3587
910.915	3504
911.03	3439
911.145	3256
911.259	3275
911.374	3321
911.489	3279
911.604	3245
911.718	3138
911.833	3112
911.947	3009
912.062	3005
912.176	3157
912.291	3218
912.405	3218
912.519	3382
912.633	3485
912.748	3359
912.862	3287
912.976	3161
913.09	3051
913.204	3127
913.318	3195
913.431	3329
913.545	3355
913.659	3409
913.772	3317
913.886	3245
914	3237
914.113	3351
914.226	3412
914.34	3370
914.453	3199
914.566	3416
914.68	3298
914.793	3306
914.906	3119
915.019	3066
915.132	3070
915.245	3161
915.358	3203
915.47	3199
915.583	3226
915.696	3260
915.809	3405
915.921	3416
916.034	3291
916.146	3214
916.259	3222
916.371	3420
916.483	3359
916.595	3268
916.708	3294
916.82	3317
916.932	3317
917.044	3348
917.156	3355
917.268	3249
917.38	3283
917.491	3294
917.603	3374
917.715	3458
917.826	3443
917.938	3355
918.049	3268
918.161	3431
918.272	3545
918.384	3568
918.495	3458
918.606	3313
918.717	3233
918.828	3420
918.939	3416
919.05	3294
919.161	3359
919.272	3188
919.383	3279
919.494	3515
919.604	3690
919.715	3473
919.826	3424
919.936	3447
920.047	3610
920.157	3557
920.267	3736
920.378	3648
920.488	3568
920.598	3781
920.708	3968
920.818	3842
920.928	3831
921.038	3994
921.148	3941
921.258	3686
921.368	3591
921.477	3584
921.587	3534
921.697	3500
921.806	3637
921.916	3466
922.025	3367
922.134	3344
922.244	3325
922.353	3412
922.462	3260
922.571	3226
922.68	3097
922.789	3085
922.898	3135
923.007	3108
923.116	3207
923.224	3154
923.333	3203
923.442	3066
923.55	3104
923.659	3146
923.767	3184
923.876	3154
923.984	3264
924.092	3108
924.201	3165
924.309	3211
924.417	3237
924.525	3173
924.633	3241
924.741	3983
924.849	3032
924.956	3256
925.064	3112
925.172	3028
925.279	3093
925.387	3161
925.494	3207
925.602	3344
925.709	3325
925.816	3207
925.924	3283
926.031	3386
926.138	3321
926.245	3351
926.352	3233
926.459	3431
926.566	3466
926.673	3355
926.779	3264
926.886	3237
926.993	3135
927.099	3127
927.206	3097
927.312	3131
927.419	3214
927.525	3214
927.631	3245
927.737	3131
927.843	3142
927.95	3051
928.056	3127
928.162	3169
928.267	3302
928.373	3873
928.479	3283
928.585	3058
928.69	3241
928.796	3253
928.901	3165
929.007	3043
929.112	3230
929.218	3203
929.323	3157
929.428	3135
929.533	3279
929.638	3104
929.743	3146
929.848	3260
929.953	3230
930.058	3112
930.163	2998
930.267	3047
930.372	3218
930.477	3058
930.581	3317
930.685	3173
930.79	3028
930.894	3085
930.998	3112
931.103	3275
931.207	2963
931.311	2952
931.415	2925
931.519	2705
931.623	2800
