Data from test_V78500241_1899.txt Node
Date: Fri Mar 25 16:28:21 CST 2022
User: usil
Spectrometer: V785-0024
Trigger mode: 0
Integration Time (sec): 4.000000E-1
Scans to average: 1
Nonlinearity correction enabled: false
Boxcar width: 0
Storing dark spectrum: false
XAxis mode: Wavelengths
Number of Pixels in Spectrum: 1024
>>>>>Begin Spectral Data<<<<<
801.071	2960
801.214	2941
801.356	2842
801.499	2895
801.641	2876
801.783	2941
801.926	3066
802.068	2979
802.211	2990
802.353	3055
802.496	2971
802.638	2994
802.78	3020
802.923	3051
803.065	2979
803.208	2914
803.35	2929
803.492	2956
803.635	2925
803.777	2758
803.919	2857
804.061	3199
804.204	2944
804.346	2906
804.488	2834
804.63	2971
804.773	2899
804.915	2929
805.057	3066
805.199	2956
805.341	2937
805.483	3028
805.626	3024
805.768	2952
805.91	3089
806.052	3074
806.194	3024
806.336	3237
806.478	3001
806.62	2956
806.762	2971
806.904	3020
807.046	3157
807.188	2994
807.33	2895
807.472	2982
807.614	2899
807.756	2956
807.898	2960
808.04	2925
808.182	2960
808.324	2956
808.465	2899
808.607	2891
808.749	2804
808.891	2845
809.033	2982
809.174	2967
809.316	2868
809.458	2899
809.6	2754
809.741	2773
809.883	2750
810.025	2861
810.166	2849
810.308	2834
810.45	2845
810.591	2785
810.733	2785
810.875	2849
811.016	2762
811.158	2750
811.299	2845
811.441	2925
811.582	2880
811.724	2823
811.865	2838
812.007	2891
812.148	2834
812.29	2857
812.431	2887
812.573	2967
812.714	2906
812.855	3039
812.997	3074
813.138	3131
813.279	2998
813.421	2990
813.562	2933
813.703	2857
813.845	2887
813.986	2766
814.127	2712
814.268	2804
814.41	2838
814.551	2788
814.692	2910
814.833	2781
814.974	2902
815.115	2937
815.256	2807
815.397	2815
815.539	2864
815.68	2777
815.821	2804
815.962	2933
816.103	2956
816.244	2868
816.385	2872
816.526	2979
816.666	2891
816.807	2743
816.948	2872
817.089	2918
817.23	2842
817.371	2777
817.512	2769
817.653	2845
817.793	2796
817.934	2876
818.075	2941
818.216	2944
818.356	3058
818.497	2902
818.638	2773
818.778	2800
818.919	2792
819.06	2773
819.2	2830
819.341	2777
819.481	2766
819.622	2902
819.762	3074
819.903	3020
820.043	2914
820.184	2941
820.324	2910
820.465	3020
820.605	2982
820.746	3039
820.886	2941
821.026	3123
821.167	3123
821.307	3245
821.447	3291
821.588	3256
821.728	3192
821.868	3161
822.008	3066
822.149	3161
822.289	3256
822.429	3066
822.569	3097
822.709	3154
822.849	3020
822.99	3058
823.13	3150
823.27	3184
823.41	3077
823.55	3104
823.69	3135
823.83	3180
823.97	3123
824.11	2963
824.25	2967
824.389	3062
824.529	3119
824.669	3009
824.809	3169
824.949	3214
825.089	3188
825.228	3157
825.368	2998
825.508	2960
825.648	2925
825.787	3005
825.927	3001
826.067	2948
826.206	2967
826.346	3013
826.485	3024
826.625	3112
826.765	3264
826.904	3203
827.044	2979
827.183	2925
827.323	2868
827.462	3001
827.601	2872
827.741	2941
827.88	2933
828.02	2857
828.159	2971
828.298	3017
828.437	3097
828.577	3055
828.716	3214
828.855	3066
828.994	2925
829.134	2876
829.273	2925
829.412	2910
829.551	2838
829.69	2914
829.829	3005
829.968	3116
830.107	3001
830.246	3028
830.385	2933
830.524	2883
830.663	2807
830.802	2731
830.941	2674
831.08	2655
831.219	2720
831.357	2769
831.496	2918
831.635	2678
831.774	2636
831.913	2621
832.051	2545
832.19	2571
832.329	2712
832.467	2541
832.606	2473
832.744	2571
832.883	2587
833.022	2590
833.16	2644
833.299	2708
833.437	2667
833.576	2731
833.714	2708
833.852	2724
833.991	2731
834.129	2842
834.267	2815
834.406	2777
834.544	2853
834.682	2868
834.821	2845
834.959	3028
835.097	2895
835.235	3032
835.373	2986
835.511	3009
835.65	2975
835.788	2918
835.926	2834
836.064	2788
836.202	2823
836.34	3093
836.478	3127
836.615	3051
836.753	3100
836.891	3195
837.029	3135
837.167	3116
837.305	3066
837.443	2975
837.58	2925
837.718	3108
837.856	3070
837.993	3013
838.131	3081
838.269	3097
838.406	3100
838.544	3100
838.681	2933
838.819	2906
838.956	2796
839.094	2815
839.231	2937
839.369	2994
839.506	3389
839.643	3203
839.781	3013
839.918	2960
840.055	3043
840.193	3047
840.33	3047
840.467	3058
840.604	3154
840.742	3397
840.879	3043
841.016	3032
841.153	3100
841.29	3298
841.427	3279
841.564	3237
841.701	3294
841.838	3214
841.975	3203
842.112	3203
842.249	3062
842.385	3028
842.522	3226
842.659	3062
842.796	3036
842.933	3116
843.069	3055
843.206	2998
843.343	3180
843.479	3135
843.616	3150
843.752	2895
843.889	2849
844.025	3074
844.162	2845
844.298	3017
844.435	2948
844.571	2899
844.708	3051
844.844	3188
844.98	3283
845.117	3169
845.253	3089
845.389	2979
845.525	3093
845.661	3093
845.798	3039
845.934	3116
846.07	3058
846.206	3207
846.342	3298
846.478	3199
846.614	3081
846.75	3074
846.886	3024
847.022	3222
847.158	3112
847.294	3157
847.429	3249
847.565	3222
847.701	3458
847.837	3032
847.972	2986
848.108	3127
848.244	3142
848.379	2952
848.515	2952
848.65	2956
848.786	2925
848.921	2990
849.057	3097
849.192	3131
849.328	3032
849.463	3074
849.598	3062
849.734	3024
849.869	2967
850.004	2887
850.14	2933
850.275	2891
850.41	2853
850.545	2918
850.68	2895
850.815	2956
850.95	2952
851.085	3195
851.22	3070
851.355	3020
851.49	2990
851.625	3013
851.76	2994
851.895	2941
852.03	2872
852.165	3024
852.299	3104
852.434	3165
852.569	3138
852.703	3180
852.838	3268
852.973	3329
853.107	3302
853.242	3169
853.376	3097
853.511	2963
853.645	3032
853.78	3222
853.914	3077
854.048	3146
854.183	3085
854.317	3116
854.451	3272
854.585	3097
854.72	3100
854.854	3207
854.988	3005
855.122	3077
855.256	2941
855.39	3135
855.524	3211
855.658	3150
855.792	3127
855.926	3146
856.06	3199
856.194	3268
856.327	3161
856.461	3039
856.595	3093
856.729	3119
856.862	3176
856.996	3135
857.13	3214
857.263	3184
857.397	3275
857.53	3097
857.664	3157
857.797	3279
857.931	3253
858.064	3173
858.197	3184
858.331	3108
858.464	3089
858.597	2952
858.731	3108
858.864	3116
858.997	3055
859.13	3138
859.263	3184
859.396	3192
859.529	3089
859.662	3062
859.795	3013
859.928	3135
860.061	3237
860.194	3256
860.327	3119
860.46	3055
860.592	3233
860.725	3245
860.858	3245
860.99	3097
861.123	3043
861.256	3020
861.388	3097
861.521	3846
861.653	3009
861.786	2967
861.918	2979
862.05	3039
862.183	3070
862.315	3142
862.447	3188
862.58	3074
862.712	2952
862.844	2861
862.976	2994
863.108	3020
863.24	3287
863.372	2887
863.504	2910
863.636	2929
863.768	3036
863.9	2963
864.032	2883
864.164	2952
864.296	2982
864.428	3062
864.559	3093
864.691	3066
864.823	3051
864.954	3032
865.086	3036
865.217	2975
865.349	2918
865.48	2952
865.612	3001
865.743	3116
865.875	2963
866.006	2922
866.137	2933
866.269	2922
866.4	2929
866.531	2925
866.662	2861
866.793	2876
866.924	2929
867.055	2933
867.186	2944
867.317	2876
867.448	2819
867.579	2815
867.71	2845
867.841	2819
867.972	2914
868.103	2902
868.233	2849
868.364	2849
868.495	2891
868.625	3081
868.756	3135
868.886	2944
869.017	3001
869.147	3123
869.278	3169
869.408	3009
869.539	2979
869.669	3097
869.799	2986
869.929	3116
870.06	3058
870.19	3287
870.32	3241
870.45	3310
870.58	3317
870.71	3401
870.84	3443
870.97	3272
871.1	3260
871.23	3504
871.36	3466
871.489	3382
871.619	3386
871.749	3386
871.879	3466
872.008	3458
872.138	3355
872.267	3275
872.397	3127
872.526	3112
872.656	3051
872.785	3074
872.915	3275
873.044	3355
873.173	3230
873.303	3275
873.432	3237
873.561	3214
873.69	3165
873.819	3150
873.948	3237
874.077	3131
874.206	3062
874.335	3146
874.464	3241
874.593	3397
874.722	3241
874.851	3412
874.979	3370
875.108	3336
875.237	3256
875.365	3161
875.494	3173
875.623	3298
875.751	3123
875.88	3157
876.008	3222
876.136	3287
876.265	3355
876.393	3561
876.521	3447
876.65	3405
876.778	3382
876.906	3283
877.034	3256
877.162	3283
877.29	3211
877.418	3272
877.546	3264
877.674	3260
877.802	3264
877.93	3291
878.058	3192
878.185	3127
878.313	3237
878.441	3214
878.568	3100
878.696	3195
878.824	3294
878.951	3321
879.079	3507
879.206	3663
879.333	3469
879.461	3367
879.588	3344
879.715	3530
879.842	3599
879.97	3401
880.097	3192
880.224	3184
880.351	3218
880.478	3241
880.605	3264
880.732	3241
880.859	3545
880.986	3321
881.112	3355
881.239	3245
881.366	3116
881.493	3085
881.619	3051
881.746	3081
881.872	3108
881.999	3188
882.125	3154
882.252	3291
882.378	3321
882.505	3450
882.631	3317
882.757	3199
882.883	3275
883.01	3260
883.136	3188
883.262	3131
883.388	3131
883.514	3374
883.64	3382
883.766	3329
883.892	3230
884.018	3241
884.143	3447
884.269	3595
884.395	3260
884.52	3199
884.646	3222
884.772	3180
884.897	3127
885.023	3237
885.148	3348
885.274	3428
885.399	3412
885.524	3313
885.65	3287
885.775	3370
885.9	3336
886.025	3469
886.15	3420
886.275	3317
886.4	3283
886.525	3348
886.65	3336
886.775	3321
886.9	3526
887.025	3671
887.149	3431
887.274	3283
887.399	3207
887.523	3241
887.648	3237
887.773	3214
887.897	3393
888.021	3428
888.146	3310
888.27	3435
888.395	3557
888.519	3435
888.643	3458
888.767	3462
888.891	3348
889.015	3272
889.139	3287
889.263	3260
889.387	3416
889.511	3523
889.635	3458
889.759	3306
889.883	3321
890.006	3386
890.13	3511
890.254	3298
890.377	3382
890.501	3237
890.624	3199
890.748	3329
890.871	3165
890.995	3146
891.118	3070
891.241	3249
891.364	3218
891.488	3348
891.611	3199
891.734	3233
891.857	3291
891.98	3245
892.103	3370
892.226	3302
892.349	3230
892.471	3119
892.594	3268
892.717	3287
892.839	3325
892.962	3329
893.085	3393
893.207	3313
893.33	3222
893.452	3207
893.575	3374
893.697	3321
893.819	3462
893.941	3511
894.064	3488
894.186	3313
894.308	3287
894.43	3511
894.552	3572
894.674	3492
894.796	3298
894.918	3332
895.04	3313
895.161	3450
895.283	3420
895.405	3302
895.526	3374
895.648	3435
895.769	3473
895.891	3443
896.012	3511
896.134	3435
896.255	3416
896.376	3416
896.498	3397
896.619	3469
896.74	3374
896.861	3439
896.982	3713
897.103	3888
897.224	3629
897.345	3542
897.466	3477
897.587	3511
897.708	3637
897.828	3568
897.949	3473
898.07	3382
898.19	3473
898.311	3610
898.431	3496
898.552	3542
898.672	3622
898.792	3606
898.913	3564
899.033	3431
899.153	3332
899.273	3249
899.393	3313
899.513	3344
899.633	3355
899.753	3386
899.873	3370
899.993	3378
900.113	3386
900.232	3424
900.352	3351
900.472	3283
900.591	3253
900.711	3351
900.83	3268
900.95	3477
901.069	3530
901.189	3329
901.308	3203
901.427	3161
901.546	3188
901.665	3321
901.784	3351
901.904	3218
902.023	3138
902.141	3058
902.26	3032
902.379	3165
902.498	3081
902.617	3085
902.735	3214
902.854	3279
902.973	3214
903.091	3108
903.21	3112
903.328	3180
903.446	3119
903.565	3108
903.683	3256
903.801	3180
903.919	3294
904.038	3317
904.156	3169
904.274	3332
904.392	3283
904.51	3306
904.627	3332
904.745	3488
904.863	3564
904.981	3298
905.098	3199
905.216	3222
905.334	3329
905.451	3351
905.569	3321
905.686	3462
905.803	3507
905.921	3325
906.038	3447
906.155	3363
906.272	3279
906.389	3367
906.506	3230
906.623	3310
906.74	3291
906.857	3203
906.974	3283
907.091	3454
907.208	3614
907.324	3507
907.441	3409
907.557	3249
907.674	3253
907.79	3268
907.907	3302
908.023	3389
908.139	3424
908.256	3351
908.372	3397
908.488	3348
908.604	3283
908.72	3306
908.836	3310
908.952	3321
909.068	3348
909.184	3496
909.3	3409
909.415	3515
909.531	3507
909.647	3283
909.762	3321
909.878	3253
909.993	3409
910.108	3344
910.224	3378
910.339	3439
910.454	3386
910.57	3310
910.685	3253
910.8	3603
910.915	3587
911.03	3458
911.145	3302
911.259	3268
911.374	3321
911.489	3237
911.604	3268
911.718	3176
911.833	3157
911.947	3051
912.062	3001
912.176	3161
912.291	3230
912.405	3237
912.519	3435
912.633	3492
912.748	3351
912.862	3237
912.976	3192
913.09	3074
913.204	3131
913.318	3268
913.431	3382
913.545	3348
913.659	3412
913.772	3386
913.886	3268
914	3230
914.113	3348
914.226	3515
914.34	3397
914.453	3222
914.566	3447
914.68	3317
914.793	3336
914.906	3161
915.019	3157
915.132	3108
915.245	3195
915.358	3245
915.47	3230
915.583	3317
915.696	3317
915.809	3409
915.921	3439
916.034	3310
916.146	3302
916.259	3199
916.371	3409
916.483	3405
916.595	3260
916.708	3420
916.82	3370
916.932	3367
917.044	3389
917.156	3386
917.268	3260
917.38	3336
917.491	3340
917.603	3363
917.715	3454
917.826	3504
917.938	3439
918.049	3287
918.161	3431
918.272	3568
918.384	3584
918.495	3496
918.606	3332
918.717	3291
918.828	3401
918.939	3416
919.05	3306
919.161	3378
919.272	3184
919.383	3317
919.494	3553
919.604	3663
919.715	3507
919.826	3416
919.936	3477
920.047	3618
920.157	3595
920.267	3755
920.378	3644
920.488	3572
920.598	3804
920.708	3956
920.818	3800
920.928	3899
921.038	4048
921.148	3987
921.258	3766
921.368	3667
921.477	3610
921.587	3553
921.697	3454
921.806	3603
921.916	3519
922.025	3355
922.134	3412
922.244	3348
922.353	3454
922.462	3306
922.571	3264
922.68	3104
922.789	3116
922.898	3150
923.007	3138
923.116	3222
923.224	3188
923.333	3188
923.442	3157
923.55	3070
923.659	3203
923.767	3245
923.876	3154
923.984	3268
924.092	3127
924.201	3222
924.309	3207
924.417	3291
924.525	3192
924.633	3256
924.741	4032
924.849	3043
924.956	3272
925.064	3093
925.172	3051
925.279	3138
925.387	3203
925.494	3199
925.602	3386
925.709	3370
925.816	3199
925.924	3321
926.031	3412
926.138	3336
926.245	3363
926.352	3268
926.459	3431
926.566	3504
926.673	3374
926.779	3222
926.886	3249
926.993	3195
927.099	3135
927.206	3104
927.312	3138
927.419	3245
927.525	3211
927.631	3291
927.737	3157
927.843	3142
927.95	3077
928.056	3154
928.162	3176
928.267	3260
928.373	3907
928.479	3279
928.585	3081
928.69	3230
928.796	3310
928.901	3142
929.007	3077
929.112	3222
929.218	3173
929.323	3131
929.428	3192
929.533	3291
929.638	3142
929.743	3184
929.848	3245
929.953	3230
930.058	3135
930.163	3039
930.267	3047
930.372	3237
930.477	3058
930.581	3367
930.685	3165
930.79	3051
930.894	3142
930.998	3089
931.103	3283
931.207	2986
931.311	2941
931.415	2952
931.519	2754
931.623	2849
