Data from test_V78500241_2026.txt Node
Date: Fri Mar 25 16:29:14 CST 2022
User: usil
Spectrometer: V785-0024
Trigger mode: 0
Integration Time (sec): 4.000000E-1
Scans to average: 1
Nonlinearity correction enabled: false
Boxcar width: 0
Storing dark spectrum: false
XAxis mode: Wavelengths
Number of Pixels in Spectrum: 1024
>>>>>Begin Spectral Data<<<<<
801.071	2880
801.214	2922
801.356	2864
801.499	2895
801.641	2883
801.783	2956
801.926	3009
802.068	2963
802.211	2998
802.353	3009
802.496	2986
802.638	3013
802.78	3043
802.923	3070
803.065	2998
803.208	2899
803.35	2891
803.492	2910
803.635	2910
803.777	2750
803.919	2861
804.061	3176
804.204	2963
804.346	2941
804.488	2823
804.63	2982
804.773	2826
804.915	2883
805.057	3055
805.199	2883
805.341	2937
805.483	3028
805.626	3001
805.768	2937
805.91	3028
806.052	3097
806.194	3005
806.336	3214
806.478	3028
806.62	2956
806.762	2952
806.904	3032
807.046	3173
807.188	2998
807.33	2887
807.472	2929
807.614	2906
807.756	2925
807.898	2925
808.04	2887
808.182	2963
808.324	2956
808.465	2899
808.607	2857
808.749	2754
808.891	2834
809.033	3009
809.174	2929
809.316	2891
809.458	2883
809.6	2743
809.741	2781
809.883	2754
810.025	2815
810.166	2826
810.308	2834
810.45	2857
810.591	2754
810.733	2777
810.875	2800
811.016	2792
811.158	2746
811.299	2788
811.441	2929
811.582	2887
811.724	2819
811.865	2826
812.007	2880
812.148	2842
812.29	2857
812.431	2868
812.573	2914
812.714	2990
812.855	3039
812.997	3055
813.138	3089
813.279	2956
813.421	2944
813.562	2960
813.703	2849
813.845	2849
813.986	2785
814.127	2712
814.268	2804
814.41	2823
814.551	2777
814.692	2872
814.833	2781
814.974	2914
815.115	2941
815.256	2838
815.397	2819
815.539	2853
815.68	2785
815.821	2807
815.962	2933
816.103	2952
816.244	2880
816.385	2861
816.526	2975
816.666	2891
816.807	2739
816.948	2864
817.089	2876
817.23	2842
817.371	2781
817.512	2804
817.653	2815
817.793	2826
817.934	2849
818.075	2956
818.216	2982
818.356	3043
818.497	2868
818.638	2800
818.778	2815
818.919	2766
819.06	2750
819.2	2876
819.341	2800
819.481	2804
819.622	2914
819.762	3058
819.903	3055
820.043	2952
820.184	2887
820.324	2891
820.465	3020
820.605	3001
820.746	3024
820.886	2952
821.026	3104
821.167	3157
821.307	3241
821.447	3249
821.588	3241
821.728	3180
821.868	3150
822.008	3047
822.149	3131
822.289	3249
822.429	3100
822.569	3062
822.709	3154
822.849	3001
822.99	3051
823.13	3161
823.27	3161
823.41	3116
823.55	3142
823.69	3131
823.83	3199
823.97	3108
824.11	3017
824.25	2979
824.389	3051
824.529	3089
824.669	3074
824.809	3165
824.949	3249
825.089	3188
825.228	3146
825.368	2982
825.508	2918
825.648	2963
825.787	2998
825.927	2994
826.067	2975
826.206	2925
826.346	3055
826.485	3039
826.625	3104
826.765	3249
826.904	3150
827.044	3009
827.183	2914
827.323	2857
827.462	2990
827.601	2849
827.741	2872
827.88	2963
828.02	2842
828.159	3013
828.298	3055
828.437	3077
828.577	3009
828.716	3230
828.855	3077
828.994	2914
829.134	2861
829.273	2929
829.412	2899
829.551	2861
829.69	2880
829.829	2982
829.968	3135
830.107	3013
830.246	3001
830.385	2895
830.524	2857
830.663	2811
830.802	2705
830.941	2663
831.08	2610
831.219	2758
831.357	2758
831.496	2937
831.635	2693
831.774	2651
831.913	2640
832.051	2537
832.19	2575
832.329	2663
832.467	2518
832.606	2450
832.744	2560
832.883	2590
833.022	2613
833.16	2632
833.299	2678
833.437	2678
833.576	2689
833.714	2750
833.852	2727
833.991	2766
834.129	2845
834.267	2792
834.406	2773
834.544	2876
834.682	2857
834.821	2849
834.959	3093
835.097	2849
835.235	3085
835.373	2971
835.511	3001
835.65	2952
835.788	2944
835.926	2838
836.064	2788
836.202	2826
836.34	3066
836.478	3093
836.615	3013
836.753	3093
836.891	3207
837.029	3165
837.167	3074
837.305	3036
837.443	3005
837.58	2922
837.718	3093
837.856	3070
837.993	3017
838.131	3070
838.269	3112
838.406	3028
838.544	3062
838.681	2872
838.819	2902
838.956	2781
839.094	2811
839.231	2910
839.369	3009
839.506	3367
839.643	3199
839.781	3013
839.918	2941
840.055	3066
840.193	3001
840.33	3055
840.467	3074
840.604	3135
840.742	3397
840.879	3039
841.016	3039
841.153	3085
841.29	3298
841.427	3317
841.564	3306
841.701	3268
841.838	3207
841.975	3150
842.112	3192
842.249	3074
842.385	3020
842.522	3264
842.659	3070
842.796	3070
842.933	3074
843.069	3001
843.206	3024
843.343	3199
843.479	3081
843.616	3173
843.752	2910
843.889	2842
844.025	3051
844.162	2891
844.298	3043
844.435	2925
844.571	2876
844.708	3062
844.844	3180
844.98	3207
845.117	3119
845.253	3020
845.389	2994
845.525	3028
845.661	3051
845.798	2982
845.934	3085
846.07	3028
846.206	3222
846.342	3283
846.478	3180
846.614	3058
846.75	3039
846.886	3020
847.022	3207
847.158	3093
847.294	3195
847.429	3245
847.565	3150
847.701	3492
847.837	3036
847.972	2986
848.108	3119
848.244	3112
848.379	2971
848.515	2918
848.65	2910
848.786	2960
848.921	3009
849.057	3097
849.192	3157
849.328	3100
849.463	3150
849.598	3074
849.734	3001
849.869	2960
850.004	2937
850.14	2918
850.275	2887
850.41	2815
850.545	2910
850.68	2933
850.815	2979
850.95	2967
851.085	3180
851.22	3116
851.355	3058
851.49	2982
851.625	3001
851.76	3009
851.895	2944
852.03	2925
852.165	3036
852.299	3127
852.434	3207
852.569	3180
852.703	3154
852.838	3245
852.973	3344
853.107	3291
853.242	3214
853.376	3093
853.511	3005
853.645	3066
853.78	3264
853.914	3173
854.048	3127
854.183	3123
854.317	3207
854.451	3332
854.585	3112
854.72	3119
854.854	3291
854.988	3074
855.122	3131
855.256	3066
855.39	3142
855.524	3291
855.658	3222
855.792	3169
855.926	3226
856.06	3203
856.194	3298
856.327	3176
856.461	3093
856.595	3093
856.729	3112
856.862	3260
856.996	3146
857.13	3260
857.263	3241
857.397	3310
857.53	3154
857.664	3192
857.797	3253
857.931	3298
858.064	3195
858.197	3203
858.331	3192
858.464	3112
858.597	3020
858.731	3146
858.864	3188
858.997	3112
859.13	3218
859.263	3211
859.396	3241
859.529	3131
859.662	3104
859.795	3070
859.928	3203
860.061	3336
860.194	3310
860.327	3150
860.46	3093
860.592	3291
860.725	3268
860.858	3283
860.99	3150
861.123	3070
861.256	3093
861.388	3195
861.521	3842
861.653	3085
861.786	2994
861.918	3051
862.05	3135
862.183	3131
862.315	3211
862.447	3230
862.58	3161
862.712	2982
862.844	2902
862.976	3043
863.108	2990
863.24	3351
863.372	2925
863.504	2967
863.636	2971
863.768	3081
863.9	3020
864.032	2918
864.164	2956
864.296	3039
864.428	3108
864.559	3116
864.691	3081
864.823	3093
864.954	3051
865.086	3077
865.217	3043
865.349	2994
865.48	3013
865.612	3047
865.743	3180
865.875	2990
866.006	2994
866.137	3032
866.269	2952
866.4	2960
866.531	2937
866.662	2925
866.793	2918
866.924	2960
867.055	2986
867.186	2944
867.317	2944
867.448	2853
867.579	2868
867.71	2853
867.841	2845
867.972	2918
868.103	2929
868.233	2941
868.364	2876
868.495	2941
868.625	3097
868.756	3184
868.886	2971
869.017	3005
869.147	3207
869.278	3165
869.408	3085
869.539	3062
869.669	3131
869.799	3020
869.929	3165
870.06	3146
870.19	3370
870.32	3283
870.45	3321
870.58	3378
870.71	3500
870.84	3435
870.97	3275
871.1	3260
871.23	3469
871.36	3454
871.489	3389
871.619	3428
871.749	3424
871.879	3466
872.008	3496
872.138	3374
872.267	3332
872.397	3184
872.526	3123
872.656	3024
872.785	3104
872.915	3241
873.044	3336
873.173	3222
873.303	3264
873.432	3287
873.561	3264
873.69	3195
873.819	3199
873.948	3211
874.077	3119
874.206	3089
874.335	3100
874.464	3226
874.593	3340
874.722	3272
874.851	3409
874.979	3348
875.108	3291
875.237	3272
875.365	3203
875.494	3161
875.623	3291
875.751	3108
875.88	3100
876.008	3192
876.136	3245
876.265	3416
876.393	3530
876.521	3435
876.65	3431
876.778	3351
876.906	3256
877.034	3233
877.162	3268
877.29	3214
877.418	3275
877.546	3260
877.674	3287
877.802	3279
877.93	3230
878.058	3161
878.185	3138
878.313	3211
878.441	3253
878.568	3108
878.696	3161
878.824	3256
878.951	3370
879.079	3473
879.206	3660
879.333	3488
879.461	3359
879.588	3359
879.715	3549
879.842	3572
879.97	3416
880.097	3184
880.224	3161
880.351	3192
880.478	3260
880.605	3230
880.732	3214
880.859	3477
880.986	3340
881.112	3332
881.239	3199
881.366	3127
881.493	3047
881.619	3047
881.746	3116
881.872	3108
881.999	3142
882.125	3184
882.252	3279
882.378	3298
882.505	3439
882.631	3302
882.757	3154
882.883	3230
883.01	3264
883.136	3169
883.262	3085
883.388	3100
883.514	3329
883.64	3374
883.766	3355
883.892	3230
884.018	3268
884.143	3431
884.269	3587
884.395	3230
884.52	3195
884.646	3230
884.772	3154
884.897	3116
885.023	3230
885.148	3355
885.274	3439
885.399	3401
885.524	3310
885.65	3306
885.775	3355
885.9	3283
886.025	3424
886.15	3359
886.275	3340
886.4	3249
886.525	3344
886.65	3302
886.775	3302
886.9	3523
887.025	3675
887.149	3420
887.274	3283
887.399	3214
887.523	3245
887.648	3233
887.773	3237
887.897	3397
888.021	3443
888.146	3321
888.27	3450
888.395	3561
888.519	3462
888.643	3485
888.767	3504
888.891	3325
889.015	3272
889.139	3329
889.263	3245
889.387	3458
889.511	3545
889.635	3447
889.759	3291
889.883	3355
890.006	3431
890.13	3469
890.254	3272
890.377	3374
890.501	3230
890.624	3180
890.748	3321
890.871	3161
890.995	3146
891.118	3104
891.241	3192
891.364	3237
891.488	3378
891.611	3230
891.734	3218
891.857	3329
891.98	3264
892.103	3393
892.226	3287
892.349	3195
892.471	3123
892.594	3237
892.717	3348
892.839	3291
892.962	3283
893.085	3386
893.207	3317
893.33	3161
893.452	3211
893.575	3374
893.697	3268
893.819	3473
893.941	3549
894.064	3469
894.186	3241
894.308	3275
894.43	3424
894.552	3576
894.674	3534
894.796	3287
894.918	3279
895.04	3313
895.161	3428
895.283	3382
895.405	3363
895.526	3412
895.648	3431
895.769	3454
895.891	3454
896.012	3485
896.134	3511
896.255	3447
896.376	3428
896.498	3397
896.619	3466
896.74	3378
896.861	3424
896.982	3686
897.103	3812
897.224	3561
897.345	3511
897.466	3431
897.587	3507
897.708	3629
897.828	3530
897.949	3462
898.07	3348
898.19	3454
898.311	3648
898.431	3447
898.552	3553
898.672	3572
898.792	3595
898.913	3564
899.033	3389
899.153	3321
899.273	3237
899.393	3272
899.513	3325
899.633	3340
899.753	3355
899.873	3340
899.993	3424
900.113	3355
900.232	3409
900.352	3306
900.472	3325
900.591	3214
900.711	3313
900.83	3260
900.95	3416
901.069	3492
901.189	3355
901.308	3207
901.427	3169
901.546	3157
901.665	3332
901.784	3363
901.904	3230
902.023	3188
902.141	3009
902.26	3013
902.379	3173
902.498	3085
902.617	3055
902.735	3199
902.854	3249
902.973	3211
903.091	3108
903.21	3070
903.328	3169
903.446	3173
903.565	3119
903.683	3222
903.801	3184
903.919	3256
904.038	3336
904.156	3180
904.274	3291
904.392	3275
904.51	3283
904.627	3321
904.745	3481
904.863	3511
904.981	3283
905.098	3138
905.216	3256
905.334	3302
905.451	3294
905.569	3306
905.686	3412
905.803	3454
905.921	3317
906.038	3485
906.155	3363
906.272	3287
906.389	3355
906.506	3230
906.623	3226
906.74	3272
906.857	3218
906.974	3291
907.091	3466
907.208	3587
907.324	3477
907.441	3386
907.557	3256
907.674	3226
907.79	3241
907.907	3283
908.023	3420
908.139	3389
908.256	3336
908.372	3397
908.488	3393
908.604	3237
908.72	3241
908.836	3317
908.952	3287
909.068	3370
909.184	3485
909.3	3393
909.415	3492
909.531	3511
909.647	3279
909.762	3348
909.878	3256
909.993	3386
910.108	3321
910.224	3351
910.339	3412
910.454	3336
910.57	3291
910.685	3268
910.8	3606
910.915	3530
911.03	3420
911.145	3268
911.259	3272
911.374	3351
911.489	3233
911.604	3264
911.718	3157
911.833	3161
911.947	3081
912.062	2975
912.176	3184
912.291	3218
912.405	3199
912.519	3378
912.633	3439
912.748	3336
912.862	3287
912.976	3195
913.09	3066
913.204	3154
913.318	3226
913.431	3355
913.545	3351
913.659	3416
913.772	3313
913.886	3256
914	3214
914.113	3355
914.226	3466
914.34	3359
914.453	3245
914.566	3405
914.68	3291
914.793	3306
914.906	3135
915.019	3093
915.132	3070
915.245	3211
915.358	3195
915.47	3237
915.583	3275
915.696	3268
915.809	3386
915.921	3405
916.034	3260
916.146	3310
916.259	3275
916.371	3405
916.483	3378
916.595	3306
916.708	3329
916.82	3325
916.932	3317
917.044	3317
917.156	3363
917.268	3279
917.38	3329
917.491	3336
917.603	3378
917.715	3435
917.826	3462
917.938	3412
918.049	3283
918.161	3447
918.272	3614
918.384	3530
918.495	3488
918.606	3351
918.717	3287
918.828	3386
918.939	3420
919.05	3355
919.161	3412
919.272	3218
919.383	3283
919.494	3507
919.604	3705
919.715	3530
919.826	3389
919.936	3477
920.047	3610
920.157	3576
920.267	3819
920.378	3671
920.488	3610
920.598	3838
920.708	4021
920.818	3842
920.928	3876
921.038	4055
921.148	4093
921.258	3724
921.368	3690
921.477	3584
921.587	3622
921.697	3488
921.806	3690
921.916	3534
922.025	3409
922.134	3424
922.244	3382
922.353	3416
922.462	3272
922.571	3313
922.68	3123
922.789	3097
922.898	3199
923.007	3138
923.116	3233
923.224	3222
923.333	3245
923.442	3104
923.55	3127
923.659	3233
923.767	3222
923.876	3138
923.984	3260
924.092	3146
924.201	3256
924.309	3291
924.417	3306
924.525	3226
924.633	3298
924.741	4200
924.849	3089
924.956	3313
925.064	3127
925.172	3093
925.279	3161
925.387	3241
925.494	3275
925.602	3374
925.709	3389
925.816	3222
925.924	3310
926.031	3420
926.138	3332
926.245	3370
926.352	3279
926.459	3462
926.566	3572
926.673	3329
926.779	3302
926.886	3306
926.993	3199
927.099	3154
927.206	3154
927.312	3195
927.419	3237
927.525	3203
927.631	3310
927.737	3180
927.843	3161
927.95	3066
928.056	3180
928.162	3222
928.267	3332
928.373	3949
928.479	3340
928.585	3100
928.69	3256
928.796	3306
928.901	3211
929.007	3097
929.112	3226
929.218	3211
929.323	3188
929.428	3165
929.533	3344
929.638	3127
929.743	3253
929.848	3287
929.953	3241
930.058	3203
930.163	3039
930.267	3062
930.372	3241
930.477	3051
930.581	3382
930.685	3195
930.79	3070
930.894	3157
930.998	3165
931.103	3351
931.207	3001
931.311	2982
931.415	2990
931.519	2823
931.623	2838
