Data from test_V78500241_1840.txt Node
Date: Fri Mar 25 16:27:57 CST 2022
User: usil
Spectrometer: V785-0024
Trigger mode: 0
Integration Time (sec): 4.000000E-1
Scans to average: 1
Nonlinearity correction enabled: false
Boxcar width: 0
Storing dark spectrum: false
XAxis mode: Wavelengths
Number of Pixels in Spectrum: 1024
>>>>>Begin Spectral Data<<<<<
801.071	2906
801.214	2933
801.356	2853
801.499	2834
801.641	2857
801.783	2906
801.926	3024
802.068	2963
802.211	2971
802.353	3028
802.496	2925
802.638	2963
802.78	3058
802.923	3058
803.065	3005
803.208	2887
803.35	2902
803.492	2933
803.635	2906
803.777	2739
803.919	2815
804.061	3165
804.204	2922
804.346	2868
804.488	2830
804.63	2941
804.773	2853
804.915	2857
805.057	3074
805.199	2906
805.341	2937
805.483	3001
805.626	2998
805.768	2941
805.91	3047
806.052	3116
806.194	3043
806.336	3226
806.478	3020
806.62	2956
806.762	2982
806.904	3036
807.046	3146
807.188	2963
807.33	2910
807.472	2971
807.614	2937
807.756	2979
807.898	2922
808.04	2853
808.182	2960
808.324	2937
808.465	2853
808.607	2845
808.749	2796
808.891	2819
809.033	2975
809.174	2979
809.316	2849
809.458	2838
809.6	2777
809.741	2804
809.883	2720
810.025	2804
810.166	2861
810.308	2823
810.45	2819
810.591	2769
810.733	2769
810.875	2838
811.016	2758
811.158	2743
811.299	2815
811.441	2899
811.582	2906
811.724	2838
811.865	2838
812.007	2887
812.148	2876
812.29	2845
812.431	2842
812.573	2944
812.714	2952
812.855	3070
812.997	3028
813.138	3100
813.279	3013
813.421	3001
813.562	2967
813.703	2826
813.845	2880
813.986	2769
814.127	2682
814.268	2796
814.41	2823
814.551	2800
814.692	2891
814.833	2800
814.974	2880
815.115	2960
815.256	2815
815.397	2807
815.539	2853
815.68	2766
815.821	2811
815.962	2929
816.103	2910
816.244	2838
816.385	2857
816.526	2952
816.666	2887
816.807	2727
816.948	2891
817.089	2925
817.23	2807
817.371	2766
817.512	2796
817.653	2819
817.793	2815
817.934	2883
818.075	2979
818.216	2975
818.356	3001
818.497	2853
818.638	2750
818.778	2826
818.919	2823
819.06	2769
819.2	2868
819.341	2811
819.481	2781
819.622	2872
819.762	3104
819.903	3024
820.043	2899
820.184	2861
820.324	2876
820.465	3009
820.605	3020
820.746	2986
820.886	2933
821.026	3081
821.167	3142
821.307	3260
821.447	3256
821.588	3192
821.728	3165
821.868	3192
822.008	3020
822.149	3138
822.289	3211
822.429	3085
822.569	3062
822.709	3188
822.849	2998
822.99	3085
823.13	3142
823.27	3173
823.41	3085
823.55	3138
823.69	3127
823.83	3180
823.97	3070
824.11	2998
824.25	2990
824.389	3043
824.529	3097
824.669	3020
824.809	3150
824.949	3222
825.089	3173
825.228	3108
825.368	2982
825.508	2975
825.648	2986
825.787	2994
825.927	3028
826.067	2948
826.206	2971
826.346	3043
826.485	3051
826.625	3097
826.765	3298
826.904	3184
827.044	3009
827.183	2933
827.323	2880
827.462	3028
827.601	2906
827.741	2948
827.88	2960
828.02	2880
828.159	2960
828.298	3039
828.437	3119
828.577	3020
828.716	3241
828.855	3070
828.994	2941
829.134	2922
829.273	2948
829.412	2883
829.551	2902
829.69	2941
829.829	3036
829.968	3169
830.107	3055
830.246	3062
830.385	2990
830.524	2918
830.663	2842
830.802	2769
830.941	2659
831.08	2686
831.219	2777
831.357	2781
831.496	2975
831.635	2773
831.774	2686
831.913	2686
832.051	2602
832.19	2625
832.329	2697
832.467	2583
832.606	2530
832.744	2594
832.883	2629
833.022	2602
833.16	2716
833.299	2682
833.437	2731
833.576	2750
833.714	2731
833.852	2766
833.991	2792
834.129	2876
834.267	2887
834.406	2857
834.544	2910
834.682	2899
834.821	2899
834.959	3066
835.097	2925
835.235	3089
835.373	3024
835.511	3036
835.65	3005
835.788	2975
835.926	2842
836.064	2857
836.202	2895
836.34	3116
836.478	3173
836.615	3039
836.753	3184
836.891	3207
837.029	3222
837.167	3123
837.305	3077
837.443	3074
837.58	2979
837.718	3146
837.856	3108
837.993	3070
838.131	3131
838.269	3142
838.406	3131
838.544	3108
838.681	2982
838.819	2925
838.956	2830
839.094	2861
839.231	2941
839.369	3055
839.506	3393
839.643	3230
839.781	3001
839.918	2994
840.055	3104
840.193	3047
840.33	3108
840.467	3154
840.604	3180
840.742	3431
840.879	3085
841.016	3074
841.153	3150
841.29	3393
841.427	3359
841.564	3275
841.701	3348
841.838	3268
841.975	3199
842.112	3245
842.249	3127
842.385	3070
842.522	3287
842.659	3116
842.796	3093
842.933	3100
843.069	3051
843.206	3055
843.343	3192
843.479	3112
843.616	3161
843.752	2910
843.889	2929
844.025	3119
844.162	2887
844.298	3150
844.435	2971
844.571	2929
844.708	3119
844.844	3180
844.98	3249
845.117	3207
845.253	3062
845.389	3032
845.525	3108
845.661	3165
845.798	3036
845.934	3146
846.07	3051
846.206	3272
846.342	3348
846.478	3245
846.614	3112
846.75	3085
846.886	3055
847.022	3241
847.158	3131
847.294	3218
847.429	3241
847.565	3222
847.701	3515
847.837	3028
847.972	3039
848.108	3176
848.244	3169
848.379	3058
848.515	2982
848.65	2933
848.786	2975
848.921	3017
849.057	3100
849.192	3195
849.328	3066
849.463	3203
849.598	3062
849.734	3081
849.869	2994
850.004	2929
850.14	2982
850.275	2952
850.41	2853
850.545	2922
850.68	2937
850.815	2975
850.95	2990
851.085	3192
851.22	3142
851.355	3058
851.49	3001
851.625	3039
851.76	3039
851.895	2971
852.03	2941
852.165	3058
852.299	3131
852.434	3211
852.569	3154
852.703	3211
852.838	3298
852.973	3363
853.107	3359
853.242	3188
853.376	3146
853.511	2998
853.645	3051
853.78	3260
853.914	3138
854.048	3135
854.183	3135
854.317	3173
854.451	3325
854.585	3161
854.72	3154
854.854	3192
854.988	3085
855.122	3093
855.256	3028
855.39	3146
855.524	3249
855.658	3207
855.792	3188
855.926	3195
856.06	3249
856.194	3325
856.327	3142
856.461	3051
856.595	3089
856.729	3116
856.862	3233
856.996	3169
857.13	3253
857.263	3249
857.397	3302
857.53	3127
857.664	3222
857.797	3245
857.931	3279
858.064	3222
858.197	3226
858.331	3150
858.464	3131
858.597	3009
858.731	3131
858.864	3150
858.997	3123
859.13	3195
859.263	3184
859.396	3207
859.529	3077
859.662	3089
859.795	3100
859.928	3142
860.061	3306
860.194	3332
860.327	3165
860.46	3112
860.592	3214
860.725	3317
860.858	3256
860.99	3173
861.123	3074
861.256	3077
861.388	3161
861.521	3823
861.653	3058
861.786	3017
861.918	3013
862.05	3123
862.183	3112
862.315	3142
862.447	3214
862.58	3089
862.712	2963
862.844	2891
862.976	3009
863.108	3024
863.24	3466
863.372	2914
863.504	3009
863.636	3009
863.768	3085
863.9	2986
864.032	2960
864.164	2971
864.296	3036
864.428	3108
864.559	3119
864.691	3077
864.823	3100
864.954	3051
865.086	3116
865.217	3009
865.349	2971
865.48	2990
865.612	3032
865.743	3176
865.875	3024
866.006	2971
866.137	3005
866.269	3001
866.4	2960
866.531	2925
866.662	2880
866.793	2929
866.924	2937
867.055	2990
867.186	2914
867.317	2880
867.448	2868
867.579	2849
867.71	2834
867.841	2857
867.972	2975
868.103	2944
868.233	2880
868.364	2895
868.495	2922
868.625	3116
868.756	3207
868.886	2979
869.017	3024
869.147	3173
869.278	3188
869.408	3055
869.539	3047
869.669	3131
869.799	3077
869.929	3169
870.06	3131
870.19	3351
870.32	3287
870.45	3291
870.58	3382
870.71	3488
870.84	3477
870.97	3336
871.1	3241
871.23	3492
871.36	3507
871.489	3355
871.619	3431
871.749	3424
871.879	3462
872.008	3473
872.138	3351
872.267	3279
872.397	3184
872.526	3100
872.656	3039
872.785	3085
872.915	3283
873.044	3340
873.173	3230
873.303	3260
873.432	3287
873.561	3233
873.69	3142
873.819	3146
873.948	3230
874.077	3127
874.206	3039
874.335	3135
874.464	3241
874.593	3367
874.722	3268
874.851	3428
874.979	3405
875.108	3313
875.237	3237
875.365	3199
875.494	3199
875.623	3256
875.751	3142
875.88	3112
876.008	3218
876.136	3237
876.265	3378
876.393	3557
876.521	3409
876.65	3389
876.778	3367
876.906	3226
877.034	3188
877.162	3264
877.29	3165
877.418	3268
877.546	3283
877.674	3272
877.802	3233
877.93	3272
878.058	3150
878.185	3104
878.313	3199
878.441	3218
878.568	3119
878.696	3127
878.824	3230
878.951	3332
879.079	3462
879.206	3637
879.333	3447
879.461	3329
879.588	3397
879.715	3507
879.842	3584
879.97	3405
880.097	3180
880.224	3146
880.351	3207
880.478	3260
880.605	3222
880.732	3203
880.859	3519
880.986	3340
881.112	3336
881.239	3222
881.366	3081
881.493	3047
881.619	3024
881.746	3112
881.872	3089
881.999	3157
882.125	3157
882.252	3268
882.378	3287
882.505	3409
882.631	3348
882.757	3169
882.883	3260
883.01	3230
883.136	3150
883.262	3131
883.388	3165
883.514	3317
883.64	3363
883.766	3302
883.892	3211
884.018	3256
884.143	3454
884.269	3564
884.395	3203
884.52	3207
884.646	3214
884.772	3146
884.897	3085
885.023	3222
885.148	3355
885.274	3412
885.399	3344
885.524	3264
885.65	3245
885.775	3313
885.9	3268
886.025	3443
886.15	3382
886.275	3275
886.4	3256
886.525	3291
886.65	3306
886.775	3283
886.9	3458
887.025	3660
887.149	3431
887.274	3283
887.399	3173
887.523	3249
887.648	3169
887.773	3222
887.897	3412
888.021	3450
888.146	3310
888.27	3466
888.395	3515
888.519	3450
888.643	3492
888.767	3504
888.891	3291
889.015	3260
889.139	3306
889.263	3279
889.387	3428
889.511	3561
889.635	3485
889.759	3291
889.883	3306
890.006	3397
890.13	3466
890.254	3283
890.377	3336
890.501	3237
890.624	3233
890.748	3313
890.871	3176
890.995	3112
891.118	3089
891.241	3195
891.364	3218
891.488	3367
891.611	3176
891.734	3192
891.857	3291
891.98	3313
892.103	3306
892.226	3336
892.349	3207
892.471	3100
892.594	3279
892.717	3298
892.839	3253
892.962	3264
893.085	3359
893.207	3317
893.33	3142
893.452	3203
893.575	3329
893.697	3275
893.819	3443
893.941	3523
894.064	3443
894.186	3302
894.308	3253
894.43	3454
894.552	3526
894.674	3500
894.796	3268
894.918	3359
895.04	3302
895.161	3443
895.283	3412
895.405	3332
895.526	3344
895.648	3409
895.769	3397
895.891	3462
896.012	3496
896.134	3492
896.255	3397
896.376	3359
896.498	3367
896.619	3393
896.74	3389
896.861	3412
896.982	3709
897.103	3816
897.224	3606
897.345	3523
897.466	3450
897.587	3526
897.708	3637
897.828	3530
897.949	3447
898.07	3302
898.19	3409
898.311	3572
898.431	3428
898.552	3515
898.672	3610
898.792	3618
898.913	3545
899.033	3443
899.153	3245
899.273	3237
899.393	3264
899.513	3370
899.633	3291
899.753	3359
899.873	3310
899.993	3355
900.113	3367
900.232	3405
900.352	3351
900.472	3321
900.591	3226
900.711	3321
900.83	3222
900.95	3454
901.069	3534
901.189	3344
901.308	3195
901.427	3119
901.546	3226
901.665	3283
901.784	3321
901.904	3230
902.023	3176
902.141	3036
902.26	3017
902.379	3154
902.498	3085
902.617	3070
902.735	3203
902.854	3283
902.973	3211
903.091	3039
903.21	3131
903.328	3176
903.446	3142
903.565	3142
903.683	3207
903.801	3176
903.919	3256
904.038	3321
904.156	3207
904.274	3329
904.392	3298
904.51	3317
904.627	3382
904.745	3481
904.863	3557
904.981	3367
905.098	3211
905.216	3237
905.334	3378
905.451	3329
905.569	3336
905.686	3462
905.803	3481
905.921	3329
906.038	3496
906.155	3397
906.272	3279
906.389	3389
906.506	3256
906.623	3329
906.74	3306
906.857	3253
906.974	3321
907.091	3488
907.208	3610
907.324	3523
907.441	3405
907.557	3272
907.674	3306
907.79	3237
907.907	3310
908.023	3420
908.139	3409
908.256	3355
908.372	3397
908.488	3416
908.604	3321
908.72	3275
908.836	3351
908.952	3317
909.068	3374
909.184	3523
909.3	3466
909.415	3519
909.531	3515
909.647	3317
909.762	3344
909.878	3291
909.993	3401
910.108	3393
910.224	3336
910.339	3431
910.454	3386
910.57	3382
910.685	3272
910.8	3595
910.915	3568
911.03	3458
911.145	3325
911.259	3298
911.374	3317
911.489	3317
911.604	3287
911.718	3169
911.833	3214
911.947	3070
912.062	3001
912.176	3214
912.291	3230
912.405	3283
912.519	3485
912.633	3515
912.748	3389
912.862	3298
912.976	3176
913.09	3108
913.204	3195
913.318	3264
913.431	3340
913.545	3431
913.659	3435
913.772	3367
913.886	3256
914	3245
914.113	3367
914.226	3447
914.34	3367
914.453	3256
914.566	3466
914.68	3287
914.793	3344
914.906	3176
915.019	3157
915.132	3119
915.245	3230
915.358	3230
915.47	3241
915.583	3313
915.696	3329
915.809	3412
915.921	3393
916.034	3249
916.146	3302
916.259	3260
916.371	3405
916.483	3412
916.595	3302
916.708	3416
916.82	3355
916.932	3344
917.044	3435
917.156	3420
917.268	3283
917.38	3329
917.491	3317
917.603	3386
917.715	3462
917.826	3519
917.938	3420
918.049	3287
918.161	3450
918.272	3572
918.384	3618
918.495	3526
918.606	3382
918.717	3302
918.828	3412
918.939	3458
919.05	3359
919.161	3409
919.272	3245
919.383	3321
919.494	3545
919.604	3717
919.715	3511
919.826	3424
919.936	3504
920.047	3625
920.157	3576
920.267	3831
920.378	3622
920.488	3595
920.598	3785
920.708	3972
920.818	3861
920.928	3869
921.038	4010
921.148	4021
921.258	3705
921.368	3648
921.477	3595
921.587	3610
921.697	3496
921.806	3667
921.916	3557
922.025	3412
922.134	3378
922.244	3359
922.353	3435
922.462	3298
922.571	3233
922.68	3108
922.789	3058
922.898	3150
923.007	3093
923.116	3211
923.224	3165
923.333	3203
923.442	3131
923.55	3146
923.659	3173
923.767	3275
923.876	3165
923.984	3230
924.092	3127
924.201	3253
924.309	3226
924.417	3321
924.525	3195
924.633	3287
924.741	4211
924.849	3100
924.956	3302
925.064	3112
925.172	3036
925.279	3131
925.387	3256
925.494	3233
925.602	3374
925.709	3348
925.816	3188
925.924	3329
926.031	3386
926.138	3329
926.245	3393
926.352	3325
926.459	3454
926.566	3496
926.673	3306
926.779	3268
926.886	3260
926.993	3173
927.099	3165
927.206	3161
927.312	3173
927.419	3230
927.525	3253
927.631	3291
927.737	3154
927.843	3150
927.95	3058
928.056	3165
928.162	3188
928.267	3275
928.373	3827
928.479	3336
928.585	3119
928.69	3211
928.796	3344
928.901	3211
929.007	3070
929.112	3233
929.218	3169
929.323	3165
929.428	3161
929.533	3310
929.638	3104
929.743	3207
929.848	3302
929.953	3272
930.058	3154
930.163	3024
930.267	3066
930.372	3233
930.477	3093
930.581	3329
930.685	3249
930.79	3097
930.894	3127
930.998	3131
931.103	3268
931.207	2982
931.311	2963
931.415	2986
931.519	2769
931.623	2838
