Data from test_V78500241_913.txt Node
Date: Fri Mar 25 16:21:31 CST 2022
User: usil
Spectrometer: V785-0024
Trigger mode: 0
Integration Time (sec): 4.000000E-1
Scans to average: 1
Nonlinearity correction enabled: false
Boxcar width: 0
Storing dark spectrum: false
XAxis mode: Wavelengths
Number of Pixels in Spectrum: 1024
>>>>>Begin Spectral Data<<<<<
801.071	2902
801.214	2963
801.356	2849
801.499	2899
801.641	2838
801.783	2979
801.926	3055
802.068	2979
802.211	2998
802.353	2998
802.496	2967
802.638	2990
802.78	3028
802.923	3062
803.065	2990
803.208	2914
803.35	2895
803.492	2944
803.635	2883
803.777	2750
803.919	2853
804.061	3199
804.204	2941
804.346	2933
804.488	2861
804.63	2971
804.773	2864
804.915	2895
805.057	3055
805.199	2918
805.341	2960
805.483	3036
805.626	3024
805.768	2975
805.91	3058
806.052	3097
806.194	3017
806.336	3203
806.478	3047
806.62	2929
806.762	2948
806.904	3036
807.046	3161
807.188	3013
807.33	2910
807.472	2990
807.614	2914
807.756	2967
807.898	2918
808.04	2849
808.182	2925
808.324	2944
808.465	2868
808.607	2872
808.749	2800
808.891	2842
809.033	2948
809.174	2933
809.316	2876
809.458	2906
809.6	2834
809.741	2750
809.883	2754
810.025	2815
810.166	2819
810.308	2819
810.45	2849
810.591	2754
810.733	2785
810.875	2830
811.016	2766
811.158	2762
811.299	2819
811.441	2956
811.582	2925
811.724	2838
811.865	2823
812.007	2883
812.148	2883
812.29	2849
812.431	2880
812.573	2941
812.714	2971
812.855	3024
812.997	3005
813.138	3116
813.279	3001
813.421	2948
813.562	2941
813.703	2910
813.845	2899
813.986	2743
814.127	2697
814.268	2842
814.41	2800
814.551	2800
814.692	2861
814.833	2781
814.974	2899
815.115	2933
815.256	2800
815.397	2800
815.539	2868
815.68	2720
815.821	2804
815.962	2929
816.103	2914
816.244	2891
816.385	2861
816.526	2971
816.666	2902
816.807	2769
816.948	2899
817.089	2941
817.23	2838
817.371	2785
817.512	2800
817.653	2868
817.793	2785
817.934	2864
818.075	2933
818.216	2990
818.356	2998
818.497	2876
818.638	2773
818.778	2796
818.919	2804
819.06	2735
819.2	2834
819.341	2785
819.481	2800
819.622	2918
819.762	3104
819.903	3047
820.043	2899
820.184	2899
820.324	2906
820.465	3013
820.605	2994
820.746	2963
820.886	2933
821.026	3039
821.167	3176
821.307	3226
821.447	3241
821.588	3230
821.728	3184
821.868	3161
822.008	3100
822.149	3180
822.289	3195
822.429	3089
822.569	3081
822.709	3157
822.849	3020
822.99	3062
823.13	3131
823.27	3169
823.41	3077
823.55	3112
823.69	3138
823.83	3165
823.97	3074
824.11	2994
824.25	2994
824.389	3066
824.529	3089
824.669	3066
824.809	3184
824.949	3237
825.089	3195
825.228	3150
825.368	3009
825.508	2922
825.648	2971
825.787	2990
825.927	3005
826.067	2967
826.206	2944
826.346	3055
826.485	3074
826.625	3119
826.765	3253
826.904	3173
827.044	2982
827.183	2876
827.323	2826
827.462	2967
827.601	2880
827.741	2906
827.88	2937
828.02	2845
828.159	2971
828.298	2971
828.437	3097
828.577	3028
828.716	3241
828.855	3081
828.994	2891
829.134	2922
829.273	2929
829.412	2864
829.551	2853
829.69	2925
829.829	3005
829.968	3116
830.107	3024
830.246	3013
830.385	2906
830.524	2853
830.663	2796
830.802	2739
830.941	2667
831.08	2651
831.219	2792
831.357	2762
831.496	2929
831.635	2746
831.774	2632
831.913	2655
832.051	2530
832.19	2556
832.329	2651
832.467	2549
832.606	2484
832.744	2552
832.883	2594
833.022	2549
833.16	2610
833.299	2678
833.437	2686
833.576	2678
833.714	2701
833.852	2720
833.991	2724
834.129	2834
834.267	2800
834.406	2758
834.544	2868
834.682	2872
834.821	2857
834.959	3047
835.097	2925
835.235	3036
835.373	2990
835.511	3001
835.65	2925
835.788	2944
835.926	2796
836.064	2769
836.202	2845
836.34	3100
836.478	3131
836.615	3055
836.753	3097
836.891	3195
837.029	3138
837.167	3077
837.305	3028
837.443	3066
837.58	2975
837.718	3119
837.856	3097
837.993	3036
838.131	3116
838.269	3081
838.406	3081
838.544	3074
838.681	2918
838.819	2868
838.956	2785
839.094	2819
839.231	2899
839.369	2998
839.506	3340
839.643	3222
839.781	3017
839.918	2914
840.055	3058
840.193	3047
840.33	3043
840.467	3077
840.604	3131
840.742	3382
840.879	3055
841.016	3009
841.153	3127
841.29	3336
841.427	3355
841.564	3260
841.701	3279
841.838	3195
841.975	3154
842.112	3230
842.249	3051
842.385	3036
842.522	3226
842.659	3089
842.796	3077
842.933	3104
843.069	3032
843.206	3058
843.343	3180
843.479	3116
843.616	3108
843.752	2895
843.889	2842
844.025	3074
844.162	2830
844.298	3043
844.435	2922
844.571	2891
844.708	3036
844.844	3146
844.98	3230
845.117	3176
845.253	3055
845.389	2967
845.525	3116
845.661	3066
845.798	2979
845.934	3062
846.07	3001
846.206	3203
846.342	3279
846.478	3226
846.614	3097
846.75	3024
846.886	2986
847.022	3226
847.158	3081
847.294	3233
847.429	3268
847.565	3169
847.701	3443
847.837	2990
847.972	3013
848.108	3119
848.244	3127
848.379	2960
848.515	2891
848.65	2895
848.786	2944
848.921	2975
849.057	3081
849.192	3112
849.328	3039
849.463	3116
849.598	3089
849.734	3058
849.869	2922
850.004	2925
850.14	2944
850.275	2902
850.41	2845
850.545	2887
850.68	2910
850.815	2929
850.95	2982
851.085	3157
851.22	3085
851.355	3043
851.49	2975
851.625	2979
851.76	3017
851.895	2899
852.03	2872
852.165	3024
852.299	3070
852.434	3127
852.569	3112
852.703	3161
852.838	3233
852.973	3287
853.107	3294
853.242	3150
853.376	3085
853.511	2952
853.645	3039
853.78	3230
853.914	3100
854.048	3112
854.183	3062
854.317	3127
854.451	3253
854.585	3119
854.72	3085
854.854	3211
854.988	3062
855.122	3093
855.256	2967
855.39	3085
855.524	3207
855.658	3131
855.792	3157
855.926	3211
856.06	3214
856.194	3222
856.327	3135
856.461	3062
856.595	3089
856.729	3055
856.862	3226
856.996	3195
857.13	3169
857.263	3176
857.397	3241
857.53	3123
857.664	3207
857.797	3249
857.931	3249
858.064	3165
858.197	3241
858.331	3150
858.464	3097
858.597	3036
858.731	3142
858.864	3150
858.997	3100
859.13	3154
859.263	3169
859.396	3218
859.529	3085
859.662	3089
859.795	3036
859.928	3165
860.061	3275
860.194	3313
860.327	3127
860.46	3085
860.592	3268
860.725	3294
860.858	3272
860.99	3142
861.123	3077
861.256	3077
861.388	3176
861.521	3865
861.653	3043
861.786	3013
861.918	3017
862.05	3119
862.183	3131
862.315	3176
862.447	3222
862.58	3108
862.712	2998
862.844	2918
862.976	3047
863.108	3055
863.24	3336
863.372	2902
863.504	2971
863.636	3005
863.768	3036
863.9	3032
864.032	2967
864.164	2960
864.296	3070
864.428	3135
864.559	3157
864.691	3089
864.823	3104
864.954	3051
865.086	3070
865.217	3051
865.349	2971
865.48	3039
865.612	3077
865.743	3161
865.875	3066
866.006	2971
866.137	3020
866.269	2956
866.4	2952
866.531	2956
866.662	2914
866.793	2902
866.924	2937
867.055	3009
867.186	2963
867.317	2906
867.448	2861
867.579	2883
867.71	2883
867.841	2868
867.972	2960
868.103	2952
868.233	2929
868.364	2902
868.495	2929
868.625	3058
868.756	3176
868.886	3005
869.017	3051
869.147	3211
869.278	3184
869.408	3093
869.539	3032
869.669	3142
869.799	3070
869.929	3195
870.06	3157
870.19	3329
870.32	3325
870.45	3321
870.58	3378
870.71	3485
870.84	3473
870.97	3287
871.1	3279
871.23	3511
871.36	3526
871.489	3359
871.619	3443
871.749	3439
871.879	3488
872.008	3530
872.138	3355
872.267	3272
872.397	3169
872.526	3127
872.656	3074
872.785	3157
872.915	3291
873.044	3325
873.173	3241
873.303	3268
873.432	3264
873.561	3237
873.69	3154
873.819	3199
873.948	3253
874.077	3127
874.206	3058
874.335	3089
874.464	3218
874.593	3367
874.722	3272
874.851	3389
874.979	3378
875.108	3370
875.237	3222
875.365	3207
875.494	3161
875.623	3245
875.751	3100
875.88	3093
876.008	3218
876.136	3249
876.265	3424
876.393	3561
876.521	3412
876.65	3416
876.778	3348
876.906	3260
877.034	3207
877.162	3237
877.29	3199
877.418	3294
877.546	3260
877.674	3272
877.802	3268
877.93	3233
878.058	3169
878.185	3142
878.313	3241
878.441	3226
878.568	3070
878.696	3161
878.824	3310
878.951	3306
879.079	3496
879.206	3606
879.333	3462
879.461	3348
879.588	3401
879.715	3458
879.842	3614
879.97	3382
880.097	3165
880.224	3157
880.351	3237
880.478	3260
880.605	3264
880.732	3207
880.859	3515
880.986	3351
881.112	3367
881.239	3226
881.366	3100
881.493	3100
881.619	3047
881.746	3108
881.872	3135
881.999	3108
882.125	3180
882.252	3260
882.378	3329
882.505	3443
882.631	3294
882.757	3203
882.883	3237
883.01	3275
883.136	3192
883.262	3150
883.388	3138
883.514	3355
883.64	3439
883.766	3329
883.892	3230
884.018	3241
884.143	3447
884.269	3523
884.395	3241
884.52	3195
884.646	3233
884.772	3165
884.897	3089
885.023	3211
885.148	3306
885.274	3462
885.399	3401
885.524	3291
885.65	3272
885.775	3348
885.9	3275
886.025	3435
886.15	3378
886.275	3348
886.4	3260
886.525	3325
886.65	3298
886.775	3313
886.9	3500
887.025	3663
887.149	3412
887.274	3279
887.399	3233
887.523	3241
887.648	3173
887.773	3207
887.897	3420
888.021	3424
888.146	3325
888.27	3439
888.395	3584
888.519	3466
888.643	3447
888.767	3477
888.891	3313
889.015	3275
889.139	3310
889.263	3294
889.387	3424
889.511	3519
889.635	3481
889.759	3340
889.883	3363
890.006	3447
890.13	3500
890.254	3287
890.377	3370
890.501	3222
890.624	3241
890.748	3367
890.871	3211
890.995	3123
891.118	3123
891.241	3222
891.364	3222
891.488	3374
891.611	3157
891.734	3268
891.857	3344
891.98	3230
892.103	3367
892.226	3321
892.349	3233
892.471	3119
892.594	3249
892.717	3279
892.839	3287
892.962	3332
893.085	3340
893.207	3313
893.33	3169
893.452	3226
893.575	3348
893.697	3279
893.819	3523
893.941	3488
894.064	3473
894.186	3294
894.308	3268
894.43	3458
894.552	3545
894.674	3576
894.796	3268
894.918	3340
895.04	3344
895.161	3485
895.283	3447
895.405	3359
895.526	3389
895.648	3439
895.769	3435
895.891	3443
896.012	3462
896.134	3481
896.255	3450
896.376	3405
896.498	3332
896.619	3496
896.74	3428
896.861	3454
896.982	3667
897.103	3907
897.224	3603
897.345	3545
897.466	3485
897.587	3519
897.708	3644
897.828	3576
897.949	3462
898.07	3389
898.19	3435
898.311	3641
898.431	3481
898.552	3526
898.672	3641
898.792	3622
898.913	3523
899.033	3462
899.153	3283
899.273	3260
899.393	3279
899.513	3317
899.633	3302
899.753	3424
899.873	3363
899.993	3367
900.113	3355
900.232	3458
900.352	3378
900.472	3310
900.591	3214
900.711	3332
900.83	3279
900.95	3435
901.069	3496
901.189	3344
901.308	3226
901.427	3116
901.546	3211
901.665	3332
901.784	3302
901.904	3233
902.023	3165
902.141	3051
902.26	3020
902.379	3188
902.498	3116
902.617	3085
902.735	3256
902.854	3275
902.973	3195
903.091	3093
903.21	3074
903.328	3176
903.446	3127
903.565	3100
903.683	3226
903.801	3188
903.919	3302
904.038	3313
904.156	3188
904.274	3279
904.392	3264
904.51	3294
904.627	3401
904.745	3481
904.863	3519
904.981	3199
905.098	3169
905.216	3249
905.334	3310
905.451	3329
905.569	3310
905.686	3412
905.803	3458
905.921	3317
906.038	3431
906.155	3363
906.272	3313
906.389	3348
906.506	3253
906.623	3287
906.74	3241
906.857	3249
906.974	3264
907.091	3462
907.208	3591
907.324	3507
907.441	3420
907.557	3256
907.674	3245
907.79	3195
907.907	3279
908.023	3420
908.139	3363
908.256	3348
908.372	3416
908.488	3367
908.604	3294
908.72	3302
908.836	3249
908.952	3272
909.068	3374
909.184	3511
909.3	3443
909.415	3526
909.531	3519
909.647	3302
909.762	3298
909.878	3272
909.993	3348
910.108	3359
910.224	3401
910.339	3431
910.454	3336
910.57	3325
910.685	3249
910.8	3618
910.915	3580
911.03	3405
911.145	3275
911.259	3268
911.374	3336
911.489	3287
911.604	3245
911.718	3085
911.833	3146
911.947	3051
912.062	3024
912.176	3211
912.291	3226
912.405	3230
912.519	3450
912.633	3492
912.748	3378
912.862	3313
912.976	3199
913.09	3062
913.204	3119
913.318	3233
913.431	3393
913.545	3332
913.659	3412
913.772	3348
913.886	3237
914	3169
914.113	3389
914.226	3439
914.34	3355
914.453	3214
914.566	3401
914.68	3325
914.793	3310
914.906	3142
915.019	3100
915.132	3093
915.245	3199
915.358	3180
915.47	3260
915.583	3321
915.696	3317
915.809	3439
915.921	3424
916.034	3241
916.146	3237
916.259	3237
916.371	3416
916.483	3397
916.595	3283
916.708	3401
916.82	3340
916.932	3336
917.044	3374
917.156	3370
917.268	3230
917.38	3264
917.491	3313
917.603	3435
917.715	3477
917.826	3485
917.938	3405
918.049	3310
918.161	3439
918.272	3591
918.384	3591
918.495	3500
918.606	3355
918.717	3268
918.828	3374
918.939	3420
919.05	3313
919.161	3412
919.272	3184
919.383	3260
919.494	3469
919.604	3701
919.715	3504
919.826	3412
919.936	3462
920.047	3576
920.157	3557
920.267	3766
920.378	3637
920.488	3603
920.598	3819
920.708	3956
920.818	3842
920.928	3816
921.038	4074
921.148	3983
921.258	3736
921.368	3637
921.477	3580
921.587	3576
921.697	3492
921.806	3644
921.916	3553
922.025	3374
922.134	3367
922.244	3321
922.353	3405
922.462	3260
922.571	3214
922.68	3070
922.789	3066
922.898	3142
923.007	3066
923.116	3233
923.224	3161
923.333	3214
923.442	3089
923.55	3055
923.659	3154
923.767	3195
923.876	3138
923.984	3222
924.092	3104
924.201	3218
924.309	3253
924.417	3272
924.525	3207
924.633	3222
924.741	4211
924.849	3058
924.956	3302
925.064	3085
925.172	3024
925.279	3112
925.387	3218
925.494	3256
925.602	3389
925.709	3363
925.816	3237
925.924	3332
926.031	3378
926.138	3329
926.245	3420
926.352	3302
926.459	3439
926.566	3511
926.673	3325
926.779	3310
926.886	3294
926.993	3211
927.099	3180
927.206	3142
927.312	3142
927.419	3241
927.525	3245
927.631	3321
927.737	3195
927.843	3161
927.95	3070
928.056	3207
928.162	3214
928.267	3275
928.373	3911
928.479	3321
928.585	3081
928.69	3268
928.796	3340
928.901	3218
929.007	3077
929.112	3233
929.218	3207
929.323	3199
929.428	3188
929.533	3336
929.638	3138
929.743	3211
929.848	3294
929.953	3279
930.058	3218
930.163	3051
930.267	3135
930.372	3237
930.477	3070
930.581	3332
930.685	3264
930.79	3100
930.894	3157
930.998	3173
931.103	3294
931.207	3005
931.311	2956
931.415	2956
931.519	2845
931.623	2834
