Data from test_V78500241_1053.txt Node
Date: Fri Mar 25 16:22:29 CST 2022
User: usil
Spectrometer: V785-0024
Trigger mode: 0
Integration Time (sec): 4.000000E-1
Scans to average: 1
Nonlinearity correction enabled: false
Boxcar width: 0
Storing dark spectrum: false
XAxis mode: Wavelengths
Number of Pixels in Spectrum: 1024
>>>>>Begin Spectral Data<<<<<
801.071	2922
801.214	2944
801.356	2880
801.499	2887
801.641	2868
801.783	2883
801.926	3077
802.068	3024
802.211	2967
802.353	2986
802.496	2941
802.638	2982
802.78	3032
802.923	3047
803.065	2998
803.208	2906
803.35	2914
803.492	2914
803.635	2941
803.777	2762
803.919	2876
804.061	3203
804.204	2975
804.346	2918
804.488	2845
804.63	2990
804.773	2842
804.915	2899
805.057	3074
805.199	2937
805.341	2960
805.483	3051
805.626	2986
805.768	2952
805.91	3051
806.052	3116
806.194	3055
806.336	3222
806.478	3028
806.62	2941
806.762	2971
806.904	3032
807.046	3142
807.188	2975
807.33	2902
807.472	2975
807.614	2891
807.756	2975
807.898	2899
808.04	2887
808.182	2967
808.324	2971
808.465	2891
808.607	2853
808.749	2788
808.891	2830
809.033	2971
809.174	2941
809.316	2883
809.458	2872
809.6	2762
809.741	2788
809.883	2788
810.025	2849
810.166	2868
810.308	2811
810.45	2845
810.591	2762
810.733	2800
810.875	2834
811.016	2731
811.158	2773
811.299	2804
811.441	2918
811.582	2891
811.724	2845
811.865	2815
812.007	2922
812.148	2902
812.29	2868
812.431	2876
812.573	2925
812.714	2956
812.855	3066
812.997	3047
813.138	3116
813.279	3024
813.421	2956
813.562	2971
813.703	2880
813.845	2899
813.986	2769
814.127	2701
814.268	2830
814.41	2834
814.551	2785
814.692	2906
814.833	2788
814.974	2838
815.115	2967
815.256	2842
815.397	2845
815.539	2834
815.68	2785
815.821	2785
815.962	2918
816.103	2925
816.244	2887
816.385	2857
816.526	2960
816.666	2899
816.807	2735
816.948	2880
817.089	2956
817.23	2845
817.371	2826
817.512	2792
817.653	2872
817.793	2826
817.934	2895
818.075	2933
818.216	2990
818.356	3055
818.497	2891
818.638	2792
818.778	2834
818.919	2815
819.06	2750
819.2	2880
819.341	2781
819.481	2773
819.622	2944
819.762	3100
819.903	3039
820.043	2902
820.184	2902
820.324	2902
820.465	3013
820.605	3001
820.746	3009
820.886	2960
821.026	3104
821.167	3211
821.307	3241
821.447	3302
821.588	3237
821.728	3203
821.868	3169
822.008	3055
822.149	3226
822.289	3237
822.429	3127
822.569	3100
822.709	3150
822.849	3017
822.99	3089
823.13	3135
823.27	3230
823.41	3116
823.55	3161
823.69	3138
823.83	3173
823.97	3070
824.11	2998
824.25	2971
824.389	3074
824.529	3085
824.669	3039
824.809	3218
824.949	3264
825.089	3195
825.228	3154
825.368	2975
825.508	2948
825.648	2982
825.787	2994
825.927	3013
826.067	2956
826.206	2979
826.346	3043
826.485	3077
826.625	3104
826.765	3272
826.904	3199
827.044	2967
827.183	2883
827.323	2834
827.462	2975
827.601	2937
827.741	2933
827.88	2944
828.02	2815
828.159	2960
828.298	3036
828.437	3138
828.577	3020
828.716	3253
828.855	3047
828.994	2948
829.134	2902
829.273	2918
829.412	2864
829.551	2845
829.69	2906
829.829	2979
829.968	3157
830.107	3028
830.246	3024
830.385	2918
830.524	2887
830.663	2804
830.802	2705
830.941	2659
831.08	2629
831.219	2792
831.357	2731
831.496	2937
831.635	2701
831.774	2651
831.913	2632
832.051	2533
832.19	2560
832.329	2689
832.467	2492
832.606	2507
832.744	2560
832.883	2594
833.022	2571
833.16	2655
833.299	2689
833.437	2697
833.576	2708
833.714	2682
833.852	2720
833.991	2777
834.129	2868
834.267	2819
834.406	2743
834.544	2880
834.682	2868
834.821	2868
834.959	3039
835.097	2880
835.235	3058
835.373	2937
835.511	3005
835.65	2975
835.788	2963
835.926	2834
836.064	2796
836.202	2834
836.34	3070
836.478	3112
836.615	3077
836.753	3127
836.891	3192
837.029	3169
837.167	3100
837.305	3055
837.443	3032
837.58	2937
837.718	3131
837.856	3047
837.993	3017
838.131	3074
838.269	3123
838.406	3108
838.544	3074
838.681	2952
838.819	2906
838.956	2804
839.094	2834
839.231	2914
839.369	3020
839.506	3348
839.643	3207
839.781	3024
839.918	2944
840.055	3062
840.193	3036
840.33	3032
840.467	3047
840.604	3123
840.742	3405
840.879	3039
841.016	3055
841.153	3104
841.29	3332
841.427	3317
841.564	3279
841.701	3294
841.838	3165
841.975	3135
842.112	3169
842.249	3066
842.385	3009
842.522	3249
842.659	3085
842.796	3058
842.933	3100
843.069	3028
843.206	3058
843.343	3184
843.479	3108
843.616	3116
843.752	2883
843.889	2861
844.025	3055
844.162	2861
844.298	3089
844.435	2948
844.571	2902
844.708	3066
844.844	3188
844.98	3241
845.117	3173
845.253	3058
845.389	2975
845.525	3081
845.661	3081
845.798	3005
845.934	3077
846.07	3062
846.206	3207
846.342	3321
846.478	3214
846.614	3051
846.75	3039
846.886	3055
847.022	3230
847.158	3131
847.294	3211
847.429	3230
847.565	3218
847.701	3496
847.837	3009
847.972	2967
848.108	3138
848.244	3127
848.379	2952
848.515	2922
848.65	2914
848.786	2944
848.921	2986
849.057	3043
849.192	3146
849.328	3097
849.463	3081
849.598	3077
849.734	3066
849.869	2952
850.004	2918
850.14	2975
850.275	2906
850.41	2834
850.545	2887
850.68	2937
850.815	2956
850.95	2990
851.085	3169
851.22	3104
851.355	3005
851.49	2975
851.625	3013
851.76	3017
851.895	2929
852.03	2948
852.165	3013
852.299	3119
852.434	3180
852.569	3161
852.703	3192
852.838	3260
852.973	3317
853.107	3355
853.242	3127
853.376	3097
853.511	2998
853.645	3066
853.78	3253
853.914	3154
854.048	3138
854.183	3085
854.317	3150
854.451	3298
854.585	3161
854.72	3093
854.854	3211
854.988	3024
855.122	3123
855.256	2956
855.39	3112
855.524	3260
855.658	3188
855.792	3154
855.926	3195
856.06	3211
856.194	3256
856.327	3100
856.461	3043
856.595	3081
856.729	3108
856.862	3211
856.996	3112
857.13	3199
857.263	3272
857.397	3260
857.53	3142
857.664	3211
857.797	3222
857.931	3298
858.064	3199
858.197	3199
858.331	3123
858.464	3089
858.597	3009
858.731	3097
858.864	3104
858.997	3074
859.13	3157
859.263	3157
859.396	3180
859.529	3070
859.662	3039
859.795	3108
859.928	3157
860.061	3256
860.194	3272
860.327	3123
860.46	3100
860.592	3233
860.725	3272
860.858	3245
860.99	3138
861.123	3074
861.256	3074
861.388	3119
861.521	3789
861.653	3024
861.786	2956
861.918	2990
862.05	3047
862.183	3062
862.315	3154
862.447	3203
862.58	3135
862.712	2963
862.844	2876
862.976	2994
863.108	2994
863.24	3435
863.372	2861
863.504	2971
863.636	2925
863.768	3005
863.9	3001
864.032	2922
864.164	2918
864.296	3036
864.428	3089
864.559	3112
864.691	3070
864.823	3036
864.954	3013
865.086	3017
865.217	2986
865.349	2956
865.48	2990
865.612	3047
865.743	3142
865.875	2982
866.006	2922
866.137	2956
866.269	2925
866.4	2914
866.531	2891
866.662	2887
866.793	2899
866.924	2815
867.055	2941
867.186	2918
867.317	2906
867.448	2815
867.579	2849
867.71	2838
867.841	2807
867.972	2887
868.103	2910
868.233	2853
868.364	2861
868.495	2902
868.625	3127
868.756	3173
868.886	2933
869.017	2986
869.147	3165
869.278	3146
869.408	3074
869.539	3039
869.669	3097
869.799	3055
869.929	3135
870.06	3104
870.19	3298
870.32	3294
870.45	3264
870.58	3359
870.71	3462
870.84	3428
870.97	3256
871.1	3230
871.23	3488
871.36	3488
871.489	3344
871.619	3378
871.749	3424
871.879	3450
872.008	3473
872.138	3340
872.267	3291
872.397	3157
872.526	3062
872.656	3036
872.785	3077
872.915	3211
873.044	3317
873.173	3275
873.303	3268
873.432	3230
873.561	3222
873.69	3157
873.819	3184
873.948	3169
874.077	3055
874.206	3017
874.335	3074
874.464	3253
874.593	3344
874.722	3226
874.851	3389
874.979	3348
875.108	3298
875.237	3211
875.365	3135
875.494	3188
875.623	3237
875.751	3108
875.88	3089
876.008	3211
876.136	3226
876.265	3344
876.393	3492
876.521	3397
876.65	3378
876.778	3275
876.906	3256
877.034	3199
877.162	3214
877.29	3199
877.418	3233
877.546	3260
877.674	3268
877.802	3245
877.93	3207
878.058	3180
878.185	3089
878.313	3199
878.441	3199
878.568	3058
878.696	3142
878.824	3230
878.951	3302
879.079	3466
879.206	3625
879.333	3431
879.461	3370
879.588	3317
879.715	3485
879.842	3538
879.97	3401
880.097	3142
880.224	3123
880.351	3154
880.478	3214
880.605	3222
880.732	3192
880.859	3507
880.986	3272
881.112	3321
881.239	3165
881.366	3093
881.493	3013
881.619	3032
881.746	3077
881.872	3093
881.999	3085
882.125	3154
882.252	3214
882.378	3260
882.505	3424
882.631	3287
882.757	3142
882.883	3241
883.01	3222
883.136	3157
883.262	3062
883.388	3138
883.514	3287
883.64	3355
883.766	3302
883.892	3226
884.018	3260
884.143	3412
884.269	3496
884.395	3192
884.52	3199
884.646	3199
884.772	3127
884.897	3127
885.023	3218
885.148	3325
885.274	3397
885.399	3363
885.524	3283
885.65	3233
885.775	3321
885.9	3272
886.025	3397
886.15	3325
886.275	3272
886.4	3268
886.525	3310
886.65	3287
886.775	3272
886.9	3515
887.025	3629
887.149	3397
887.274	3233
887.399	3188
887.523	3192
887.648	3169
887.773	3199
887.897	3359
888.021	3382
888.146	3287
888.27	3420
888.395	3545
888.519	3443
888.643	3473
888.767	3458
888.891	3332
889.015	3237
889.139	3279
889.263	3226
889.387	3443
889.511	3530
889.635	3473
889.759	3291
889.883	3275
890.006	3416
890.13	3507
890.254	3260
890.377	3329
890.501	3230
890.624	3218
890.748	3275
890.871	3154
890.995	3070
891.118	3051
891.241	3165
891.364	3249
891.488	3294
891.611	3142
891.734	3264
891.857	3253
891.98	3222
892.103	3329
892.226	3260
892.349	3222
892.471	3097
892.594	3195
892.717	3310
892.839	3310
892.962	3310
893.085	3355
893.207	3275
893.33	3184
893.452	3203
893.575	3340
893.697	3253
893.819	3450
893.941	3485
894.064	3443
894.186	3264
894.308	3249
894.43	3428
894.552	3534
894.674	3466
894.796	3264
894.918	3329
895.04	3272
895.161	3428
895.283	3363
895.405	3310
895.526	3355
895.648	3405
895.769	3428
895.891	3447
896.012	3488
896.134	3443
896.255	3435
896.376	3374
896.498	3359
896.619	3389
896.74	3367
896.861	3393
896.982	3690
897.103	3827
897.224	3614
897.345	3507
897.466	3409
897.587	3515
897.708	3603
897.828	3542
897.949	3447
898.07	3313
898.19	3435
898.311	3595
898.431	3450
898.552	3477
898.672	3587
898.792	3542
898.913	3504
899.033	3439
899.153	3287
899.273	3188
899.393	3283
899.513	3344
899.633	3325
899.753	3310
899.873	3302
899.993	3336
900.113	3313
900.232	3351
900.352	3374
900.472	3260
900.591	3222
900.711	3279
900.83	3237
900.95	3401
901.069	3519
901.189	3355
901.308	3135
901.427	3112
901.546	3199
901.665	3268
901.784	3336
901.904	3192
902.023	3176
902.141	3017
902.26	2952
902.379	3157
902.498	3058
902.617	3032
902.735	3203
902.854	3241
902.973	3154
903.091	3001
903.21	3104
903.328	3112
903.446	3108
903.565	3074
903.683	3180
903.801	3108
903.919	3226
904.038	3279
904.156	3176
904.274	3287
904.392	3264
904.51	3325
904.627	3370
904.745	3439
904.863	3492
904.981	3245
905.098	3157
905.216	3260
905.334	3313
905.451	3329
905.569	3298
905.686	3416
905.803	3454
905.921	3256
906.038	3439
906.155	3340
906.272	3275
906.389	3344
906.506	3249
906.623	3260
906.74	3241
906.857	3195
906.974	3260
907.091	3454
907.208	3561
907.324	3462
907.441	3359
907.557	3241
907.674	3214
907.79	3184
907.907	3302
908.023	3386
908.139	3363
908.256	3268
908.372	3378
908.488	3370
908.604	3260
908.72	3245
908.836	3253
908.952	3291
909.068	3359
909.184	3481
909.3	3401
909.415	3466
909.531	3466
909.647	3256
909.762	3241
909.878	3237
909.993	3386
910.108	3325
910.224	3351
910.339	3393
910.454	3340
910.57	3298
910.685	3241
910.8	3584
910.915	3511
911.03	3431
911.145	3275
911.259	3260
911.374	3302
911.489	3249
911.604	3226
911.718	3131
911.833	3135
911.947	3017
912.062	2986
912.176	3150
912.291	3173
912.405	3199
912.519	3431
912.633	3454
912.748	3306
912.862	3237
912.976	3180
913.09	3024
913.204	3135
913.318	3222
913.431	3313
913.545	3332
913.659	3401
913.772	3325
913.886	3207
914	3176
914.113	3332
914.226	3367
914.34	3332
914.453	3218
914.566	3439
914.68	3317
914.793	3310
914.906	3154
915.019	3104
915.132	3058
915.245	3146
915.358	3211
915.47	3241
915.583	3264
915.696	3310
915.809	3401
915.921	3428
916.034	3256
916.146	3260
916.259	3218
916.371	3329
916.483	3329
916.595	3256
916.708	3332
916.82	3382
916.932	3355
917.044	3306
917.156	3363
917.268	3230
917.38	3294
917.491	3329
917.603	3348
917.715	3454
917.826	3443
917.938	3378
918.049	3306
918.161	3431
918.272	3572
918.384	3534
918.495	3485
918.606	3332
918.717	3291
918.828	3389
918.939	3416
919.05	3287
919.161	3363
919.272	3184
919.383	3287
919.494	3447
919.604	3663
919.715	3485
919.826	3401
919.936	3416
920.047	3599
920.157	3534
920.267	3724
920.378	3591
920.488	3587
920.598	3766
920.708	3968
920.818	3808
920.928	3865
921.038	4013
921.148	3987
921.258	3724
921.368	3671
921.477	3587
921.587	3549
921.697	3435
921.806	3625
921.916	3549
922.025	3317
922.134	3370
922.244	3317
922.353	3412
922.462	3241
922.571	3233
922.68	3097
922.789	3036
922.898	3108
923.007	3062
923.116	3176
923.224	3157
923.333	3188
923.442	3062
923.55	3089
923.659	3108
923.767	3165
923.876	3108
923.984	3214
924.092	3100
924.201	3157
924.309	3203
924.417	3249
924.525	3169
924.633	3245
924.741	4166
924.849	3047
924.956	3241
925.064	3116
925.172	3051
925.279	3108
925.387	3165
925.494	3180
925.602	3363
925.709	3329
925.816	3173
925.924	3256
926.031	3370
926.138	3336
926.245	3363
926.352	3245
926.459	3389
926.566	3492
926.673	3317
926.779	3226
926.886	3249
926.993	3123
927.099	3138
927.206	3097
927.312	3127
927.419	3195
927.525	3188
927.631	3287
927.737	3112
927.843	3184
927.95	3028
928.056	3146
928.162	3161
928.267	3275
928.373	3884
928.479	3332
928.585	3089
928.69	3199
928.796	3272
928.901	3165
929.007	3028
929.112	3237
929.218	3138
929.323	3180
929.428	3135
929.533	3344
929.638	3138
929.743	3180
929.848	3287
929.953	3214
930.058	3222
930.163	3051
930.267	3066
930.372	3245
930.477	3085
930.581	3355
930.685	3195
930.79	3074
930.894	3157
930.998	3127
931.103	3317
931.207	3005
931.311	2982
931.415	2956
931.519	2781
931.623	2834
