Data from test_V78500241_1297.txt Node
Date: Fri Mar 25 16:24:11 CST 2022
User: usil
Spectrometer: V785-0024
Trigger mode: 0
Integration Time (sec): 4.000000E-1
Scans to average: 1
Nonlinearity correction enabled: false
Boxcar width: 0
Storing dark spectrum: false
XAxis mode: Wavelengths
Number of Pixels in Spectrum: 1024
>>>>>Begin Spectral Data<<<<<
801.071	2902
801.214	2952
801.356	2842
801.499	2895
801.641	2849
801.783	2902
801.926	3081
802.068	2944
802.211	3009
802.353	3024
802.496	2956
802.638	3001
802.78	3043
802.923	3066
803.065	2971
803.208	2872
803.35	2918
803.492	2899
803.635	2887
803.777	2769
803.919	2849
804.061	3199
804.204	2990
804.346	2895
804.488	2845
804.63	2952
804.773	2880
804.915	2872
805.057	3089
805.199	2929
805.341	2937
805.483	3058
805.626	2986
805.768	2960
805.91	3066
806.052	3097
806.194	3024
806.336	3214
806.478	3005
806.62	2906
806.762	2967
806.904	3051
807.046	3135
807.188	2952
807.33	2902
807.472	2963
807.614	2883
807.756	2971
807.898	2922
808.04	2853
808.182	2925
808.324	2922
808.465	2876
808.607	2868
808.749	2792
808.891	2823
809.033	2979
809.174	2994
809.316	2887
809.458	2899
809.6	2807
809.741	2758
809.883	2769
810.025	2849
810.166	2834
810.308	2853
810.45	2857
810.591	2762
810.733	2785
810.875	2834
811.016	2800
811.158	2785
811.299	2788
811.441	2937
811.582	2864
811.724	2815
811.865	2849
812.007	2925
812.148	2868
812.29	2811
812.431	2902
812.573	2941
812.714	2982
812.855	3058
812.997	3020
813.138	3112
813.279	2994
813.421	2967
813.562	2929
813.703	2883
813.845	2857
813.986	2754
814.127	2708
814.268	2815
814.41	2826
814.551	2815
814.692	2849
814.833	2826
814.974	2834
815.115	2963
815.256	2838
815.397	2838
815.539	2857
815.68	2766
815.821	2762
815.962	2944
816.103	2895
816.244	2864
816.385	2864
816.526	2979
816.666	2906
816.807	2735
816.948	2872
817.089	2914
817.23	2807
817.371	2769
817.512	2769
817.653	2857
817.793	2826
817.934	2861
818.075	3017
818.216	3001
818.356	3013
818.497	2864
818.638	2811
818.778	2807
818.919	2796
819.06	2758
819.2	2815
819.341	2804
819.481	2811
819.622	2902
819.762	3077
819.903	3066
820.043	2914
820.184	2891
820.324	2864
820.465	2986
820.605	3009
820.746	3039
820.886	2902
821.026	3062
821.167	3161
821.307	3230
821.447	3287
821.588	3245
821.728	3207
821.868	3226
822.008	3074
822.149	3169
822.289	3237
822.429	3116
822.569	3074
822.709	3154
822.849	3036
822.99	3070
823.13	3112
823.27	3203
823.41	3127
823.55	3161
823.69	3138
823.83	3161
823.97	3100
824.11	2994
824.25	2990
824.389	3074
824.529	3093
824.669	3032
824.809	3195
824.949	3283
825.089	3256
825.228	3184
825.368	3028
825.508	2967
825.648	2952
825.787	2982
825.927	3032
826.067	2933
826.206	2948
826.346	3066
826.485	3058
826.625	3165
826.765	3275
826.904	3222
827.044	2971
827.183	2922
827.323	2857
827.462	2990
827.601	2876
827.741	2929
827.88	2933
828.02	2861
828.159	2967
828.298	3017
828.437	3116
828.577	3039
828.716	3241
828.855	3097
828.994	2861
829.134	2883
829.273	2914
829.412	2819
829.551	2826
829.69	2880
829.829	2960
829.968	3123
830.107	2982
830.246	3039
830.385	2922
830.524	2891
830.663	2796
830.802	2727
830.941	2606
831.08	2648
831.219	2769
831.357	2739
831.496	2929
831.635	2712
831.774	2659
831.913	2640
832.051	2522
832.19	2583
832.329	2667
832.467	2503
832.606	2492
832.744	2583
832.883	2583
833.022	2560
833.16	2632
833.299	2674
833.437	2727
833.576	2720
833.714	2705
833.852	2727
833.991	2769
834.129	2849
834.267	2849
834.406	2781
834.544	2861
834.682	2857
834.821	2872
834.959	2986
835.097	2899
835.235	3043
835.373	3005
835.511	2994
835.65	2967
835.788	2971
835.926	2815
836.064	2842
836.202	2857
836.34	3089
836.478	3112
836.615	3055
836.753	3123
836.891	3192
837.029	3161
837.167	3081
837.305	3039
837.443	3036
837.58	2929
837.718	3161
837.856	3017
837.993	3043
838.131	3085
838.269	3097
838.406	3081
838.544	3043
838.681	2944
838.819	2914
838.956	2826
839.094	2857
839.231	2929
839.369	3058
839.506	3348
839.643	3192
839.781	2994
839.918	2982
840.055	3028
840.193	3024
840.33	3070
840.467	3112
840.604	3108
840.742	3367
840.879	3051
841.016	3051
841.153	3135
841.29	3363
841.427	3287
841.564	3237
841.701	3302
841.838	3203
841.975	3165
842.112	3214
842.249	3066
842.385	3024
842.522	3249
842.659	3104
842.796	3074
842.933	3058
843.069	3039
843.206	3036
843.343	3188
843.479	3135
843.616	3108
843.752	2883
843.889	2868
844.025	3097
844.162	2872
844.298	3055
844.435	2910
844.571	2883
844.708	3051
844.844	3188
844.98	3176
845.117	3161
845.253	3024
845.389	2979
845.525	3085
845.661	3070
845.798	3017
845.934	3123
846.07	3001
846.206	3173
846.342	3291
846.478	3199
846.614	3089
846.75	3039
846.886	3028
847.022	3199
847.158	3146
847.294	3169
847.429	3203
847.565	3195
847.701	3469
847.837	2967
847.972	2990
848.108	3123
848.244	3127
848.379	2967
848.515	2975
848.65	2941
848.786	2925
848.921	2986
849.057	3074
849.192	3131
849.328	3058
849.463	3131
849.598	3055
849.734	3017
849.869	2956
850.004	2914
850.14	2998
850.275	2918
850.41	2823
850.545	2857
850.68	2941
850.815	2982
850.95	2975
851.085	3176
851.22	3089
851.355	3028
851.49	2982
851.625	2975
851.76	3001
851.895	2933
852.03	2963
852.165	3009
852.299	3112
852.434	3188
852.569	3123
852.703	3180
852.838	3241
852.973	3363
853.107	3344
853.242	3116
853.376	3123
853.511	3013
853.645	3024
853.78	3199
853.914	3127
854.048	3074
854.183	3074
854.317	3161
854.451	3291
854.585	3161
854.72	3062
854.854	3237
854.988	3032
855.122	3097
855.256	2975
855.39	3123
855.524	3207
855.658	3154
855.792	3138
855.926	3199
856.06	3154
856.194	3245
856.327	3157
856.461	3043
856.595	3047
856.729	3112
856.862	3207
856.996	3169
857.13	3192
857.263	3207
857.397	3294
857.53	3104
857.664	3180
857.797	3203
857.931	3214
858.064	3154
858.197	3233
858.331	3157
858.464	3070
858.597	3005
858.731	3104
858.864	3131
858.997	3074
859.13	3142
859.263	3184
859.396	3214
859.529	3081
859.662	3074
859.795	3051
859.928	3150
860.061	3306
860.194	3275
860.327	3127
860.46	3100
860.592	3237
860.725	3226
860.858	3260
860.99	3104
861.123	3013
861.256	3024
861.388	3146
861.521	3667
861.653	3005
861.786	2982
861.918	2960
862.05	3051
862.183	3089
862.315	3127
862.447	3222
862.58	3081
862.712	2910
862.844	2857
862.976	3017
863.108	2986
863.24	3302
863.372	2864
863.504	2982
863.636	2952
863.768	2990
863.9	3001
864.032	2864
864.164	2960
864.296	2982
864.428	3051
864.559	3104
864.691	3047
864.823	3039
864.954	3043
865.086	3066
865.217	2956
865.349	2956
865.48	2975
865.612	3005
865.743	3138
865.875	3005
866.006	2941
866.137	2975
866.269	2933
866.4	2922
866.531	2929
866.662	2914
866.793	2883
866.924	2899
867.055	2941
867.186	2918
867.317	2880
867.448	2842
867.579	2845
867.71	2830
867.841	2849
867.972	2845
868.103	2876
868.233	2880
868.364	2887
868.495	2910
868.625	3028
868.756	3119
868.886	2967
869.017	3001
869.147	3192
869.278	3131
869.408	3024
869.539	2975
869.669	3062
869.799	3009
869.929	3074
870.06	3062
870.19	3325
870.32	3272
870.45	3264
870.58	3389
870.71	3450
870.84	3450
870.97	3310
871.1	3260
871.23	3443
871.36	3469
871.489	3363
871.619	3367
871.749	3389
871.879	3469
872.008	3485
872.138	3355
872.267	3237
872.397	3127
872.526	3077
872.656	3020
872.785	3070
872.915	3249
873.044	3264
873.173	3211
873.303	3237
873.432	3233
873.561	3207
873.69	3150
873.819	3138
873.948	3203
874.077	3089
874.206	3077
874.335	3070
874.464	3180
874.593	3302
874.722	3207
874.851	3374
874.979	3348
875.108	3283
875.237	3203
875.365	3180
875.494	3161
875.623	3237
875.751	3074
875.88	3100
876.008	3203
876.136	3218
876.265	3355
876.393	3511
876.521	3374
876.65	3409
876.778	3355
876.906	3233
877.034	3173
877.162	3222
877.29	3192
877.418	3253
877.546	3264
877.674	3253
877.802	3192
877.93	3253
878.058	3127
878.185	3116
878.313	3203
878.441	3237
878.568	3005
878.696	3127
878.824	3188
878.951	3275
879.079	3443
879.206	3629
879.333	3447
879.461	3344
879.588	3332
879.715	3488
879.842	3553
879.97	3405
880.097	3138
880.224	3127
880.351	3211
880.478	3241
880.605	3188
880.732	3176
880.859	3439
880.986	3287
881.112	3336
881.239	3161
881.366	3089
881.493	2998
881.619	3020
881.746	3043
881.872	3097
881.999	3066
882.125	3138
882.252	3283
882.378	3256
882.505	3386
882.631	3294
882.757	3123
882.883	3165
883.01	3180
883.136	3138
883.262	3058
883.388	3116
883.514	3313
883.64	3401
883.766	3291
883.892	3180
884.018	3222
884.143	3389
884.269	3523
884.395	3199
884.52	3131
884.646	3176
884.772	3085
884.897	3093
885.023	3165
885.148	3313
885.274	3424
885.399	3367
885.524	3260
885.65	3211
885.775	3298
885.9	3283
886.025	3458
886.15	3397
886.275	3283
886.4	3241
886.525	3336
886.65	3268
886.775	3275
886.9	3458
887.025	3595
887.149	3332
887.274	3222
887.399	3195
887.523	3226
887.648	3176
887.773	3230
887.897	3367
888.021	3386
888.146	3287
888.27	3431
888.395	3515
888.519	3424
888.643	3409
888.767	3462
888.891	3313
889.015	3214
889.139	3264
889.263	3256
889.387	3393
889.511	3507
889.635	3454
889.759	3279
889.883	3279
890.006	3359
890.13	3481
890.254	3253
890.377	3359
890.501	3211
890.624	3173
890.748	3294
890.871	3199
890.995	3116
891.118	3070
891.241	3207
891.364	3207
891.488	3306
891.611	3161
891.734	3211
891.857	3321
891.98	3207
892.103	3340
892.226	3260
892.349	3192
892.471	3104
892.594	3218
892.717	3287
892.839	3256
892.962	3310
893.085	3317
893.207	3279
893.33	3169
893.452	3233
893.575	3306
893.697	3218
893.819	3473
893.941	3511
894.064	3447
894.186	3268
894.308	3245
894.43	3450
894.552	3507
894.674	3447
894.796	3268
894.918	3332
895.04	3253
895.161	3382
895.283	3409
895.405	3302
895.526	3340
895.648	3412
895.769	3405
895.891	3428
896.012	3435
896.134	3431
896.255	3416
896.376	3367
896.498	3340
896.619	3393
896.74	3321
896.861	3386
896.982	3690
897.103	3823
897.224	3599
897.345	3523
897.466	3428
897.587	3496
897.708	3614
897.828	3564
897.949	3412
898.07	3340
898.19	3393
898.311	3606
898.431	3454
898.552	3515
898.672	3618
898.792	3587
898.913	3481
899.033	3443
899.153	3272
899.273	3226
899.393	3260
899.513	3310
899.633	3279
899.753	3294
899.873	3302
899.993	3348
900.113	3317
900.232	3393
900.352	3367
900.472	3249
900.591	3199
900.711	3268
900.83	3211
900.95	3420
901.069	3485
901.189	3336
901.308	3154
901.427	3089
901.546	3176
901.665	3294
901.784	3363
901.904	3169
902.023	3119
902.141	3020
902.26	3013
902.379	3146
902.498	3051
902.617	3028
902.735	3135
902.854	3230
902.973	3142
903.091	3051
903.21	3055
903.328	3146
903.446	3100
903.565	3070
903.683	3169
903.801	3081
903.919	3237
904.038	3268
904.156	3135
904.274	3294
904.392	3218
904.51	3298
904.627	3302
904.745	3389
904.863	3443
904.981	3207
905.098	3138
905.216	3180
905.334	3249
905.451	3268
905.569	3336
905.686	3386
905.803	3389
905.921	3237
906.038	3428
906.155	3310
906.272	3291
906.389	3310
906.506	3237
906.623	3264
906.74	3275
906.857	3150
906.974	3230
907.091	3412
907.208	3580
907.324	3424
907.441	3367
907.557	3176
907.674	3214
907.79	3195
907.907	3253
908.023	3389
908.139	3370
908.256	3332
908.372	3370
908.488	3336
908.604	3226
908.72	3226
908.836	3302
908.952	3268
909.068	3329
909.184	3462
909.3	3378
909.415	3488
909.531	3511
909.647	3253
909.762	3310
909.878	3298
909.993	3378
910.108	3310
910.224	3336
910.339	3416
910.454	3370
910.57	3321
910.685	3275
910.8	3625
910.915	3557
911.03	3481
911.145	3291
911.259	3272
911.374	3340
911.489	3287
911.604	3256
911.718	3154
911.833	3184
911.947	3074
912.062	2994
912.176	3230
912.291	3268
912.405	3253
912.519	3488
912.633	3553
912.748	3386
912.862	3325
912.976	3222
913.09	3074
913.204	3135
913.318	3245
913.431	3401
913.545	3389
913.659	3431
913.772	3355
913.886	3256
914	3264
914.113	3412
914.226	3431
914.34	3351
914.453	3226
914.566	3431
914.68	3336
914.793	3329
914.906	3157
915.019	3127
915.132	3142
915.245	3249
915.358	3298
915.47	3245
915.583	3298
915.696	3355
915.809	3454
915.921	3462
916.034	3325
916.146	3313
916.259	3275
916.371	3435
916.483	3428
916.595	3313
916.708	3313
916.82	3378
916.932	3359
917.044	3351
917.156	3378
917.268	3287
917.38	3321
917.491	3332
917.603	3397
917.715	3538
917.826	3538
917.938	3389
918.049	3329
918.161	3454
918.272	3610
918.384	3580
918.495	3534
918.606	3370
918.717	3306
918.828	3393
918.939	3431
919.05	3317
919.161	3370
919.272	3203
919.383	3325
919.494	3549
919.604	3720
919.715	3526
919.826	3405
919.936	3481
920.047	3667
920.157	3614
920.267	3804
920.378	3599
920.488	3614
920.598	3819
920.708	3975
920.818	3838
920.928	3854
921.038	4025
921.148	4055
921.258	3755
921.368	3641
921.477	3572
921.587	3557
921.697	3515
921.806	3663
921.916	3492
922.025	3367
922.134	3401
922.244	3336
922.353	3424
922.462	3302
922.571	3233
922.68	3131
922.789	3100
922.898	3188
923.007	3127
923.116	3253
923.224	3222
923.333	3253
923.442	3138
923.55	3119
923.659	3127
923.767	3256
923.876	3176
923.984	3302
924.092	3131
924.201	3256
924.309	3256
924.417	3272
924.525	3211
924.633	3279
924.741	4021
924.849	3070
924.956	3325
925.064	3135
925.172	3070
925.279	3123
925.387	3222
925.494	3222
925.602	3363
925.709	3363
925.816	3207
925.924	3291
926.031	3412
926.138	3367
926.245	3397
926.352	3279
926.459	3428
926.566	3485
926.673	3340
926.779	3302
926.886	3272
926.993	3176
927.099	3154
927.206	3123
927.312	3123
927.419	3241
927.525	3222
927.631	3344
927.737	3180
927.843	3135
927.95	3066
928.056	3150
928.162	3154
928.267	3291
928.373	3918
928.479	3363
928.585	3108
928.69	3279
928.796	3283
928.901	3192
929.007	3055
929.112	3294
929.218	3195
929.323	3173
929.428	3207
929.533	3367
929.638	3138
929.743	3199
929.848	3332
929.953	3249
930.058	3154
930.163	3028
930.267	3047
930.372	3222
930.477	3077
930.581	3351
930.685	3195
930.79	3100
930.894	3199
930.998	3146
931.103	3336
931.207	2971
931.311	2960
931.415	2971
931.519	2804
931.623	2861
