Data from test_V78500241_1493.txt Node
Date: Fri Mar 25 16:25:32 CST 2022
User: usil
Spectrometer: V785-0024
Trigger mode: 0
Integration Time (sec): 4.000000E-1
Scans to average: 1
Nonlinearity correction enabled: false
Boxcar width: 0
Storing dark spectrum: false
XAxis mode: Wavelengths
Number of Pixels in Spectrum: 1024
>>>>>Begin Spectral Data<<<<<
801.071	2880
801.214	2948
801.356	2861
801.499	2906
801.641	2826
801.783	2963
801.926	3028
802.068	2975
802.211	2990
802.353	3055
802.496	2960
802.638	3036
802.78	3020
802.923	3138
803.065	2994
803.208	2902
803.35	2941
803.492	2933
803.635	2910
803.777	2777
803.919	2830
804.061	3199
804.204	2960
804.346	2895
804.488	2842
804.63	2982
804.773	2883
804.915	2899
805.057	3062
805.199	2910
805.341	2979
805.483	3036
805.626	2956
805.768	2956
805.91	3070
806.052	3146
806.194	3017
806.336	3241
806.478	3028
806.62	2971
806.762	2971
806.904	3036
807.046	3161
807.188	2982
807.33	2895
807.472	2986
807.614	2887
807.756	2994
807.898	2902
808.04	2952
808.182	2998
808.324	2937
808.465	2891
808.607	2842
808.749	2785
808.891	2880
809.033	2963
809.174	2960
809.316	2868
809.458	2887
809.6	2777
809.741	2792
809.883	2735
810.025	2819
810.166	2845
810.308	2868
810.45	2857
810.591	2750
810.733	2800
810.875	2857
811.016	2766
811.158	2754
811.299	2826
811.441	2948
811.582	2895
811.724	2826
811.865	2838
812.007	2918
812.148	2845
812.29	2838
812.431	2906
812.573	2906
812.714	2982
812.855	3043
812.997	3058
813.138	3135
813.279	2979
813.421	2998
813.562	2956
813.703	2880
813.845	2906
813.986	2773
814.127	2705
814.268	2826
814.41	2861
814.551	2788
814.692	2868
814.833	2815
814.974	2876
815.115	2948
815.256	2857
815.397	2811
815.539	2834
815.68	2743
815.821	2785
815.962	2952
816.103	2902
816.244	2868
816.385	2868
816.526	2986
816.666	2933
816.807	2727
816.948	2883
817.089	2918
817.23	2838
817.371	2735
817.512	2792
817.653	2823
817.793	2823
817.934	2883
818.075	2963
818.216	2982
818.356	3032
818.497	2883
818.638	2815
818.778	2819
818.919	2826
819.06	2739
819.2	2883
819.341	2766
819.481	2785
819.622	2918
819.762	3116
819.903	3036
820.043	2948
820.184	2918
820.324	2899
820.465	3032
820.605	3017
820.746	3024
820.886	2937
821.026	3131
821.167	3176
821.307	3256
821.447	3264
821.588	3249
821.728	3157
821.868	3211
822.008	3081
822.149	3150
822.289	3222
822.429	3093
822.569	3104
822.709	3233
822.849	2998
822.99	3039
823.13	3135
823.27	3173
823.41	3108
823.55	3135
823.69	3138
823.83	3184
823.97	3085
824.11	2975
824.25	2971
824.389	3032
824.529	3093
824.669	3013
824.809	3165
824.949	3237
825.089	3184
825.228	3142
825.368	3024
825.508	2960
825.648	2982
825.787	3013
825.927	3036
826.067	2971
826.206	2960
826.346	3013
826.485	3070
826.625	3108
826.765	3245
826.904	3214
827.044	2971
827.183	2887
827.323	2861
827.462	3005
827.601	2918
827.741	2899
827.88	2967
828.02	2861
828.159	2982
828.298	3028
828.437	3123
828.577	3024
828.716	3222
828.855	3074
828.994	2902
829.134	2906
829.273	2933
829.412	2868
829.551	2838
829.69	2914
829.829	2982
829.968	3123
830.107	3001
830.246	3017
830.385	2895
830.524	2861
830.663	2804
830.802	2724
830.941	2636
831.08	2655
831.219	2754
831.357	2743
831.496	2975
831.635	2693
831.774	2659
831.913	2632
832.051	2530
832.19	2636
832.329	2667
832.467	2556
832.606	2499
832.744	2594
832.883	2594
833.022	2575
833.16	2632
833.299	2689
833.437	2693
833.576	2686
833.714	2678
833.852	2712
833.991	2777
834.129	2819
834.267	2815
834.406	2769
834.544	2895
834.682	2853
834.821	2864
834.959	3089
835.097	2872
835.235	3058
835.373	2990
835.511	2998
835.65	2948
835.788	2967
835.926	2826
836.064	2815
836.202	2849
836.34	3085
836.478	3146
836.615	3051
836.753	3116
836.891	3203
837.029	3161
837.167	3135
837.305	3043
837.443	3013
837.58	2929
837.718	3142
837.856	3055
837.993	3020
838.131	3119
838.269	3081
838.406	3100
838.544	3074
838.681	2933
838.819	2933
838.956	2777
839.094	2823
839.231	2887
839.369	3009
839.506	3336
839.643	3226
839.781	3013
839.918	2967
840.055	3036
840.193	3055
840.33	3051
840.467	3112
840.604	3161
840.742	3378
840.879	3036
841.016	3009
841.153	3119
841.29	3310
841.427	3325
841.564	3302
841.701	3313
841.838	3211
841.975	3184
842.112	3199
842.249	3070
842.385	3070
842.522	3249
842.659	3108
842.796	3058
842.933	3093
843.069	3051
843.206	3032
843.343	3176
843.479	3097
843.616	3108
843.752	2902
843.889	2899
844.025	3058
844.162	2868
844.298	3058
844.435	2929
844.571	2922
844.708	3024
844.844	3154
844.98	3222
845.117	3207
845.253	3062
845.389	3028
845.525	3112
845.661	3123
845.798	3020
845.934	3097
846.07	3051
846.206	3180
846.342	3321
846.478	3237
846.614	3043
846.75	3070
846.886	3005
847.022	3226
847.158	3108
847.294	3222
847.429	3222
847.565	3180
847.701	3477
847.837	3013
847.972	3013
848.108	3169
848.244	3138
848.379	3005
848.515	2929
848.65	2925
848.786	2937
848.921	3028
849.057	3081
849.192	3100
849.328	3058
849.463	3131
849.598	3081
849.734	3043
849.869	2967
850.004	2899
850.14	2941
850.275	2872
850.41	2838
850.545	2857
850.68	2910
850.815	2956
850.95	2956
851.085	3165
851.22	3074
851.355	3020
851.49	2952
851.625	2998
851.76	3005
851.895	2922
852.03	2925
852.165	3032
852.299	3089
852.434	3161
852.569	3127
852.703	3161
852.838	3256
852.973	3313
853.107	3279
853.242	3116
853.376	3116
853.511	2952
853.645	3047
853.78	3218
853.914	3108
854.048	3108
854.183	3039
854.317	3123
854.451	3279
854.585	3138
854.72	3077
854.854	3165
854.988	3043
855.122	3058
855.256	2956
855.39	3108
855.524	3203
855.658	3180
855.792	3154
855.926	3135
856.06	3218
856.194	3268
856.327	3135
856.461	3062
856.595	3051
856.729	3093
856.862	3195
856.996	3195
857.13	3188
857.263	3214
857.397	3283
857.53	3116
857.664	3146
857.797	3253
857.931	3264
858.064	3157
858.197	3176
858.331	3142
858.464	3085
858.597	3028
858.731	3119
858.864	3123
858.997	3100
859.13	3180
859.263	3176
859.396	3199
859.529	3081
859.662	3100
859.795	3020
859.928	3116
860.061	3298
860.194	3294
860.327	3123
860.46	3066
860.592	3214
860.725	3256
860.858	3230
860.99	3127
861.123	3043
861.256	3058
861.388	3135
861.521	3857
861.653	3009
861.786	2998
861.918	2979
862.05	3017
862.183	3100
862.315	3138
862.447	3180
862.58	3062
862.712	2941
862.844	2830
862.976	3005
863.108	3009
863.24	3294
863.372	2868
863.504	2956
863.636	2918
863.768	3020
863.9	3009
864.032	2876
864.164	2929
864.296	3028
864.428	3108
864.559	3100
864.691	3104
864.823	3051
864.954	3028
865.086	3062
865.217	2971
865.349	2960
865.48	3001
865.612	3032
865.743	3127
865.875	2960
866.006	2952
866.137	2967
866.269	2929
866.4	2944
866.531	2895
866.662	2891
866.793	2880
866.924	2876
867.055	2979
867.186	2941
867.317	2880
867.448	2853
867.579	2845
867.71	2830
867.841	2819
867.972	2883
868.103	2883
868.233	2876
868.364	2857
868.495	2880
868.625	3108
868.756	3161
868.886	2971
869.017	3005
869.147	3142
869.278	3131
869.408	3055
869.539	3009
869.669	3077
869.799	3024
869.929	3154
870.06	3108
870.19	3287
870.32	3253
870.45	3287
870.58	3359
870.71	3424
870.84	3435
870.97	3275
871.1	3230
871.23	3454
871.36	3416
871.489	3332
871.619	3409
871.749	3397
871.879	3416
872.008	3447
872.138	3389
872.267	3264
872.397	3142
872.526	3097
872.656	3009
872.785	3077
872.915	3237
873.044	3306
873.173	3230
873.303	3233
873.432	3218
873.561	3218
873.69	3138
873.819	3116
873.948	3195
874.077	3097
874.206	3051
874.335	3077
874.464	3203
874.593	3355
874.722	3207
874.851	3359
874.979	3336
875.108	3325
875.237	3199
875.365	3161
875.494	3176
875.623	3245
875.751	3070
875.88	3104
876.008	3226
876.136	3214
876.265	3351
876.393	3469
876.521	3397
876.65	3355
876.778	3340
876.906	3268
877.034	3176
877.162	3207
877.29	3165
877.418	3272
877.546	3264
877.674	3241
877.802	3211
877.93	3199
878.058	3154
878.185	3119
878.313	3188
878.441	3218
878.568	3066
878.696	3157
878.824	3226
878.951	3283
879.079	3473
879.206	3641
879.333	3435
879.461	3344
879.588	3389
879.715	3488
879.842	3580
879.97	3393
880.097	3165
880.224	3116
880.351	3203
880.478	3256
880.605	3233
880.732	3165
880.859	3485
880.986	3268
881.112	3325
881.239	3173
881.366	3085
881.493	3043
881.619	3017
881.746	3043
881.872	3112
881.999	3112
882.125	3146
882.252	3260
882.378	3294
882.505	3416
882.631	3260
882.757	3165
882.883	3203
883.01	3207
883.136	3161
883.262	3100
883.388	3123
883.514	3336
883.64	3378
883.766	3351
883.892	3123
884.018	3245
884.143	3428
884.269	3523
884.395	3157
884.52	3150
884.646	3214
884.772	3135
884.897	3097
885.023	3203
885.148	3367
885.274	3397
885.399	3321
885.524	3268
885.65	3268
885.775	3317
885.9	3264
886.025	3416
886.15	3359
886.275	3291
886.4	3237
886.525	3287
886.65	3275
886.775	3283
886.9	3519
887.025	3576
887.149	3378
887.274	3256
887.399	3188
887.523	3222
887.648	3165
887.773	3184
887.897	3386
888.021	3378
888.146	3279
888.27	3389
888.395	3534
888.519	3439
888.643	3454
888.767	3454
888.891	3287
889.015	3260
889.139	3264
889.263	3275
889.387	3397
889.511	3466
889.635	3431
889.759	3332
889.883	3268
890.006	3378
890.13	3500
890.254	3249
890.377	3298
890.501	3195
890.624	3180
890.748	3249
890.871	3146
890.995	3100
891.118	3062
891.241	3176
891.364	3222
891.488	3329
891.611	3146
891.734	3211
891.857	3256
891.98	3245
892.103	3336
892.226	3310
892.349	3222
892.471	3131
892.594	3222
892.717	3294
892.839	3272
892.962	3302
893.085	3321
893.207	3321
893.33	3097
893.452	3230
893.575	3367
893.697	3230
893.819	3450
893.941	3485
894.064	3416
894.186	3233
894.308	3245
894.43	3462
894.552	3526
894.674	3454
894.796	3272
894.918	3321
895.04	3298
895.161	3443
895.283	3393
895.405	3279
895.526	3348
895.648	3435
895.769	3393
895.891	3466
896.012	3496
896.134	3462
896.255	3401
896.376	3363
896.498	3370
896.619	3428
896.74	3340
896.861	3370
896.982	3675
897.103	3804
897.224	3610
897.345	3519
897.466	3401
897.587	3488
897.708	3625
897.828	3576
897.949	3439
898.07	3348
898.19	3450
898.311	3618
898.431	3412
898.552	3519
898.672	3564
898.792	3603
898.913	3542
899.033	3428
899.153	3302
899.273	3195
899.393	3310
899.513	3291
899.633	3310
899.753	3332
899.873	3310
899.993	3386
900.113	3272
900.232	3401
900.352	3351
900.472	3287
900.591	3199
900.711	3294
900.83	3230
900.95	3393
901.069	3500
901.189	3374
901.308	3211
901.427	3161
901.546	3211
901.665	3275
901.784	3332
901.904	3188
902.023	3157
902.141	2975
902.26	3013
902.379	3108
902.498	3104
902.617	3039
902.735	3218
902.854	3253
902.973	3203
903.091	3005
903.21	3100
903.328	3150
903.446	3074
903.565	3112
903.683	3203
903.801	3085
903.919	3241
904.038	3241
904.156	3169
904.274	3272
904.392	3245
904.51	3313
904.627	3344
904.745	3431
904.863	3500
904.981	3279
905.098	3154
905.216	3260
905.334	3306
905.451	3325
905.569	3306
905.686	3393
905.803	3450
905.921	3279
906.038	3428
906.155	3336
906.272	3222
906.389	3313
906.506	3230
906.623	3298
906.74	3264
906.857	3188
906.974	3272
907.091	3431
907.208	3530
907.324	3458
907.441	3401
907.557	3211
907.674	3218
907.79	3230
907.907	3260
908.023	3340
908.139	3374
908.256	3340
908.372	3367
908.488	3401
908.604	3230
908.72	3199
908.836	3294
908.952	3275
909.068	3336
909.184	3447
909.3	3382
909.415	3466
909.531	3485
909.647	3298
909.762	3313
909.878	3214
909.993	3351
910.108	3336
910.224	3336
910.339	3428
910.454	3374
910.57	3298
910.685	3253
910.8	3595
910.915	3504
911.03	3428
911.145	3272
911.259	3268
911.374	3294
911.489	3245
911.604	3256
911.718	3138
911.833	3142
911.947	3047
912.062	2975
912.176	3157
912.291	3157
912.405	3233
912.519	3481
912.633	3469
912.748	3325
912.862	3275
912.976	3150
913.09	3055
913.204	3123
913.318	3218
913.431	3332
913.545	3355
913.659	3378
913.772	3355
913.886	3222
914	3195
914.113	3351
914.226	3386
914.34	3348
914.453	3195
914.566	3378
914.68	3279
914.793	3291
914.906	3112
915.019	3116
915.132	3100
915.245	3169
915.358	3199
915.47	3245
915.583	3245
915.696	3306
915.809	3412
915.921	3443
916.034	3233
916.146	3260
916.259	3230
916.371	3386
916.483	3374
916.595	3283
916.708	3355
916.82	3351
916.932	3367
917.044	3344
917.156	3348
917.268	3310
917.38	3317
917.491	3317
917.603	3332
917.715	3481
917.826	3454
917.938	3386
918.049	3291
918.161	3431
918.272	3603
918.384	3526
918.495	3469
918.606	3336
918.717	3306
918.828	3348
918.939	3409
919.05	3294
919.161	3382
919.272	3173
919.383	3313
919.494	3507
919.604	3633
919.715	3469
919.826	3386
919.936	3428
920.047	3587
920.157	3538
920.267	3759
920.378	3629
920.488	3568
920.598	3793
920.708	3930
920.818	3766
920.928	3804
921.038	4006
921.148	3968
921.258	3686
921.368	3599
921.477	3561
921.587	3534
921.697	3473
921.806	3587
921.916	3507
922.025	3370
922.134	3382
922.244	3291
922.353	3389
922.462	3226
922.571	3233
922.68	3119
922.789	3062
922.898	3161
923.007	3112
923.116	3180
923.224	3165
923.333	3157
923.442	3116
923.55	3138
923.659	3104
923.767	3245
923.876	3116
923.984	3230
924.092	3081
924.201	3195
924.309	3241
924.417	3279
924.525	3150
924.633	3287
924.741	4059
924.849	3028
924.956	3253
925.064	3093
925.172	3055
925.279	3093
925.387	3169
925.494	3214
925.602	3313
925.709	3302
925.816	3195
925.924	3317
926.031	3367
926.138	3310
926.245	3359
926.352	3230
926.459	3393
926.566	3488
926.673	3302
926.779	3260
926.886	3253
926.993	3154
927.099	3116
927.206	3131
927.312	3108
927.419	3211
927.525	3192
927.631	3313
927.737	3176
927.843	3116
927.95	2994
928.056	3119
928.162	3192
928.267	3256
928.373	3797
928.479	3340
928.585	3062
928.69	3256
928.796	3256
928.901	3119
929.007	3043
929.112	3199
929.218	3169
929.323	3173
929.428	3142
929.533	3355
929.638	3131
929.743	3173
929.848	3264
929.953	3249
930.058	3146
930.163	3001
930.267	3047
930.372	3184
930.477	3058
930.581	3310
930.685	3157
930.79	3062
930.894	3150
930.998	3070
931.103	3279
931.207	2929
931.311	2948
931.415	2902
931.519	2792
931.623	2823
