Data from test_V78500241_874.txt Node
Date: Fri Mar 25 16:21:15 CST 2022
User: usil
Spectrometer: V785-0024
Trigger mode: 0
Integration Time (sec): 4.000000E-1
Scans to average: 1
Nonlinearity correction enabled: false
Boxcar width: 0
Storing dark spectrum: false
XAxis mode: Wavelengths
Number of Pixels in Spectrum: 1024
>>>>>Begin Spectral Data<<<<<
801.071	2925
801.214	2941
801.356	2853
801.499	2876
801.641	2899
801.783	2906
801.926	3024
802.068	2956
802.211	3024
802.353	3032
802.496	2990
802.638	2963
802.78	3062
802.923	3077
803.065	3005
803.208	2910
803.35	2910
803.492	2952
803.635	2963
803.777	2796
803.919	2845
804.061	3180
804.204	2929
804.346	2891
804.488	2861
804.63	2990
804.773	2868
804.915	2918
805.057	3100
805.199	2929
805.341	2941
805.483	3058
805.626	2986
805.768	2952
805.91	3062
806.052	3108
806.194	3020
806.336	3245
806.478	3032
806.62	2925
806.762	2990
806.904	3028
807.046	3176
807.188	2960
807.33	2914
807.472	3009
807.614	2902
807.756	3020
807.898	2937
808.04	2899
808.182	2937
808.324	2967
808.465	2880
808.607	2880
808.749	2785
808.891	2872
809.033	2979
809.174	2998
809.316	2887
809.458	2880
809.6	2754
809.741	2815
809.883	2788
810.025	2819
810.166	2857
810.308	2857
810.45	2834
810.591	2750
810.733	2754
810.875	2834
811.016	2746
811.158	2746
811.299	2815
811.441	2906
811.582	2902
811.724	2811
811.865	2800
812.007	2868
812.148	2864
812.29	2830
812.431	2910
812.573	2956
812.714	2929
812.855	3032
812.997	3024
813.138	3116
813.279	3020
813.421	2952
813.562	2952
813.703	2857
813.845	2880
813.986	2743
814.127	2762
814.268	2868
814.41	2834
814.551	2804
814.692	2880
814.833	2807
814.974	2880
815.115	2952
815.256	2823
815.397	2758
815.539	2842
815.68	2754
815.821	2826
815.962	2933
816.103	2952
816.244	2853
816.385	2861
816.526	2982
816.666	2891
816.807	2731
816.948	2891
817.089	2872
817.23	2830
817.371	2762
817.512	2804
817.653	2838
817.793	2815
817.934	2880
818.075	2944
818.216	2982
818.356	3005
818.497	2899
818.638	2773
818.778	2826
818.919	2773
819.06	2758
819.2	2868
819.341	2773
819.481	2785
819.622	2906
819.762	3104
819.903	3036
820.043	2902
820.184	2891
820.324	2891
820.465	2998
820.605	3013
820.746	3009
820.886	2902
821.026	3108
821.167	3165
821.307	3256
821.447	3253
821.588	3207
821.728	3222
821.868	3192
822.008	3093
822.149	3169
822.289	3264
822.429	3104
822.569	3089
822.709	3161
822.849	3009
822.99	3058
823.13	3157
823.27	3233
823.41	3127
823.55	3116
823.69	3131
823.83	3154
823.97	3093
824.11	2994
824.25	2990
824.389	3043
824.529	3089
824.669	3055
824.809	3188
824.949	3207
825.089	3253
825.228	3127
825.368	2986
825.508	2956
825.648	2971
825.787	2963
825.927	3009
826.067	2963
826.206	2979
826.346	3024
826.485	3081
826.625	3085
826.765	3272
826.904	3222
827.044	2971
827.183	2937
827.323	2830
827.462	2948
827.601	2910
827.741	2910
827.88	2948
828.02	2883
828.159	2982
828.298	3051
828.437	3089
828.577	3032
828.716	3199
828.855	3058
828.994	2922
829.134	2849
829.273	2910
829.412	2895
829.551	2845
829.69	2887
829.829	2986
829.968	3173
830.107	2990
830.246	2998
830.385	2914
830.524	2842
830.663	2807
830.802	2708
830.941	2625
831.08	2644
831.219	2743
831.357	2777
831.496	2902
831.635	2693
831.774	2636
831.913	2606
832.051	2522
832.19	2579
832.329	2708
832.467	2514
832.606	2495
832.744	2587
832.883	2613
833.022	2575
833.16	2651
833.299	2678
833.437	2670
833.576	2705
833.714	2708
833.852	2716
833.991	2750
834.129	2830
834.267	2796
834.406	2800
834.544	2853
834.682	2853
834.821	2872
834.959	3028
835.097	2906
835.235	3051
835.373	3009
835.511	2990
835.65	2925
835.788	2960
835.926	2834
836.064	2807
836.202	2842
836.34	3074
836.478	3169
836.615	3047
836.753	3108
836.891	3180
837.029	3135
837.167	3150
837.305	3032
837.443	3017
837.58	2952
837.718	3135
837.856	3055
837.993	3039
838.131	3108
838.269	3036
838.406	3066
838.544	3055
838.681	2910
838.819	2914
838.956	2800
839.094	2826
839.231	2910
839.369	3020
839.506	3313
839.643	3192
839.781	3001
839.918	2971
840.055	3039
840.193	3017
840.33	3036
840.467	3097
840.604	3169
840.742	3374
840.879	3020
841.016	3028
841.153	3077
841.29	3325
841.427	3256
841.564	3237
841.701	3317
841.838	3218
841.975	3176
842.112	3173
842.249	3051
842.385	2994
842.522	3298
842.659	3135
842.796	3077
842.933	3127
843.069	3093
843.206	3017
843.343	3142
843.479	3116
843.616	3123
843.752	2883
843.889	2845
844.025	3074
844.162	2868
844.298	3089
844.435	2922
844.571	2910
844.708	3058
844.844	3207
844.98	3233
845.117	3180
845.253	3024
845.389	2990
845.525	3100
845.661	3085
845.798	3017
845.934	3108
846.07	3055
846.206	3230
846.342	3340
846.478	3199
846.614	3077
846.75	3047
846.886	3051
847.022	3260
847.158	3119
847.294	3203
847.429	3241
847.565	3237
847.701	3466
847.837	3028
847.972	2967
848.108	3142
848.244	3180
848.379	2971
848.515	2914
848.65	2906
848.786	2960
848.921	3017
849.057	3119
849.192	3127
849.328	3074
849.463	3138
849.598	3047
849.734	3051
849.869	2948
850.004	2929
850.14	2941
850.275	2899
850.41	2857
850.545	2842
850.68	2899
850.815	2941
850.95	2963
851.085	3165
851.22	3116
851.355	3009
851.49	2979
851.625	2979
851.76	2982
851.895	2937
852.03	2933
852.165	3036
852.299	3070
852.434	3150
852.569	3097
852.703	3142
852.838	3245
852.973	3332
853.107	3298
853.242	3123
853.376	3077
853.511	2975
853.645	3039
853.78	3218
853.914	3112
854.048	3081
854.183	3062
854.317	3097
854.451	3256
854.585	3119
854.72	3058
854.854	3180
854.988	3058
855.122	3097
855.256	2960
855.39	3097
855.524	3211
855.658	3188
855.792	3131
855.926	3169
856.06	3214
856.194	3260
856.327	3097
856.461	3066
856.595	3074
856.729	3074
856.862	3203
856.996	3131
857.13	3192
857.263	3207
857.397	3287
857.53	3142
857.664	3154
857.797	3188
857.931	3264
858.064	3131
858.197	3222
858.331	3104
858.464	3047
858.597	2982
858.731	3146
858.864	3150
858.997	3070
859.13	3176
859.263	3195
859.396	3195
859.529	3123
859.662	3085
859.795	3024
859.928	3150
860.061	3249
860.194	3294
860.327	3131
860.46	3119
860.592	3245
860.725	3218
860.858	3199
860.99	3100
861.123	3032
861.256	3043
861.388	3108
861.521	3793
861.653	2982
861.786	2975
861.918	3020
862.05	3051
862.183	3051
862.315	3108
862.447	3203
862.58	3100
862.712	2918
862.844	2876
862.976	3017
863.108	2998
863.24	3294
863.372	2838
863.504	2975
863.636	2937
863.768	2982
863.9	2952
864.032	2914
864.164	2918
864.296	3005
864.428	3081
864.559	3085
864.691	3062
864.823	3032
864.954	3024
865.086	3009
865.217	2952
865.349	2944
865.48	2963
865.612	3024
865.743	3119
865.875	2929
866.006	2929
866.137	2941
866.269	2922
866.4	2929
866.531	2887
866.662	2880
866.793	2868
866.924	2880
867.055	2960
867.186	2933
867.317	2887
867.448	2830
867.579	2823
867.71	2853
867.841	2815
867.972	2906
868.103	2902
868.233	2872
868.364	2906
868.495	2902
868.625	3043
868.756	3184
868.886	2975
869.017	2994
869.147	3154
869.278	3138
869.408	3047
869.539	3013
869.669	3127
869.799	3055
869.929	3089
870.06	3074
870.19	3302
870.32	3287
870.45	3313
870.58	3374
870.71	3409
870.84	3477
870.97	3272
871.1	3237
871.23	3485
871.36	3435
871.489	3370
871.619	3386
871.749	3412
871.879	3393
872.008	3454
872.138	3363
872.267	3226
872.397	3188
872.526	3077
872.656	2994
872.785	3104
872.915	3199
873.044	3306
873.173	3211
873.303	3245
873.432	3245
873.561	3218
873.69	3135
873.819	3112
873.948	3184
874.077	3104
874.206	3009
874.335	3112
874.464	3207
874.593	3310
874.722	3222
874.851	3397
874.979	3325
875.108	3302
875.237	3233
875.365	3138
875.494	3169
875.623	3211
875.751	3058
875.88	3131
876.008	3135
876.136	3253
876.265	3348
876.393	3515
876.521	3412
876.65	3370
876.778	3344
876.906	3249
877.034	3176
877.162	3203
877.29	3211
877.418	3211
877.546	3211
877.674	3233
877.802	3218
877.93	3211
878.058	3112
878.185	3070
878.313	3161
878.441	3188
878.568	3058
878.696	3169
878.824	3245
878.951	3279
879.079	3443
879.206	3599
879.333	3420
879.461	3283
879.588	3321
879.715	3405
879.842	3549
879.97	3344
880.097	3146
880.224	3097
880.351	3161
880.478	3192
880.605	3173
880.732	3192
880.859	3469
880.986	3260
881.112	3313
881.239	3173
881.366	3093
881.493	2967
881.619	2979
881.746	3077
881.872	3116
881.999	3097
882.125	3131
882.252	3230
882.378	3283
882.505	3412
882.631	3287
882.757	3157
882.883	3226
883.01	3233
883.136	3100
883.262	3104
883.388	3097
883.514	3317
883.64	3363
883.766	3313
883.892	3199
884.018	3245
884.143	3416
884.269	3538
884.395	3199
884.52	3150
884.646	3207
884.772	3161
884.897	3081
885.023	3211
885.148	3348
885.274	3439
885.399	3397
885.524	3245
885.65	3268
885.775	3317
885.9	3325
886.025	3424
886.15	3359
886.275	3321
886.4	3253
886.525	3321
886.65	3287
886.775	3302
886.9	3492
887.025	3641
887.149	3428
887.274	3272
887.399	3233
887.523	3233
887.648	3230
887.773	3256
887.897	3431
888.021	3416
888.146	3321
888.27	3435
888.395	3568
888.519	3526
888.643	3431
888.767	3530
888.891	3367
889.015	3287
889.139	3325
889.263	3275
889.387	3450
889.511	3545
889.635	3496
889.759	3359
889.883	3344
890.006	3409
890.13	3515
890.254	3325
890.377	3393
890.501	3245
890.624	3249
890.748	3332
890.871	3245
890.995	3157
891.118	3123
891.241	3214
891.364	3253
891.488	3363
891.611	3253
891.734	3233
891.857	3363
891.98	3279
892.103	3370
892.226	3306
892.349	3253
892.471	3146
892.594	3256
892.717	3298
892.839	3298
892.962	3355
893.085	3374
893.207	3348
893.33	3173
893.452	3218
893.575	3370
893.697	3298
893.819	3511
893.941	3530
894.064	3504
894.186	3306
894.308	3313
894.43	3488
894.552	3584
894.674	3462
894.796	3325
894.918	3325
895.04	3306
895.161	3431
895.283	3405
895.405	3306
895.526	3389
895.648	3447
895.769	3454
895.891	3481
896.012	3504
896.134	3500
896.255	3450
896.376	3416
896.498	3367
896.619	3485
896.74	3420
896.861	3431
896.982	3736
897.103	3876
897.224	3633
897.345	3553
897.466	3458
897.587	3564
897.708	3644
897.828	3580
897.949	3504
898.07	3329
898.19	3447
898.311	3637
898.431	3466
898.552	3515
898.672	3637
898.792	3568
898.913	3511
899.033	3428
899.153	3306
899.273	3283
899.393	3283
899.513	3348
899.633	3321
899.753	3370
899.873	3351
899.993	3409
900.113	3363
900.232	3428
900.352	3389
900.472	3325
900.591	3256
900.711	3283
900.83	3268
900.95	3447
901.069	3511
901.189	3378
901.308	3211
901.427	3176
901.546	3226
901.665	3317
901.784	3340
901.904	3222
902.023	3161
902.141	3100
902.26	2990
902.379	3165
902.498	3135
902.617	3089
902.735	3211
902.854	3249
902.973	3249
903.091	3085
903.21	3108
903.328	3192
903.446	3154
903.565	3131
903.683	3222
903.801	3146
903.919	3283
904.038	3279
904.156	3218
904.274	3351
904.392	3260
904.51	3294
904.627	3374
904.745	3481
904.863	3507
904.981	3310
905.098	3188
905.216	3241
905.334	3317
905.451	3351
905.569	3355
905.686	3462
905.803	3424
905.921	3298
906.038	3428
906.155	3389
906.272	3310
906.389	3363
906.506	3211
906.623	3272
906.74	3264
906.857	3180
906.974	3272
907.091	3454
907.208	3526
907.324	3523
907.441	3420
907.557	3272
907.674	3310
907.79	3268
907.907	3294
908.023	3359
908.139	3401
908.256	3370
908.372	3424
908.488	3344
908.604	3283
908.72	3287
908.836	3325
908.952	3332
909.068	3386
909.184	3515
909.3	3447
909.415	3485
909.531	3469
909.647	3283
909.762	3363
909.878	3310
909.993	3412
910.108	3321
910.224	3363
910.339	3431
910.454	3344
910.57	3329
910.685	3272
910.8	3648
910.915	3564
911.03	3458
911.145	3279
911.259	3287
911.374	3359
911.489	3272
911.604	3245
911.718	3150
911.833	3184
911.947	3081
912.062	3005
912.176	3180
912.291	3264
912.405	3233
912.519	3447
912.633	3496
912.748	3359
912.862	3272
912.976	3180
913.09	3081
913.204	3195
913.318	3264
913.431	3389
913.545	3325
913.659	3431
913.772	3355
913.886	3211
914	3233
914.113	3340
914.226	3447
914.34	3393
914.453	3237
914.566	3439
914.68	3317
914.793	3355
914.906	3176
915.019	3157
915.132	3108
915.245	3195
915.358	3253
915.47	3249
915.583	3294
915.696	3336
915.809	3447
915.921	3458
916.034	3275
916.146	3302
916.259	3245
916.371	3416
916.483	3386
916.595	3306
916.708	3348
916.82	3359
916.932	3397
917.044	3401
917.156	3359
917.268	3279
917.38	3359
917.491	3310
917.603	3397
917.715	3458
917.826	3477
917.938	3405
918.049	3317
918.161	3454
918.272	3584
918.384	3576
918.495	3523
918.606	3348
918.717	3329
918.828	3428
918.939	3424
919.05	3355
919.161	3424
919.272	3214
919.383	3325
919.494	3496
919.604	3686
919.715	3523
919.826	3393
919.936	3450
920.047	3633
920.157	3591
920.267	3808
920.378	3648
920.488	3603
920.598	3827
920.708	3983
920.818	3876
920.928	3865
921.038	4036
921.148	3991
921.258	3705
921.368	3694
921.477	3584
921.587	3545
921.697	3500
921.806	3663
921.916	3530
922.025	3401
922.134	3363
922.244	3389
922.353	3431
922.462	3291
922.571	3233
922.68	3142
922.789	3093
922.898	3169
923.007	3119
923.116	3230
923.224	3203
923.333	3173
923.442	3108
923.55	3108
923.659	3161
923.767	3283
923.876	3123
923.984	3222
924.092	3138
924.201	3188
924.309	3237
924.417	3249
924.525	3184
924.633	3279
924.741	4204
924.849	3070
924.956	3294
925.064	3131
925.172	3043
925.279	3093
925.387	3272
925.494	3203
925.602	3409
925.709	3370
925.816	3230
925.924	3306
926.031	3378
926.138	3336
926.245	3382
926.352	3256
926.459	3428
926.566	3492
926.673	3298
926.779	3245
926.886	3253
926.993	3188
927.099	3169
927.206	3176
927.312	3169
927.419	3260
927.525	3260
927.631	3279
927.737	3180
927.843	3169
927.95	3024
928.056	3157
928.162	3211
928.267	3256
928.373	3797
928.479	3367
928.585	3066
928.69	3287
928.796	3321
928.901	3127
929.007	3070
929.112	3245
929.218	3199
929.323	3154
929.428	3180
929.533	3329
929.638	3165
929.743	3199
929.848	3306
929.953	3237
930.058	3192
930.163	3020
930.267	3051
930.372	3199
930.477	3036
930.581	3336
930.685	3199
930.79	3077
930.894	3138
930.998	3131
931.103	3317
931.207	3005
931.311	2963
931.415	2990
931.519	2788
931.623	2811
