Data from test_V78500241_1375.txt Node
Date: Fri Mar 25 16:24:43 CST 2022
User: usil
Spectrometer: V785-0024
Trigger mode: 0
Integration Time (sec): 4.000000E-1
Scans to average: 1
Nonlinearity correction enabled: false
Boxcar width: 0
Storing dark spectrum: false
XAxis mode: Wavelengths
Number of Pixels in Spectrum: 1024
>>>>>Begin Spectral Data<<<<<
801.071	2941
801.214	2937
801.356	2857
801.499	2868
801.641	2883
801.783	2960
801.926	3020
802.068	3009
802.211	2975
802.353	2998
802.496	2941
802.638	2975
802.78	3009
802.923	3039
803.065	2948
803.208	2880
803.35	2883
803.492	2902
803.635	2941
803.777	2731
803.919	2868
804.061	3161
804.204	2990
804.346	2929
804.488	2800
804.63	2986
804.773	2861
804.915	2899
805.057	3077
805.199	2922
805.341	2994
805.483	3039
805.626	2994
805.768	2971
805.91	3062
806.052	3097
806.194	3039
806.336	3218
806.478	3009
806.62	2925
806.762	2948
806.904	3058
807.046	3146
807.188	2956
807.33	2864
807.472	2994
807.614	2887
807.756	2982
807.898	2944
808.04	2895
808.182	2925
808.324	2918
808.465	2872
808.607	2868
808.749	2777
808.891	2834
809.033	2963
809.174	2956
809.316	2891
809.458	2891
809.6	2731
809.741	2754
809.883	2769
810.025	2819
810.166	2842
810.308	2849
810.45	2830
810.591	2769
810.733	2781
810.875	2826
811.016	2758
811.158	2739
811.299	2807
811.441	2910
811.582	2902
811.724	2800
811.865	2788
812.007	2880
812.148	2857
812.29	2819
812.431	2872
812.573	2925
812.714	2922
812.855	3039
812.997	3032
813.138	3097
813.279	3028
813.421	2956
813.562	2910
813.703	2883
813.845	2883
813.986	2735
814.127	2716
814.268	2804
814.41	2800
814.551	2762
814.692	2823
814.833	2807
814.974	2887
815.115	2952
815.256	2819
815.397	2792
815.539	2830
815.68	2754
815.821	2769
815.962	2891
816.103	2899
816.244	2838
816.385	2830
816.526	2914
816.666	2914
816.807	2739
816.948	2895
817.089	2891
817.23	2849
817.371	2754
817.512	2788
817.653	2815
817.793	2811
817.934	2880
818.075	2941
818.216	3001
818.356	3047
818.497	2868
818.638	2766
818.778	2777
818.919	2750
819.06	2727
819.2	2861
819.341	2773
819.481	2800
819.622	2899
819.762	3093
819.903	2994
820.043	2910
820.184	2910
820.324	2876
820.465	3005
820.605	2979
820.746	3039
820.886	2944
821.026	3085
821.167	3157
821.307	3249
821.447	3310
821.588	3188
821.728	3184
821.868	3161
822.008	3066
822.149	3180
822.289	3226
822.429	3062
822.569	3093
822.709	3176
822.849	2975
822.99	3085
823.13	3119
823.27	3180
823.41	3100
823.55	3135
823.69	3131
823.83	3207
823.97	3089
824.11	3001
824.25	2990
824.389	3062
824.529	3165
824.669	3097
824.809	3230
824.949	3222
825.089	3214
825.228	3154
825.368	3013
825.508	2982
825.648	2971
825.787	3005
825.927	3055
826.067	2994
826.206	2956
826.346	3081
826.485	3093
826.625	3131
826.765	3294
826.904	3233
827.044	3024
827.183	2960
827.323	2914
827.462	2998
827.601	2941
827.741	3001
827.88	2979
828.02	2880
828.159	2998
828.298	3074
828.437	3116
828.577	3100
828.716	3287
828.855	3123
828.994	2944
829.134	2952
829.273	2910
829.412	2933
829.551	2918
829.69	2956
829.829	2982
829.968	3176
830.107	3039
830.246	3085
830.385	2937
830.524	2925
830.663	2845
830.802	2785
830.941	2686
831.08	2735
831.219	2823
831.357	2777
831.496	3005
831.635	2773
831.774	2705
831.913	2689
832.051	2579
832.19	2651
832.329	2701
832.467	2575
832.606	2507
832.744	2571
832.883	2594
833.022	2632
833.16	2693
833.299	2716
833.437	2708
833.576	2731
833.714	2773
833.852	2777
833.991	2792
834.129	2834
834.267	2876
834.406	2842
834.544	2918
834.682	2906
834.821	2910
834.959	3077
835.097	2895
835.235	3119
835.373	3009
835.511	3058
835.65	2982
835.788	2986
835.926	2895
836.064	2849
836.202	2887
836.34	3135
836.478	3188
836.615	3066
836.753	3169
836.891	3241
837.029	3207
837.167	3161
837.305	3066
837.443	3058
837.58	2952
837.718	3146
837.856	3104
837.993	3089
838.131	3146
838.269	3135
838.406	3127
838.544	3081
838.681	2956
838.819	2937
838.956	2849
839.094	2853
839.231	2944
839.369	3043
839.506	3348
839.643	3214
839.781	3047
839.918	2990
840.055	3089
840.193	3058
840.33	3066
840.467	3108
840.604	3154
840.742	3443
840.879	3055
841.016	3081
841.153	3165
841.29	3348
841.427	3321
841.564	3279
841.701	3329
841.838	3256
841.975	3199
842.112	3260
842.249	3089
842.385	3058
842.522	3237
842.659	3108
842.796	3070
842.933	3131
843.069	3097
843.206	3062
843.343	3214
843.479	3142
843.616	3157
843.752	2933
843.889	2895
844.025	3108
844.162	2899
844.298	3116
844.435	2967
844.571	2944
844.708	3100
844.844	3192
844.98	3256
845.117	3222
845.253	3070
845.389	3043
845.525	3116
845.661	3100
845.798	3028
845.934	3154
846.07	3039
846.206	3226
846.342	3279
846.478	3245
846.614	3127
846.75	3085
846.886	3055
847.022	3279
847.158	3169
847.294	3241
847.429	3253
847.565	3226
847.701	3500
847.837	3074
847.972	3020
848.108	3195
848.244	3165
848.379	3024
848.515	2960
848.65	2941
848.786	2990
848.921	3005
849.057	3135
849.192	3180
849.328	3116
849.463	3127
849.598	3085
849.734	3039
849.869	2990
850.004	2929
850.14	2967
850.275	2963
850.41	2872
850.545	2906
850.68	2971
850.815	2960
850.95	2952
851.085	3203
851.22	3127
851.355	3070
851.49	3009
851.625	3024
851.76	3032
851.895	2971
852.03	2941
852.165	3047
852.299	3157
852.434	3184
852.569	3169
852.703	3176
852.838	3264
852.973	3370
853.107	3351
853.242	3184
853.376	3119
853.511	3032
853.645	3085
853.78	3264
853.914	3176
854.048	3154
854.183	3123
854.317	3207
854.451	3329
854.585	3173
854.72	3112
854.854	3222
854.988	3062
855.122	3142
855.256	3020
855.39	3154
855.524	3249
855.658	3195
855.792	3180
855.926	3226
856.06	3226
856.194	3256
856.327	3180
856.461	3081
856.595	3138
856.729	3104
856.862	3241
856.996	3169
857.13	3245
857.263	3268
857.397	3306
857.53	3161
857.664	3218
857.797	3283
857.931	3260
858.064	3184
858.197	3245
858.331	3161
858.464	3093
858.597	3055
858.731	3131
858.864	3157
858.997	3119
859.13	3203
859.263	3207
859.396	3241
859.529	3154
859.662	3093
859.795	3074
859.928	3165
860.061	3279
860.194	3321
860.327	3138
860.46	3093
860.592	3279
860.725	3253
860.858	3306
860.99	3104
861.123	3070
861.256	3070
861.388	3146
861.521	3751
861.653	3066
861.786	2998
861.918	3036
862.05	3062
862.183	3131
862.315	3176
862.447	3211
862.58	3127
862.712	2994
862.844	2929
862.976	3058
863.108	3032
863.24	3332
863.372	2906
863.504	2994
863.636	2956
863.768	3032
863.9	3005
864.032	2925
864.164	2960
864.296	3062
864.428	3074
864.559	3119
864.691	3108
864.823	3070
864.954	3085
865.086	3055
865.217	3024
865.349	2975
865.48	3020
865.612	3032
865.743	3157
865.875	3013
866.006	2952
866.137	3001
866.269	2956
866.4	2975
866.531	2944
866.662	2906
866.793	2933
866.924	2918
867.055	2979
867.186	2933
867.317	2887
867.448	2861
867.579	2876
867.71	2891
867.841	2849
867.972	2929
868.103	2899
868.233	2944
868.364	2918
868.495	2922
868.625	3097
868.756	3173
868.886	2998
869.017	3013
869.147	3207
869.278	3150
869.408	3039
869.539	3009
869.669	3150
869.799	3074
869.929	3150
870.06	3146
870.19	3336
870.32	3287
870.45	3351
870.58	3389
870.71	3466
870.84	3443
870.97	3325
871.1	3260
871.23	3469
871.36	3462
871.489	3374
871.619	3416
871.749	3424
871.879	3447
872.008	3481
872.138	3378
872.267	3279
872.397	3192
872.526	3108
872.656	3032
872.785	3138
872.915	3237
873.044	3332
873.173	3226
873.303	3279
873.432	3245
873.561	3264
873.69	3188
873.819	3142
873.948	3203
874.077	3100
874.206	3058
874.335	3104
874.464	3230
874.593	3351
874.722	3230
874.851	3405
874.979	3351
875.108	3329
875.237	3214
875.365	3161
875.494	3169
875.623	3256
875.751	3039
875.88	3131
876.008	3203
876.136	3211
876.265	3351
876.393	3496
876.521	3420
876.65	3420
876.778	3363
876.906	3291
877.034	3169
877.162	3241
877.29	3176
877.418	3302
877.546	3279
877.674	3237
877.802	3264
877.93	3226
878.058	3173
878.185	3112
878.313	3188
878.441	3226
878.568	3085
878.696	3165
878.824	3275
878.951	3310
879.079	3481
879.206	3603
879.333	3450
879.461	3310
879.588	3348
879.715	3485
879.842	3603
879.97	3359
880.097	3180
880.224	3131
880.351	3214
880.478	3241
880.605	3249
880.732	3176
880.859	3496
880.986	3344
881.112	3340
881.239	3184
881.366	3123
881.493	3028
881.619	3089
881.746	3077
881.872	3089
881.999	3104
882.125	3192
882.252	3306
882.378	3348
882.505	3431
882.631	3306
882.757	3176
882.883	3241
883.01	3230
883.136	3154
883.262	3123
883.388	3138
883.514	3298
883.64	3367
883.766	3336
883.892	3150
884.018	3230
884.143	3420
884.269	3549
884.395	3253
884.52	3173
884.646	3218
884.772	3119
884.897	3112
885.023	3214
885.148	3329
885.274	3416
885.399	3351
885.524	3272
885.65	3218
885.775	3329
885.9	3306
886.025	3412
886.15	3370
886.275	3317
886.4	3253
886.525	3275
886.65	3298
886.775	3291
886.9	3469
887.025	3690
887.149	3409
887.274	3249
887.399	3199
887.523	3222
887.648	3226
887.773	3218
887.897	3367
888.021	3409
888.146	3317
888.27	3401
888.395	3557
888.519	3485
888.643	3462
888.767	3462
888.891	3310
889.015	3237
889.139	3279
889.263	3253
889.387	3439
889.511	3534
889.635	3477
889.759	3291
889.883	3329
890.006	3424
890.13	3450
890.254	3306
890.377	3336
890.501	3241
890.624	3226
890.748	3291
890.871	3222
890.995	3123
891.118	3058
891.241	3195
891.364	3211
891.488	3329
891.611	3222
891.734	3253
891.857	3260
891.98	3275
892.103	3348
892.226	3306
892.349	3195
892.471	3135
892.594	3245
892.717	3272
892.839	3264
892.962	3340
893.085	3355
893.207	3310
893.33	3203
893.452	3207
893.575	3382
893.697	3283
893.819	3447
893.941	3504
894.064	3447
894.186	3294
894.308	3294
894.43	3435
894.552	3534
894.674	3435
894.796	3272
894.918	3351
895.04	3306
895.161	3393
895.283	3378
895.405	3313
895.526	3359
895.648	3439
895.769	3424
895.891	3447
896.012	3477
896.134	3492
896.255	3416
896.376	3435
896.498	3382
896.619	3466
896.74	3332
896.861	3393
896.982	3682
897.103	3812
897.224	3618
897.345	3519
897.466	3374
897.587	3515
897.708	3648
897.828	3523
897.949	3428
898.07	3351
898.19	3401
898.311	3633
898.431	3469
898.552	3526
898.672	3584
898.792	3599
898.913	3519
899.033	3405
899.153	3275
899.273	3203
899.393	3294
899.513	3291
899.633	3313
899.753	3325
899.873	3287
899.993	3405
900.113	3348
900.232	3405
900.352	3359
900.472	3336
900.591	3195
900.711	3298
900.83	3241
900.95	3386
901.069	3488
901.189	3370
901.308	3146
901.427	3154
901.546	3211
901.665	3340
901.784	3386
901.904	3256
902.023	3199
902.141	3047
902.26	3017
902.379	3135
902.498	3085
902.617	3017
902.735	3169
902.854	3256
902.973	3207
903.091	3020
903.21	3074
903.328	3131
903.446	3104
903.565	3154
903.683	3195
903.801	3131
903.919	3214
904.038	3291
904.156	3173
904.274	3283
904.392	3287
904.51	3298
904.627	3336
904.745	3458
904.863	3507
904.981	3245
905.098	3176
905.216	3203
905.334	3306
905.451	3298
905.569	3325
905.686	3397
905.803	3420
905.921	3275
906.038	3420
906.155	3374
906.272	3287
906.389	3329
906.506	3195
906.623	3241
906.74	3283
906.857	3237
906.974	3264
907.091	3424
907.208	3538
907.324	3454
907.441	3405
907.557	3268
907.674	3218
907.79	3192
907.907	3302
908.023	3378
908.139	3359
908.256	3317
908.372	3386
908.488	3359
908.604	3241
908.72	3256
908.836	3302
908.952	3260
909.068	3363
909.184	3485
909.3	3409
909.415	3504
909.531	3477
909.647	3291
909.762	3272
909.878	3249
909.993	3348
910.108	3382
910.224	3363
910.339	3405
910.454	3340
910.57	3291
910.685	3260
910.8	3580
910.915	3549
911.03	3428
911.145	3256
911.259	3279
911.374	3287
911.489	3226
911.604	3253
911.718	3138
911.833	3150
911.947	3032
912.062	2982
912.176	3169
912.291	3195
912.405	3211
912.519	3428
912.633	3477
912.748	3310
912.862	3245
912.976	3188
913.09	3062
913.204	3108
913.318	3218
913.431	3348
913.545	3313
913.659	3431
913.772	3367
913.886	3199
914	3184
914.113	3336
914.226	3409
914.34	3374
914.453	3199
914.566	3412
914.68	3321
914.793	3329
914.906	3169
915.019	3131
915.132	3058
915.245	3184
915.358	3233
915.47	3249
915.583	3294
915.696	3283
915.809	3401
915.921	3424
916.034	3260
916.146	3253
916.259	3218
916.371	3363
916.483	3397
916.595	3275
916.708	3355
916.82	3294
916.932	3321
917.044	3321
917.156	3340
917.268	3264
917.38	3272
917.491	3313
917.603	3397
917.715	3439
917.826	3443
917.938	3382
918.049	3245
918.161	3439
918.272	3561
918.384	3561
918.495	3469
918.606	3340
918.717	3287
918.828	3351
918.939	3393
919.05	3272
919.161	3386
919.272	3188
919.383	3291
919.494	3492
919.604	3682
919.715	3481
919.826	3424
919.936	3462
920.047	3580
920.157	3564
920.267	3751
920.378	3580
920.488	3576
920.598	3759
920.708	3960
920.818	3804
920.928	3846
921.038	4021
921.148	3975
921.258	3656
921.368	3675
921.477	3584
921.587	3511
921.697	3477
921.806	3656
921.916	3515
922.025	3363
922.134	3310
922.244	3298
922.353	3443
922.462	3291
922.571	3203
922.68	3097
922.789	3085
922.898	3112
923.007	3100
923.116	3207
923.224	3188
923.333	3150
923.442	3108
923.55	3116
923.659	3142
923.767	3199
923.876	3138
923.984	3264
924.092	3097
924.201	3222
924.309	3256
924.417	3249
924.525	3237
924.633	3222
924.741	4059
924.849	3077
924.956	3298
925.064	3127
925.172	3047
925.279	3142
925.387	3199
925.494	3214
925.602	3344
925.709	3302
925.816	3195
925.924	3283
926.031	3348
926.138	3329
926.245	3363
926.352	3260
926.459	3412
926.566	3428
926.673	3340
926.779	3226
926.886	3306
926.993	3138
927.099	3138
927.206	3100
927.312	3100
927.419	3241
927.525	3222
927.631	3249
927.737	3150
927.843	3169
927.95	3013
928.056	3142
928.162	3161
928.267	3218
928.373	3835
928.479	3294
928.585	3036
928.69	3230
928.796	3264
928.901	3123
929.007	3047
929.112	3218
929.218	3165
929.323	3127
929.428	3138
929.533	3317
929.638	3081
929.743	3150
929.848	3207
929.953	3176
930.058	3112
930.163	2967
930.267	3020
930.372	3218
930.477	3005
930.581	3272
930.685	3188
930.79	3058
930.894	3089
930.998	3081
931.103	3302
931.207	2941
931.311	2914
931.415	2933
931.519	2743
931.623	2815
