Data from test_V78500241_287.txt Node
Date: Fri Mar 25 16:17:11 CST 2022
User: usil
Spectrometer: V785-0024
Trigger mode: 0
Integration Time (sec): 4.000000E-1
Scans to average: 1
Nonlinearity correction enabled: false
Boxcar width: 0
Storing dark spectrum: false
XAxis mode: Wavelengths
Number of Pixels in Spectrum: 1024
>>>>>Begin Spectral Data<<<<<
801.071	2910
801.214	2952
801.356	2883
801.499	2891
801.641	2857
801.783	2929
801.926	3051
802.068	2963
802.211	2982
802.353	3017
802.496	3009
802.638	3013
802.78	3043
802.923	3108
803.065	2975
803.208	2937
803.35	2929
803.492	2925
803.635	2963
803.777	2750
803.919	2880
804.061	3199
804.204	2952
804.346	2925
804.488	2853
804.63	3005
804.773	2830
804.915	2922
805.057	3081
805.199	2918
805.341	2990
805.483	3058
805.626	2986
805.768	2979
805.91	3127
806.052	3097
806.194	3017
806.336	3245
806.478	3017
806.62	2960
806.762	2998
806.904	3066
807.046	3161
807.188	2941
807.33	2887
807.472	2982
807.614	2880
807.756	2994
807.898	2963
808.04	2887
808.182	2948
808.324	2979
808.465	2906
808.607	2910
808.749	2796
808.891	2838
809.033	2986
809.174	2967
809.316	2887
809.458	2906
809.6	2754
809.741	2766
809.883	2796
810.025	2883
810.166	2853
810.308	2819
810.45	2861
810.591	2762
810.733	2746
810.875	2872
811.016	2762
811.158	2792
811.299	2800
811.441	2891
811.582	2864
811.724	2838
811.865	2853
812.007	2910
812.148	2906
812.29	2845
812.431	2887
812.573	2941
812.714	2937
812.855	3077
812.997	3100
813.138	3131
813.279	3013
813.421	3032
813.562	2975
813.703	2876
813.845	2849
813.986	2777
814.127	2708
814.268	2868
814.41	2849
814.551	2807
814.692	2876
814.833	2838
814.974	2880
815.115	2967
815.256	2830
815.397	2819
815.539	2864
815.68	2769
815.821	2785
815.962	2971
816.103	2960
816.244	2883
816.385	2857
816.526	2971
816.666	2933
816.807	2743
816.948	2914
817.089	2925
817.23	2883
817.371	2796
817.512	2796
817.653	2811
817.793	2815
817.934	2918
818.075	2975
818.216	2994
818.356	2982
818.497	2883
818.638	2800
818.778	2811
818.919	2804
819.06	2746
819.2	2914
819.341	2826
819.481	2800
819.622	2948
819.762	3100
819.903	3074
820.043	2941
820.184	2918
820.324	2910
820.465	3070
820.605	2975
820.746	3013
820.886	2914
821.026	3123
821.167	3165
821.307	3279
821.447	3214
821.588	3207
821.728	3195
821.868	3237
822.008	3081
822.149	3154
822.289	3222
822.429	3070
822.569	3097
822.709	3180
822.849	3036
822.99	3062
823.13	3188
823.27	3192
823.41	3135
823.55	3108
823.69	3135
823.83	3173
823.97	3097
824.11	3032
824.25	2994
824.389	3066
824.529	3157
824.669	3058
824.809	3192
824.949	3230
825.089	3218
825.228	3150
825.368	3020
825.508	2948
825.648	2929
825.787	3005
825.927	3013
826.067	2956
826.206	2941
826.346	3051
826.485	3081
826.625	3070
826.765	3245
826.904	3207
827.044	3001
827.183	2944
827.323	2849
827.462	3005
827.601	2922
827.741	2967
827.88	2944
828.02	2876
828.159	3005
828.298	3024
828.437	3112
828.577	3017
828.716	3237
828.855	3074
828.994	2902
829.134	2895
829.273	2937
829.412	2887
829.551	2857
829.69	2922
829.829	2986
829.968	3138
830.107	3028
830.246	2990
830.385	2891
830.524	2891
830.663	2826
830.802	2693
830.941	2663
831.08	2644
831.219	2777
831.357	2727
831.496	2933
831.635	2746
831.774	2640
831.913	2632
832.051	2537
832.19	2571
832.329	2655
832.467	2533
832.606	2473
832.744	2549
832.883	2606
833.022	2575
833.16	2659
833.299	2663
833.437	2735
833.576	2674
833.714	2727
833.852	2708
833.991	2743
834.129	2842
834.267	2800
834.406	2766
834.544	2918
834.682	2853
834.821	2861
834.959	3066
835.097	2899
835.235	3047
835.373	2929
835.511	3024
835.65	2986
835.788	2960
835.926	2838
836.064	2773
836.202	2842
836.34	3066
836.478	3100
836.615	3013
836.753	3119
836.891	3214
837.029	3154
837.167	3112
837.305	3077
837.443	3047
837.58	2990
837.718	3138
837.856	3070
837.993	3058
838.131	3138
838.269	3108
838.406	3116
838.544	3085
838.681	2952
838.819	2948
838.956	2811
839.094	2861
839.231	2948
839.369	3020
839.506	3363
839.643	3222
839.781	3028
839.918	3017
840.055	3066
840.193	3077
840.33	3074
840.467	3112
840.604	3112
840.742	3374
840.879	3062
841.016	3081
841.153	3127
841.29	3313
841.427	3287
841.564	3291
841.701	3306
841.838	3222
841.975	3154
842.112	3199
842.249	3058
842.385	3043
842.522	3260
842.659	3089
842.796	3074
842.933	3070
843.069	3047
843.206	3024
843.343	3165
843.479	3104
843.616	3192
843.752	2902
843.889	2887
844.025	3074
844.162	2849
844.298	3055
844.435	2918
844.571	2918
844.708	3047
844.844	3142
844.98	3222
845.117	3192
845.253	3077
845.389	2971
845.525	3135
845.661	3093
845.798	3017
845.934	3104
846.07	3043
846.206	3233
846.342	3294
846.478	3218
846.614	3058
846.75	3066
846.886	3047
847.022	3279
847.158	3135
847.294	3154
847.429	3268
847.565	3207
847.701	3469
847.837	3028
847.972	3028
848.108	3180
848.244	3154
848.379	2990
848.515	2952
848.65	2944
848.786	2941
848.921	3020
849.057	3112
849.192	3135
849.328	3036
849.463	3108
849.598	3085
849.734	3024
849.869	2982
850.004	2922
850.14	2963
850.275	2925
850.41	2823
850.545	2876
850.68	2929
850.815	2937
850.95	2982
851.085	3188
851.22	3108
851.355	3017
851.49	2956
851.625	2975
851.76	3013
851.895	2937
852.03	2918
852.165	3032
852.299	3123
852.434	3211
852.569	3131
852.703	3142
852.838	3230
852.973	3351
853.107	3298
853.242	3146
853.376	3127
853.511	2982
853.645	3047
853.78	3222
853.914	3108
854.048	3142
854.183	3062
854.317	3119
854.451	3283
854.585	3131
854.72	3081
854.854	3260
854.988	3062
855.122	3085
855.256	2990
855.39	3112
855.524	3237
855.658	3146
855.792	3135
855.926	3195
856.06	3222
856.194	3237
856.327	3188
856.461	3066
856.595	3024
856.729	3074
856.862	3268
856.996	3154
857.13	3203
857.263	3226
857.397	3275
857.53	3100
857.664	3211
857.797	3230
857.931	3253
858.064	3131
858.197	3207
858.331	3138
858.464	3097
858.597	3005
858.731	3116
858.864	3142
858.997	3093
859.13	3199
859.263	3176
859.396	3173
859.529	3093
859.662	3070
859.795	3043
859.928	3116
860.061	3264
860.194	3298
860.327	3104
860.46	3085
860.592	3230
860.725	3203
860.858	3237
860.99	3074
861.123	3039
861.256	3032
861.388	3135
861.521	3888
861.653	2990
861.786	2990
861.918	3005
862.05	3055
862.183	3104
862.315	3150
862.447	3203
862.58	3108
862.712	2971
862.844	2849
862.976	3013
863.108	2982
863.24	3344
863.372	2880
863.504	2952
863.636	2967
863.768	3020
863.9	2944
864.032	2902
864.164	2956
864.296	3009
864.428	3066
864.559	3146
864.691	3112
864.823	3066
864.954	3013
865.086	3024
865.217	3001
865.349	2956
865.48	2979
865.612	3017
865.743	3173
865.875	2986
866.006	2910
866.137	2986
866.269	2956
866.4	2929
866.531	2929
866.662	2876
866.793	2895
866.924	2899
867.055	2941
867.186	2933
867.317	2891
867.448	2842
867.579	2845
867.71	2842
867.841	2811
867.972	2899
868.103	2891
868.233	2883
868.364	2849
868.495	2899
868.625	3051
868.756	3142
868.886	2952
869.017	3009
869.147	3154
869.278	3165
869.408	2994
869.539	2990
869.669	3066
869.799	3055
869.929	3131
870.06	3104
870.19	3355
870.32	3310
870.45	3291
870.58	3382
870.71	3466
870.84	3454
870.97	3256
871.1	3222
871.23	3450
871.36	3481
871.489	3370
871.619	3416
871.749	3405
871.879	3428
872.008	3466
872.138	3393
872.267	3268
872.397	3154
872.526	3100
872.656	2990
872.785	3074
872.915	3237
873.044	3310
873.173	3214
873.303	3195
873.432	3249
873.561	3237
873.69	3157
873.819	3169
873.948	3192
874.077	3093
874.206	3020
874.335	3062
874.464	3199
874.593	3344
874.722	3230
874.851	3409
874.979	3370
875.108	3329
875.237	3230
875.365	3176
875.494	3157
875.623	3233
875.751	3055
875.88	3142
876.008	3173
876.136	3218
876.265	3359
876.393	3488
876.521	3386
876.65	3428
876.778	3325
876.906	3241
877.034	3192
877.162	3256
877.29	3199
877.418	3245
877.546	3253
877.674	3249
877.802	3264
877.93	3230
878.058	3157
878.185	3135
878.313	3214
878.441	3218
878.568	3100
878.696	3165
878.824	3245
878.951	3287
879.079	3435
879.206	3595
879.333	3405
879.461	3294
879.588	3363
879.715	3496
879.842	3561
879.97	3382
880.097	3199
880.224	3123
880.351	3203
880.478	3218
880.605	3199
880.732	3192
880.859	3511
880.986	3306
881.112	3287
881.239	3203
881.366	3112
881.493	3032
881.619	3017
881.746	3116
881.872	3051
881.999	3081
882.125	3161
882.252	3241
882.378	3313
882.505	3409
882.631	3313
882.757	3165
882.883	3226
883.01	3230
883.136	3142
883.262	3043
883.388	3116
883.514	3329
883.64	3348
883.766	3272
883.892	3195
884.018	3241
884.143	3393
884.269	3534
884.395	3230
884.52	3104
884.646	3169
884.772	3112
884.897	3108
885.023	3180
885.148	3317
885.274	3428
885.399	3363
885.524	3264
885.65	3256
885.775	3332
885.9	3291
886.025	3439
886.15	3344
886.275	3310
886.4	3214
886.525	3351
886.65	3256
886.775	3272
886.9	3492
887.025	3644
887.149	3409
887.274	3233
887.399	3180
887.523	3203
887.648	3176
887.773	3233
887.897	3412
888.021	3401
888.146	3287
888.27	3397
888.395	3530
888.519	3401
888.643	3488
888.767	3481
888.891	3294
889.015	3249
889.139	3321
889.263	3233
889.387	3405
889.511	3534
889.635	3439
889.759	3298
889.883	3260
890.006	3351
890.13	3485
890.254	3253
890.377	3332
890.501	3188
890.624	3180
890.748	3260
890.871	3165
890.995	3123
891.118	3058
891.241	3226
891.364	3203
891.488	3291
891.611	3157
891.734	3241
891.857	3291
891.98	3241
892.103	3298
892.226	3275
892.349	3233
892.471	3112
892.594	3230
892.717	3294
892.839	3283
892.962	3310
893.085	3351
893.207	3275
893.33	3154
893.452	3203
893.575	3298
893.697	3272
893.819	3450
893.941	3443
894.064	3496
894.186	3283
894.308	3249
894.43	3462
894.552	3542
894.674	3473
894.796	3287
894.918	3329
895.04	3275
895.161	3458
895.283	3370
895.405	3279
895.526	3355
895.648	3401
895.769	3428
895.891	3443
896.012	3481
896.134	3481
896.255	3420
896.376	3416
896.498	3386
896.619	3416
896.74	3401
896.861	3416
896.982	3682
897.103	3850
897.224	3603
897.345	3523
897.466	3439
897.587	3523
897.708	3618
897.828	3564
897.949	3450
898.07	3325
898.19	3401
898.311	3591
898.431	3481
898.552	3500
898.672	3595
898.792	3606
898.913	3549
899.033	3428
899.153	3287
899.273	3214
899.393	3264
899.513	3325
899.633	3340
899.753	3313
899.873	3325
899.993	3401
900.113	3351
900.232	3393
900.352	3378
900.472	3313
900.591	3218
900.711	3310
900.83	3260
900.95	3412
901.069	3507
901.189	3340
901.308	3211
901.427	3138
901.546	3218
901.665	3329
901.784	3332
901.904	3222
902.023	3127
902.141	3047
902.26	3036
902.379	3157
902.498	3093
902.617	3062
902.735	3157
902.854	3233
902.973	3218
903.091	3043
903.21	3089
903.328	3123
903.446	3116
903.565	3093
903.683	3192
903.801	3135
903.919	3233
904.038	3332
904.156	3161
904.274	3256
904.392	3226
904.51	3302
904.627	3302
904.745	3454
904.863	3496
904.981	3253
905.098	3138
905.216	3249
905.334	3298
905.451	3294
905.569	3298
905.686	3416
905.803	3454
905.921	3268
906.038	3424
906.155	3363
906.272	3302
906.389	3332
906.506	3256
906.623	3253
906.74	3283
906.857	3188
906.974	3222
907.091	3458
907.208	3576
907.324	3481
907.441	3389
907.557	3230
907.674	3241
907.79	3180
907.907	3310
908.023	3397
908.139	3351
908.256	3321
908.372	3340
908.488	3382
908.604	3272
908.72	3214
908.836	3287
908.952	3313
909.068	3313
909.184	3485
909.3	3367
909.415	3473
909.531	3466
909.647	3268
909.762	3253
909.878	3260
909.993	3363
910.108	3317
910.224	3348
910.339	3367
910.454	3336
910.57	3313
910.685	3245
910.8	3568
910.915	3534
911.03	3428
911.145	3283
911.259	3264
911.374	3329
911.489	3226
911.604	3237
911.718	3142
911.833	3157
911.947	3013
912.062	2975
912.176	3165
912.291	3188
912.405	3218
912.519	3378
912.633	3477
912.748	3325
912.862	3260
912.976	3199
913.09	3123
913.204	3138
913.318	3207
913.431	3325
913.545	3355
913.659	3409
913.772	3359
913.886	3245
914	3226
914.113	3336
914.226	3454
914.34	3370
914.453	3207
914.566	3416
914.68	3279
914.793	3310
914.906	3119
915.019	3089
915.132	3070
915.245	3173
915.358	3188
915.47	3218
915.583	3237
915.696	3294
915.809	3370
915.921	3370
916.034	3241
916.146	3237
916.259	3214
916.371	3412
916.483	3344
916.595	3310
916.708	3344
916.82	3363
916.932	3359
917.044	3321
917.156	3359
917.268	3275
917.38	3283
917.491	3294
917.603	3359
917.715	3412
917.826	3443
917.938	3416
918.049	3313
918.161	3469
918.272	3564
918.384	3561
918.495	3526
918.606	3363
918.717	3287
918.828	3397
918.939	3412
919.05	3287
919.161	3332
919.272	3161
919.383	3275
919.494	3496
919.604	3610
919.715	3492
919.826	3401
919.936	3435
920.047	3568
920.157	3572
920.267	3740
920.378	3610
920.488	3557
920.598	3812
920.708	3934
920.818	3808
920.928	3808
921.038	4048
921.148	3975
921.258	3698
921.368	3625
921.477	3599
921.587	3557
921.697	3428
921.806	3618
921.916	3515
922.025	3363
922.134	3351
922.244	3291
922.353	3412
922.462	3287
922.571	3237
922.68	3100
922.789	3081
922.898	3127
923.007	3108
923.116	3233
923.224	3173
923.333	3222
923.442	3116
923.55	3085
923.659	3123
923.767	3237
923.876	3097
923.984	3245
924.092	3119
924.201	3230
924.309	3203
924.417	3268
924.525	3199
924.633	3256
924.741	4173
924.849	3039
924.956	3260
925.064	3108
925.172	3055
925.279	3097
925.387	3218
925.494	3192
925.602	3370
925.709	3313
925.816	3192
925.924	3275
926.031	3336
926.138	3310
926.245	3401
926.352	3260
926.459	3370
926.566	3469
926.673	3340
926.779	3237
926.886	3237
926.993	3135
927.099	3138
927.206	3112
927.312	3112
927.419	3218
927.525	3169
927.631	3233
927.737	3173
927.843	3077
927.95	3017
928.056	3146
928.162	3165
928.267	3222
928.373	3838
928.479	3313
928.585	3089
928.69	3226
928.796	3279
928.901	3169
929.007	3036
929.112	3222
929.218	3192
929.323	3146
929.428	3154
929.533	3287
929.638	3104
929.743	3184
929.848	3256
929.953	3199
930.058	3146
930.163	3013
930.267	3020
930.372	3199
930.477	3062
930.581	3317
930.685	3176
930.79	3066
930.894	3116
930.998	3093
931.103	3294
931.207	2956
931.311	2963
931.415	2914
931.519	2777
931.623	2815
