Data from test_V78500241_2049.txt Node
Date: Fri Mar 25 16:29:23 CST 2022
User: usil
Spectrometer: V785-0024
Trigger mode: 0
Integration Time (sec): 4.000000E-1
Scans to average: 1
Nonlinearity correction enabled: false
Boxcar width: 0
Storing dark spectrum: false
XAxis mode: Wavelengths
Number of Pixels in Spectrum: 1024
>>>>>Begin Spectral Data<<<<<
801.071	2944
801.214	2960
801.356	2899
801.499	2918
801.641	2918
801.783	2910
801.926	3058
802.068	2975
802.211	3009
802.353	3058
802.496	2990
802.638	2998
802.78	3039
802.923	3070
803.065	2975
803.208	2902
803.35	2937
803.492	2933
803.635	2925
803.777	2785
803.919	2887
804.061	3180
804.204	2975
804.346	2941
804.488	2823
804.63	2960
804.773	2872
804.915	2929
805.057	3081
805.199	2929
805.341	2963
805.483	3043
805.626	3009
805.768	2952
805.91	3043
806.052	3089
806.194	3058
806.336	3230
806.478	3039
806.62	2895
806.762	2952
806.904	3066
807.046	3138
807.188	2990
807.33	2876
807.472	2982
807.614	2925
807.756	2982
807.898	2914
808.04	2902
808.182	2986
808.324	2922
808.465	2868
808.607	2868
808.749	2804
808.891	2800
809.033	2994
809.174	2963
809.316	2910
809.458	2902
809.6	2735
809.741	2769
809.883	2705
810.025	2857
810.166	2845
810.308	2823
810.45	2842
810.591	2762
810.733	2769
810.875	2838
811.016	2792
811.158	2743
811.299	2804
811.441	2914
811.582	2880
811.724	2868
811.865	2853
812.007	2872
812.148	2861
812.29	2838
812.431	2868
812.573	2941
812.714	2929
812.855	3051
812.997	3066
813.138	3070
813.279	3020
813.421	2937
813.562	2948
813.703	2880
813.845	2899
813.986	2811
814.127	2724
814.268	2804
814.41	2845
814.551	2804
814.692	2880
814.833	2845
814.974	2887
815.115	2948
815.256	2853
815.397	2781
815.539	2853
815.68	2777
815.821	2796
815.962	2963
816.103	2948
816.244	2864
816.385	2883
816.526	2971
816.666	2906
816.807	2739
816.948	2849
817.089	2910
817.23	2842
817.371	2804
817.512	2773
817.653	2834
817.793	2823
817.934	2876
818.075	2963
818.216	2960
818.356	2998
818.497	2864
818.638	2758
818.778	2826
818.919	2804
819.06	2739
819.2	2861
819.341	2785
819.481	2796
819.622	2929
819.762	3100
819.903	3043
820.043	2918
820.184	2864
820.324	2906
820.465	2986
820.605	3039
820.746	3036
820.886	2929
821.026	3074
821.167	3146
821.307	3268
821.447	3291
821.588	3230
821.728	3192
821.868	3176
822.008	3024
822.149	3173
822.289	3253
822.429	3100
822.569	3036
822.709	3180
822.849	3032
822.99	3062
823.13	3154
823.27	3199
823.41	3104
823.55	3135
823.69	3131
823.83	3188
823.97	3051
824.11	2998
824.25	2994
824.389	3062
824.529	3093
824.669	3077
824.809	3188
824.949	3192
825.089	3233
825.228	3150
825.368	3043
825.508	2906
825.648	2925
825.787	3028
825.927	3032
826.067	2975
826.206	2971
826.346	3051
826.485	3055
826.625	3108
826.765	3275
826.904	3211
827.044	3001
827.183	2929
827.323	2883
827.462	2960
827.601	2899
827.741	2902
827.88	2933
828.02	2853
828.159	2986
828.298	3020
828.437	3119
828.577	3047
828.716	3230
828.855	3062
828.994	2891
829.134	2864
829.273	2929
829.412	2853
829.551	2864
829.69	2906
829.829	2975
829.968	3085
830.107	3001
830.246	2994
830.385	2891
830.524	2857
830.663	2830
830.802	2731
830.941	2651
831.08	2625
831.219	2758
831.357	2750
831.496	2963
831.635	2705
831.774	2636
831.913	2636
832.051	2541
832.19	2560
832.329	2667
832.467	2552
832.606	2484
832.744	2571
832.883	2590
833.022	2598
833.16	2640
833.299	2689
833.437	2686
833.576	2678
833.714	2739
833.852	2720
833.991	2727
834.129	2823
834.267	2811
834.406	2796
834.544	2857
834.682	2864
834.821	2864
834.959	3047
835.097	2910
835.235	3051
835.373	2971
835.511	2986
835.65	2937
835.788	2933
835.926	2819
836.064	2800
836.202	2845
836.34	3074
836.478	3127
836.615	3013
836.753	3116
836.891	3184
837.029	3195
837.167	3104
837.305	3032
837.443	3032
837.58	2982
837.718	3150
837.856	3074
837.993	3047
838.131	3093
838.269	3089
838.406	3119
838.544	3093
838.681	2933
838.819	2861
838.956	2815
839.094	2804
839.231	2941
839.369	3001
839.506	3351
839.643	3214
839.781	2998
839.918	2963
840.055	3032
840.193	3043
840.33	3058
840.467	3058
840.604	3165
840.742	3374
840.879	3066
841.016	3039
841.153	3097
841.29	3283
841.427	3306
841.564	3241
841.701	3275
841.838	3218
841.975	3154
842.112	3188
842.249	3100
842.385	3009
842.522	3264
842.659	3051
842.796	3039
842.933	3108
843.069	3055
843.206	3051
843.343	3154
843.479	3112
843.616	3146
843.752	2861
843.889	2842
844.025	3055
844.162	2868
844.298	3070
844.435	2979
844.571	2895
844.708	3036
844.844	3180
844.98	3241
845.117	3184
845.253	3032
845.389	2994
845.525	3085
845.661	3081
845.798	3028
845.934	3116
846.07	3055
846.206	3218
846.342	3306
846.478	3218
846.614	3108
846.75	3036
846.886	3032
847.022	3222
847.158	3165
847.294	3188
847.429	3249
847.565	3207
847.701	3492
847.837	2994
847.972	3020
848.108	3127
848.244	3085
848.379	2967
848.515	2933
848.65	2933
848.786	2963
848.921	3005
849.057	3097
849.192	3119
849.328	3039
849.463	3070
849.598	3013
849.734	3043
849.869	2960
850.004	2899
850.14	2937
850.275	2910
850.41	2823
850.545	2891
850.68	2929
850.815	2941
850.95	2963
851.085	3192
851.22	3119
851.355	3017
851.49	2944
851.625	3017
851.76	2998
851.895	2922
852.03	2891
852.165	3043
852.299	3104
852.434	3180
852.569	3157
852.703	3188
852.838	3199
852.973	3340
853.107	3344
853.242	3138
853.376	3085
853.511	2941
853.645	3009
853.78	3230
853.914	3062
854.048	3097
854.183	3093
854.317	3150
854.451	3275
854.585	3123
854.72	3100
854.854	3214
854.988	3089
855.122	3108
855.256	2944
855.39	3062
855.524	3192
855.658	3150
855.792	3150
855.926	3161
856.06	3230
856.194	3230
856.327	3150
856.461	3085
856.595	3066
856.729	3077
856.862	3176
856.996	3154
857.13	3192
857.263	3207
857.397	3241
857.53	3100
857.664	3180
857.797	3233
857.931	3256
858.064	3157
858.197	3211
858.331	3127
858.464	3077
858.597	2963
858.731	3093
858.864	3108
858.997	3062
859.13	3119
859.263	3176
859.396	3207
859.529	3116
859.662	3047
859.795	3032
859.928	3138
860.061	3272
860.194	3310
860.327	3100
860.46	3093
860.592	3226
860.725	3260
860.858	3237
860.99	3100
861.123	3028
861.256	3062
861.388	3116
861.521	3850
861.653	3020
861.786	2971
861.918	2998
862.05	3074
862.183	3108
862.315	3154
862.447	3188
862.58	3089
862.712	2963
862.844	2845
862.976	3013
863.108	2986
863.24	3291
863.372	2872
863.504	2952
863.636	2910
863.768	3017
863.9	2990
864.032	2872
864.164	2929
864.296	3020
864.428	3066
864.559	3104
864.691	3070
864.823	3032
864.954	3047
865.086	3051
865.217	2994
865.349	2941
865.48	2960
865.612	2986
865.743	3119
865.875	2975
866.006	2929
866.137	2986
866.269	2914
866.4	2906
866.531	2868
866.662	2880
866.793	2880
866.924	2857
867.055	2967
867.186	2914
867.317	2887
867.448	2834
867.579	2842
867.71	2834
867.841	2823
867.972	2883
868.103	2876
868.233	2842
868.364	2842
868.495	2868
868.625	3085
868.756	3165
868.886	3005
869.017	3005
869.147	3127
869.278	3119
869.408	3051
869.539	3036
869.669	3100
869.799	3028
869.929	3100
870.06	3116
870.19	3313
870.32	3298
870.45	3260
870.58	3348
870.71	3439
870.84	3443
870.97	3264
871.1	3237
871.23	3431
871.36	3435
871.489	3340
871.619	3397
871.749	3382
871.879	3450
872.008	3492
872.138	3329
872.267	3249
872.397	3119
872.526	3097
872.656	3039
872.785	3070
872.915	3199
873.044	3336
873.173	3180
873.303	3241
873.432	3192
873.561	3268
873.69	3150
873.819	3135
873.948	3211
874.077	3112
874.206	3028
874.335	3066
874.464	3233
874.593	3332
874.722	3214
874.851	3374
874.979	3351
875.108	3298
875.237	3195
875.365	3135
875.494	3146
875.623	3260
875.751	3062
875.88	3058
876.008	3199
876.136	3241
876.265	3367
876.393	3504
876.521	3382
876.65	3367
876.778	3310
876.906	3214
877.034	3214
877.162	3233
877.29	3146
877.418	3230
877.546	3264
877.674	3245
877.802	3214
877.93	3199
878.058	3127
878.185	3112
878.313	3180
878.441	3180
878.568	3066
878.696	3161
878.824	3260
878.951	3302
879.079	3450
879.206	3595
879.333	3462
879.461	3351
879.588	3351
879.715	3492
879.842	3553
879.97	3329
880.097	3161
880.224	3146
880.351	3207
880.478	3173
880.605	3165
880.732	3203
880.859	3454
880.986	3264
881.112	3264
881.239	3195
881.366	3089
881.493	3005
881.619	3013
881.746	3036
881.872	3097
881.999	3085
882.125	3131
882.252	3230
882.378	3233
882.505	3420
882.631	3260
882.757	3127
882.883	3176
883.01	3184
883.136	3165
883.262	3066
883.388	3108
883.514	3321
883.64	3306
883.766	3287
883.892	3138
884.018	3222
884.143	3424
884.269	3553
884.395	3165
884.52	3154
884.646	3157
884.772	3100
884.897	3077
885.023	3157
885.148	3302
885.274	3386
885.399	3344
885.524	3279
885.65	3245
885.775	3317
885.9	3298
886.025	3393
886.15	3378
886.275	3275
886.4	3241
886.525	3253
886.65	3256
886.775	3253
886.9	3454
887.025	3629
887.149	3359
887.274	3184
887.399	3138
887.523	3154
887.648	3184
887.773	3180
887.897	3336
888.021	3409
888.146	3230
888.27	3428
888.395	3576
888.519	3378
888.643	3420
888.767	3454
888.891	3287
889.015	3268
889.139	3310
889.263	3249
889.387	3428
889.511	3511
889.635	3401
889.759	3294
889.883	3283
890.006	3370
890.13	3485
890.254	3283
890.377	3348
890.501	3173
890.624	3195
890.748	3336
890.871	3176
890.995	3127
891.118	3051
891.241	3233
891.364	3192
891.488	3359
891.611	3184
891.734	3237
891.857	3294
891.98	3275
892.103	3374
892.226	3321
892.349	3249
892.471	3131
892.594	3310
892.717	3317
892.839	3313
892.962	3313
893.085	3401
893.207	3351
893.33	3207
893.452	3268
893.575	3397
893.697	3264
893.819	3511
893.941	3500
894.064	3458
894.186	3317
894.308	3306
894.43	3466
894.552	3564
894.674	3488
894.796	3283
894.918	3321
895.04	3287
895.161	3466
895.283	3462
895.405	3348
895.526	3412
895.648	3469
895.769	3454
895.891	3496
896.012	3488
896.134	3496
896.255	3439
896.376	3431
896.498	3416
896.619	3481
896.74	3424
896.861	3447
896.982	3724
897.103	3854
897.224	3667
897.345	3557
897.466	3473
897.587	3496
897.708	3663
897.828	3561
897.949	3462
898.07	3351
898.19	3424
898.311	3614
898.431	3473
898.552	3530
898.672	3603
898.792	3629
898.913	3599
899.033	3458
899.153	3321
899.273	3260
899.393	3317
899.513	3344
899.633	3294
899.753	3329
899.873	3298
899.993	3416
900.113	3386
900.232	3424
900.352	3370
900.472	3344
900.591	3226
900.711	3313
900.83	3237
900.95	3477
901.069	3500
901.189	3393
901.308	3188
901.427	3188
901.546	3195
901.665	3325
901.784	3336
901.904	3222
902.023	3176
902.141	3036
902.26	3051
902.379	3184
902.498	3123
902.617	3066
902.735	3222
902.854	3256
902.973	3214
903.091	3066
903.21	3070
903.328	3180
903.446	3131
903.565	3135
903.683	3241
903.801	3176
903.919	3264
904.038	3298
904.156	3195
904.274	3329
904.392	3253
904.51	3272
904.627	3325
904.745	3469
904.863	3542
904.981	3291
905.098	3222
905.216	3218
905.334	3313
905.451	3363
905.569	3317
905.686	3450
905.803	3466
905.921	3294
906.038	3443
906.155	3359
906.272	3294
906.389	3351
906.506	3245
906.623	3283
906.74	3321
906.857	3245
906.974	3283
907.091	3481
907.208	3591
907.324	3523
907.441	3462
907.557	3237
907.674	3283
907.79	3249
907.907	3275
908.023	3370
908.139	3382
908.256	3325
908.372	3393
908.488	3367
908.604	3260
908.72	3275
908.836	3298
908.952	3306
909.068	3367
909.184	3545
909.3	3443
909.415	3557
909.531	3439
909.647	3298
909.762	3332
909.878	3329
909.993	3382
910.108	3378
910.224	3363
910.339	3466
910.454	3359
910.57	3336
910.685	3298
910.8	3591
910.915	3568
911.03	3450
911.145	3291
911.259	3298
911.374	3336
911.489	3306
911.604	3256
911.718	3161
911.833	3176
911.947	3074
912.062	3024
912.176	3169
912.291	3237
912.405	3222
912.519	3473
912.633	3485
912.748	3340
912.862	3287
912.976	3184
913.09	3074
913.204	3157
913.318	3214
913.431	3393
913.545	3363
913.659	3447
913.772	3359
913.886	3226
914	3226
914.113	3393
914.226	3416
914.34	3409
914.453	3245
914.566	3435
914.68	3302
914.793	3329
914.906	3161
915.019	3154
915.132	3116
915.245	3218
915.358	3222
915.47	3249
915.583	3302
915.696	3302
915.809	3424
915.921	3420
916.034	3275
916.146	3283
916.259	3256
916.371	3374
916.483	3409
916.595	3313
916.708	3367
916.82	3332
916.932	3348
917.044	3359
917.156	3378
917.268	3336
917.38	3363
917.491	3340
917.603	3348
917.715	3466
917.826	3481
917.938	3378
918.049	3268
918.161	3439
918.272	3576
918.384	3545
918.495	3488
918.606	3389
918.717	3317
918.828	3401
918.939	3428
919.05	3351
919.161	3393
919.272	3203
919.383	3313
919.494	3519
919.604	3720
919.715	3481
919.826	3424
919.936	3462
920.047	3580
920.157	3606
920.267	3774
920.378	3637
920.488	3606
920.598	3804
920.708	3979
920.818	3857
920.928	3831
921.038	4048
921.148	4051
921.258	3717
921.368	3698
921.477	3595
921.587	3580
921.697	3466
921.806	3660
921.916	3557
922.025	3382
922.134	3374
922.244	3348
922.353	3443
922.462	3317
922.571	3237
922.68	3127
922.789	3074
922.898	3135
923.007	3165
923.116	3256
923.224	3173
923.333	3230
923.442	3112
923.55	3119
923.659	3154
923.767	3211
923.876	3131
923.984	3245
924.092	3165
924.201	3245
924.309	3264
924.417	3306
924.525	3184
924.633	3264
924.741	4215
924.849	3074
924.956	3260
925.064	3157
925.172	3085
925.279	3108
925.387	3192
925.494	3226
925.602	3393
925.709	3348
925.816	3195
925.924	3291
926.031	3370
926.138	3359
926.245	3359
926.352	3298
926.459	3424
926.566	3488
926.673	3344
926.779	3294
926.886	3272
926.993	3192
927.099	3146
927.206	3135
927.312	3154
927.419	3260
927.525	3275
927.631	3287
927.737	3150
927.843	3142
927.95	3020
928.056	3135
928.162	3188
928.267	3264
928.373	3880
928.479	3348
928.585	3051
928.69	3218
928.796	3294
928.901	3135
929.007	3028
929.112	3256
929.218	3195
929.323	3169
929.428	3138
929.533	3351
929.638	3154
929.743	3188
929.848	3272
929.953	3207
930.058	3154
930.163	3028
930.267	3077
930.372	3203
930.477	3062
930.581	3306
930.685	3169
930.79	3074
930.894	3157
930.998	3119
931.103	3302
931.207	2937
931.311	2933
931.415	2933
931.519	2788
931.623	2834
