Data from test_V78500241_206.txt Node
Date: Fri Mar 25 16:16:37 CST 2022
User: usil
Spectrometer: V785-0024
Trigger mode: 0
Integration Time (sec): 4.000000E-1
Scans to average: 1
Nonlinearity correction enabled: false
Boxcar width: 0
Storing dark spectrum: false
XAxis mode: Wavelengths
Number of Pixels in Spectrum: 1024
>>>>>Begin Spectral Data<<<<<
801.071	2918
801.214	2922
801.356	2899
801.499	2914
801.641	2864
801.783	2918
801.926	3070
802.068	3017
802.211	2990
802.353	3020
802.496	2994
802.638	3032
802.78	3005
802.923	3116
803.065	3043
803.208	2868
803.35	2929
803.492	2918
803.635	2925
803.777	2758
803.919	2857
804.061	3203
804.204	2960
804.346	2963
804.488	2864
804.63	3005
804.773	2880
804.915	2944
805.057	3100
805.199	2944
805.341	2952
805.483	3051
805.626	3036
805.768	2975
805.91	3116
806.052	3104
806.194	3051
806.336	3233
806.478	3047
806.62	2971
806.762	2998
806.904	3089
807.046	3138
807.188	2990
807.33	2925
807.472	2963
807.614	2895
807.756	2975
807.898	2963
808.04	2902
808.182	3001
808.324	2963
808.465	2895
808.607	2861
808.749	2811
808.891	2857
809.033	2994
809.174	2975
809.316	2876
809.458	2906
809.6	2766
809.741	2811
809.883	2788
810.025	2849
810.166	2864
810.308	2887
810.45	2880
810.591	2796
810.733	2766
810.875	2838
811.016	2766
811.158	2746
811.299	2815
811.441	2979
811.582	2883
811.724	2815
811.865	2811
812.007	2899
812.148	2902
812.29	2883
812.431	2914
812.573	2937
812.714	2960
812.855	3066
812.997	3047
813.138	3131
813.279	3005
813.421	2998
813.562	2963
813.703	2899
813.845	2880
813.986	2792
814.127	2758
814.268	2823
814.41	2834
814.551	2868
814.692	2883
814.833	2830
814.974	2902
815.115	2963
815.256	2830
815.397	2868
815.539	2842
815.68	2807
815.821	2819
815.962	2960
816.103	2967
816.244	2902
816.385	2861
816.526	2967
816.666	2929
816.807	2743
816.948	2887
817.089	2891
817.23	2853
817.371	2792
817.512	2792
817.653	2864
817.793	2826
817.934	2883
818.075	3017
818.216	2998
818.356	3055
818.497	2891
818.638	2819
818.778	2811
818.919	2834
819.06	2796
819.2	2906
819.341	2819
819.481	2815
819.622	2937
819.762	3112
819.903	3070
820.043	2948
820.184	2937
820.324	2918
820.465	3036
820.605	2986
820.746	2994
820.886	2960
821.026	3093
821.167	3157
821.307	3294
821.447	3306
821.588	3253
821.728	3268
821.868	3218
822.008	3093
822.149	3237
822.289	3207
822.429	3112
822.569	3112
822.709	3184
822.849	3039
822.99	3066
823.13	3161
823.27	3207
823.41	3131
823.55	3142
823.69	3142
823.83	3233
823.97	3081
824.11	3032
824.25	2990
824.389	3097
824.529	3138
824.669	3074
824.809	3214
824.949	3233
825.089	3245
825.228	3154
825.368	3024
825.508	2944
825.648	2975
825.787	3028
825.927	3043
826.067	2979
826.206	2937
826.346	3017
826.485	3081
826.625	3131
826.765	3302
826.904	3214
827.044	2975
827.183	2925
827.323	2883
827.462	2967
827.601	2933
827.741	2914
827.88	2975
828.02	2857
828.159	2994
828.298	3081
828.437	3127
828.577	3036
828.716	3233
828.855	3051
828.994	2910
829.134	2876
829.273	2914
829.412	2872
829.551	2861
829.69	2918
829.829	2979
829.968	3157
830.107	3005
830.246	3058
830.385	2963
830.524	2861
830.663	2815
830.802	2762
830.941	2667
831.08	2648
831.219	2739
831.357	2785
831.496	2941
831.635	2766
831.774	2667
831.913	2651
832.051	2594
832.19	2617
832.329	2682
832.467	2545
832.606	2469
832.744	2594
832.883	2560
833.022	2602
833.16	2636
833.299	2682
833.437	2689
833.576	2708
833.714	2758
833.852	2739
833.991	2739
834.129	2838
834.267	2830
834.406	2800
834.544	2883
834.682	2872
834.821	2895
834.959	3066
835.097	2902
835.235	3097
835.373	2979
835.511	3024
835.65	2956
835.788	2906
835.926	2811
836.064	2800
836.202	2857
836.34	3070
836.478	3161
836.615	3089
836.753	3131
836.891	3192
837.029	3154
837.167	3119
837.305	3104
837.443	3043
837.58	2956
837.718	3154
837.856	3066
837.993	3009
838.131	3127
838.269	3116
838.406	3093
838.544	3097
838.681	2967
838.819	2922
838.956	2815
839.094	2830
839.231	2925
839.369	3062
839.506	3340
839.643	3226
839.781	3062
839.918	2975
840.055	3077
840.193	3047
840.33	3074
840.467	3131
840.604	3169
840.742	3424
840.879	3055
841.016	3070
841.153	3135
841.29	3317
841.427	3302
841.564	3256
841.701	3287
841.838	3203
841.975	3176
842.112	3207
842.249	3081
842.385	3066
842.522	3313
842.659	3047
842.796	3081
842.933	3116
843.069	3066
843.206	3047
843.343	3176
843.479	3135
843.616	3131
843.752	2891
843.889	2895
844.025	3077
844.162	2887
844.298	3077
844.435	2990
844.571	2937
844.708	3070
844.844	3195
844.98	3222
845.117	3203
845.253	3058
845.389	3005
845.525	3119
845.661	3097
845.798	3028
845.934	3146
846.07	3043
846.206	3237
846.342	3313
846.478	3260
846.614	3119
846.75	3123
846.886	3020
847.022	3222
847.158	3131
847.294	3211
847.429	3268
847.565	3222
847.701	3473
847.837	3024
847.972	3001
848.108	3188
848.244	3157
848.379	2982
848.515	2948
848.65	2906
848.786	2971
848.921	3005
849.057	3085
849.192	3135
849.328	3043
849.463	3127
849.598	3047
849.734	3047
849.869	3001
850.004	2914
850.14	2948
850.275	2914
850.41	2807
850.545	2880
850.68	2948
850.815	2979
850.95	3047
851.085	3226
851.22	3104
851.355	3039
851.49	3024
851.625	3020
851.76	3024
851.895	2933
852.03	2918
852.165	3017
852.299	3146
852.434	3176
852.569	3176
852.703	3184
852.838	3249
852.973	3340
853.107	3336
853.242	3188
853.376	3127
853.511	2990
853.645	3047
853.78	3264
853.914	3085
854.048	3112
854.183	3131
854.317	3161
854.451	3264
854.585	3146
854.72	3093
854.854	3222
854.988	3081
855.122	3108
855.256	2952
855.39	3108
855.524	3230
855.658	3169
855.792	3135
855.926	3169
856.06	3222
856.194	3294
856.327	3169
856.461	3062
856.595	3135
856.729	3093
856.862	3260
856.996	3199
857.13	3233
857.263	3222
857.397	3264
857.53	3138
857.664	3192
857.797	3211
857.931	3279
858.064	3184
858.197	3199
858.331	3146
858.464	3097
858.597	3017
858.731	3127
858.864	3142
858.997	3123
859.13	3146
859.263	3161
859.396	3199
859.529	3074
859.662	3112
859.795	3070
859.928	3108
860.061	3279
860.194	3306
860.327	3119
860.46	3085
860.592	3226
860.725	3306
860.858	3245
860.99	3081
861.123	3062
861.256	3066
861.388	3165
861.521	3835
861.653	3039
861.786	3001
861.918	3013
862.05	3066
862.183	3108
862.315	3138
862.447	3230
862.58	3112
862.712	2937
862.844	2876
862.976	3024
863.108	3036
863.24	3275
863.372	2914
863.504	2967
863.636	2960
863.768	3028
863.9	2998
864.032	2929
864.164	2952
864.296	3032
864.428	3062
864.559	3089
864.691	3062
864.823	3058
864.954	3024
865.086	3017
865.217	2998
865.349	2963
865.48	2975
865.612	3009
865.743	3176
865.875	2986
866.006	2963
866.137	2994
866.269	2929
866.4	2979
866.531	2899
866.662	2887
866.793	2864
866.924	2918
867.055	3013
867.186	2941
867.317	2902
867.448	2834
867.579	2857
867.71	2823
867.841	2834
867.972	2929
868.103	2922
868.233	2880
868.364	2857
868.495	2918
868.625	3081
868.756	3195
868.886	2963
869.017	3028
869.147	3165
869.278	3150
869.408	3074
869.539	3001
869.669	3100
869.799	3066
869.929	3135
870.06	3123
870.19	3313
870.32	3302
870.45	3332
870.58	3359
870.71	3447
870.84	3466
870.97	3351
871.1	3268
871.23	3515
871.36	3477
871.489	3355
871.619	3412
871.749	3431
871.879	3431
872.008	3481
872.138	3370
872.267	3313
872.397	3180
872.526	3138
872.656	3032
872.785	3074
872.915	3253
873.044	3306
873.173	3211
873.303	3241
873.432	3237
873.561	3199
873.69	3146
873.819	3131
873.948	3199
874.077	3085
874.206	3058
874.335	3119
874.464	3218
874.593	3332
874.722	3241
874.851	3409
874.979	3374
875.108	3302
875.237	3169
875.365	3192
875.494	3176
875.623	3256
875.751	3077
875.88	3138
876.008	3188
876.136	3260
876.265	3351
876.393	3492
876.521	3428
876.65	3370
876.778	3332
876.906	3283
877.034	3207
877.162	3226
877.29	3203
877.418	3272
877.546	3272
877.674	3291
877.802	3275
877.93	3253
878.058	3169
878.185	3112
878.313	3199
878.441	3192
878.568	3043
878.696	3188
878.824	3279
878.951	3306
879.079	3439
879.206	3618
879.333	3435
879.461	3321
879.588	3321
879.715	3504
879.842	3599
879.97	3378
880.097	3135
880.224	3131
880.351	3207
880.478	3226
880.605	3226
880.732	3184
880.859	3507
880.986	3291
881.112	3344
881.239	3256
881.366	3100
881.493	3024
881.619	3028
881.746	3074
881.872	3135
881.999	3108
882.125	3180
882.252	3245
882.378	3313
882.505	3458
882.631	3279
882.757	3138
882.883	3230
883.01	3207
883.136	3180
883.262	3119
883.388	3104
883.514	3329
883.64	3363
883.766	3321
883.892	3173
884.018	3275
884.143	3405
884.269	3557
884.395	3233
884.52	3154
884.646	3199
884.772	3142
884.897	3119
885.023	3192
885.148	3329
885.274	3424
885.399	3374
885.524	3275
885.65	3275
885.775	3336
885.9	3313
886.025	3443
886.15	3351
886.275	3283
886.4	3226
886.525	3310
886.65	3253
886.775	3294
886.9	3534
887.025	3637
887.149	3435
887.274	3298
887.399	3207
887.523	3203
887.648	3211
887.773	3157
887.897	3401
888.021	3397
888.146	3306
888.27	3454
888.395	3568
888.519	3450
888.643	3481
888.767	3447
888.891	3283
889.015	3264
889.139	3283
889.263	3272
889.387	3378
889.511	3538
889.635	3488
889.759	3325
889.883	3256
890.006	3405
890.13	3496
890.254	3272
890.377	3344
890.501	3180
890.624	3199
890.748	3313
890.871	3207
890.995	3131
891.118	3047
891.241	3253
891.364	3253
891.488	3340
891.611	3161
891.734	3195
891.857	3272
891.98	3260
892.103	3348
892.226	3294
892.349	3241
892.471	3157
892.594	3241
892.717	3302
892.839	3287
892.962	3275
893.085	3374
893.207	3272
893.33	3119
893.452	3233
893.575	3397
893.697	3211
893.819	3443
893.941	3485
894.064	3462
894.186	3264
894.308	3291
894.43	3443
894.552	3557
894.674	3462
894.796	3294
894.918	3340
895.04	3321
895.161	3431
895.283	3405
895.405	3275
895.526	3397
895.648	3420
895.769	3428
895.891	3466
896.012	3488
896.134	3488
896.255	3458
896.376	3378
896.498	3386
896.619	3439
896.74	3336
896.861	3401
896.982	3709
897.103	3850
897.224	3610
897.345	3515
897.466	3416
897.587	3496
897.708	3663
897.828	3530
897.949	3416
898.07	3355
898.19	3431
898.311	3603
898.431	3485
898.552	3488
898.672	3576
898.792	3625
898.913	3504
899.033	3424
899.153	3294
899.273	3218
899.393	3298
899.513	3348
899.633	3378
899.753	3329
899.873	3329
899.993	3378
900.113	3344
900.232	3416
900.352	3355
900.472	3291
900.591	3230
900.711	3313
900.83	3230
900.95	3462
901.069	3519
901.189	3355
901.308	3180
901.427	3112
901.546	3173
901.665	3272
901.784	3351
901.904	3203
902.023	3199
902.141	3039
902.26	2960
902.379	3154
902.498	3081
902.617	3055
902.735	3195
902.854	3237
902.973	3233
903.091	3077
903.21	3093
903.328	3165
903.446	3104
903.565	3089
903.683	3184
903.801	3135
903.919	3249
904.038	3283
904.156	3180
904.274	3268
904.392	3237
904.51	3302
904.627	3348
904.745	3466
904.863	3530
904.981	3260
905.098	3207
905.216	3256
905.334	3272
905.451	3367
905.569	3310
905.686	3416
905.803	3447
905.921	3287
906.038	3447
906.155	3344
906.272	3306
906.389	3332
906.506	3279
906.623	3260
906.74	3256
906.857	3211
906.974	3264
907.091	3530
907.208	3591
907.324	3488
907.441	3348
907.557	3214
907.674	3226
907.79	3180
907.907	3268
908.023	3420
908.139	3355
908.256	3306
908.372	3386
908.488	3332
908.604	3249
908.72	3237
908.836	3321
908.952	3294
909.068	3329
909.184	3462
909.3	3416
909.415	3523
909.531	3435
909.647	3321
909.762	3298
909.878	3264
909.993	3321
910.108	3321
910.224	3329
910.339	3420
910.454	3363
910.57	3321
910.685	3241
910.8	3614
910.915	3568
911.03	3443
911.145	3275
911.259	3287
911.374	3344
911.489	3298
911.604	3260
911.718	3176
911.833	3165
911.947	3020
912.062	2994
912.176	3161
912.291	3180
912.405	3173
912.519	3428
912.633	3469
912.748	3329
912.862	3279
912.976	3188
913.09	3058
913.204	3146
913.318	3222
913.431	3310
913.545	3393
913.659	3397
913.772	3367
913.886	3253
914	3218
914.113	3409
914.226	3424
914.34	3374
914.453	3211
914.566	3443
914.68	3294
914.793	3355
914.906	3123
915.019	3112
915.132	3093
915.245	3195
915.358	3195
915.47	3272
915.583	3310
915.696	3317
915.809	3447
915.921	3431
916.034	3310
916.146	3264
916.259	3249
916.371	3393
916.483	3374
916.595	3275
916.708	3367
916.82	3363
916.932	3344
917.044	3355
917.156	3367
917.268	3253
917.38	3332
917.491	3291
917.603	3374
917.715	3462
917.826	3504
917.938	3386
918.049	3291
918.161	3450
918.272	3599
918.384	3561
918.495	3500
918.606	3321
918.717	3256
918.828	3367
918.939	3389
919.05	3302
919.161	3412
919.272	3203
919.383	3321
919.494	3530
919.604	3698
919.715	3462
919.826	3412
919.936	3447
920.047	3580
920.157	3606
920.267	3816
920.378	3625
920.488	3561
920.598	3766
920.708	3991
920.818	3884
920.928	3869
921.038	4044
921.148	4013
921.258	3694
921.368	3656
921.477	3610
921.587	3568
921.697	3450
921.806	3656
921.916	3504
922.025	3332
922.134	3393
922.244	3344
922.353	3450
922.462	3313
922.571	3218
922.68	3135
922.789	3085
922.898	3108
923.007	3100
923.116	3169
923.224	3173
923.333	3195
923.442	3150
923.55	3081
923.659	3135
923.767	3260
923.876	3116
923.984	3222
924.092	3123
924.201	3218
924.309	3184
924.417	3272
924.525	3226
924.633	3222
924.741	4185
924.849	3070
924.956	3253
925.064	3108
925.172	3047
925.279	3077
925.387	3207
925.494	3230
925.602	3378
925.709	3306
925.816	3230
925.924	3294
926.031	3374
926.138	3332
926.245	3367
926.352	3241
926.459	3409
926.566	3473
926.673	3370
926.779	3233
926.886	3287
926.993	3154
927.099	3135
927.206	3104
927.312	3077
927.419	3256
927.525	3218
927.631	3268
927.737	3188
927.843	3180
927.95	3058
928.056	3176
928.162	3169
928.267	3245
928.373	3892
928.479	3351
928.585	3104
928.69	3226
928.796	3294
928.901	3195
929.007	3077
929.112	3214
929.218	3188
929.323	3161
929.428	3161
929.533	3351
929.638	3138
929.743	3184
929.848	3279
929.953	3233
930.058	3142
930.163	3001
930.267	3036
930.372	3138
930.477	3024
930.581	3325
930.685	3176
930.79	3058
930.894	3108
930.998	3108
931.103	3302
931.207	2979
931.311	2971
931.415	2933
931.519	2785
931.623	2804
