Data from test_V78500241_271.txt Node
Date: Fri Mar 25 16:17:04 CST 2022
User: usil
Spectrometer: V785-0024
Trigger mode: 0
Integration Time (sec): 4.000000E-1
Scans to average: 1
Nonlinearity correction enabled: false
Boxcar width: 0
Storing dark spectrum: false
XAxis mode: Wavelengths
Number of Pixels in Spectrum: 1024
>>>>>Begin Spectral Data<<<<<
801.071	2914
801.214	2960
801.356	2868
801.499	2887
801.641	2868
801.783	2918
801.926	3351
802.068	3515
802.211	3020
802.353	3024
802.496	2967
802.638	2998
802.78	3032
802.923	3062
803.065	2994
803.208	2899
803.35	2902
803.492	2922
803.635	2922
803.777	2762
803.919	2826
804.061	3211
804.204	2952
804.346	2887
804.488	2830
804.63	2975
804.773	2864
804.915	2933
805.057	3074
805.199	2948
805.341	2986
805.483	3047
805.626	2971
805.768	2944
805.91	3055
806.052	3116
806.194	3001
806.336	3256
806.478	3036
806.62	2933
806.762	3001
806.904	3070
807.046	3154
807.188	3009
807.33	2902
807.472	3001
807.614	2906
807.756	3005
807.898	2948
808.04	2876
808.182	2960
808.324	2960
808.465	2887
808.607	2864
808.749	2811
808.891	2853
809.033	3001
809.174	2986
809.316	2876
809.458	2876
809.6	2769
809.741	2788
809.883	2785
810.025	2853
810.166	2864
810.308	2857
810.45	2845
810.591	2758
810.733	2754
810.875	2826
811.016	2781
811.158	2746
811.299	2800
811.441	2963
811.582	2895
811.724	2838
811.865	2845
812.007	2941
812.148	2857
812.29	2857
812.431	2883
812.573	2887
812.714	2922
812.855	3043
812.997	3032
813.138	3116
813.279	2979
813.421	2948
813.562	2941
813.703	2891
813.845	2857
813.986	2785
814.127	2716
814.268	2853
814.41	2872
814.551	2811
814.692	2895
814.833	2830
814.974	2887
815.115	2956
815.256	2815
815.397	2834
815.539	2849
815.68	2754
815.821	2800
815.962	2937
816.103	2918
816.244	2910
816.385	2899
816.526	2982
816.666	2918
816.807	2735
816.948	2876
817.089	2895
817.23	2838
817.371	2796
817.512	2804
817.653	2815
817.793	2842
817.934	2899
818.075	2956
818.216	2998
818.356	3017
818.497	2887
818.638	2807
818.778	2815
818.919	2815
819.06	2743
819.2	2861
819.341	2796
819.481	2815
819.622	2975
819.762	3085
819.903	2998
820.043	2967
820.184	2891
820.324	2902
820.465	2998
820.605	2998
820.746	3032
820.886	2925
821.026	3070
821.167	3150
821.307	3245
821.447	3313
821.588	3218
821.728	3207
821.868	3188
822.008	3055
822.149	3154
822.289	3222
822.429	3058
822.569	3081
822.709	3165
822.849	3055
822.99	3055
823.13	3123
823.27	3218
823.41	3093
823.55	3142
823.69	3131
823.83	3195
823.97	3135
824.11	3001
824.25	2971
824.389	3047
824.529	3085
824.669	3081
824.809	3199
824.949	3272
825.089	3218
825.228	3150
825.368	3020
825.508	2952
825.648	2990
825.787	3009
825.927	3032
826.067	2941
826.206	2941
826.346	3028
826.485	3055
826.625	3116
826.765	3253
826.904	3176
827.044	3001
827.183	2914
827.323	2842
827.462	2956
827.601	2929
827.741	2918
827.88	2948
828.02	2861
828.159	2994
828.298	3047
828.437	3100
828.577	3039
828.716	3245
828.855	3104
828.994	2902
829.134	2887
829.273	2925
829.412	2853
829.551	2838
829.69	2899
829.829	2990
829.968	3150
830.107	3005
830.246	3009
830.385	2914
830.524	2891
830.663	2800
830.802	2724
830.941	2648
831.08	2625
831.219	2754
831.357	2746
831.496	2975
831.635	2716
831.774	2644
831.913	2632
832.051	2518
832.19	2560
832.329	2663
832.467	2549
832.606	2461
832.744	2583
832.883	2564
833.022	2564
833.16	2651
833.299	2663
833.437	2705
833.576	2693
833.714	2716
833.852	2746
833.991	2731
834.129	2811
834.267	2819
834.406	2777
834.544	2864
834.682	2891
834.821	2872
834.959	3039
835.097	2868
835.235	3051
835.373	3024
835.511	3013
835.65	2960
835.788	2960
835.926	2830
836.064	2819
836.202	2861
836.34	3077
836.478	3150
836.615	3001
836.753	3154
836.891	3165
837.029	3173
837.167	3112
837.305	3036
837.443	3043
837.58	2952
837.718	3154
837.856	3058
837.993	3020
838.131	3131
838.269	3116
838.406	3104
838.544	3081
838.681	2933
838.819	2929
838.956	2796
839.094	2804
839.231	2899
839.369	3017
839.506	3344
839.643	3180
839.781	3009
839.918	2944
840.055	3043
840.193	3009
840.33	3062
840.467	3089
840.604	3150
840.742	3401
840.879	3081
841.016	3036
841.153	3077
841.29	3329
841.427	3264
841.564	3283
841.701	3279
841.838	3207
841.975	3192
842.112	3188
842.249	3085
842.385	3024
842.522	3237
842.659	3058
842.796	3020
842.933	3127
843.069	3017
843.206	3017
843.343	3173
843.479	3074
843.616	3119
843.752	2880
843.889	2883
844.025	3036
844.162	2857
844.298	3032
844.435	2933
844.571	2918
844.708	3077
844.844	3184
844.98	3272
845.117	3173
845.253	3032
845.389	3009
845.525	3123
845.661	3104
845.798	3020
845.934	3104
846.07	3070
846.206	3214
846.342	3283
846.478	3207
846.614	3097
846.75	3043
846.886	2971
847.022	3222
847.158	3131
847.294	3180
847.429	3222
847.565	3203
847.701	3511
847.837	3028
847.972	2975
848.108	3127
848.244	3138
848.379	2990
848.515	2944
848.65	2918
848.786	2944
848.921	3009
849.057	3138
849.192	3142
849.328	3077
849.463	3131
849.598	3020
849.734	3077
849.869	3039
850.004	2906
850.14	2963
850.275	2952
850.41	2853
850.545	2891
850.68	3005
850.815	2990
850.95	2979
851.085	3199
851.22	3104
851.355	3051
851.49	2982
851.625	3024
851.76	3055
851.895	2952
852.03	2948
852.165	3028
852.299	3176
852.434	3211
852.569	3150
852.703	3192
852.838	3260
852.973	3397
853.107	3302
853.242	3176
853.376	3131
853.511	3001
853.645	3051
853.78	3241
853.914	3146
854.048	3150
854.183	3104
854.317	3214
854.451	3344
854.585	3192
854.72	3097
854.854	3245
854.988	3112
855.122	3131
855.256	3005
855.39	3142
855.524	3233
855.658	3188
855.792	3184
855.926	3260
856.06	3226
856.194	3287
856.327	3195
856.461	3116
856.595	3176
856.729	3146
856.862	3291
856.996	3173
857.13	3222
857.263	3260
857.397	3313
857.53	3127
857.664	3230
857.797	3253
857.931	3302
858.064	3184
858.197	3256
858.331	3135
858.464	3131
858.597	3066
858.731	3192
858.864	3184
858.997	3135
859.13	3176
859.263	3211
859.396	3260
859.529	3112
859.662	3146
859.795	3089
859.928	3192
860.061	3279
860.194	3302
860.327	3157
860.46	3142
860.592	3275
860.725	3272
860.858	3317
860.99	3146
861.123	3104
861.256	3108
861.388	3203
861.521	3903
861.653	3055
861.786	3036
861.918	3066
862.05	3154
862.183	3150
862.315	3176
862.447	3264
862.58	3119
862.712	2982
862.844	2918
862.976	3074
863.108	3028
863.24	3329
863.372	2922
863.504	3017
863.636	3001
863.768	3070
863.9	3013
864.032	2937
864.164	2998
864.296	3066
864.428	3135
864.559	3135
864.691	3077
864.823	3131
864.954	3070
865.086	3074
865.217	3017
865.349	2982
865.48	3039
865.612	3058
865.743	3138
865.875	2986
866.006	2975
866.137	3028
866.269	2979
866.4	2956
866.531	2952
866.662	2933
866.793	2899
866.924	2956
867.055	3024
867.186	2975
867.317	2902
867.448	2864
867.579	2861
867.71	2918
867.841	2868
867.972	2975
868.103	2956
868.233	2906
868.364	2937
868.495	2952
868.625	3127
868.756	3226
868.886	3013
869.017	3089
869.147	3199
869.278	3192
869.408	3051
869.539	3043
869.669	3112
869.799	3085
869.929	3180
870.06	3150
870.19	3355
870.32	3291
870.45	3351
870.58	3393
870.71	3511
870.84	3507
870.97	3317
871.1	3241
871.23	3492
871.36	3469
871.489	3374
871.619	3473
871.749	3447
871.879	3469
872.008	3526
872.138	3389
872.267	3287
872.397	3157
872.526	3165
872.656	3043
872.785	3104
872.915	3275
873.044	3378
873.173	3279
873.303	3321
873.432	3275
873.561	3268
873.69	3192
873.819	3195
873.948	3237
874.077	3154
874.206	3070
874.335	3135
874.464	3275
874.593	3378
874.722	3264
874.851	3435
874.979	3359
875.108	3393
875.237	3230
875.365	3195
875.494	3184
875.623	3287
875.751	3104
875.88	3135
876.008	3264
876.136	3237
876.265	3405
876.393	3538
876.521	3477
876.65	3443
876.778	3386
876.906	3272
877.034	3230
877.162	3245
877.29	3176
877.418	3275
877.546	3313
877.674	3302
877.802	3275
877.93	3275
878.058	3176
878.185	3119
878.313	3279
878.441	3233
878.568	3104
878.696	3165
878.824	3294
878.951	3340
879.079	3504
879.206	3679
879.333	3477
879.461	3344
879.588	3393
879.715	3481
879.842	3641
879.97	3431
880.097	3214
880.224	3146
880.351	3214
880.478	3256
880.605	3218
880.732	3214
880.859	3549
880.986	3325
881.112	3374
881.239	3256
881.366	3142
881.493	3085
881.619	3089
881.746	3074
881.872	3161
881.999	3161
882.125	3173
882.252	3302
882.378	3325
882.505	3469
882.631	3298
882.757	3184
882.883	3218
883.01	3237
883.136	3180
883.262	3123
883.388	3150
883.514	3344
883.64	3405
883.766	3340
883.892	3237
884.018	3211
884.143	3389
884.269	3545
884.395	3264
884.52	3222
884.646	3195
884.772	3173
884.897	3138
885.023	3237
885.148	3351
885.274	3416
885.399	3397
885.524	3332
885.65	3294
885.775	3370
885.9	3275
886.025	3469
886.15	3386
886.275	3302
886.4	3249
886.525	3374
886.65	3313
886.775	3329
886.9	3458
887.025	3663
887.149	3424
887.274	3237
887.399	3218
887.523	3245
887.648	3218
887.773	3253
887.897	3382
888.021	3424
888.146	3348
888.27	3473
888.395	3538
888.519	3450
888.643	3492
888.767	3469
888.891	3359
889.015	3256
889.139	3359
889.263	3272
889.387	3428
889.511	3515
889.635	3492
889.759	3264
889.883	3348
890.006	3454
890.13	3523
890.254	3317
890.377	3367
890.501	3214
890.624	3226
890.748	3302
890.871	3256
890.995	3138
891.118	3108
891.241	3230
891.364	3256
891.488	3321
891.611	3180
891.734	3253
891.857	3332
891.98	3253
892.103	3367
892.226	3302
892.349	3253
892.471	3150
892.594	3264
892.717	3298
892.839	3302
892.962	3313
893.085	3363
893.207	3332
893.33	3173
893.452	3192
893.575	3325
893.697	3306
893.819	3481
893.941	3553
894.064	3450
894.186	3287
894.308	3313
894.43	3401
894.552	3530
894.674	3500
894.796	3253
894.918	3325
895.04	3310
895.161	3500
895.283	3412
895.405	3317
895.526	3412
895.648	3435
895.769	3447
895.891	3443
896.012	3553
896.134	3500
896.255	3424
896.376	3424
896.498	3355
896.619	3435
896.74	3405
896.861	3450
896.982	3713
897.103	3850
897.224	3629
897.345	3564
897.466	3454
897.587	3500
897.708	3663
897.828	3580
897.949	3469
898.07	3332
898.19	3473
898.311	3591
898.431	3458
898.552	3515
898.672	3610
898.792	3656
898.913	3553
899.033	3458
899.153	3310
899.273	3249
899.393	3291
899.513	3336
899.633	3317
899.753	3416
899.873	3370
899.993	3386
900.113	3382
900.232	3370
900.352	3374
900.472	3325
900.591	3180
900.711	3298
900.83	3260
900.95	3466
901.069	3507
901.189	3382
901.308	3241
901.427	3135
901.546	3195
901.665	3313
901.784	3389
901.904	3214
902.023	3157
902.141	3036
902.26	3043
902.379	3154
902.498	3123
902.617	3108
902.735	3203
902.854	3279
902.973	3233
903.091	3055
903.21	3066
903.328	3173
903.446	3142
903.565	3104
903.683	3203
903.801	3146
903.919	3291
904.038	3329
904.156	3173
904.274	3329
904.392	3287
904.51	3306
904.627	3351
904.745	3492
904.863	3530
904.981	3272
905.098	3176
905.216	3260
905.334	3351
905.451	3302
905.569	3336
905.686	3447
905.803	3462
905.921	3310
906.038	3454
906.155	3374
906.272	3272
906.389	3355
906.506	3249
906.623	3310
906.74	3291
906.857	3192
906.974	3283
907.091	3485
907.208	3580
907.324	3511
907.441	3431
907.557	3249
907.674	3272
907.79	3245
907.907	3310
908.023	3378
908.139	3412
908.256	3336
908.372	3428
908.488	3389
908.604	3268
908.72	3272
908.836	3302
908.952	3325
909.068	3363
909.184	3477
909.3	3447
909.415	3504
909.531	3496
909.647	3272
909.762	3340
909.878	3283
909.993	3420
910.108	3374
910.224	3351
910.339	3435
910.454	3344
910.57	3348
910.685	3256
910.8	3576
910.915	3534
911.03	3462
911.145	3260
911.259	3226
911.374	3332
911.489	3283
911.604	3233
911.718	3161
911.833	3188
911.947	3028
912.062	3047
912.176	3184
912.291	3214
912.405	3199
912.519	3466
912.633	3488
912.748	3355
912.862	3279
912.976	3165
913.09	3089
913.204	3180
913.318	3249
913.431	3378
913.545	3348
913.659	3401
913.772	3321
913.886	3154
914	3207
914.113	3374
914.226	3367
914.34	3416
914.453	3222
914.566	3416
914.68	3302
914.793	3325
914.906	3173
915.019	3100
915.132	3089
915.245	3207
915.358	3218
915.47	3214
915.583	3264
915.696	3298
915.809	3397
915.921	3409
916.034	3302
916.146	3287
916.259	3230
916.371	3393
916.483	3389
916.595	3313
916.708	3351
916.82	3336
916.932	3332
917.044	3374
917.156	3370
917.268	3294
917.38	3317
917.491	3313
917.603	3374
917.715	3458
917.826	3485
917.938	3389
918.049	3321
918.161	3443
918.272	3614
918.384	3561
918.495	3492
918.606	3363
918.717	3306
918.828	3409
918.939	3462
919.05	3298
919.161	3374
919.272	3256
919.383	3302
919.494	3534
919.604	3732
919.715	3507
919.826	3420
919.936	3462
920.047	3656
920.157	3580
920.267	3827
920.378	3644
920.488	3572
920.598	3804
920.708	3991
920.818	3876
920.928	3903
921.038	4048
921.148	4010
921.258	3732
921.368	3701
921.477	3641
921.587	3637
921.697	3523
921.806	3717
921.916	3572
922.025	3416
922.134	3370
922.244	3378
922.353	3447
922.462	3329
922.571	3256
922.68	3195
922.789	3131
922.898	3195
923.007	3161
923.116	3260
923.224	3241
923.333	3218
923.442	3165
923.55	3154
923.659	3165
923.767	3268
923.876	3169
923.984	3268
924.092	3165
924.201	3211
924.309	3268
924.417	3317
924.525	3241
924.633	3260
924.741	4246
924.849	3100
924.956	3329
925.064	3165
925.172	3093
925.279	3192
925.387	3264
925.494	3260
925.602	3401
925.709	3374
925.816	3287
925.924	3298
926.031	3397
926.138	3386
926.245	3439
926.352	3283
926.459	3447
926.566	3500
926.673	3389
926.779	3298
926.886	3317
926.993	3176
927.099	3173
927.206	3195
927.312	3173
927.419	3287
927.525	3260
927.631	3351
927.737	3176
927.843	3173
927.95	3081
928.056	3173
928.162	3218
928.267	3294
928.373	3896
928.479	3370
928.585	3154
928.69	3294
928.796	3336
928.901	3230
929.007	3127
929.112	3256
929.218	3199
929.323	3161
929.428	3180
929.533	3363
929.638	3150
929.743	3245
929.848	3351
929.953	3268
930.058	3146
930.163	3036
930.267	3043
930.372	3237
930.477	3097
930.581	3344
930.685	3241
930.79	3108
930.894	3135
930.998	3127
931.103	3287
931.207	2998
931.311	2975
931.415	2952
931.519	2826
931.623	2838
