Data from test_V78500241_404.txt Node
Date: Fri Mar 25 16:18:00 CST 2022
User: usil
Spectrometer: V785-0024
Trigger mode: 0
Integration Time (sec): 4.000000E-1
Scans to average: 1
Nonlinearity correction enabled: false
Boxcar width: 0
Storing dark spectrum: false
XAxis mode: Wavelengths
Number of Pixels in Spectrum: 1024
>>>>>Begin Spectral Data<<<<<
801.071	2956
801.214	2963
801.356	2937
801.499	2876
801.641	2902
801.783	2948
801.926	3047
802.068	2963
802.211	2994
802.353	3039
802.496	2982
802.638	3005
802.78	3036
802.923	3070
803.065	3017
803.208	2937
803.35	2963
803.492	2967
803.635	2922
803.777	2773
803.919	2868
804.061	3222
804.204	2971
804.346	2944
804.488	2876
804.63	2986
804.773	2849
804.915	2895
805.057	3097
805.199	2933
805.341	3005
805.483	3051
805.626	2998
805.768	2960
805.91	3119
806.052	3154
806.194	3066
806.336	3245
806.478	3028
806.62	2933
806.762	2986
806.904	3097
807.046	3199
807.188	2994
807.33	2910
807.472	2982
807.614	2906
807.756	3009
807.898	2941
808.04	2891
808.182	2982
808.324	2986
808.465	2914
808.607	2906
808.749	2815
808.891	2849
809.033	2994
809.174	2994
809.316	2895
809.458	2914
809.6	2807
809.741	2781
809.883	2792
810.025	2838
810.166	2872
810.308	2838
810.45	2864
810.591	2777
810.733	2769
810.875	2849
811.016	2796
811.158	2754
811.299	2834
811.441	2933
811.582	2883
811.724	2842
811.865	2823
812.007	2944
812.148	2876
812.29	2857
812.431	2880
812.573	2963
812.714	2941
812.855	3055
812.997	3055
813.138	3104
813.279	3062
813.421	2986
813.562	2967
813.703	2880
813.845	2902
813.986	2788
814.127	2739
814.268	2849
814.41	2868
814.551	2834
814.692	2891
814.833	2861
814.974	2918
815.115	3009
815.256	2857
815.397	2845
815.539	2887
815.68	2800
815.821	2823
815.962	2948
816.103	2960
816.244	2883
816.385	2918
816.526	2979
816.666	2937
816.807	2743
816.948	2929
817.089	2929
817.23	2880
817.371	2788
817.512	2815
817.653	2864
817.793	2819
817.934	2857
818.075	2963
818.216	3020
818.356	3028
818.497	2902
818.638	2777
818.778	2845
818.919	2834
819.06	2777
819.2	2895
819.341	2815
819.481	2769
819.622	2918
819.762	3085
819.903	3039
820.043	2910
820.184	2922
820.324	2933
820.465	3013
820.605	3043
820.746	3055
820.886	2914
821.026	3100
821.167	3131
821.307	3275
821.447	3287
821.588	3233
821.728	3173
821.868	3214
822.008	3093
822.149	3169
822.289	3188
822.429	3085
822.569	3085
822.709	3199
822.849	3005
822.99	3077
823.13	3161
823.27	3241
823.41	3100
823.55	3150
823.69	3138
823.83	3195
823.97	3123
824.11	3024
824.25	3009
824.389	3074
824.529	3093
824.669	3062
824.809	3199
824.949	3287
825.089	3207
825.228	3169
825.368	2971
825.508	2986
825.648	2979
825.787	3036
825.927	3062
826.067	2944
826.206	2979
826.346	3089
826.485	3104
826.625	3116
826.765	3275
826.904	3222
827.044	3013
827.183	2963
827.323	2918
827.462	2994
827.601	2902
827.741	2941
827.88	2944
828.02	2895
828.159	3001
828.298	3043
828.437	3112
828.577	3009
828.716	3222
828.855	3077
828.994	2948
829.134	2845
829.273	2933
829.412	2853
829.551	2857
829.69	2933
829.829	3013
829.968	3123
830.107	3036
830.246	3039
830.385	2941
830.524	2895
830.663	2849
830.802	2727
830.941	2632
831.08	2674
831.219	2762
831.357	2731
831.496	2998
831.635	2735
831.774	2674
831.913	2629
832.051	2526
832.19	2598
832.329	2674
832.467	2533
832.606	2473
832.744	2571
832.883	2552
833.022	2632
833.16	2648
833.299	2663
833.437	2670
833.576	2712
833.714	2705
833.852	2735
833.991	2769
834.129	2826
834.267	2861
834.406	2804
834.544	2891
834.682	2861
834.821	2864
834.959	3077
835.097	2914
835.235	3074
835.373	2982
835.511	3043
835.65	2937
835.788	2971
835.926	2887
836.064	2800
836.202	2819
836.34	3074
836.478	3184
836.615	3020
836.753	3127
836.891	3180
837.029	3165
837.167	3150
837.305	3039
837.443	3017
837.58	2979
837.718	3142
837.856	3028
837.993	3024
838.131	3108
838.269	3108
838.406	3055
838.544	3119
838.681	2899
838.819	2925
838.956	2785
839.094	2845
839.231	2891
839.369	3036
839.506	3378
839.643	3245
839.781	3005
839.918	2990
840.055	3047
840.193	3024
840.33	3070
840.467	3104
840.604	3188
840.742	3393
840.879	3058
841.016	3055
841.153	3138
841.29	3370
841.427	3302
841.564	3233
841.701	3310
841.838	3233
841.975	3211
842.112	3279
842.249	3055
842.385	3043
842.522	3218
842.659	3085
842.796	3074
842.933	3097
843.069	3104
843.206	3017
843.343	3154
843.479	3100
843.616	3157
843.752	2925
843.889	2853
844.025	3077
844.162	2895
844.298	3097
844.435	2975
844.571	2899
844.708	3039
844.844	3218
844.98	3275
845.117	3192
845.253	3055
845.389	3028
845.525	3100
845.661	3097
845.798	2994
845.934	3150
846.07	3047
846.206	3214
846.342	3291
846.478	3233
846.614	3127
846.75	3036
846.886	3020
847.022	3264
847.158	3119
847.294	3199
847.429	3230
847.565	3192
847.701	3500
847.837	3013
847.972	2994
848.108	3169
848.244	3150
848.379	2971
848.515	2975
848.65	2994
848.786	3001
848.921	3020
849.057	3104
849.192	3142
849.328	3047
849.463	3093
849.598	3032
849.734	3051
849.869	2956
850.004	2933
850.14	2990
850.275	2914
850.41	2845
850.545	2880
850.68	2933
850.815	2960
850.95	2971
851.085	3218
851.22	3097
851.355	2986
851.49	2929
851.625	3009
851.76	3009
851.895	2948
852.03	2902
852.165	3047
852.299	3104
852.434	3173
852.569	3138
852.703	3176
852.838	3237
852.973	3340
853.107	3283
853.242	3135
853.376	3093
853.511	2967
853.645	3039
853.78	3207
853.914	3108
854.048	3131
854.183	3089
854.317	3157
854.451	3294
854.585	3138
854.72	3104
854.854	3195
854.988	3036
855.122	3112
855.256	2937
855.39	3085
855.524	3226
855.658	3169
855.792	3135
855.926	3218
856.06	3237
856.194	3245
856.327	3150
856.461	3036
856.595	3089
856.729	3058
856.862	3188
856.996	3173
857.13	3214
857.263	3275
857.397	3272
857.53	3074
857.664	3161
857.797	3230
857.931	3245
858.064	3150
858.197	3241
858.331	3138
858.464	3138
858.597	3020
858.731	3123
858.864	3127
858.997	3081
859.13	3169
859.263	3146
859.396	3195
859.529	3077
859.662	3036
859.795	3051
859.928	3116
860.061	3275
860.194	3321
860.327	3112
860.46	3100
860.592	3233
860.725	3226
860.858	3249
860.99	3100
861.123	3055
861.256	3043
861.388	3165
861.521	3846
861.653	3017
861.786	2986
861.918	2986
862.05	3032
862.183	3097
862.315	3161
862.447	3161
862.58	3085
862.712	2944
862.844	2883
862.976	3017
863.108	2994
863.24	3462
863.372	2906
863.504	2956
863.636	2944
863.768	2998
863.9	2975
864.032	2910
864.164	2914
864.296	2979
864.428	3093
864.559	3116
864.691	3081
864.823	3009
864.954	3043
865.086	3020
865.217	2994
865.349	2960
865.48	3005
865.612	2994
865.743	3104
865.875	2975
866.006	2929
866.137	2975
866.269	2941
866.4	2960
866.531	2941
866.662	2891
866.793	2857
866.924	2902
867.055	2963
867.186	2948
867.317	2872
867.448	2823
867.579	2880
867.71	2857
867.841	2788
867.972	2910
868.103	2864
868.233	2914
868.364	2853
868.495	2887
868.625	3036
868.756	3131
868.886	2937
869.017	3051
869.147	3142
869.278	3180
869.408	3036
869.539	3039
869.669	3116
869.799	3013
869.929	3150
870.06	3043
870.19	3294
870.32	3264
870.45	3325
870.58	3378
870.71	3435
870.84	3431
870.97	3306
871.1	3264
871.23	3526
871.36	3462
871.489	3389
871.619	3386
871.749	3370
871.879	3447
872.008	3458
872.138	3363
872.267	3214
872.397	3150
872.526	3104
872.656	3039
872.785	3062
872.915	3226
873.044	3291
873.173	3207
873.303	3218
873.432	3245
873.561	3230
873.69	3135
873.819	3131
873.948	3195
874.077	3119
874.206	3036
874.335	3051
874.464	3199
874.593	3310
874.722	3233
874.851	3431
874.979	3374
875.108	3291
875.237	3169
875.365	3138
875.494	3146
875.623	3249
875.751	3055
875.88	3131
876.008	3214
876.136	3245
876.265	3363
876.393	3481
876.521	3386
876.65	3382
876.778	3332
876.906	3245
877.034	3211
877.162	3203
877.29	3165
877.418	3245
877.546	3253
877.674	3211
877.802	3192
877.93	3226
878.058	3131
878.185	3089
878.313	3203
878.441	3237
878.568	3081
878.696	3154
878.824	3272
878.951	3302
879.079	3424
879.206	3599
879.333	3416
879.461	3329
879.588	3359
879.715	3526
879.842	3568
879.97	3367
880.097	3199
880.224	3142
880.351	3195
880.478	3195
880.605	3169
880.732	3192
880.859	3496
880.986	3264
881.112	3321
881.239	3195
881.366	3081
881.493	3036
881.619	3017
881.746	3070
881.872	3066
881.999	3074
882.125	3150
882.252	3268
882.378	3264
882.505	3420
882.631	3268
882.757	3131
882.883	3211
883.01	3199
883.136	3146
883.262	3066
883.388	3123
883.514	3283
883.64	3393
883.766	3249
883.892	3176
884.018	3218
884.143	3424
884.269	3526
884.395	3218
884.52	3104
884.646	3146
884.772	3138
884.897	3081
885.023	3176
885.148	3329
885.274	3420
885.399	3367
885.524	3233
885.65	3195
885.775	3332
885.9	3268
886.025	3431
886.15	3382
886.275	3268
886.4	3230
886.525	3310
886.65	3245
886.775	3298
886.9	3507
887.025	3629
887.149	3412
887.274	3256
887.399	3192
887.523	3176
887.648	3214
887.773	3188
887.897	3386
888.021	3405
888.146	3294
888.27	3424
888.395	3534
888.519	3458
888.643	3462
888.767	3458
888.891	3310
889.015	3230
889.139	3264
889.263	3230
889.387	3367
889.511	3511
889.635	3462
889.759	3325
889.883	3325
890.006	3355
890.13	3477
890.254	3279
890.377	3355
890.501	3237
890.624	3165
890.748	3287
890.871	3199
890.995	3081
891.118	3062
891.241	3180
891.364	3199
891.488	3287
891.611	3154
891.734	3195
891.857	3306
891.98	3245
892.103	3325
892.226	3275
892.349	3199
892.471	3135
892.594	3211
892.717	3294
892.839	3256
892.962	3313
893.085	3359
893.207	3313
893.33	3138
893.452	3222
893.575	3340
893.697	3256
893.819	3428
893.941	3523
894.064	3431
894.186	3226
894.308	3283
894.43	3481
894.552	3553
894.674	3462
894.796	3222
894.918	3325
895.04	3306
895.161	3454
895.283	3382
895.405	3298
895.526	3409
895.648	3409
895.769	3401
895.891	3466
896.012	3492
896.134	3462
896.255	3447
896.376	3359
896.498	3378
896.619	3443
896.74	3359
896.861	3401
896.982	3675
897.103	3873
897.224	3561
897.345	3519
897.466	3424
897.587	3507
897.708	3629
897.828	3572
897.949	3424
898.07	3313
898.19	3397
898.311	3587
898.431	3386
898.552	3557
898.672	3603
898.792	3614
898.913	3549
899.033	3397
899.153	3325
899.273	3195
899.393	3287
899.513	3355
899.633	3317
899.753	3325
899.873	3268
899.993	3374
900.113	3340
900.232	3409
900.352	3313
900.472	3294
900.591	3222
900.711	3291
900.83	3218
900.95	3416
901.069	3511
901.189	3359
901.308	3199
901.427	3138
901.546	3180
901.665	3283
901.784	3321
901.904	3241
902.023	3161
902.141	2967
902.26	2971
902.379	3146
902.498	3089
902.617	3051
902.735	3195
902.854	3222
902.973	3180
903.091	3009
903.21	3055
903.328	3108
903.446	3108
903.565	3119
903.683	3195
903.801	3100
903.919	3245
904.038	3283
904.156	3184
904.274	3249
904.392	3268
904.51	3268
904.627	3340
904.745	3431
904.863	3488
904.981	3279
905.098	3161
905.216	3241
905.334	3245
905.451	3306
905.569	3344
905.686	3401
905.803	3416
905.921	3310
906.038	3409
906.155	3313
906.272	3272
906.389	3348
906.506	3222
906.623	3241
906.74	3287
906.857	3184
906.974	3211
907.091	3458
907.208	3561
907.324	3534
907.441	3389
907.557	3233
907.674	3233
907.79	3207
907.907	3272
908.023	3370
908.139	3370
908.256	3317
908.372	3374
908.488	3344
908.604	3275
908.72	3226
908.836	3249
908.952	3302
909.068	3313
909.184	3496
909.3	3409
909.415	3530
909.531	3473
909.647	3268
909.762	3294
909.878	3268
909.993	3348
910.108	3321
910.224	3340
910.339	3382
910.454	3329
910.57	3302
910.685	3268
910.8	3572
910.915	3496
911.03	3424
911.145	3268
911.259	3253
911.374	3298
911.489	3268
911.604	3253
911.718	3085
911.833	3135
911.947	3032
912.062	2986
912.176	3150
912.291	3135
912.405	3233
912.519	3439
912.633	3447
912.748	3348
912.862	3310
912.976	3207
913.09	3093
913.204	3112
913.318	3211
913.431	3317
913.545	3344
913.659	3382
913.772	3363
913.886	3192
914	3180
914.113	3332
914.226	3424
914.34	3370
914.453	3211
914.566	3386
914.68	3283
914.793	3332
914.906	3169
915.019	3123
915.132	3081
915.245	3173
915.358	3203
915.47	3226
915.583	3291
915.696	3275
915.809	3386
915.921	3428
916.034	3272
916.146	3214
916.259	3207
916.371	3382
916.483	3359
916.595	3245
916.708	3355
916.82	3298
916.932	3321
917.044	3321
917.156	3348
917.268	3283
917.38	3291
917.491	3306
917.603	3367
917.715	3469
917.826	3477
917.938	3386
918.049	3253
918.161	3450
918.272	3564
918.384	3526
918.495	3496
918.606	3329
918.717	3332
918.828	3367
918.939	3412
919.05	3302
919.161	3321
919.272	3180
919.383	3272
919.494	3545
919.604	3690
919.715	3481
919.826	3405
919.936	3428
920.047	3568
920.157	3595
920.267	3770
920.378	3622
920.488	3557
920.598	3755
920.708	3960
920.818	3808
920.928	3812
921.038	4017
921.148	3994
921.258	3671
921.368	3686
921.477	3629
921.587	3568
921.697	3435
921.806	3599
921.916	3492
922.025	3367
922.134	3382
922.244	3332
922.353	3450
922.462	3272
922.571	3180
922.68	3093
922.789	3055
922.898	3131
923.007	3066
923.116	3222
923.224	3169
923.333	3169
923.442	3066
923.55	3074
923.659	3112
923.767	3226
923.876	3150
923.984	3230
924.092	3142
924.201	3169
924.309	3214
924.417	3268
924.525	3192
924.633	3203
924.741	4181
924.849	3036
924.956	3260
925.064	3089
925.172	3055
925.279	3104
925.387	3218
925.494	3214
925.602	3332
925.709	3329
925.816	3192
925.924	3256
926.031	3389
926.138	3344
926.245	3336
926.352	3268
926.459	3359
926.566	3473
926.673	3306
926.779	3260
926.886	3222
926.993	3150
927.099	3161
927.206	3119
927.312	3108
927.419	3237
927.525	3218
927.631	3272
927.737	3146
927.843	3142
927.95	3017
928.056	3165
928.162	3154
928.267	3214
928.373	3876
928.479	3306
928.585	3066
928.69	3218
928.796	3294
928.901	3173
929.007	3009
929.112	3203
929.218	3184
929.323	3089
929.428	3142
929.533	3359
929.638	3127
929.743	3203
929.848	3275
929.953	3207
930.058	3192
930.163	3009
930.267	3051
930.372	3203
930.477	3036
930.581	3298
930.685	3184
930.79	3047
930.894	3116
930.998	3112
931.103	3298
931.207	2967
931.311	2933
931.415	2918
931.519	2758
931.623	2796
