Data from test_V78500241_1657.txt Node
Date: Fri Mar 25 16:26:40 CST 2022
User: usil
Spectrometer: V785-0024
Trigger mode: 0
Integration Time (sec): 4.000000E-1
Scans to average: 1
Nonlinearity correction enabled: false
Boxcar width: 0
Storing dark spectrum: false
XAxis mode: Wavelengths
Number of Pixels in Spectrum: 1024
>>>>>Begin Spectral Data<<<<<
801.071	2895
801.214	2933
801.356	2880
801.499	2887
801.641	2872
801.783	2899
801.926	3058
802.068	2971
802.211	2982
802.353	3039
802.496	2960
802.638	3009
802.78	3013
802.923	3017
803.065	2982
803.208	2902
803.35	2929
803.492	2944
803.635	2952
803.777	2750
803.919	2861
804.061	3192
804.204	2956
804.346	2906
804.488	2868
804.63	2925
804.773	2838
804.915	2891
805.057	3051
805.199	2925
805.341	2925
805.483	3024
805.626	2990
805.768	2990
805.91	3066
806.052	3093
806.194	3028
806.336	3184
806.478	2986
806.62	2937
806.762	2956
806.904	3032
807.046	3173
807.188	2998
807.33	2887
807.472	2998
807.614	2914
807.756	2979
807.898	2906
808.04	2895
808.182	2922
808.324	2956
808.465	2849
808.607	2880
808.749	2785
808.891	2842
809.033	2982
809.174	2952
809.316	2883
809.458	2906
809.6	2766
809.741	2758
809.883	2773
810.025	2811
810.166	2849
810.308	2845
810.45	2830
810.591	2743
810.733	2743
810.875	2857
811.016	2807
811.158	2766
811.299	2819
811.441	2925
811.582	2895
811.724	2819
811.865	2826
812.007	2925
812.148	2861
812.29	2853
812.431	2895
812.573	2899
812.714	2986
812.855	3020
812.997	3051
813.138	3066
813.279	3005
813.421	2963
813.562	2948
813.703	2849
813.845	2861
813.986	2720
814.127	2724
814.268	2815
814.41	2887
814.551	2807
814.692	2891
814.833	2826
814.974	2868
815.115	2979
815.256	2845
815.397	2815
815.539	2853
815.68	2781
815.821	2804
815.962	2960
816.103	2929
816.244	2887
816.385	2838
816.526	2929
816.666	2910
816.807	2716
816.948	2891
817.089	2902
817.23	2834
817.371	2781
817.512	2792
817.653	2830
817.793	2838
817.934	2864
818.075	2967
818.216	3005
818.356	3005
818.497	2872
818.638	2777
818.778	2853
818.919	2769
819.06	2731
819.2	2857
819.341	2823
819.481	2788
819.622	2910
819.762	3116
819.903	3020
820.043	2925
820.184	2922
820.324	2891
820.465	3024
820.605	3024
820.746	3009
820.886	2910
821.026	3077
821.167	3119
821.307	3218
821.447	3233
821.588	3226
821.728	3218
821.868	3165
822.008	3077
822.149	3192
822.289	3207
822.429	3066
822.569	3066
822.709	3214
822.849	2986
822.99	3062
823.13	3135
823.27	3230
823.41	3093
823.55	3108
823.69	3135
823.83	3165
823.97	3089
824.11	3020
824.25	2990
824.389	3074
824.529	3085
824.669	3062
824.809	3184
824.949	3245
825.089	3222
825.228	3150
825.368	2956
825.508	2960
825.648	2956
825.787	2975
825.927	3005
826.067	2975
826.206	2986
826.346	3070
826.485	3051
826.625	3085
826.765	3260
826.904	3203
827.044	2948
827.183	2925
827.323	2838
827.462	2998
827.601	2925
827.741	2906
827.88	2941
828.02	2834
828.159	2975
828.298	3017
828.437	3100
828.577	3055
828.716	3279
828.855	3074
828.994	2925
829.134	2826
829.273	2895
829.412	2883
829.551	2872
829.69	2872
829.829	2982
829.968	3108
830.107	3017
830.246	3032
830.385	2929
830.524	2899
830.663	2834
830.802	2724
830.941	2659
831.08	2632
831.219	2708
831.357	2739
831.496	2918
831.635	2689
831.774	2617
831.913	2594
832.051	2560
832.19	2575
832.329	2655
832.467	2522
832.606	2454
832.744	2556
832.883	2583
833.022	2568
833.16	2648
833.299	2686
833.437	2693
833.576	2705
833.714	2686
833.852	2739
833.991	2716
834.129	2842
834.267	2853
834.406	2781
834.544	2834
834.682	2887
834.821	2883
834.959	3039
835.097	2864
835.235	3005
835.373	2979
835.511	2975
835.65	2944
835.788	2925
835.926	2815
836.064	2811
836.202	2807
836.34	3066
836.478	3176
836.615	3047
836.753	3116
836.891	3195
837.029	3157
837.167	3081
837.305	3081
837.443	3055
837.58	2941
837.718	3116
837.856	3070
837.993	3028
838.131	3112
838.269	3116
838.406	3043
838.544	3100
838.681	2895
838.819	2929
838.956	2819
839.094	2800
839.231	2876
839.369	2990
839.506	3378
839.643	3207
839.781	3009
839.918	2960
840.055	3077
840.193	3047
840.33	3062
840.467	3066
840.604	3150
840.742	3397
840.879	3058
841.016	3055
841.153	3146
841.29	3279
841.427	3283
841.564	3249
841.701	3287
841.838	3253
841.975	3173
842.112	3161
842.249	3097
842.385	2994
842.522	3268
842.659	3066
842.796	3081
842.933	3097
843.069	3047
843.206	3047
843.343	3161
843.479	3100
843.616	3119
843.752	2902
843.889	2861
844.025	3039
844.162	2925
844.298	3051
844.435	2941
844.571	2891
844.708	3074
844.844	3207
844.98	3218
845.117	3161
845.253	3020
845.389	3005
845.525	3112
845.661	3085
845.798	2998
845.934	3104
846.07	3055
846.206	3184
846.342	3306
846.478	3214
846.614	3097
846.75	3043
846.886	3017
847.022	3249
847.158	3142
847.294	3203
847.429	3245
847.565	3192
847.701	3458
847.837	2994
847.972	2986
848.108	3157
848.244	3142
848.379	2952
848.515	2925
848.65	2948
848.786	2925
848.921	3009
849.057	3093
849.192	3150
849.328	3043
849.463	3127
849.598	3020
849.734	3047
849.869	2963
850.004	2880
850.14	2956
850.275	2902
850.41	2834
850.545	2876
850.68	2906
850.815	2979
850.95	2960
851.085	3150
851.22	3081
851.355	3051
851.49	2948
851.625	2971
851.76	3017
851.895	2918
852.03	2883
852.165	3032
852.299	3077
852.434	3169
852.569	3135
852.703	3165
852.838	3218
852.973	3359
853.107	3332
853.242	3131
853.376	3051
853.511	2994
853.645	2998
853.78	3218
853.914	3108
854.048	3070
854.183	3062
854.317	3161
854.451	3264
854.585	3123
854.72	3047
854.854	3169
854.988	3058
855.122	3070
855.256	2933
855.39	3104
855.524	3260
855.658	3207
855.792	3146
855.926	3184
856.06	3211
856.194	3249
856.327	3180
856.461	3070
856.595	3085
856.729	3089
856.862	3188
856.996	3195
857.13	3188
857.263	3272
857.397	3241
857.53	3123
857.664	3188
857.797	3230
857.931	3279
858.064	3123
858.197	3180
858.331	3165
858.464	3081
858.597	2982
858.731	3104
858.864	3127
858.997	3055
859.13	3123
859.263	3173
859.396	3199
859.529	3062
859.662	3062
859.795	3047
859.928	3161
860.061	3245
860.194	3298
860.327	3104
860.46	3055
860.592	3214
860.725	3230
860.858	3253
860.99	3138
861.123	3043
861.256	3005
861.388	3150
861.521	3861
861.653	2982
861.786	3020
861.918	3032
862.05	3055
862.183	3066
862.315	3127
862.447	3192
862.58	3112
862.712	2948
862.844	2883
862.976	3020
863.108	2990
863.24	3386
863.372	2849
863.504	2971
863.636	2956
863.768	3043
863.9	2979
864.032	2914
864.164	2929
864.296	3028
864.428	3066
864.559	3104
864.691	3062
864.823	3055
864.954	3051
865.086	3028
865.217	2998
865.349	2929
865.48	2982
865.612	2998
865.743	3104
865.875	2979
866.006	2975
866.137	2960
866.269	2925
866.4	2918
866.531	2906
866.662	2872
866.793	2895
866.924	2864
867.055	2975
867.186	2906
867.317	2864
867.448	2834
867.579	2861
867.71	2838
867.841	2796
867.972	2922
868.103	2857
868.233	2861
868.364	2864
868.495	2872
868.625	3058
868.756	3157
868.886	2952
869.017	2994
869.147	3138
869.278	3146
869.408	3043
869.539	3028
869.669	3119
869.799	3036
869.929	3097
870.06	3085
870.19	3287
870.32	3272
870.45	3313
870.58	3393
870.71	3412
870.84	3450
870.97	3260
871.1	3249
871.23	3466
871.36	3435
871.489	3340
871.619	3386
871.749	3439
871.879	3454
872.008	3447
872.138	3306
872.267	3264
872.397	3138
872.526	3047
872.656	2990
872.785	3116
872.915	3253
873.044	3317
873.173	3161
873.303	3233
873.432	3214
873.561	3237
873.69	3119
873.819	3138
873.948	3150
874.077	3089
874.206	3013
874.335	3081
874.464	3192
874.593	3302
874.722	3256
874.851	3367
874.979	3370
875.108	3310
875.237	3188
875.365	3127
875.494	3150
875.623	3237
875.751	3058
875.88	3085
876.008	3173
876.136	3226
876.265	3363
876.393	3504
876.521	3409
876.65	3378
876.778	3344
876.906	3222
877.034	3131
877.162	3195
877.29	3176
877.418	3268
877.546	3249
877.674	3233
877.802	3199
877.93	3214
878.058	3135
878.185	3100
878.313	3218
878.441	3230
878.568	3055
878.696	3150
878.824	3245
878.951	3279
879.079	3420
879.206	3606
879.333	3439
879.461	3332
879.588	3420
879.715	3542
879.842	3568
879.97	3344
880.097	3161
880.224	3104
880.351	3150
880.478	3199
880.605	3195
880.732	3188
880.859	3450
880.986	3275
881.112	3275
881.239	3192
881.366	3074
881.493	3036
881.619	3001
881.746	3074
881.872	3058
881.999	3093
882.125	3154
882.252	3249
882.378	3253
882.505	3450
882.631	3260
882.757	3146
882.883	3222
883.01	3226
883.136	3138
883.262	3089
883.388	3108
883.514	3344
883.64	3363
883.766	3298
883.892	3180
884.018	3214
884.143	3401
884.269	3553
884.395	3233
884.52	3138
884.646	3184
884.772	3108
884.897	3119
885.023	3165
885.148	3313
885.274	3412
885.399	3355
885.524	3298
885.65	3241
885.775	3329
885.9	3256
886.025	3386
886.15	3370
886.275	3283
886.4	3230
886.525	3275
886.65	3237
886.775	3260
886.9	3504
887.025	3591
887.149	3435
887.274	3287
887.399	3173
887.523	3176
887.648	3131
887.773	3184
887.897	3340
888.021	3370
888.146	3306
888.27	3428
888.395	3519
888.519	3428
888.643	3435
888.767	3466
888.891	3313
889.015	3245
889.139	3279
889.263	3237
889.387	3393
889.511	3526
889.635	3469
889.759	3302
889.883	3298
890.006	3344
890.13	3462
890.254	3253
890.377	3313
890.501	3188
890.624	3214
890.748	3279
890.871	3154
890.995	3112
891.118	3070
891.241	3207
891.364	3226
891.488	3329
891.611	3188
891.734	3195
891.857	3321
891.98	3203
892.103	3332
892.226	3302
892.349	3211
892.471	3116
892.594	3203
892.717	3253
892.839	3264
892.962	3287
893.085	3386
893.207	3313
893.33	3169
893.452	3203
893.575	3355
893.697	3253
893.819	3488
893.941	3511
894.064	3431
894.186	3313
894.308	3249
894.43	3416
894.552	3534
894.674	3443
894.796	3237
894.918	3317
895.04	3275
895.161	3431
895.283	3348
895.405	3260
895.526	3336
895.648	3409
895.769	3393
895.891	3458
896.012	3485
896.134	3435
896.255	3401
896.376	3359
896.498	3378
896.619	3386
896.74	3424
896.861	3378
896.982	3660
897.103	3789
897.224	3584
897.345	3485
897.466	3443
897.587	3504
897.708	3641
897.828	3530
897.949	3428
898.07	3359
898.19	3416
898.311	3576
898.431	3473
898.552	3473
898.672	3587
898.792	3591
898.913	3500
899.033	3409
899.153	3268
899.273	3199
899.393	3249
899.513	3317
899.633	3291
899.753	3348
899.873	3321
899.993	3363
900.113	3317
900.232	3367
900.352	3325
900.472	3306
900.591	3199
900.711	3294
900.83	3222
900.95	3428
901.069	3481
901.189	3306
901.308	3180
901.427	3081
901.546	3173
901.665	3294
901.784	3317
901.904	3180
902.023	3146
902.141	3009
902.26	2975
902.379	3146
902.498	3047
902.617	3036
902.735	3195
902.854	3230
902.973	3222
903.091	3032
903.21	3058
903.328	3116
903.446	3097
903.565	3112
903.683	3184
903.801	3127
903.919	3237
904.038	3260
904.156	3154
904.274	3283
904.392	3230
904.51	3279
904.627	3359
904.745	3428
904.863	3481
904.981	3283
905.098	3180
905.216	3218
905.334	3294
905.451	3268
905.569	3298
905.686	3401
905.803	3424
905.921	3275
906.038	3424
906.155	3329
906.272	3237
906.389	3310
906.506	3211
906.623	3233
906.74	3268
906.857	3192
906.974	3256
907.091	3431
907.208	3572
907.324	3485
907.441	3370
907.557	3214
907.674	3222
907.79	3218
907.907	3264
908.023	3367
908.139	3367
908.256	3313
908.372	3370
908.488	3348
908.604	3245
908.72	3207
908.836	3313
908.952	3249
909.068	3306
909.184	3462
909.3	3374
909.415	3481
909.531	3450
909.647	3249
909.762	3283
909.878	3241
909.993	3336
910.108	3279
910.224	3348
910.339	3393
910.454	3344
910.57	3260
910.685	3203
910.8	3587
910.915	3511
911.03	3428
911.145	3279
911.259	3245
911.374	3302
911.489	3264
911.604	3192
911.718	3142
911.833	3142
911.947	3032
912.062	2971
912.176	3176
912.291	3192
912.405	3264
912.519	3435
912.633	3454
912.748	3367
912.862	3287
912.976	3222
913.09	3070
913.204	3169
913.318	3199
913.431	3389
913.545	3359
913.659	3454
913.772	3359
913.886	3218
914	3230
914.113	3363
914.226	3454
914.34	3416
914.453	3268
914.566	3450
914.68	3317
914.793	3340
914.906	3138
915.019	3150
915.132	3104
915.245	3211
915.358	3226
915.47	3294
915.583	3306
915.696	3325
915.809	3443
915.921	3450
916.034	3291
916.146	3302
916.259	3260
916.371	3424
916.483	3409
916.595	3302
916.708	3420
916.82	3382
916.932	3389
917.044	3393
917.156	3386
917.268	3302
917.38	3344
917.491	3378
917.603	3378
917.715	3450
917.826	3507
917.938	3420
918.049	3321
918.161	3473
918.272	3606
918.384	3629
918.495	3553
918.606	3428
918.717	3336
918.828	3420
918.939	3443
919.05	3382
919.161	3393
919.272	3192
919.383	3340
919.494	3519
919.604	3736
919.715	3507
919.826	3431
919.936	3466
920.047	3622
920.157	3595
920.267	3781
920.378	3629
920.488	3580
920.598	3819
920.708	3994
920.818	3857
920.928	3876
921.038	4036
921.148	4071
921.258	3762
921.368	3686
921.477	3614
921.587	3587
921.697	3481
921.806	3637
921.916	3557
922.025	3416
922.134	3363
922.244	3313
922.353	3488
922.462	3279
922.571	3291
922.68	3157
922.789	3123
922.898	3127
923.007	3123
923.116	3207
923.224	3226
923.333	3211
923.442	3135
923.55	3138
923.659	3157
923.767	3245
923.876	3173
923.984	3287
924.092	3157
924.201	3237
924.309	3249
924.417	3253
924.525	3192
924.633	3245
924.741	4227
924.849	3093
924.956	3298
925.064	3142
925.172	3085
925.279	3108
925.387	3264
925.494	3241
925.602	3370
925.709	3355
925.816	3199
925.924	3336
926.031	3416
926.138	3363
926.245	3386
926.352	3275
926.459	3450
926.566	3477
926.673	3317
926.779	3275
926.886	3256
926.993	3161
927.099	3154
927.206	3161
927.312	3112
927.419	3310
927.525	3222
927.631	3287
927.737	3192
927.843	3138
927.95	3047
928.056	3157
928.162	3211
928.267	3249
928.373	3808
928.479	3329
928.585	3077
928.69	3260
928.796	3283
928.901	3180
929.007	3066
929.112	3218
929.218	3275
929.323	3157
929.428	3188
929.533	3321
929.638	3112
929.743	3169
929.848	3249
929.953	3203
930.058	3142
930.163	3024
930.267	3081
930.372	3222
930.477	3062
930.581	3332
930.685	3195
930.79	3093
930.894	3135
930.998	3127
931.103	3275
931.207	2960
931.311	2982
931.415	2975
931.519	2807
931.623	2830
