Data from test_V78500241_912.txt Node
Date: Fri Mar 25 16:21:31 CST 2022
User: usil
Spectrometer: V785-0024
Trigger mode: 0
Integration Time (sec): 4.000000E-1
Scans to average: 1
Nonlinearity correction enabled: false
Boxcar width: 0
Storing dark spectrum: false
XAxis mode: Wavelengths
Number of Pixels in Spectrum: 1024
>>>>>Begin Spectral Data<<<<<
801.071	2941
801.214	2971
801.356	2910
801.499	2929
801.641	2899
801.783	2925
801.926	3066
802.068	2971
802.211	3013
802.353	3043
802.496	3009
802.638	3024
802.78	3058
802.923	3119
803.065	3055
803.208	2887
803.35	2944
803.492	2952
803.635	2967
803.777	2773
803.919	2864
804.061	3199
804.204	2986
804.346	2944
804.488	2880
804.63	3009
804.773	2922
804.915	2933
805.057	3070
805.199	2967
805.341	2975
805.483	3036
805.626	3024
805.768	2967
805.91	3077
806.052	3142
806.194	3093
806.336	3230
806.478	3009
806.62	2967
806.762	2971
806.904	3070
807.046	3165
807.188	2990
807.33	2925
807.472	2986
807.614	2933
807.756	3017
807.898	2948
808.04	2902
808.182	3001
808.324	2982
808.465	2891
808.607	2891
808.749	2815
808.891	2880
809.033	2990
809.174	2960
809.316	2910
809.458	2944
809.6	2758
809.741	2743
809.883	2762
810.025	2853
810.166	2906
810.308	2864
810.45	2845
810.591	2819
810.733	2758
810.875	2819
811.016	2785
811.158	2781
811.299	2842
811.441	2906
811.582	2941
811.724	2872
811.865	2857
812.007	2902
812.148	2880
812.29	2880
812.431	2899
812.573	2944
812.714	2982
812.855	3066
812.997	3058
813.138	3108
813.279	2994
813.421	2975
813.562	2975
813.703	2899
813.845	2880
813.986	2792
814.127	2746
814.268	2838
814.41	2849
814.551	2800
814.692	2922
814.833	2845
814.974	2925
815.115	2952
815.256	2849
815.397	2815
815.539	2838
815.68	2754
815.821	2811
815.962	2944
816.103	2944
816.244	2834
816.385	2861
816.526	2956
816.666	2925
816.807	2746
816.948	2918
817.089	2899
817.23	2834
817.371	2819
817.512	2754
817.653	2853
817.793	2807
817.934	2880
818.075	2998
818.216	2979
818.356	3047
818.497	2883
818.638	2785
818.778	2864
818.919	2811
819.06	2800
819.2	2899
819.341	2811
819.481	2807
819.622	2937
819.762	3127
819.903	3062
820.043	2929
820.184	2918
820.324	2922
820.465	3032
820.605	3009
820.746	3013
820.886	2982
821.026	3146
821.167	3165
821.307	3249
821.447	3275
821.588	3211
821.728	3207
821.868	3222
822.008	3104
822.149	3188
822.289	3211
822.429	3123
822.569	3093
822.709	3165
822.849	3013
822.99	3058
823.13	3154
823.27	3188
823.41	3112
823.55	3176
823.69	3150
823.83	3207
823.97	3116
824.11	2990
824.25	3047
824.389	3081
824.529	3100
824.669	3112
824.809	3211
824.949	3226
825.089	3249
825.228	3180
825.368	2982
825.508	3005
825.648	2971
825.787	3024
825.927	2956
826.067	2948
826.206	2956
826.346	3020
826.485	3100
826.625	3112
826.765	3253
826.904	3230
827.044	3013
827.183	2956
827.323	2849
827.462	2960
827.601	2918
827.741	2922
827.88	2944
828.02	2823
828.159	2975
828.298	3028
828.437	3104
828.577	3047
828.716	3272
828.855	3093
828.994	2967
829.134	2853
829.273	2895
829.412	2864
829.551	2883
829.69	2918
829.829	3017
829.968	3131
830.107	3077
830.246	3013
830.385	2914
830.524	2895
830.663	2800
830.802	2724
830.941	2670
831.08	2636
831.219	2777
831.357	2731
831.496	2925
831.635	2746
831.774	2663
831.913	2640
832.051	2545
832.19	2594
832.329	2708
832.467	2552
832.606	2507
832.744	2598
832.883	2613
833.022	2594
833.16	2670
833.299	2663
833.437	2697
833.576	2701
833.714	2720
833.852	2724
833.991	2773
834.129	2868
834.267	2864
834.406	2800
834.544	2864
834.682	2880
834.821	2868
834.959	3066
835.097	2891
835.235	3051
835.373	2967
835.511	3013
835.65	2944
835.788	2971
835.926	2857
836.064	2853
836.202	2853
836.34	3077
836.478	3123
836.615	3074
836.753	3131
836.891	3214
837.029	3154
837.167	3119
837.305	3028
837.443	3070
837.58	2933
837.718	3138
837.856	3089
837.993	3043
838.131	3112
838.269	3146
838.406	3123
838.544	3051
838.681	2963
838.819	2929
838.956	2792
839.094	2853
839.231	2937
839.369	2998
839.506	3336
839.643	3188
839.781	2994
839.918	2990
840.055	3058
840.193	3047
840.33	3039
840.467	3127
840.604	3146
840.742	3397
840.879	3043
841.016	3077
841.153	3131
841.29	3306
841.427	3283
841.564	3253
841.701	3310
841.838	3222
841.975	3169
842.112	3226
842.249	3055
842.385	3070
842.522	3245
842.659	3081
842.796	3066
842.933	3066
843.069	3032
843.206	3070
843.343	3192
843.479	3116
843.616	3104
843.752	2872
843.889	2887
844.025	3085
844.162	2899
844.298	3081
844.435	2994
844.571	2925
844.708	3017
844.844	3180
844.98	3291
845.117	3195
845.253	3058
845.389	3017
845.525	3093
845.661	3074
845.798	2994
845.934	3093
846.07	3070
846.206	3199
846.342	3310
846.478	3211
846.614	3123
846.75	3028
846.886	3032
847.022	3268
847.158	3085
847.294	3203
847.429	3230
847.565	3218
847.701	3473
847.837	3001
847.972	3017
848.108	3161
848.244	3123
848.379	3005
848.515	2922
848.65	2937
848.786	2967
848.921	3017
849.057	3100
849.192	3150
849.328	3074
849.463	3123
849.598	3043
849.734	3066
849.869	2990
850.004	2906
850.14	2963
850.275	2891
850.41	2819
850.545	2880
850.68	2910
850.815	2971
850.95	2979
851.085	3211
851.22	3138
851.355	3055
851.49	3005
851.625	2982
851.76	2998
851.895	2937
852.03	2902
852.165	3020
852.299	3123
852.434	3180
852.569	3119
852.703	3169
852.838	3237
852.973	3382
853.107	3336
853.242	3176
853.376	3104
853.511	2963
853.645	3047
853.78	3272
853.914	3123
854.048	3127
854.183	3116
854.317	3135
854.451	3275
854.585	3142
854.72	3093
854.854	3203
854.988	3074
855.122	3104
855.256	2994
855.39	3108
855.524	3241
855.658	3161
855.792	3142
855.926	3207
856.06	3214
856.194	3249
856.327	3135
856.461	3081
856.595	3077
856.729	3081
856.862	3222
856.996	3123
857.13	3214
857.263	3214
857.397	3268
857.53	3085
857.664	3165
857.797	3253
857.931	3222
858.064	3173
858.197	3230
858.331	3157
858.464	3100
858.597	3005
858.731	3104
858.864	3108
858.997	3077
859.13	3154
859.263	3173
859.396	3233
859.529	3066
859.662	3055
859.795	3028
859.928	3157
860.061	3275
860.194	3268
860.327	3123
860.46	3108
860.592	3184
860.725	3260
860.858	3268
860.99	3066
861.123	3051
861.256	3043
861.388	3154
861.521	3831
861.653	2979
861.786	2975
861.918	2986
862.05	3062
862.183	3089
862.315	3131
862.447	3157
862.58	3104
862.712	2971
862.844	2880
862.976	3036
863.108	2986
863.24	3336
863.372	2910
863.504	2960
863.636	2948
863.768	3020
863.9	3001
864.032	2910
864.164	2922
864.296	2982
864.428	3070
864.559	3104
864.691	3039
864.823	3051
864.954	3017
865.086	3062
865.217	2982
865.349	2944
865.48	2971
865.612	3020
865.743	3150
865.875	3005
866.006	2929
866.137	2948
866.269	2929
866.4	2929
866.531	2922
866.662	2887
866.793	2902
866.924	2895
867.055	2990
867.186	2918
867.317	2902
867.448	2849
867.579	2891
867.71	2861
867.841	2819
867.972	2925
868.103	2891
868.233	2902
868.364	2891
868.495	2922
868.625	3070
868.756	3173
868.886	2967
869.017	3020
869.147	3169
869.278	3173
869.408	3051
869.539	3036
869.669	3108
869.799	3005
869.929	3142
870.06	3131
870.19	3332
870.32	3283
870.45	3298
870.58	3382
870.71	3424
870.84	3485
870.97	3283
871.1	3241
871.23	3458
871.36	3409
871.489	3348
871.619	3393
871.749	3439
871.879	3462
872.008	3504
872.138	3355
872.267	3237
872.397	3142
872.526	3104
872.656	3005
872.785	3070
872.915	3230
873.044	3272
873.173	3233
873.303	3211
873.432	3287
873.561	3241
873.69	3157
873.819	3131
873.948	3203
874.077	3116
874.206	3047
874.335	3074
874.464	3226
874.593	3325
874.722	3260
874.851	3370
874.979	3298
875.108	3302
875.237	3165
875.365	3150
875.494	3150
875.623	3249
875.751	3085
875.88	3108
876.008	3199
876.136	3226
876.265	3370
876.393	3511
876.521	3405
876.65	3424
876.778	3374
876.906	3245
877.034	3188
877.162	3237
877.29	3165
877.418	3233
877.546	3264
877.674	3184
877.802	3203
877.93	3256
878.058	3154
878.185	3077
878.313	3203
878.441	3214
878.568	3077
878.696	3142
878.824	3268
878.951	3306
879.079	3428
879.206	3610
879.333	3424
879.461	3291
879.588	3363
879.715	3477
879.842	3584
879.97	3424
880.097	3154
880.224	3119
880.351	3188
880.478	3226
880.605	3218
880.732	3192
880.859	3481
880.986	3298
881.112	3321
881.239	3192
881.366	3108
881.493	3005
881.619	3028
881.746	3070
881.872	3116
881.999	3097
882.125	3116
882.252	3260
882.378	3306
882.505	3412
882.631	3260
882.757	3165
882.883	3230
883.01	3218
883.136	3180
883.262	3058
883.388	3100
883.514	3332
883.64	3378
883.766	3283
883.892	3150
884.018	3256
884.143	3359
884.269	3553
884.395	3184
884.52	3192
884.646	3150
884.772	3112
884.897	3116
885.023	3218
885.148	3348
885.274	3409
885.399	3348
885.524	3287
885.65	3241
885.775	3291
885.9	3249
886.025	3405
886.15	3321
886.275	3298
886.4	3211
886.525	3298
886.65	3249
886.775	3310
886.9	3477
887.025	3660
887.149	3393
887.274	3264
887.399	3169
887.523	3207
887.648	3180
887.773	3192
887.897	3340
888.021	3405
888.146	3294
888.27	3458
888.395	3530
888.519	3450
888.643	3443
888.767	3443
888.891	3317
889.015	3268
889.139	3287
889.263	3249
889.387	3386
889.511	3515
889.635	3443
889.759	3256
889.883	3306
890.006	3428
890.13	3477
890.254	3260
890.377	3313
890.501	3195
890.624	3203
890.748	3294
890.871	3195
890.995	3150
891.118	3093
891.241	3184
891.364	3218
891.488	3317
891.611	3173
891.734	3260
891.857	3264
891.98	3222
892.103	3348
892.226	3256
892.349	3226
892.471	3119
892.594	3218
892.717	3283
892.839	3226
892.962	3310
893.085	3344
893.207	3279
893.33	3161
893.452	3184
893.575	3359
893.697	3237
893.819	3447
893.941	3504
894.064	3447
894.186	3260
894.308	3272
894.43	3431
894.552	3507
894.674	3481
894.796	3272
894.918	3294
895.04	3245
895.161	3386
895.283	3363
895.405	3340
895.526	3348
895.648	3409
895.769	3447
895.891	3424
896.012	3488
896.134	3469
896.255	3382
896.376	3386
896.498	3367
896.619	3389
896.74	3363
896.861	3405
896.982	3656
897.103	3846
897.224	3637
897.345	3477
897.466	3428
897.587	3450
897.708	3610
897.828	3553
897.949	3443
898.07	3321
898.19	3378
898.311	3618
898.431	3420
898.552	3511
898.672	3564
898.792	3641
898.913	3477
899.033	3412
899.153	3302
899.273	3233
899.393	3249
899.513	3317
899.633	3302
899.753	3302
899.873	3306
899.993	3370
900.113	3344
900.232	3393
900.352	3317
900.472	3306
900.591	3203
900.711	3253
900.83	3241
900.95	3431
901.069	3477
901.189	3325
901.308	3207
901.427	3062
901.546	3150
901.665	3260
901.784	3298
901.904	3222
902.023	3150
902.141	3009
902.26	3005
902.379	3138
902.498	3058
902.617	3066
902.735	3230
902.854	3199
902.973	3199
903.091	3013
903.21	3051
903.328	3131
903.446	3093
903.565	3062
903.683	3203
903.801	3154
903.919	3195
904.038	3310
904.156	3157
904.274	3264
904.392	3253
904.51	3317
904.627	3306
904.745	3458
904.863	3492
904.981	3268
905.098	3195
905.216	3199
905.334	3294
905.451	3268
905.569	3317
905.686	3393
905.803	3416
905.921	3325
906.038	3401
906.155	3351
906.272	3272
906.389	3332
906.506	3180
906.623	3260
906.74	3283
906.857	3211
906.974	3294
907.091	3450
907.208	3568
907.324	3447
907.441	3359
907.557	3233
907.674	3211
907.79	3184
907.907	3283
908.023	3355
908.139	3340
908.256	3351
908.372	3336
908.488	3351
908.604	3222
908.72	3218
908.836	3233
908.952	3279
909.068	3332
909.184	3488
909.3	3393
909.415	3488
909.531	3492
909.647	3287
909.762	3294
909.878	3264
909.993	3355
910.108	3332
910.224	3329
910.339	3397
910.454	3313
910.57	3256
910.685	3256
910.8	3580
910.915	3530
911.03	3439
911.145	3268
911.259	3249
911.374	3291
911.489	3199
911.604	3203
911.718	3097
911.833	3119
911.947	3036
912.062	2967
912.176	3176
912.291	3146
912.405	3226
912.519	3386
912.633	3462
912.748	3351
912.862	3291
912.976	3176
913.09	3081
913.204	3138
913.318	3195
913.431	3313
913.545	3344
913.659	3424
913.772	3344
913.886	3237
914	3192
914.113	3321
914.226	3386
914.34	3355
914.453	3249
914.566	3412
914.68	3287
914.793	3363
914.906	3165
915.019	3100
915.132	3066
915.245	3146
915.358	3256
915.47	3207
915.583	3230
915.696	3306
915.809	3382
915.921	3485
916.034	3245
916.146	3279
916.259	3211
916.371	3378
916.483	3344
916.595	3272
916.708	3332
916.82	3363
916.932	3302
917.044	3355
917.156	3359
917.268	3211
917.38	3287
917.491	3268
917.603	3344
917.715	3458
917.826	3473
917.938	3374
918.049	3279
918.161	3424
918.272	3606
918.384	3545
918.495	3454
918.606	3310
918.717	3272
918.828	3424
918.939	3405
919.05	3313
919.161	3386
919.272	3195
919.383	3313
919.494	3485
919.604	3663
919.715	3435
919.826	3386
919.936	3428
920.047	3564
920.157	3564
920.267	3778
920.378	3625
920.488	3564
920.598	3759
920.708	3922
920.818	3831
920.928	3850
921.038	4044
921.148	3979
921.258	3698
921.368	3603
921.477	3580
921.587	3538
921.697	3443
921.806	3622
921.916	3549
922.025	3344
922.134	3355
922.244	3355
922.353	3401
922.462	3283
922.571	3214
922.68	3123
922.789	3070
922.898	3154
923.007	3100
923.116	3176
923.224	3142
923.333	3180
923.442	3104
923.55	3077
923.659	3112
923.767	3214
923.876	3077
923.984	3226
924.092	3108
924.201	3211
924.309	3199
924.417	3218
924.525	3199
924.633	3222
924.741	4181
924.849	3032
924.956	3241
925.064	3085
925.172	3062
925.279	3112
925.387	3192
925.494	3207
925.602	3348
925.709	3313
925.816	3138
925.924	3287
926.031	3336
926.138	3340
926.245	3367
926.352	3249
926.459	3424
926.566	3443
926.673	3321
926.779	3233
926.886	3253
926.993	3138
927.099	3146
927.206	3070
927.312	3157
927.419	3249
927.525	3218
927.631	3256
927.737	3116
927.843	3093
927.95	3005
928.056	3119
928.162	3211
928.267	3287
928.373	3827
928.479	3298
928.585	3062
928.69	3188
928.796	3272
928.901	3138
929.007	3058
929.112	3180
929.218	3203
929.323	3112
929.428	3169
929.533	3260
929.638	3119
929.743	3154
929.848	3275
929.953	3199
930.058	3100
930.163	2979
930.267	3013
930.372	3176
930.477	3036
930.581	3321
930.685	3184
930.79	3066
930.894	3184
930.998	3104
931.103	3294
931.207	2956
931.311	2944
931.415	2960
931.519	2804
931.623	2804
