Data from test_V78500241_799.txt Node
Date: Fri Mar 25 16:20:44 CST 2022
User: usil
Spectrometer: V785-0024
Trigger mode: 0
Integration Time (sec): 4.000000E-1
Scans to average: 1
Nonlinearity correction enabled: false
Boxcar width: 0
Storing dark spectrum: false
XAxis mode: Wavelengths
Number of Pixels in Spectrum: 1024
>>>>>Begin Spectral Data<<<<<
801.071	2891
801.214	2906
801.356	2842
801.499	2941
801.641	2823
801.783	2891
801.926	3051
802.068	2994
802.211	2998
802.353	3043
802.496	2967
802.638	2990
802.78	3017
802.923	3097
803.065	2982
803.208	2872
803.35	2883
803.492	2914
803.635	2922
803.777	2766
803.919	2861
804.061	3161
804.204	2952
804.346	2918
804.488	2838
804.63	2967
804.773	2918
804.915	2914
805.057	3077
805.199	2925
805.341	2979
805.483	3039
805.626	3005
805.768	2902
805.91	3066
806.052	3100
806.194	3017
806.336	3203
806.478	3017
806.62	2933
806.762	2967
806.904	3036
807.046	3131
807.188	2956
807.33	2891
807.472	2982
807.614	2902
807.756	2994
807.898	2910
808.04	2883
808.182	2982
808.324	2956
808.465	2849
808.607	2868
808.749	2781
808.891	2887
809.033	2971
809.174	2975
809.316	2895
809.458	2880
809.6	2766
809.741	2746
809.883	2785
810.025	2857
810.166	2872
810.308	2842
810.45	2880
810.591	2773
810.733	2777
810.875	2834
811.016	2785
811.158	2731
811.299	2777
811.441	2952
811.582	2883
811.724	2819
811.865	2834
812.007	2899
812.148	2868
812.29	2861
812.431	2857
812.573	2891
812.714	2960
812.855	3047
812.997	3058
813.138	3138
813.279	2990
813.421	2994
813.562	2922
813.703	2849
813.845	2868
813.986	2766
814.127	2769
814.268	2788
814.41	2849
814.551	2830
814.692	2899
814.833	2804
814.974	2910
815.115	2956
815.256	2819
815.397	2826
815.539	2861
815.68	2792
815.821	2819
815.962	2937
816.103	2944
816.244	2906
816.385	2895
816.526	2982
816.666	2929
816.807	2781
816.948	2876
817.089	2929
817.23	2842
817.371	2735
817.512	2800
817.653	2849
817.793	2807
817.934	2891
818.075	2933
818.216	2998
818.356	2994
818.497	2880
818.638	2781
818.778	2807
818.919	2788
819.06	2746
819.2	2922
819.341	2838
819.481	2781
819.622	2948
819.762	3077
819.903	3039
820.043	2910
820.184	2876
820.324	2906
820.465	3005
820.605	3024
820.746	3024
820.886	2956
821.026	3097
821.167	3138
821.307	3222
821.447	3275
821.588	3226
821.728	3218
821.868	3192
822.008	3093
822.149	3195
822.289	3256
822.429	3112
822.569	3093
822.709	3188
822.849	3001
822.99	3055
823.13	3154
823.27	3184
823.41	3104
823.55	3165
823.69	3135
823.83	3233
823.97	3093
824.11	3009
824.25	2982
824.389	3039
824.529	3127
824.669	3093
824.809	3176
824.949	3214
825.089	3214
825.228	3154
825.368	3020
825.508	2956
825.648	2944
825.787	2994
825.927	3036
826.067	2944
826.206	2952
826.346	3017
826.485	3085
826.625	3093
826.765	3222
826.904	3207
827.044	2967
827.183	2925
827.323	2845
827.462	2960
827.601	2956
827.741	2891
827.88	2922
828.02	2811
828.159	2914
828.298	3055
828.437	3093
828.577	3036
828.716	3161
828.855	3089
828.994	2910
829.134	2861
829.273	2944
829.412	2857
829.551	2849
829.69	2883
829.829	2979
829.968	3138
830.107	3013
830.246	3032
830.385	2899
830.524	2857
830.663	2785
830.802	2705
830.941	2625
831.08	2610
831.219	2746
831.357	2739
831.496	2963
831.635	2731
831.774	2659
831.913	2651
832.051	2533
832.19	2564
832.329	2670
832.467	2507
832.606	2484
832.744	2587
832.883	2545
833.022	2556
833.16	2617
833.299	2686
833.437	2686
833.576	2697
833.714	2686
833.852	2693
833.991	2750
834.129	2834
834.267	2845
834.406	2788
834.544	2838
834.682	2861
834.821	2868
834.959	3062
835.097	2902
835.235	3043
835.373	3017
835.511	2971
835.65	2948
835.788	2982
835.926	2796
836.064	2811
836.202	2842
836.34	3043
836.478	3146
836.615	3039
836.753	3131
836.891	3222
837.029	3131
837.167	3070
837.305	3043
837.443	3009
837.58	3001
837.718	3146
837.856	3077
837.993	2986
838.131	3093
838.269	3116
838.406	3058
838.544	3043
838.681	2922
838.819	2910
838.956	2811
839.094	2796
839.231	2906
839.369	3013
839.506	3363
839.643	3203
839.781	3020
839.918	2960
840.055	3043
840.193	3055
840.33	3093
840.467	3051
840.604	3123
840.742	3386
840.879	3043
841.016	3047
841.153	3093
841.29	3306
841.427	3302
841.564	3256
841.701	3310
841.838	3226
841.975	3161
842.112	3245
842.249	3093
842.385	3001
842.522	3237
842.659	3097
842.796	3062
842.933	3089
843.069	3066
843.206	3036
843.343	3131
843.479	3097
843.616	3127
843.752	2902
843.889	2876
844.025	3112
844.162	2826
844.298	3077
844.435	2941
844.571	2883
844.708	3051
844.844	3138
844.98	3207
845.117	3165
845.253	3020
845.389	3001
845.525	3097
845.661	3062
845.798	3017
845.934	3123
846.07	3036
846.206	3199
846.342	3294
846.478	3233
846.614	3066
846.75	3020
846.886	2986
847.022	3230
847.158	3112
847.294	3173
847.429	3272
847.565	3192
847.701	3443
847.837	3039
847.972	2967
848.108	3142
848.244	3146
848.379	2994
848.515	2933
848.65	2948
848.786	2963
848.921	3009
849.057	3077
849.192	3119
849.328	3074
849.463	3104
849.598	3024
849.734	3028
849.869	2960
850.004	2906
850.14	2994
850.275	2853
850.41	2826
850.545	2864
850.68	2883
850.815	2982
850.95	2922
851.085	3173
851.22	3081
851.355	3013
851.49	2937
851.625	2990
851.76	2952
851.895	2910
852.03	2937
852.165	2990
852.299	3074
852.434	3192
852.569	3138
852.703	3180
852.838	3218
852.973	3332
853.107	3275
853.242	3104
853.376	3036
853.511	2933
853.645	3009
853.78	3237
853.914	3081
854.048	3108
854.183	3047
854.317	3131
854.451	3279
854.585	3112
854.72	3055
854.854	3203
854.988	3058
855.122	3070
855.256	2982
855.39	3085
855.524	3249
855.658	3154
855.792	3116
855.926	3154
856.06	3192
856.194	3230
856.327	3131
856.461	3055
856.595	3081
856.729	3051
856.862	3211
856.996	3188
857.13	3154
857.263	3214
857.397	3222
857.53	3138
857.664	3169
857.797	3195
857.931	3233
858.064	3146
858.197	3199
858.331	3093
858.464	3051
858.597	2952
858.731	3104
858.864	3093
858.997	3062
859.13	3157
859.263	3150
859.396	3138
859.529	3077
859.662	3081
859.795	3039
859.928	3150
860.061	3272
860.194	3306
860.327	3119
860.46	3051
860.592	3199
860.725	3233
860.858	3233
860.99	3138
861.123	3032
861.256	3055
861.388	3150
861.521	3968
861.653	3017
861.786	2990
861.918	3020
862.05	3020
862.183	3085
862.315	3195
862.447	3226
862.58	3066
862.712	2986
862.844	2906
862.976	3024
863.108	2994
863.24	3329
863.372	2925
863.504	2982
863.636	2914
863.768	3039
863.9	2963
864.032	2929
864.164	2979
864.296	3058
864.428	3123
864.559	3112
864.691	3051
864.823	3047
864.954	3043
865.086	3074
865.217	3039
865.349	2960
865.48	3039
865.612	3081
865.743	3169
865.875	3039
866.006	3013
866.137	3013
866.269	2960
866.4	2986
866.531	2960
866.662	2922
866.793	2937
866.924	2929
867.055	3017
867.186	2967
867.317	2944
867.448	2864
867.579	2891
867.71	2880
867.841	2872
867.972	2914
868.103	2918
868.233	2971
868.364	2887
868.495	2963
868.625	3127
868.756	3214
868.886	3036
869.017	3066
869.147	3192
869.278	3188
869.408	3077
869.539	3066
869.669	3100
869.799	3077
869.929	3176
870.06	3150
870.19	3424
870.32	3310
870.45	3306
870.58	3424
870.71	3466
870.84	3488
870.97	3325
871.1	3260
871.23	3553
871.36	3492
871.489	3348
871.619	3428
871.749	3450
871.879	3462
872.008	3580
872.138	3351
872.267	3317
872.397	3195
872.526	3135
872.656	3055
872.785	3135
872.915	3249
873.044	3332
873.173	3218
873.303	3226
873.432	3264
873.561	3230
873.69	3173
873.819	3176
873.948	3211
874.077	3150
874.206	3097
874.335	3097
874.464	3253
874.593	3370
874.722	3253
874.851	3458
874.979	3397
875.108	3378
875.237	3207
875.365	3203
875.494	3184
875.623	3287
875.751	3108
875.88	3142
876.008	3226
876.136	3256
876.265	3367
876.393	3538
876.521	3447
876.65	3405
876.778	3363
876.906	3317
877.034	3230
877.162	3260
877.29	3211
877.418	3294
877.546	3291
877.674	3226
877.802	3287
877.93	3207
878.058	3169
878.185	3135
878.313	3203
878.441	3260
878.568	3085
878.696	3207
878.824	3291
878.951	3313
879.079	3481
879.206	3625
879.333	3428
879.461	3325
879.588	3409
879.715	3538
879.842	3610
879.97	3405
880.097	3180
880.224	3184
880.351	3233
880.478	3245
880.605	3260
880.732	3199
880.859	3488
880.986	3344
881.112	3367
881.239	3211
881.366	3093
881.493	3081
881.619	3058
881.746	3100
881.872	3116
881.999	3097
882.125	3176
882.252	3253
882.378	3317
882.505	3481
882.631	3329
882.757	3195
882.883	3226
883.01	3253
883.136	3192
883.262	3169
883.388	3108
883.514	3298
883.64	3393
883.766	3310
883.892	3233
884.018	3256
884.143	3458
884.269	3553
884.395	3233
884.52	3203
884.646	3214
884.772	3146
884.897	3127
885.023	3253
885.148	3348
885.274	3424
885.399	3393
885.524	3329
885.65	3264
885.775	3370
885.9	3279
886.025	3439
886.15	3386
886.275	3317
886.4	3256
886.525	3340
886.65	3298
886.775	3336
886.9	3519
887.025	3667
887.149	3450
887.274	3283
887.399	3203
887.523	3237
887.648	3230
887.773	3245
887.897	3435
888.021	3401
888.146	3336
888.27	3420
888.395	3557
888.519	3450
888.643	3504
888.767	3431
888.891	3351
889.015	3306
889.139	3340
889.263	3233
889.387	3428
889.511	3530
889.635	3469
889.759	3348
889.883	3325
890.006	3386
890.13	3507
890.254	3275
890.377	3370
890.501	3218
890.624	3207
890.748	3344
890.871	3275
890.995	3161
891.118	3085
891.241	3256
891.364	3249
891.488	3367
891.611	3199
891.734	3298
891.857	3298
891.98	3294
892.103	3359
892.226	3294
892.349	3245
892.471	3131
892.594	3279
892.717	3329
892.839	3336
892.962	3321
893.085	3382
893.207	3310
893.33	3199
893.452	3222
893.575	3370
893.697	3294
893.819	3504
893.941	3526
894.064	3477
894.186	3306
894.308	3306
894.43	3511
894.552	3584
894.674	3500
894.796	3291
894.918	3306
895.04	3306
895.161	3420
895.283	3409
895.405	3351
895.526	3393
895.648	3428
895.769	3420
895.891	3515
896.012	3466
896.134	3504
896.255	3447
896.376	3428
896.498	3420
896.619	3466
896.74	3370
896.861	3447
896.982	3682
897.103	3876
897.224	3675
897.345	3557
897.466	3454
897.587	3523
897.708	3641
897.828	3584
897.949	3488
898.07	3325
898.19	3439
898.311	3606
898.431	3431
898.552	3549
898.672	3622
898.792	3595
898.913	3523
899.033	3412
899.153	3317
899.273	3237
899.393	3325
899.513	3355
899.633	3336
899.753	3363
899.873	3348
899.993	3435
900.113	3359
900.232	3416
900.352	3382
900.472	3321
900.591	3214
900.711	3313
900.83	3256
900.95	3378
901.069	3504
901.189	3401
901.308	3230
901.427	3154
901.546	3218
901.665	3294
901.784	3367
901.904	3256
902.023	3138
902.141	3047
902.26	3017
902.379	3154
902.498	3142
902.617	3085
902.735	3218
902.854	3268
902.973	3214
903.091	3043
903.21	3051
903.328	3150
903.446	3176
903.565	3146
903.683	3249
903.801	3180
903.919	3283
904.038	3325
904.156	3214
904.274	3306
904.392	3237
904.51	3306
904.627	3344
904.745	3431
904.863	3526
904.981	3233
905.098	3188
905.216	3283
905.334	3313
905.451	3313
905.569	3298
905.686	3435
905.803	3462
905.921	3313
906.038	3443
906.155	3351
906.272	3268
906.389	3294
906.506	3211
906.623	3249
906.74	3306
906.857	3184
906.974	3306
907.091	3454
907.208	3572
907.324	3477
907.441	3393
907.557	3260
907.674	3264
907.79	3192
907.907	3298
908.023	3389
908.139	3401
908.256	3367
908.372	3370
908.488	3412
908.604	3287
908.72	3241
908.836	3348
908.952	3264
909.068	3378
909.184	3511
909.3	3458
909.415	3523
909.531	3496
909.647	3310
909.762	3317
909.878	3249
909.993	3393
910.108	3332
910.224	3329
910.339	3405
910.454	3355
910.57	3298
910.685	3306
910.8	3648
910.915	3549
911.03	3416
911.145	3294
911.259	3336
911.374	3332
911.489	3287
911.604	3226
911.718	3127
911.833	3180
911.947	3017
912.062	2967
912.176	3173
912.291	3184
912.405	3233
912.519	3378
912.633	3511
912.748	3355
912.862	3287
912.976	3195
913.09	3089
913.204	3169
913.318	3233
913.431	3283
913.545	3367
913.659	3405
913.772	3370
913.886	3233
914	3180
914.113	3409
914.226	3439
914.34	3412
914.453	3249
914.566	3450
914.68	3298
914.793	3329
914.906	3165
915.019	3127
915.132	3089
915.245	3184
915.358	3226
915.47	3241
915.583	3294
915.696	3317
915.809	3428
915.921	3431
916.034	3291
916.146	3298
916.259	3237
916.371	3382
916.483	3378
916.595	3272
916.708	3325
916.82	3325
916.932	3359
917.044	3340
917.156	3374
917.268	3279
917.38	3287
917.491	3294
917.603	3363
917.715	3454
917.826	3492
917.938	3393
918.049	3321
918.161	3431
918.272	3606
918.384	3652
918.495	3481
918.606	3340
918.717	3317
918.828	3393
918.939	3424
919.05	3325
919.161	3355
919.272	3199
919.383	3291
919.494	3519
919.604	3705
919.715	3515
919.826	3416
919.936	3511
920.047	3557
920.157	3576
920.267	3774
920.378	3622
920.488	3576
920.598	3789
920.708	3937
920.818	3835
920.928	3850
921.038	4101
921.148	4051
921.258	3732
921.368	3641
921.477	3584
921.587	3530
921.697	3500
921.806	3644
921.916	3500
922.025	3340
922.134	3348
922.244	3275
922.353	3405
922.462	3272
922.571	3222
922.68	3104
922.789	3138
922.898	3203
923.007	3112
923.116	3195
923.224	3180
923.333	3211
923.442	3119
923.55	3093
923.659	3176
923.767	3214
923.876	3150
923.984	3222
924.092	3104
924.201	3214
924.309	3214
924.417	3249
924.525	3192
924.633	3245
924.741	4192
924.849	3055
924.956	3302
925.064	3097
925.172	3024
925.279	3108
925.387	3199
925.494	3199
925.602	3405
925.709	3313
925.816	3207
925.924	3298
926.031	3397
926.138	3291
926.245	3374
926.352	3256
926.459	3401
926.566	3466
926.673	3313
926.779	3294
926.886	3237
926.993	3135
927.099	3142
927.206	3142
927.312	3138
927.419	3195
927.525	3249
927.631	3310
927.737	3119
927.843	3135
927.95	3020
928.056	3142
928.162	3207
928.267	3260
928.373	3747
928.479	3355
928.585	3085
928.69	3237
928.796	3310
928.901	3192
929.007	3055
929.112	3256
929.218	3207
929.323	3150
929.428	3165
929.533	3344
929.638	3161
929.743	3184
929.848	3302
929.953	3218
930.058	3150
930.163	2990
930.267	3066
930.372	3230
930.477	3074
930.581	3363
930.685	3184
930.79	3085
930.894	3157
930.998	3135
931.103	3298
931.207	3009
931.311	2952
931.415	2956
931.519	2842
931.623	2868
