Data from test_V78500241_1322.txt Node
Date: Fri Mar 25 16:24:21 CST 2022
User: usil
Spectrometer: V785-0024
Trigger mode: 0
Integration Time (sec): 4.000000E-1
Scans to average: 1
Nonlinearity correction enabled: false
Boxcar width: 0
Storing dark spectrum: false
XAxis mode: Wavelengths
Number of Pixels in Spectrum: 1024
>>>>>Begin Spectral Data<<<<<
801.071	2902
801.214	2986
801.356	2853
801.499	2849
801.641	2845
801.783	2883
801.926	3074
802.068	2944
802.211	2971
802.353	3047
802.496	2990
802.638	2982
802.78	3020
802.923	3074
803.065	2998
803.208	2902
803.35	2941
803.492	2925
803.635	2914
803.777	2724
803.919	2868
804.061	3199
804.204	2948
804.346	2910
804.488	2819
804.63	2979
804.773	2857
804.915	2925
805.057	3070
805.199	2925
805.341	2975
805.483	3032
805.626	2937
805.768	2956
805.91	3104
806.052	3077
806.194	3017
806.336	3218
806.478	3013
806.62	2975
806.762	2986
806.904	3020
807.046	3146
807.188	2979
807.33	2941
807.472	3005
807.614	2902
807.756	2979
807.898	2918
808.04	2857
808.182	2982
808.324	2914
808.465	2883
808.607	2842
808.749	2804
808.891	2811
809.033	2963
809.174	2982
809.316	2922
809.458	2895
809.6	2777
809.741	2754
809.883	2750
810.025	2792
810.166	2876
810.308	2830
810.45	2796
810.591	2769
810.733	2769
810.875	2823
811.016	2766
811.158	2712
811.299	2800
811.441	2929
811.582	2899
811.724	2819
811.865	2785
812.007	2876
812.148	2838
812.29	2838
812.431	2883
812.573	2944
812.714	2971
812.855	3028
812.997	3028
813.138	3123
813.279	2971
813.421	2986
813.562	2933
813.703	2857
813.845	2857
813.986	2750
814.127	2708
814.268	2815
814.41	2823
814.551	2819
814.692	2838
814.833	2781
814.974	2868
815.115	2933
815.256	2819
815.397	2815
815.539	2853
815.68	2750
815.821	2773
815.962	2872
816.103	2906
816.244	2845
816.385	2842
816.526	2933
816.666	2925
816.807	2735
816.948	2849
817.089	2876
817.23	2838
817.371	2800
817.512	2800
817.653	2819
817.793	2792
817.934	2899
818.075	2925
818.216	3001
818.356	3005
818.497	2842
818.638	2739
818.778	2845
818.919	2781
819.06	2750
819.2	2853
819.341	2788
819.481	2750
819.622	2952
819.762	3089
819.903	2994
820.043	2906
820.184	2880
820.324	2819
820.465	3036
820.605	2986
820.746	3005
820.886	2914
821.026	3051
821.167	3131
821.307	3249
821.447	3260
821.588	3226
821.728	3222
821.868	3161
822.008	3058
822.149	3146
822.289	3218
822.429	3020
822.569	3077
822.709	3173
822.849	3024
822.99	3062
823.13	3131
823.27	3173
823.41	3100
823.55	3127
823.69	3173
823.83	3173
823.97	3097
824.11	2967
824.25	2982
824.389	3043
824.529	3112
824.669	3077
824.809	3180
824.949	3245
825.089	3237
825.228	3150
825.368	2986
825.508	2956
825.648	2971
825.787	3051
825.927	3051
826.067	2975
826.206	2975
826.346	3062
826.485	3100
826.625	3116
826.765	3298
826.904	3211
827.044	2982
827.183	2922
827.323	2883
827.462	2986
827.601	2906
827.741	2937
827.88	2982
828.02	2857
828.159	2971
828.298	3066
828.437	3119
828.577	3070
828.716	3245
828.855	3074
828.994	2941
829.134	2941
829.273	2937
829.412	2902
829.551	2887
829.69	2925
829.829	2994
829.968	3127
830.107	3028
830.246	3043
830.385	2963
830.524	2899
830.663	2834
830.802	2773
830.941	2689
831.08	2693
831.219	2754
831.357	2750
831.496	2960
831.635	2758
831.774	2667
831.913	2674
832.051	2602
832.19	2629
832.329	2731
832.467	2568
832.606	2518
832.744	2583
832.883	2644
833.022	2621
833.16	2674
833.299	2735
833.437	2739
833.576	2746
833.714	2762
833.852	2762
833.991	2800
834.129	2880
834.267	2857
834.406	2815
834.544	2910
834.682	2868
834.821	2929
834.959	3112
835.097	2944
835.235	3062
835.373	3036
835.511	3024
835.65	2990
835.788	2990
835.926	2864
836.064	2838
836.202	2868
836.34	3100
836.478	3173
836.615	3097
836.753	3150
836.891	3233
837.029	3211
837.167	3146
837.305	3066
837.443	3032
837.58	3017
837.718	3169
837.856	3093
837.993	3058
838.131	3138
838.269	3138
838.406	3146
838.544	3123
838.681	2982
838.819	2941
838.956	2849
839.094	2842
839.231	2956
839.369	3039
839.506	3389
839.643	3241
839.781	3047
839.918	3009
840.055	3074
840.193	3089
840.33	3104
840.467	3108
840.604	3184
840.742	3412
840.879	3093
841.016	3097
841.153	3131
841.29	3351
841.427	3302
841.564	3241
841.701	3355
841.838	3253
841.975	3233
842.112	3237
842.249	3108
842.385	3058
842.522	3287
842.659	3123
842.796	3058
842.933	3108
843.069	3077
843.206	3055
843.343	3226
843.479	3119
843.616	3142
843.752	2937
843.889	2922
844.025	3077
844.162	2922
844.298	3089
844.435	2994
844.571	2918
844.708	3108
844.844	3253
844.98	3249
845.117	3233
845.253	3047
845.389	3013
845.525	3108
845.661	3119
845.798	3013
845.934	3119
846.07	3047
846.206	3268
846.342	3306
846.478	3279
846.614	3097
846.75	3070
846.886	3089
847.022	3214
847.158	3154
847.294	3237
847.429	3283
847.565	3222
847.701	3507
847.837	3081
847.972	2994
848.108	3169
848.244	3146
848.379	3032
848.515	2990
848.65	2956
848.786	2982
848.921	3047
849.057	3100
849.192	3142
849.328	3085
849.463	3165
849.598	3097
849.734	3055
849.869	3024
850.004	2956
850.14	2979
850.275	2944
850.41	2906
850.545	2933
850.68	2971
850.815	2952
850.95	3024
851.085	3184
851.22	3150
851.355	3100
851.49	3020
851.625	3024
851.76	3028
851.895	2982
852.03	2922
852.165	3077
852.299	3150
852.434	3207
852.569	3146
852.703	3207
852.838	3253
852.973	3382
853.107	3355
853.242	3188
853.376	3142
853.511	2998
853.645	3066
853.78	3256
853.914	3135
854.048	3142
854.183	3100
854.317	3173
854.451	3359
854.585	3161
854.72	3108
854.854	3249
854.988	3047
855.122	3081
855.256	2986
855.39	3135
855.524	3272
855.658	3211
855.792	3184
855.926	3241
856.06	3241
856.194	3287
856.327	3180
856.461	3093
856.595	3138
856.729	3116
856.862	3249
856.996	3184
857.13	3226
857.263	3264
857.397	3325
857.53	3165
857.664	3222
857.797	3253
857.931	3287
858.064	3184
858.197	3245
858.331	3138
858.464	3127
858.597	3009
858.731	3142
858.864	3169
858.997	3108
859.13	3180
859.263	3199
859.396	3218
859.529	3097
859.662	3138
859.795	3047
859.928	3146
860.061	3287
860.194	3253
860.327	3146
860.46	3123
860.592	3272
860.725	3245
860.858	3306
860.99	3135
861.123	3085
861.256	3077
861.388	3169
861.521	3709
861.653	3036
861.786	3009
861.918	3028
862.05	3100
862.183	3108
862.315	3176
862.447	3237
862.58	3161
862.712	2998
862.844	2891
862.976	3036
863.108	3036
863.24	3340
863.372	2845
863.504	2990
863.636	2960
863.768	3043
863.9	2986
864.032	2933
864.164	2960
864.296	3039
864.428	3116
864.559	3119
864.691	3081
864.823	3100
864.954	3020
865.086	3066
865.217	2994
865.349	2960
865.48	2990
865.612	3051
865.743	3195
865.875	3005
866.006	2960
866.137	2963
866.269	2960
866.4	2952
866.531	2933
866.662	2895
866.793	2899
866.924	2918
867.055	3005
867.186	2929
867.317	2918
867.448	2845
867.579	2883
867.71	2861
867.841	2845
867.972	2925
868.103	2899
868.233	2925
868.364	2891
868.495	2952
868.625	3066
868.756	3176
868.886	2944
869.017	3074
869.147	3165
869.278	3146
869.408	3024
869.539	3055
869.669	3119
869.799	3077
869.929	3192
870.06	3127
870.19	3370
870.32	3306
870.45	3321
870.58	3424
870.71	3450
870.84	3466
870.97	3321
871.1	3230
871.23	3511
871.36	3492
871.489	3367
871.619	3424
871.749	3405
871.879	3462
872.008	3504
872.138	3351
872.267	3283
872.397	3188
872.526	3104
872.656	3005
872.785	3093
872.915	3253
873.044	3294
873.173	3275
873.303	3294
873.432	3249
873.561	3291
873.69	3188
873.819	3146
873.948	3184
874.077	3127
874.206	3051
874.335	3142
874.464	3211
874.593	3351
874.722	3294
874.851	3405
874.979	3386
875.108	3340
875.237	3214
875.365	3169
875.494	3195
875.623	3272
875.751	3116
875.88	3138
876.008	3188
876.136	3264
876.265	3374
876.393	3507
876.521	3458
876.65	3409
876.778	3317
876.906	3256
877.034	3230
877.162	3218
877.29	3214
877.418	3253
877.546	3256
877.674	3268
877.802	3249
877.93	3230
878.058	3192
878.185	3127
878.313	3233
878.441	3256
878.568	3089
878.696	3176
878.824	3241
878.951	3344
879.079	3473
879.206	3591
879.333	3473
879.461	3359
879.588	3389
879.715	3496
879.842	3603
879.97	3363
880.097	3222
880.224	3180
880.351	3214
880.478	3294
880.605	3226
880.732	3230
880.859	3500
880.986	3313
881.112	3401
881.239	3188
881.366	3135
881.493	3047
881.619	3017
881.746	3062
881.872	3100
881.999	3097
882.125	3154
882.252	3237
882.378	3310
882.505	3431
882.631	3302
882.757	3169
882.883	3218
883.01	3233
883.136	3157
883.262	3135
883.388	3138
883.514	3325
883.64	3424
883.766	3321
883.892	3173
884.018	3218
884.143	3447
884.269	3515
884.395	3211
884.52	3157
884.646	3161
884.772	3138
884.897	3123
885.023	3237
885.148	3344
885.274	3435
885.399	3405
885.524	3291
885.65	3291
885.775	3313
885.9	3283
886.025	3439
886.15	3382
886.275	3287
886.4	3275
886.525	3340
886.65	3291
886.775	3298
886.9	3534
887.025	3637
887.149	3401
887.274	3253
887.399	3241
887.523	3203
887.648	3154
887.773	3207
887.897	3344
888.021	3412
888.146	3298
888.27	3439
888.395	3549
888.519	3420
888.643	3447
888.767	3469
888.891	3275
889.015	3283
889.139	3302
889.263	3260
889.387	3454
889.511	3526
889.635	3420
889.759	3325
889.883	3313
890.006	3409
890.13	3526
890.254	3275
890.377	3340
890.501	3203
890.624	3161
890.748	3321
890.871	3195
890.995	3123
891.118	3085
891.241	3211
891.364	3230
891.488	3294
891.611	3192
891.734	3245
891.857	3287
891.98	3260
892.103	3351
892.226	3279
892.349	3207
892.471	3154
892.594	3230
892.717	3325
892.839	3279
892.962	3294
893.085	3325
893.207	3306
893.33	3142
893.452	3241
893.575	3374
893.697	3260
893.819	3477
893.941	3504
894.064	3519
894.186	3287
894.308	3283
894.43	3439
894.552	3515
894.674	3466
894.796	3279
894.918	3302
895.04	3313
895.161	3428
895.283	3397
895.405	3340
895.526	3370
895.648	3412
895.769	3431
895.891	3462
896.012	3473
896.134	3500
896.255	3412
896.376	3401
896.498	3382
896.619	3473
896.74	3359
896.861	3405
896.982	3694
897.103	3838
897.224	3568
897.345	3519
897.466	3469
897.587	3488
897.708	3652
897.828	3568
897.949	3416
898.07	3348
898.19	3431
898.311	3587
898.431	3447
898.552	3496
898.672	3561
898.792	3568
898.913	3530
899.033	3409
899.153	3298
899.273	3211
899.393	3302
899.513	3283
899.633	3279
899.753	3329
899.873	3317
899.993	3348
900.113	3336
900.232	3401
900.352	3340
900.472	3306
900.591	3218
900.711	3302
900.83	3245
900.95	3397
901.069	3462
901.189	3367
901.308	3169
901.427	3127
901.546	3226
901.665	3348
901.784	3310
901.904	3214
902.023	3146
902.141	3062
902.26	3028
902.379	3161
902.498	3119
902.617	3097
902.735	3214
902.854	3253
902.973	3214
903.091	3043
903.21	3070
903.328	3176
903.446	3176
903.565	3123
903.683	3230
903.801	3119
903.919	3264
904.038	3321
904.156	3173
904.274	3313
904.392	3313
904.51	3317
904.627	3370
904.745	3458
904.863	3504
904.981	3272
905.098	3245
905.216	3268
905.334	3348
905.451	3329
905.569	3355
905.686	3496
905.803	3488
905.921	3370
906.038	3473
906.155	3401
906.272	3306
906.389	3348
906.506	3253
906.623	3283
906.74	3317
906.857	3222
906.974	3291
907.091	3504
907.208	3629
907.324	3507
907.441	3420
907.557	3260
907.674	3283
907.79	3264
907.907	3348
908.023	3435
908.139	3416
908.256	3363
908.372	3443
908.488	3416
908.604	3275
908.72	3253
908.836	3344
908.952	3363
909.068	3348
909.184	3526
909.3	3424
909.415	3553
909.531	3504
909.647	3310
909.762	3329
909.878	3306
909.993	3409
910.108	3382
910.224	3397
910.339	3488
910.454	3378
910.57	3351
910.685	3275
910.8	3644
910.915	3599
911.03	3481
911.145	3287
911.259	3310
911.374	3294
911.489	3249
911.604	3253
911.718	3222
911.833	3203
911.947	3058
912.062	3043
912.176	3165
912.291	3249
912.405	3256
912.519	3424
912.633	3496
912.748	3321
912.862	3283
912.976	3207
913.09	3085
913.204	3169
913.318	3237
913.431	3363
913.545	3424
913.659	3443
913.772	3386
913.886	3245
914	3245
914.113	3397
914.226	3447
914.34	3416
914.453	3218
914.566	3412
914.68	3275
914.793	3348
914.906	3180
915.019	3142
915.132	3104
915.245	3207
915.358	3245
915.47	3253
915.583	3283
915.696	3321
915.809	3466
915.921	3443
916.034	3291
916.146	3310
916.259	3230
916.371	3401
916.483	3428
916.595	3287
916.708	3374
916.82	3340
916.932	3382
917.044	3363
917.156	3359
917.268	3283
917.38	3344
917.491	3317
917.603	3428
917.715	3485
917.826	3492
917.938	3409
918.049	3298
918.161	3466
918.272	3656
918.384	3629
918.495	3580
918.606	3405
918.717	3291
918.828	3397
918.939	3454
919.05	3340
919.161	3424
919.272	3195
919.383	3351
919.494	3526
919.604	3671
919.715	3568
919.826	3401
919.936	3492
920.047	3622
920.157	3580
920.267	3812
920.378	3622
920.488	3599
920.598	3812
920.708	3994
920.818	3873
920.928	3873
921.038	4071
921.148	4025
921.258	3736
921.368	3656
921.477	3614
921.587	3580
921.697	3511
921.806	3679
921.916	3568
922.025	3370
922.134	3435
922.244	3340
922.353	3473
922.462	3313
922.571	3264
922.68	3142
922.789	3093
922.898	3123
923.007	3146
923.116	3230
923.224	3192
923.333	3253
923.442	3157
923.55	3150
923.659	3195
923.767	3214
923.876	3150
923.984	3241
924.092	3135
924.201	3226
924.309	3237
924.417	3283
924.525	3245
924.633	3237
924.741	4040
924.849	3100
924.956	3321
925.064	3123
925.172	3066
925.279	3142
925.387	3260
925.494	3207
925.602	3363
925.709	3344
925.816	3195
925.924	3344
926.031	3431
926.138	3348
926.245	3424
926.352	3294
926.459	3447
926.566	3466
926.673	3306
926.779	3279
926.886	3287
926.993	3123
927.099	3138
927.206	3127
927.312	3093
927.419	3272
927.525	3203
927.631	3313
927.737	3154
927.843	3150
927.95	3055
928.056	3119
928.162	3226
928.267	3275
928.373	3884
928.479	3336
928.585	3081
928.69	3233
928.796	3275
928.901	3180
929.007	3089
929.112	3233
929.218	3176
929.323	3218
929.428	3161
929.533	3336
929.638	3169
929.743	3188
929.848	3256
929.953	3218
930.058	3199
930.163	3047
930.267	3074
930.372	3203
930.477	3058
930.581	3298
930.685	3211
930.79	3081
930.894	3123
930.998	3142
931.103	3302
931.207	2979
931.311	2982
931.415	2952
931.519	2811
931.623	2819
