Data from test_V78500241_1942.txt Node
Date: Fri Mar 25 16:28:39 CST 2022
User: usil
Spectrometer: V785-0024
Trigger mode: 0
Integration Time (sec): 4.000000E-1
Scans to average: 1
Nonlinearity correction enabled: false
Boxcar width: 0
Storing dark spectrum: false
XAxis mode: Wavelengths
Number of Pixels in Spectrum: 1024
>>>>>Begin Spectral Data<<<<<
801.071	2883
801.214	2933
801.356	2868
801.499	2902
801.641	2811
801.783	2883
801.926	3055
802.068	2960
802.211	2990
802.353	3017
802.496	2971
802.638	3028
802.78	3043
802.923	3058
803.065	2971
803.208	2864
803.35	2891
803.492	2899
803.635	2944
803.777	2743
803.919	2823
804.061	3195
804.204	2967
804.346	2887
804.488	2819
804.63	2975
804.773	2853
804.915	2887
805.057	3081
805.199	2895
805.341	2963
805.483	3043
805.626	2998
805.768	2937
805.91	3058
806.052	3131
806.194	3009
806.336	3230
806.478	3001
806.62	2929
806.762	2975
806.904	3070
807.046	3161
807.188	2979
807.33	2925
807.472	2982
807.614	2899
807.756	2948
807.898	2918
808.04	2895
808.182	3001
808.324	2975
808.465	2857
808.607	2880
808.749	2796
808.891	2819
809.033	2971
809.174	2971
809.316	2941
809.458	2895
809.6	2788
809.741	2766
809.883	2796
810.025	2853
810.166	2823
810.308	2834
810.45	2883
810.591	2731
810.733	2758
810.875	2807
811.016	2792
811.158	2746
811.299	2811
811.441	2937
811.582	2895
811.724	2788
811.865	2853
812.007	2933
812.148	2864
812.29	2834
812.431	2891
812.573	2941
812.714	2960
812.855	3051
812.997	3039
813.138	3119
813.279	2986
813.421	3005
813.562	2944
813.703	2838
813.845	2891
813.986	2788
814.127	2724
814.268	2804
814.41	2830
814.551	2785
814.692	2868
814.833	2804
814.974	2887
815.115	2925
815.256	2804
815.397	2804
815.539	2845
815.68	2777
815.821	2792
815.962	2941
816.103	2975
816.244	2876
816.385	2849
816.526	2948
816.666	2899
816.807	2743
816.948	2914
817.089	2864
817.23	2838
817.371	2773
817.512	2830
817.653	2834
817.793	2807
817.934	2868
818.075	2975
818.216	3009
818.356	3043
818.497	2895
818.638	2815
818.778	2849
818.919	2807
819.06	2769
819.2	2899
819.341	2823
819.481	2766
819.622	2922
819.762	3085
819.903	3024
820.043	2899
820.184	2906
820.324	2868
820.465	3055
820.605	3017
820.746	3036
820.886	2948
821.026	3100
821.167	3119
821.307	3294
821.447	3279
821.588	3237
821.728	3218
821.868	3192
822.008	3066
822.149	3184
822.289	3211
822.429	3104
822.569	3119
822.709	3157
822.849	3055
822.99	3085
823.13	3211
823.27	3192
823.41	3142
823.55	3157
823.69	3157
823.83	3192
823.97	3116
824.11	3013
824.25	3024
824.389	3070
824.529	3123
824.669	3074
824.809	3203
824.949	3226
825.089	3199
825.228	3119
825.368	2982
825.508	2982
825.648	2963
825.787	3017
825.927	2994
826.067	2971
826.206	2971
826.346	3024
826.485	3017
826.625	3077
826.765	3260
826.904	3207
827.044	2990
827.183	2933
827.323	2857
827.462	3001
827.601	2929
827.741	2918
827.88	2937
828.02	2895
828.159	2933
828.298	3036
828.437	3127
828.577	3043
828.716	3203
828.855	3074
828.994	2918
829.134	2910
829.273	2895
829.412	2842
829.551	2883
829.69	2830
829.829	2986
829.968	3116
830.107	3017
830.246	3005
830.385	2929
830.524	2857
830.663	2811
830.802	2720
830.941	2686
831.08	2629
831.219	2754
831.357	2769
831.496	2975
831.635	2716
831.774	2625
831.913	2648
832.051	2564
832.19	2556
832.329	2659
832.467	2549
832.606	2488
832.744	2533
832.883	2602
833.022	2583
833.16	2674
833.299	2682
833.437	2701
833.576	2697
833.714	2731
833.852	2720
833.991	2735
834.129	2804
834.267	2838
834.406	2769
834.544	2864
834.682	2845
834.821	2861
834.959	3058
835.097	2906
835.235	3036
835.373	3001
835.511	2998
835.65	2933
835.788	2963
835.926	2834
836.064	2796
836.202	2838
836.34	3123
836.478	3169
836.615	3001
836.753	3127
836.891	3154
837.029	3173
837.167	3081
837.305	3020
837.443	3051
837.58	2914
837.718	3135
837.856	3058
837.993	3043
838.131	3127
838.269	3119
838.406	3089
838.544	3081
838.681	2967
838.819	2876
838.956	2804
839.094	2826
839.231	2925
839.369	2990
839.506	3363
839.643	3211
839.781	2998
839.918	2944
840.055	3036
840.193	3051
840.33	3058
840.467	3108
840.604	3116
840.742	3374
840.879	3005
841.016	3058
841.153	3108
841.29	3321
841.427	3275
841.564	3260
841.701	3344
841.838	3233
841.975	3161
842.112	3218
842.249	3085
842.385	3017
842.522	3237
842.659	3051
842.796	3020
842.933	3150
843.069	3055
843.206	3024
843.343	3173
843.479	3100
843.616	3146
843.752	2902
843.889	2880
844.025	3043
844.162	2861
844.298	3097
844.435	2971
844.571	2929
844.708	3085
844.844	3211
844.98	3241
845.117	3173
845.253	3062
845.389	2994
845.525	3093
845.661	3104
845.798	3036
845.934	3100
846.07	3062
846.206	3188
846.342	3302
846.478	3245
846.614	3112
846.75	3077
846.886	3005
847.022	3226
847.158	3104
847.294	3176
847.429	3218
847.565	3211
847.701	3469
847.837	2994
847.972	3001
848.108	3131
848.244	3119
848.379	3020
848.515	2906
848.65	2937
848.786	2975
848.921	3024
849.057	3051
849.192	3127
849.328	3089
849.463	3104
849.598	3058
849.734	3036
849.869	2986
850.004	2922
850.14	2963
850.275	2891
850.41	2849
850.545	2880
850.68	2918
850.815	2944
850.95	2975
851.085	3138
851.22	3116
851.355	3058
851.49	2979
851.625	2994
851.76	2998
851.895	2918
852.03	2918
852.165	3009
852.299	3081
852.434	3173
852.569	3176
852.703	3176
852.838	3249
852.973	3336
853.107	3321
853.242	3173
853.376	3116
853.511	2979
853.645	3032
853.78	3264
853.914	3127
854.048	3108
854.183	3062
854.317	3157
854.451	3279
854.585	3077
854.72	3039
854.854	3241
854.988	3047
855.122	3112
855.256	2979
855.39	3131
855.524	3237
855.658	3161
855.792	3150
855.926	3169
856.06	3188
856.194	3268
856.327	3165
856.461	3047
856.595	3112
856.729	3070
856.862	3192
856.996	3165
857.13	3207
857.263	3218
857.397	3218
857.53	3104
857.664	3157
857.797	3199
857.931	3253
858.064	3108
858.197	3211
858.331	3108
858.464	3047
858.597	3005
858.731	3100
858.864	3127
858.997	3066
859.13	3157
859.263	3154
859.396	3192
859.529	3108
859.662	3051
859.795	3032
859.928	3116
860.061	3211
860.194	3264
860.327	3138
860.46	3066
860.592	3195
860.725	3233
860.858	3230
860.99	3108
861.123	3043
861.256	3055
861.388	3138
861.521	3850
861.653	2986
861.786	2990
861.918	3017
862.05	3058
862.183	3127
862.315	3165
862.447	3192
862.58	3119
862.712	2925
862.844	2853
862.976	3020
863.108	3036
863.24	3317
863.372	2868
863.504	2960
863.636	2941
863.768	3013
863.9	2971
864.032	2906
864.164	2933
864.296	2994
864.428	3097
864.559	3097
864.691	3066
864.823	3062
864.954	3024
865.086	3043
865.217	2979
865.349	2963
865.48	2990
865.612	3024
865.743	3165
865.875	2971
866.006	2967
866.137	2944
866.269	2948
866.4	2952
866.531	2899
866.662	2899
866.793	2902
866.924	2899
867.055	2929
867.186	2887
867.317	2868
867.448	2804
867.579	2811
867.71	2864
867.841	2842
867.972	2902
868.103	2902
868.233	2872
868.364	2895
868.495	2910
868.625	3085
868.756	3161
868.886	2982
869.017	2994
869.147	3192
869.278	3157
869.408	3081
869.539	3032
869.669	3100
869.799	3032
869.929	3097
870.06	3104
870.19	3313
870.32	3268
870.45	3264
870.58	3340
870.71	3466
870.84	3424
870.97	3291
871.1	3226
871.23	3447
871.36	3443
871.489	3355
871.619	3393
871.749	3420
871.879	3401
872.008	3496
872.138	3409
872.267	3260
872.397	3131
872.526	3108
872.656	3009
872.785	3112
872.915	3256
873.044	3302
873.173	3211
873.303	3222
873.432	3214
873.561	3241
873.69	3165
873.819	3157
873.948	3218
874.077	3051
874.206	3024
874.335	3081
874.464	3192
874.593	3359
874.722	3226
874.851	3378
874.979	3336
875.108	3344
875.237	3192
875.365	3146
875.494	3165
875.623	3230
875.751	3070
875.88	3127
876.008	3180
876.136	3218
876.265	3374
876.393	3519
876.521	3397
876.65	3374
876.778	3279
876.906	3245
877.034	3218
877.162	3214
877.29	3142
877.418	3272
877.546	3272
877.674	3241
877.802	3211
877.93	3237
878.058	3119
878.185	3081
878.313	3192
878.441	3184
878.568	3058
878.696	3119
878.824	3268
878.951	3291
879.079	3454
879.206	3610
879.333	3458
879.461	3313
879.588	3374
879.715	3454
879.842	3618
879.97	3401
880.097	3165
880.224	3070
880.351	3184
880.478	3214
880.605	3218
880.732	3188
880.859	3492
880.986	3321
881.112	3313
881.239	3199
881.366	3062
881.493	3013
881.619	3020
881.746	3112
881.872	3085
881.999	3100
882.125	3154
882.252	3275
882.378	3256
882.505	3428
882.631	3279
882.757	3154
882.883	3218
883.01	3214
883.136	3150
883.262	3100
883.388	3119
883.514	3272
883.64	3317
883.766	3317
883.892	3195
884.018	3237
884.143	3424
884.269	3542
884.395	3195
884.52	3154
884.646	3188
884.772	3157
884.897	3093
885.023	3188
885.148	3348
885.274	3431
885.399	3359
885.524	3279
885.65	3241
885.775	3310
885.9	3310
886.025	3348
886.15	3363
886.275	3283
886.4	3218
886.525	3348
886.65	3241
886.775	3268
886.9	3477
887.025	3644
887.149	3443
887.274	3230
887.399	3180
887.523	3233
887.648	3165
887.773	3188
887.897	3359
888.021	3393
888.146	3298
888.27	3424
888.395	3545
888.519	3397
888.643	3386
888.767	3439
888.891	3367
889.015	3256
889.139	3275
889.263	3256
889.387	3428
889.511	3526
889.635	3447
889.759	3275
889.883	3313
890.006	3367
890.13	3496
890.254	3245
890.377	3313
890.501	3218
890.624	3188
890.748	3310
890.871	3161
890.995	3135
891.118	3081
891.241	3207
891.364	3199
891.488	3310
891.611	3192
891.734	3222
891.857	3317
891.98	3218
892.103	3302
892.226	3264
892.349	3211
892.471	3112
892.594	3233
892.717	3313
892.839	3230
892.962	3275
893.085	3382
893.207	3306
893.33	3131
893.452	3173
893.575	3317
893.697	3241
893.819	3454
893.941	3523
894.064	3458
894.186	3253
894.308	3298
894.43	3397
894.552	3553
894.674	3466
894.796	3272
894.918	3291
895.04	3298
895.161	3420
895.283	3424
895.405	3325
895.526	3340
895.648	3416
895.769	3374
895.891	3428
896.012	3466
896.134	3477
896.255	3389
896.376	3355
896.498	3363
896.619	3409
896.74	3386
896.861	3424
896.982	3652
897.103	3846
897.224	3591
897.345	3507
897.466	3409
897.587	3462
897.708	3587
897.828	3538
897.949	3416
898.07	3329
898.19	3393
898.311	3614
898.431	3416
898.552	3488
898.672	3610
898.792	3603
898.913	3523
899.033	3367
899.153	3306
899.273	3218
899.393	3245
899.513	3351
899.633	3329
899.753	3348
899.873	3294
899.993	3363
900.113	3355
900.232	3389
900.352	3344
900.472	3275
900.591	3249
900.711	3306
900.83	3226
900.95	3416
901.069	3507
901.189	3370
901.308	3169
901.427	3142
901.546	3192
901.665	3287
901.784	3321
901.904	3203
902.023	3119
902.141	3024
902.26	3005
902.379	3131
902.498	3100
902.617	3039
902.735	3211
902.854	3241
902.973	3214
903.091	3058
903.21	3058
903.328	3138
903.446	3119
903.565	3051
903.683	3203
903.801	3146
903.919	3237
904.038	3287
904.156	3173
904.274	3310
904.392	3230
904.51	3275
904.627	3351
904.745	3435
904.863	3500
904.981	3279
905.098	3165
905.216	3195
905.334	3264
905.451	3317
905.569	3268
905.686	3405
905.803	3458
905.921	3310
906.038	3428
906.155	3351
906.272	3249
906.389	3355
906.506	3241
906.623	3233
906.74	3241
906.857	3154
906.974	3256
907.091	3435
907.208	3538
907.324	3481
907.441	3374
907.557	3237
907.674	3199
907.79	3203
907.907	3268
908.023	3374
908.139	3378
908.256	3325
908.372	3382
908.488	3367
908.604	3245
908.72	3264
908.836	3283
908.952	3306
909.068	3310
909.184	3450
909.3	3393
909.415	3507
909.531	3454
909.647	3283
909.762	3275
909.878	3233
909.993	3355
910.108	3382
910.224	3348
910.339	3351
910.454	3325
910.57	3283
910.685	3214
910.8	3587
910.915	3538
911.03	3405
911.145	3275
911.259	3237
911.374	3313
911.489	3237
911.604	3169
911.718	3112
911.833	3180
911.947	3020
912.062	3009
912.176	3165
912.291	3195
912.405	3169
912.519	3428
912.633	3500
912.748	3317
912.862	3275
912.976	3150
913.09	3066
913.204	3169
913.318	3192
913.431	3298
913.545	3317
913.659	3397
913.772	3329
913.886	3222
914	3241
914.113	3340
914.226	3435
914.34	3412
914.453	3199
914.566	3386
914.68	3275
914.793	3321
914.906	3119
915.019	3104
915.132	3062
915.245	3150
915.358	3173
915.47	3237
915.583	3268
915.696	3325
915.809	3431
915.921	3435
916.034	3203
916.146	3237
916.259	3218
916.371	3382
916.483	3363
916.595	3275
916.708	3336
916.82	3306
916.932	3374
917.044	3355
917.156	3355
917.268	3253
917.38	3321
917.491	3340
917.603	3355
917.715	3450
917.826	3439
917.938	3367
918.049	3298
918.161	3412
918.272	3584
918.384	3572
918.495	3481
918.606	3344
918.717	3306
918.828	3363
918.939	3416
919.05	3279
919.161	3393
919.272	3195
919.383	3306
919.494	3481
919.604	3656
919.715	3496
919.826	3389
919.936	3420
920.047	3572
920.157	3542
920.267	3766
920.378	3599
920.488	3564
920.598	3751
920.708	3926
920.818	3800
920.928	3808
921.038	4040
921.148	3994
921.258	3713
921.368	3633
921.477	3572
921.587	3564
921.697	3462
921.806	3629
921.916	3526
922.025	3367
922.134	3363
922.244	3317
922.353	3420
922.462	3268
922.571	3249
922.68	3077
922.789	3081
922.898	3138
923.007	3108
923.116	3165
923.224	3157
923.333	3226
923.442	3116
923.55	3077
923.659	3180
923.767	3180
923.876	3085
923.984	3245
924.092	3146
924.201	3203
924.309	3237
924.417	3268
924.525	3176
924.633	3249
924.741	4169
924.849	3074
924.956	3272
925.064	3089
925.172	3039
925.279	3131
925.387	3218
925.494	3188
925.602	3348
925.709	3306
925.816	3199
925.924	3287
926.031	3416
926.138	3317
926.245	3370
926.352	3264
926.459	3412
926.566	3485
926.673	3321
926.779	3214
926.886	3256
926.993	3161
927.099	3116
927.206	3146
927.312	3093
927.419	3218
927.525	3180
927.631	3253
927.737	3100
927.843	3123
927.95	3047
928.056	3127
928.162	3150
928.267	3237
928.373	3804
928.479	3298
928.585	3047
928.69	3222
928.796	3260
928.901	3184
929.007	3017
929.112	3249
929.218	3154
929.323	3119
929.428	3116
929.533	3302
929.638	3097
929.743	3173
929.848	3275
929.953	3218
930.058	3100
930.163	3001
930.267	3036
930.372	3176
930.477	3028
930.581	3355
930.685	3169
930.79	3062
930.894	3097
930.998	3116
931.103	3275
931.207	2975
931.311	2956
931.415	2891
931.519	2769
931.623	2834
