Data from test_V78500241_1837.txt Node
Date: Fri Mar 25 16:27:55 CST 2022
User: usil
Spectrometer: V785-0024
Trigger mode: 0
Integration Time (sec): 4.000000E-1
Scans to average: 1
Nonlinearity correction enabled: false
Boxcar width: 0
Storing dark spectrum: false
XAxis mode: Wavelengths
Number of Pixels in Spectrum: 1024
>>>>>Begin Spectral Data<<<<<
801.071	2944
801.214	2963
801.356	2891
801.499	2902
801.641	2876
801.783	2948
801.926	3062
802.068	3020
802.211	3024
802.353	3070
802.496	2967
802.638	2998
802.78	3039
802.923	3093
803.065	2998
803.208	2906
803.35	2941
803.492	2906
803.635	2933
803.777	2739
803.919	2883
804.061	3211
804.204	2948
804.346	2899
804.488	2838
804.63	2994
804.773	2914
804.915	2918
805.057	3135
805.199	2906
805.341	2967
805.483	3009
805.626	3009
805.768	2982
805.91	3062
806.052	3131
806.194	3043
806.336	3256
806.478	2994
806.62	2963
806.762	2990
806.904	3024
807.046	3161
807.188	2979
807.33	2937
807.472	2994
807.614	2902
807.756	2929
807.898	2891
808.04	2883
808.182	2982
808.324	2960
808.465	2891
808.607	2857
808.749	2796
808.891	2853
809.033	3001
809.174	2952
809.316	2902
809.458	2876
809.6	2792
809.741	2769
809.883	2762
810.025	2853
810.166	2842
810.308	2815
810.45	2872
810.591	2777
810.733	2739
810.875	2804
811.016	2804
811.158	2762
811.299	2792
811.441	2929
811.582	2887
811.724	2849
811.865	2811
812.007	2910
812.148	2861
812.29	2838
812.431	2891
812.573	2933
812.714	2918
812.855	3028
812.997	3036
813.138	3131
813.279	2979
813.421	2986
813.562	2948
813.703	2895
813.845	2891
813.986	2773
814.127	2746
814.268	2819
814.41	2826
814.551	2849
814.692	2830
814.833	2811
814.974	2914
815.115	2929
815.256	2792
815.397	2807
815.539	2857
815.68	2792
815.821	2754
815.962	2948
816.103	2887
816.244	2876
816.385	2868
816.526	2979
816.666	2895
816.807	2766
816.948	2868
817.089	2887
817.23	2811
817.371	2766
817.512	2785
817.653	2804
817.793	2830
817.934	2887
818.075	2948
818.216	2979
818.356	2990
818.497	2891
818.638	2754
818.778	2777
818.919	2819
819.06	2769
819.2	2838
819.341	2766
819.481	2785
819.622	2891
819.762	3074
819.903	3001
820.043	2956
820.184	2910
820.324	2895
820.465	3009
820.605	3020
820.746	3001
820.886	2979
821.026	3108
821.167	3146
821.307	3283
821.447	3291
821.588	3249
821.728	3233
821.868	3214
822.008	3066
822.149	3230
822.289	3291
822.429	3123
822.569	3093
822.709	3226
822.849	3017
822.99	3135
823.13	3226
823.27	3233
823.41	3146
823.55	3184
823.69	3154
823.83	3222
823.97	3154
824.11	3001
824.25	3013
824.389	3066
824.529	3112
824.669	3104
824.809	3222
824.949	3256
825.089	3283
825.228	3203
825.368	3032
825.508	2986
825.648	3009
825.787	3043
825.927	3074
826.067	2990
826.206	2990
826.346	3066
826.485	3097
826.625	3142
826.765	3344
826.904	3287
827.044	3039
827.183	2990
827.323	2906
827.462	3009
827.601	2960
827.741	3005
827.88	2990
828.02	2849
828.159	2982
828.298	3058
828.437	3119
828.577	3058
828.716	3279
828.855	3097
828.994	2982
829.134	2944
829.273	2971
829.412	2944
829.551	2838
829.69	2933
829.829	3001
829.968	3176
830.107	3036
830.246	3062
830.385	2967
830.524	2956
830.663	2826
830.802	2766
830.941	2682
831.08	2705
831.219	2788
831.357	2773
831.496	3001
831.635	2754
831.774	2686
831.913	2682
832.051	2606
832.19	2629
832.329	2712
832.467	2571
832.606	2537
832.744	2594
832.883	2598
833.022	2629
833.16	2670
833.299	2750
833.437	2746
833.576	2746
833.714	2731
833.852	2758
833.991	2773
834.129	2861
834.267	2880
834.406	2804
834.544	2941
834.682	2883
834.821	2929
834.959	3097
835.097	2944
835.235	3100
835.373	3020
835.511	3070
835.65	2994
835.788	2982
835.926	2872
836.064	2838
836.202	2887
836.34	3112
836.478	3214
836.615	3055
836.753	3161
836.891	3233
837.029	3192
837.167	3165
837.305	3093
837.443	3062
837.58	3001
837.718	3195
837.856	3093
837.993	3051
838.131	3157
838.269	3112
838.406	3131
838.544	3116
838.681	2986
838.819	2960
838.956	2902
839.094	2849
839.231	2975
839.369	3066
839.506	3416
839.643	3268
839.781	3047
839.918	2998
840.055	3066
840.193	3077
840.33	3093
840.467	3108
840.604	3192
840.742	3428
840.879	3089
841.016	3051
841.153	3161
841.29	3374
841.427	3348
841.564	3302
841.701	3336
841.838	3291
841.975	3192
842.112	3245
842.249	3077
842.385	3089
842.522	3272
842.659	3165
842.796	3100
842.933	3127
843.069	3051
843.206	3058
843.343	3211
843.479	3176
843.616	3131
843.752	2922
843.889	2906
844.025	3108
844.162	2929
844.298	3097
844.435	2967
844.571	2956
844.708	3085
844.844	3230
844.98	3275
845.117	3233
845.253	3062
845.389	3051
845.525	3138
845.661	3142
845.798	3051
845.934	3157
846.07	3081
846.206	3253
846.342	3329
846.478	3214
846.614	3138
846.75	3074
846.886	3058
847.022	3268
847.158	3154
847.294	3199
847.429	3230
847.565	3188
847.701	3526
847.837	3032
847.972	3039
848.108	3154
848.244	3188
848.379	3009
848.515	2986
848.65	2914
848.786	2990
848.921	3020
849.057	3135
849.192	3192
849.328	3085
849.463	3135
849.598	3119
849.734	3077
849.869	2994
850.004	2914
850.14	2994
850.275	2944
850.41	2868
850.545	2883
850.68	2929
850.815	2960
850.95	2990
851.085	3233
851.22	3112
851.355	3055
851.49	2994
851.625	3020
851.76	3047
851.895	2948
852.03	2956
852.165	3036
852.299	3116
852.434	3195
852.569	3195
852.703	3188
852.838	3272
852.973	3355
853.107	3355
853.242	3184
853.376	3081
853.511	3020
853.645	3116
853.78	3249
853.914	3131
854.048	3127
854.183	3116
854.317	3188
854.451	3294
854.585	3127
854.72	3100
854.854	3237
854.988	3104
855.122	3116
855.256	2998
855.39	3112
855.524	3294
855.658	3192
855.792	3184
855.926	3218
856.06	3237
856.194	3298
856.327	3165
856.461	3089
856.595	3112
856.729	3085
856.862	3264
856.996	3184
857.13	3222
857.263	3203
857.397	3298
857.53	3161
857.664	3214
857.797	3218
857.931	3313
858.064	3180
858.197	3233
858.331	3142
858.464	3097
858.597	3009
858.731	3131
858.864	3138
858.997	3112
859.13	3184
859.263	3218
859.396	3233
859.529	3077
859.662	3108
859.795	3104
859.928	3127
860.061	3310
860.194	3306
860.327	3119
860.46	3089
860.592	3241
860.725	3264
860.858	3268
860.99	3142
861.123	3062
861.256	3119
861.388	3192
861.521	3797
861.653	3089
861.786	3001
861.918	3013
862.05	3062
862.183	3119
862.315	3165
862.447	3214
862.58	3108
862.712	2948
862.844	2887
862.976	3070
863.108	3032
863.24	3424
863.372	2918
863.504	3001
863.636	2952
863.768	3036
863.9	3013
864.032	2960
864.164	2971
864.296	3032
864.428	3085
864.559	3062
864.691	3104
864.823	3062
864.954	3051
865.086	3020
865.217	2994
865.349	2971
865.48	2994
865.612	3047
865.743	3165
865.875	3020
866.006	2963
866.137	3001
866.269	2975
866.4	2933
866.531	2933
866.662	2906
866.793	2899
866.924	2891
867.055	2979
867.186	2937
867.317	2899
867.448	2876
867.579	2845
867.71	2853
867.841	2845
867.972	2914
868.103	2944
868.233	2876
868.364	2887
868.495	2876
868.625	3081
868.756	3199
868.886	3028
869.017	3024
869.147	3154
869.278	3184
869.408	3085
869.539	3020
869.669	3142
869.799	3104
869.929	3142
870.06	3093
870.19	3340
870.32	3298
870.45	3291
870.58	3416
870.71	3485
870.84	3492
870.97	3306
871.1	3283
871.23	3500
871.36	3492
871.489	3409
871.619	3409
871.749	3439
871.879	3374
872.008	3447
872.138	3386
872.267	3287
872.397	3173
872.526	3135
872.656	3024
872.785	3093
872.915	3283
873.044	3325
873.173	3233
873.303	3256
873.432	3237
873.561	3237
873.69	3138
873.819	3146
873.948	3184
874.077	3127
874.206	3055
874.335	3116
874.464	3253
874.593	3382
874.722	3253
874.851	3397
874.979	3348
875.108	3310
875.237	3180
875.365	3157
875.494	3192
875.623	3218
875.751	3062
875.88	3127
876.008	3222
876.136	3253
876.265	3382
876.393	3511
876.521	3412
876.65	3405
876.778	3321
876.906	3245
877.034	3199
877.162	3222
877.29	3165
877.418	3272
877.546	3230
877.674	3283
877.802	3237
877.93	3188
878.058	3131
878.185	3093
878.313	3222
878.441	3268
878.568	3074
878.696	3176
878.824	3298
878.951	3313
879.079	3462
879.206	3675
879.333	3431
879.461	3317
879.588	3367
879.715	3492
879.842	3637
879.97	3355
880.097	3218
880.224	3161
880.351	3207
880.478	3218
880.605	3207
880.732	3184
880.859	3481
880.986	3291
881.112	3340
881.239	3233
881.366	3070
881.493	3055
881.619	3005
881.746	3108
881.872	3119
881.999	3127
882.125	3173
882.252	3237
882.378	3321
882.505	3443
882.631	3298
882.757	3176
882.883	3203
883.01	3287
883.136	3211
883.262	3104
883.388	3119
883.514	3325
883.64	3370
883.766	3317
883.892	3218
884.018	3237
884.143	3431
884.269	3534
884.395	3199
884.52	3131
884.646	3192
884.772	3154
884.897	3123
885.023	3222
885.148	3313
885.274	3389
885.399	3321
885.524	3306
885.65	3283
885.775	3321
885.9	3241
886.025	3481
886.15	3382
886.275	3325
886.4	3260
886.525	3340
886.65	3306
886.775	3306
886.9	3488
887.025	3633
887.149	3435
887.274	3253
887.399	3211
887.523	3195
887.648	3214
887.773	3192
887.897	3355
888.021	3389
888.146	3298
888.27	3477
888.395	3523
888.519	3450
888.643	3420
888.767	3450
888.891	3340
889.015	3279
889.139	3348
889.263	3253
889.387	3397
889.511	3504
889.635	3458
889.759	3298
889.883	3325
890.006	3397
890.13	3545
890.254	3279
890.377	3344
890.501	3211
890.624	3218
890.748	3317
890.871	3195
890.995	3089
891.118	3085
891.241	3226
891.364	3233
891.488	3283
891.611	3230
891.734	3230
891.857	3306
891.98	3268
892.103	3325
892.226	3230
892.349	3214
892.471	3146
892.594	3245
892.717	3268
892.839	3275
892.962	3313
893.085	3382
893.207	3272
893.33	3173
893.452	3203
893.575	3348
893.697	3241
893.819	3488
893.941	3523
894.064	3458
894.186	3260
894.308	3226
894.43	3401
894.552	3534
894.674	3485
894.796	3272
894.918	3317
895.04	3279
895.161	3439
895.283	3374
895.405	3272
895.526	3340
895.648	3450
895.769	3435
895.891	3511
896.012	3488
896.134	3466
896.255	3443
896.376	3389
896.498	3378
896.619	3420
896.74	3378
896.861	3378
896.982	3686
897.103	3816
897.224	3587
897.345	3507
897.466	3439
897.587	3496
897.708	3606
897.828	3530
897.949	3458
898.07	3336
898.19	3424
898.311	3606
898.431	3496
898.552	3523
898.672	3614
898.792	3591
898.913	3530
899.033	3424
899.153	3253
899.273	3211
899.393	3283
899.513	3336
899.633	3325
899.753	3302
899.873	3344
899.993	3401
900.113	3332
900.232	3363
900.352	3348
900.472	3306
900.591	3211
900.711	3298
900.83	3203
900.95	3431
901.069	3519
901.189	3336
901.308	3180
901.427	3127
901.546	3188
901.665	3287
901.784	3336
901.904	3195
902.023	3154
902.141	3036
902.26	3036
902.379	3108
902.498	3097
902.617	3085
902.735	3214
902.854	3237
902.973	3214
903.091	3070
903.21	3081
903.328	3180
903.446	3154
903.565	3108
903.683	3214
903.801	3104
903.919	3237
904.038	3310
904.156	3192
904.274	3329
904.392	3275
904.51	3321
904.627	3317
904.745	3454
904.863	3523
904.981	3260
905.098	3154
905.216	3241
905.334	3283
905.451	3340
905.569	3287
905.686	3450
905.803	3447
905.921	3275
906.038	3424
906.155	3378
906.272	3249
906.389	3329
906.506	3260
906.623	3222
906.74	3279
906.857	3169
906.974	3222
907.091	3443
907.208	3572
907.324	3469
907.441	3378
907.557	3241
907.674	3241
907.79	3199
907.907	3256
908.023	3405
908.139	3401
908.256	3348
908.372	3355
908.488	3325
908.604	3241
908.72	3233
908.836	3283
908.952	3260
909.068	3321
909.184	3504
909.3	3393
909.415	3485
909.531	3462
909.647	3268
909.762	3275
909.878	3291
909.993	3351
910.108	3336
910.224	3313
910.339	3363
910.454	3340
910.57	3268
910.685	3230
910.8	3542
910.915	3553
911.03	3405
911.145	3260
911.259	3294
911.374	3298
911.489	3253
911.604	3237
911.718	3093
911.833	3161
911.947	3013
912.062	2998
912.176	3138
912.291	3180
912.405	3207
912.519	3439
912.633	3504
912.748	3302
912.862	3302
912.976	3161
913.09	3089
913.204	3142
913.318	3222
913.431	3306
913.545	3348
913.659	3397
913.772	3332
913.886	3184
914	3173
914.113	3363
914.226	3389
914.34	3344
914.453	3245
914.566	3428
914.68	3294
914.793	3275
914.906	3119
915.019	3104
915.132	3074
915.245	3165
915.358	3195
915.47	3230
915.583	3253
915.696	3294
915.809	3454
915.921	3412
916.034	3237
916.146	3249
916.259	3218
916.371	3401
916.483	3367
916.595	3298
916.708	3329
916.82	3321
916.932	3325
917.044	3329
917.156	3344
917.268	3226
917.38	3325
917.491	3355
917.603	3344
917.715	3439
917.826	3481
917.938	3389
918.049	3260
918.161	3424
918.272	3549
918.384	3530
918.495	3492
918.606	3317
918.717	3253
918.828	3386
918.939	3401
919.05	3275
919.161	3355
919.272	3169
919.383	3329
919.494	3473
919.604	3675
919.715	3473
919.826	3412
919.936	3473
920.047	3572
920.157	3545
920.267	3755
920.378	3610
920.488	3538
920.598	3728
920.708	3937
920.818	3819
920.928	3823
921.038	4006
921.148	4010
921.258	3717
921.368	3671
921.477	3599
921.587	3526
921.697	3469
921.806	3618
921.916	3519
922.025	3367
922.134	3344
922.244	3313
922.353	3458
922.462	3249
922.571	3249
922.68	3104
922.789	3055
922.898	3123
923.007	3123
923.116	3226
923.224	3192
923.333	3150
923.442	3135
923.55	3123
923.659	3127
923.767	3192
923.876	3127
923.984	3256
924.092	3131
924.201	3188
924.309	3195
924.417	3283
924.525	3184
924.633	3249
924.741	4192
924.849	3036
924.956	3275
925.064	3123
925.172	3039
925.279	3108
925.387	3184
925.494	3192
925.602	3344
925.709	3298
925.816	3195
925.924	3329
926.031	3374
926.138	3310
926.245	3344
926.352	3256
926.459	3420
926.566	3428
926.673	3317
926.779	3237
926.886	3275
926.993	3165
927.099	3138
927.206	3097
927.312	3119
927.419	3230
927.525	3230
927.631	3268
927.737	3150
927.843	3123
927.95	3017
928.056	3104
928.162	3119
928.267	3249
928.373	3728
928.479	3298
928.585	3081
928.69	3207
928.796	3279
928.901	3142
929.007	3058
929.112	3222
929.218	3192
929.323	3169
929.428	3188
929.533	3332
929.638	3108
929.743	3195
929.848	3272
929.953	3199
930.058	3135
930.163	2944
930.267	3066
930.372	3207
930.477	3039
930.581	3325
930.685	3203
930.79	3051
930.894	3104
930.998	3074
931.103	3313
931.207	2971
931.311	2937
931.415	2914
931.519	2769
931.623	2800
