Data from test_V78500241_754.txt Node
Date: Fri Mar 25 16:20:25 CST 2022
User: usil
Spectrometer: V785-0024
Trigger mode: 0
Integration Time (sec): 4.000000E-1
Scans to average: 1
Nonlinearity correction enabled: false
Boxcar width: 0
Storing dark spectrum: false
XAxis mode: Wavelengths
Number of Pixels in Spectrum: 1024
>>>>>Begin Spectral Data<<<<<
801.071	2910
801.214	2998
801.356	2918
801.499	2937
801.641	2902
801.783	2925
801.926	3066
802.068	3013
802.211	3051
802.353	3039
802.496	3020
802.638	3020
802.78	3020
802.923	3116
803.065	3017
803.208	2925
803.35	2963
803.492	2914
803.635	2952
803.777	2766
803.919	2861
804.061	3169
804.204	2956
804.346	2910
804.488	2853
804.63	3001
804.773	2864
804.915	2929
805.057	3051
805.199	2933
805.341	2952
805.483	3039
805.626	3005
805.768	2990
805.91	3081
806.052	3154
806.194	3043
806.336	3249
806.478	3058
806.62	2960
806.762	2963
806.904	3077
807.046	3146
807.188	3024
807.33	2948
807.472	2979
807.614	2906
807.756	2994
807.898	2960
808.04	2914
808.182	2990
808.324	2975
808.465	2887
808.607	2902
808.749	2754
808.891	2887
809.033	2982
809.174	2986
809.316	2906
809.458	2918
809.6	2773
809.741	2796
809.883	2758
810.025	2853
810.166	2853
810.308	2823
810.45	2830
810.591	2781
810.733	2781
810.875	2838
811.016	2766
811.158	2777
811.299	2845
811.441	2899
811.582	2906
811.724	2849
811.865	2830
812.007	2933
812.148	2887
812.29	2868
812.431	2910
812.573	2944
812.714	3017
812.855	3047
812.997	3051
813.138	3093
813.279	3039
813.421	3017
813.562	3020
813.703	2895
813.845	2883
813.986	2792
814.127	2735
814.268	2819
814.41	2834
814.551	2853
814.692	2868
814.833	2815
814.974	2918
815.115	2967
815.256	2842
815.397	2838
815.539	2872
815.68	2796
815.821	2800
815.962	2941
816.103	2960
816.244	2883
816.385	2883
816.526	2963
816.666	2910
816.807	2735
816.948	2899
817.089	2906
817.23	2845
817.371	2781
817.512	2811
817.653	2838
817.793	2830
817.934	2883
818.075	2971
818.216	3001
818.356	3070
818.497	2864
818.638	2800
818.778	2849
818.919	2800
819.06	2762
819.2	2880
819.341	2826
819.481	2826
819.622	2918
819.762	3104
819.903	3074
820.043	2899
820.184	2918
820.324	2891
820.465	3028
820.605	3032
820.746	3024
820.886	2914
821.026	3108
821.167	3173
821.307	3241
821.447	3249
821.588	3268
821.728	3233
821.868	3233
822.008	3112
822.149	3161
822.289	3249
822.429	3028
822.569	3108
822.709	3180
822.849	3066
822.99	3077
823.13	3165
823.27	3222
823.41	3093
823.55	3135
823.69	3169
823.83	3184
823.97	3150
824.11	3005
824.25	3017
824.389	3085
824.529	3127
824.669	3070
824.809	3214
824.949	3237
825.089	3218
825.228	3161
825.368	3013
825.508	2963
825.648	2990
825.787	2994
825.927	3024
826.067	2956
826.206	2963
826.346	3058
826.485	3108
826.625	3116
826.765	3268
826.904	3245
827.044	2998
827.183	2960
827.323	2880
827.462	3005
827.601	2956
827.741	2952
827.88	2941
828.02	2853
828.159	3017
828.298	3009
828.437	3077
828.577	3055
828.716	3272
828.855	3085
828.994	2918
829.134	2918
829.273	2937
829.412	2895
829.551	2842
829.69	2891
829.829	2998
829.968	3116
830.107	3051
830.246	3039
830.385	2910
830.524	2902
830.663	2819
830.802	2777
830.941	2636
831.08	2640
831.219	2807
831.357	2758
831.496	2937
831.635	2739
831.774	2632
831.913	2663
832.051	2571
832.19	2552
832.329	2682
832.467	2552
832.606	2511
832.744	2606
832.883	2598
833.022	2583
833.16	2697
833.299	2701
833.437	2701
833.576	2708
833.714	2735
833.852	2727
833.991	2766
834.129	2849
834.267	2815
834.406	2785
834.544	2868
834.682	2864
834.821	2895
834.959	3055
835.097	2864
835.235	3074
835.373	3001
835.511	3017
835.65	2967
835.788	2960
835.926	2830
836.064	2815
836.202	2819
836.34	3097
836.478	3142
836.615	3039
836.753	3138
836.891	3218
837.029	3154
837.167	3116
837.305	3039
837.443	3017
837.58	2967
837.718	3116
837.856	3062
837.993	3051
838.131	3119
838.269	3127
838.406	3116
838.544	3085
838.681	2933
838.819	2887
838.956	2861
839.094	2842
839.231	2906
839.369	2994
839.506	3348
839.643	3260
839.781	3009
839.918	2986
840.055	3024
840.193	3051
840.33	3104
840.467	3097
840.604	3157
840.742	3382
840.879	3043
841.016	3043
841.153	3135
841.29	3329
841.427	3275
841.564	3245
841.701	3279
841.838	3211
841.975	3173
842.112	3211
842.249	3123
842.385	3036
842.522	3249
842.659	3047
842.796	3055
842.933	3081
843.069	3077
843.206	3062
843.343	3180
843.479	3104
843.616	3165
843.752	2944
843.889	2868
844.025	3089
844.162	2899
844.298	3051
844.435	2941
844.571	2906
844.708	3066
844.844	3195
844.98	3214
845.117	3188
845.253	3024
845.389	2990
845.525	3085
845.661	3123
845.798	3005
845.934	3074
846.07	3047
846.206	3218
846.342	3351
846.478	3237
846.614	3108
846.75	3039
846.886	3017
847.022	3241
847.158	3093
847.294	3199
847.429	3249
847.565	3173
847.701	3447
847.837	3036
847.972	2967
848.108	3154
848.244	3138
848.379	2952
848.515	2952
848.65	2937
848.786	2937
848.921	3028
849.057	3135
849.192	3173
849.328	3077
849.463	3142
849.598	3036
849.734	3047
849.869	2944
850.004	2944
850.14	2922
850.275	2944
850.41	2811
850.545	2868
850.68	2933
850.815	2937
850.95	2967
851.085	3184
851.22	3104
851.355	3005
851.49	2956
851.625	2986
851.76	2990
851.895	2918
852.03	2902
852.165	3039
852.299	3112
852.434	3142
852.569	3138
852.703	3211
852.838	3264
852.973	3340
853.107	3340
853.242	3146
853.376	3085
853.511	2975
853.645	3024
853.78	3249
853.914	3081
854.048	3135
854.183	3127
854.317	3138
854.451	3317
854.585	3135
854.72	3058
854.854	3207
854.988	3077
855.122	3081
855.256	2941
855.39	3112
855.524	3237
855.658	3169
855.792	3138
855.926	3173
856.06	3192
856.194	3241
856.327	3165
856.461	3058
856.595	3074
856.729	3074
856.862	3203
856.996	3169
857.13	3169
857.263	3218
857.397	3275
857.53	3112
857.664	3214
857.797	3218
857.931	3256
858.064	3169
858.197	3203
858.331	3195
858.464	3131
858.597	3017
858.731	3104
858.864	3135
858.997	3066
859.13	3112
859.263	3161
859.396	3180
859.529	3081
859.662	3047
859.795	3039
859.928	3146
860.061	3287
860.194	3264
860.327	3157
860.46	3077
860.592	3253
860.725	3222
860.858	3249
860.99	3138
861.123	3036
861.256	3051
861.388	3154
861.521	3888
861.653	3043
861.786	3009
861.918	2960
862.05	3066
862.183	3085
862.315	3119
862.447	3180
862.58	3085
862.712	2952
862.844	2857
862.976	2982
863.108	2990
863.24	3439
863.372	2887
863.504	2944
863.636	2918
863.768	3024
863.9	3017
864.032	2922
864.164	2960
864.296	3001
864.428	3093
864.559	3097
864.691	3074
864.823	3062
864.954	3009
865.086	3005
865.217	2963
865.349	2929
865.48	3028
865.612	3024
865.743	3135
865.875	2986
866.006	2925
866.137	2986
866.269	2914
866.4	2918
866.531	2902
866.662	2891
866.793	2906
866.924	2918
867.055	2944
867.186	2883
867.317	2849
867.448	2807
867.579	2826
867.71	2842
867.841	2819
867.972	2910
868.103	2902
868.233	2887
868.364	2864
868.495	2906
868.625	3074
868.756	3127
868.886	2986
869.017	3024
869.147	3150
869.278	3165
869.408	3058
869.539	3024
869.669	3119
869.799	3009
869.929	3123
870.06	3085
870.19	3306
870.32	3283
870.45	3306
870.58	3317
870.71	3466
870.84	3450
870.97	3287
871.1	3249
871.23	3469
871.36	3458
871.489	3355
871.619	3401
871.749	3412
871.879	3405
872.008	3492
872.138	3344
872.267	3233
872.397	3119
872.526	3116
872.656	3017
872.785	3070
872.915	3226
873.044	3310
873.173	3218
873.303	3253
873.432	3203
873.561	3264
873.69	3138
873.819	3127
873.948	3214
874.077	3081
874.206	3009
874.335	3058
874.464	3207
874.593	3363
874.722	3237
874.851	3367
874.979	3363
875.108	3332
875.237	3188
875.365	3165
875.494	3135
875.623	3230
875.751	3081
875.88	3112
876.008	3195
876.136	3233
876.265	3378
876.393	3504
876.521	3409
876.65	3386
876.778	3351
876.906	3253
877.034	3195
877.162	3226
877.29	3184
877.418	3230
877.546	3264
877.674	3237
877.802	3203
877.93	3260
878.058	3150
878.185	3066
878.313	3218
878.441	3176
878.568	3058
878.696	3146
878.824	3245
878.951	3298
879.079	3401
879.206	3599
879.333	3454
879.461	3351
879.588	3367
879.715	3469
879.842	3618
879.97	3370
880.097	3154
880.224	3119
880.351	3192
880.478	3226
880.605	3192
880.732	3192
880.859	3488
880.986	3302
881.112	3291
881.239	3169
881.366	3039
881.493	3013
881.619	3047
881.746	3051
881.872	3058
881.999	3074
882.125	3165
882.252	3253
882.378	3325
882.505	3416
882.631	3291
882.757	3157
882.883	3199
883.01	3237
883.136	3150
883.262	3100
883.388	3097
883.514	3298
883.64	3363
883.766	3310
883.892	3150
884.018	3256
884.143	3412
884.269	3580
884.395	3184
884.52	3161
884.646	3157
884.772	3108
884.897	3093
885.023	3207
885.148	3306
885.274	3386
885.399	3374
885.524	3256
885.65	3260
885.775	3306
885.9	3260
886.025	3412
886.15	3351
886.275	3336
886.4	3214
886.525	3329
886.65	3249
886.775	3279
886.9	3458
887.025	3629
887.149	3382
887.274	3291
887.399	3154
887.523	3195
887.648	3169
887.773	3165
887.897	3348
888.021	3382
888.146	3272
888.27	3431
888.395	3553
888.519	3428
888.643	3439
888.767	3401
888.891	3340
889.015	3199
889.139	3275
889.263	3169
889.387	3458
889.511	3534
889.635	3443
889.759	3264
889.883	3291
890.006	3382
890.13	3488
890.254	3291
890.377	3302
890.501	3169
890.624	3192
890.748	3283
890.871	3184
890.995	3085
891.118	3058
891.241	3211
891.364	3214
891.488	3283
891.611	3161
891.734	3192
891.857	3287
891.98	3237
892.103	3325
892.226	3207
892.349	3214
892.471	3119
892.594	3249
892.717	3317
892.839	3249
892.962	3302
893.085	3351
893.207	3310
893.33	3154
893.452	3218
893.575	3355
893.697	3264
893.819	3466
893.941	3519
894.064	3435
894.186	3283
894.308	3283
894.43	3439
894.552	3561
894.674	3409
894.796	3253
894.918	3336
895.04	3253
895.161	3409
895.283	3393
895.405	3291
895.526	3359
895.648	3416
895.769	3405
895.891	3454
896.012	3473
896.134	3473
896.255	3424
896.376	3405
896.498	3329
896.619	3409
896.74	3363
896.861	3420
896.982	3667
897.103	3838
897.224	3644
897.345	3538
897.466	3450
897.587	3485
897.708	3629
897.828	3530
897.949	3424
898.07	3317
898.19	3454
898.311	3614
898.431	3405
898.552	3515
898.672	3625
898.792	3584
898.913	3485
899.033	3420
899.153	3272
899.273	3214
899.393	3306
899.513	3310
899.633	3306
899.753	3310
899.873	3313
899.993	3382
900.113	3336
900.232	3344
900.352	3329
900.472	3260
900.591	3192
900.711	3302
900.83	3214
900.95	3412
901.069	3500
901.189	3321
901.308	3188
901.427	3093
901.546	3165
901.665	3283
901.784	3351
901.904	3222
902.023	3135
902.141	3039
902.26	2994
902.379	3169
902.498	3089
902.617	3070
902.735	3184
902.854	3230
902.973	3165
903.091	3017
903.21	3043
903.328	3154
903.446	3108
903.565	3085
903.683	3180
903.801	3104
903.919	3230
904.038	3279
904.156	3150
904.274	3310
904.392	3233
904.51	3302
904.627	3268
904.745	3443
904.863	3485
904.981	3233
905.098	3161
905.216	3233
905.334	3256
905.451	3317
905.569	3306
905.686	3435
905.803	3428
905.921	3260
906.038	3405
906.155	3351
906.272	3279
906.389	3336
906.506	3237
906.623	3233
906.74	3256
906.857	3192
906.974	3272
907.091	3458
907.208	3530
907.324	3454
907.441	3359
907.557	3230
907.674	3211
907.79	3214
907.907	3260
908.023	3382
908.139	3378
908.256	3340
908.372	3367
908.488	3363
908.604	3214
908.72	3218
908.836	3272
908.952	3256
909.068	3336
909.184	3500
909.3	3370
909.415	3469
909.531	3496
909.647	3241
909.762	3245
909.878	3268
909.993	3344
910.108	3340
910.224	3287
910.339	3443
910.454	3283
910.57	3256
910.685	3237
910.8	3618
910.915	3526
911.03	3439
911.145	3253
911.259	3287
911.374	3317
911.489	3253
911.604	3203
911.718	3157
911.833	3119
911.947	3051
912.062	2975
912.176	3180
912.291	3146
912.405	3192
912.519	3420
912.633	3462
912.748	3348
912.862	3256
912.976	3184
913.09	3051
913.204	3131
913.318	3203
913.431	3355
913.545	3317
913.659	3393
913.772	3317
913.886	3230
914	3180
914.113	3367
914.226	3351
914.34	3389
914.453	3207
914.566	3412
914.68	3294
914.793	3294
914.906	3180
915.019	3119
915.132	3062
915.245	3161
915.358	3146
915.47	3214
915.583	3237
915.696	3283
915.809	3443
915.921	3393
916.034	3241
916.146	3268
916.259	3203
916.371	3340
916.483	3351
916.595	3245
916.708	3321
916.82	3294
916.932	3332
917.044	3344
917.156	3310
917.268	3287
917.38	3317
917.491	3291
917.603	3393
917.715	3469
917.826	3466
917.938	3367
918.049	3275
918.161	3439
918.272	3576
918.384	3584
918.495	3458
918.606	3321
918.717	3283
918.828	3370
918.939	3405
919.05	3275
919.161	3386
919.272	3131
919.383	3279
919.494	3469
919.604	3690
919.715	3500
919.826	3348
919.936	3393
920.047	3572
920.157	3538
920.267	3766
920.378	3603
920.488	3557
920.598	3759
920.708	3922
920.818	3804
920.928	3816
921.038	4051
921.148	3991
921.258	3709
921.368	3606
921.477	3557
921.587	3507
921.697	3443
921.806	3606
921.916	3530
922.025	3344
922.134	3329
922.244	3313
922.353	3443
922.462	3249
922.571	3233
922.68	3074
922.789	3093
922.898	3165
923.007	3066
923.116	3195
923.224	3169
923.333	3180
923.442	3108
923.55	3089
923.659	3157
923.767	3173
923.876	3097
923.984	3233
924.092	3085
924.201	3211
924.309	3230
924.417	3272
924.525	3165
924.633	3249
924.741	4169
924.849	3055
924.956	3329
925.064	3085
925.172	3036
925.279	3150
925.387	3192
925.494	3195
925.602	3367
925.709	3332
925.816	3192
925.924	3268
926.031	3363
926.138	3294
926.245	3363
926.352	3245
926.459	3389
926.566	3447
926.673	3355
926.779	3237
926.886	3237
926.993	3150
927.099	3116
927.206	3104
927.312	3123
927.419	3230
927.525	3218
927.631	3264
927.737	3157
927.843	3127
927.95	3039
928.056	3138
928.162	3207
928.267	3230
928.373	3884
928.479	3336
928.585	3055
928.69	3237
928.796	3275
928.901	3169
929.007	3013
929.112	3226
929.218	3161
929.323	3176
929.428	3127
929.533	3306
929.638	3135
929.743	3154
929.848	3294
929.953	3199
930.058	3142
930.163	3017
930.267	3058
930.372	3207
930.477	2994
930.581	3317
930.685	3180
930.79	3043
930.894	3146
930.998	3169
931.103	3294
931.207	2933
931.311	2963
931.415	2914
931.519	2750
931.623	2769
