Data from test_V78500241_1173.txt Node
Date: Fri Mar 25 16:23:19 CST 2022
User: usil
Spectrometer: V785-0024
Trigger mode: 0
Integration Time (sec): 4.000000E-1
Scans to average: 1
Nonlinearity correction enabled: false
Boxcar width: 0
Storing dark spectrum: false
XAxis mode: Wavelengths
Number of Pixels in Spectrum: 1024
>>>>>Begin Spectral Data<<<<<
801.071	2918
801.214	2929
801.356	2910
801.499	2887
801.641	2876
801.783	2899
801.926	3062
802.068	2956
802.211	2956
802.353	3024
802.496	2994
802.638	3005
802.78	3058
802.923	3116
803.065	3032
803.208	2895
803.35	2941
803.492	2914
803.635	2925
803.777	2762
803.919	2819
804.061	3184
804.204	2960
804.346	2925
804.488	2861
804.63	2948
804.773	2830
804.915	2876
805.057	3074
805.199	2914
805.341	2948
805.483	3077
805.626	3005
805.768	2944
805.91	3081
806.052	3112
806.194	2998
806.336	3218
806.478	3013
806.62	2963
806.762	2998
806.904	3039
807.046	3154
807.188	2925
807.33	2918
807.472	2990
807.614	2887
807.756	2975
807.898	2914
808.04	2895
808.182	2979
808.324	2971
808.465	2899
808.607	2861
808.749	2781
808.891	2826
809.033	2994
809.174	2944
809.316	2906
809.458	2864
809.6	2750
809.741	2777
809.883	2735
810.025	2842
810.166	2819
810.308	2849
810.45	2849
810.591	2781
810.733	2762
810.875	2811
811.016	2769
811.158	2724
811.299	2811
811.441	2906
811.582	2922
811.724	2819
811.865	2823
812.007	2906
812.148	2864
812.29	2842
812.431	2895
812.573	2895
812.714	2937
812.855	3058
812.997	3032
813.138	3131
813.279	2990
813.421	3005
813.562	2941
813.703	2838
813.845	2876
813.986	2800
814.127	2705
814.268	2830
814.41	2842
814.551	2769
814.692	2857
814.833	2792
814.974	2868
815.115	2967
815.256	2811
815.397	2792
815.539	2864
815.68	2754
815.821	2819
815.962	2941
816.103	2948
816.244	2861
816.385	2880
816.526	2948
816.666	2906
816.807	2720
816.948	2861
817.089	2906
817.23	2853
817.371	2762
817.512	2815
817.653	2823
817.793	2830
817.934	2918
818.075	2929
818.216	2998
818.356	3032
818.497	2849
818.638	2773
818.778	2823
818.919	2781
819.06	2758
819.2	2845
819.341	2811
819.481	2796
819.622	2910
819.762	3104
819.903	3001
820.043	2918
820.184	2868
820.324	2918
820.465	3013
820.605	3001
820.746	3066
820.886	2918
821.026	3119
821.167	3169
821.307	3253
821.447	3291
821.588	3260
821.728	3230
821.868	3192
822.008	3074
822.149	3195
822.289	3245
822.429	3112
822.569	3081
822.709	3142
822.849	3043
822.99	3077
823.13	3150
823.27	3195
823.41	3055
823.55	3146
823.69	3176
823.83	3203
823.97	3123
824.11	2994
824.25	2971
824.389	3039
824.529	3104
824.669	3005
824.809	3176
824.949	3249
825.089	3211
825.228	3150
825.368	3005
825.508	2941
825.648	2971
825.787	2986
825.927	3024
826.067	2982
826.206	2960
826.346	3020
826.485	3062
826.625	3089
826.765	3253
826.904	3230
827.044	2971
827.183	2948
827.323	2868
827.462	2960
827.601	2925
827.741	2906
827.88	2922
828.02	2834
828.159	2971
828.298	3032
828.437	3116
828.577	3032
828.716	3214
828.855	3108
828.994	2906
829.134	2853
829.273	2906
829.412	2857
829.551	2849
829.69	2849
829.829	2975
829.968	3100
830.107	3001
830.246	2994
830.385	2880
830.524	2857
830.663	2811
830.802	2739
830.941	2648
831.08	2659
831.219	2735
831.357	2743
831.496	2952
831.635	2693
831.774	2629
831.913	2678
832.051	2549
832.19	2571
832.329	2648
832.467	2556
832.606	2480
832.744	2556
832.883	2556
833.022	2587
833.16	2629
833.299	2667
833.437	2689
833.576	2697
833.714	2686
833.852	2720
833.991	2769
834.129	2807
834.267	2807
834.406	2781
834.544	2883
834.682	2883
834.821	2864
834.959	3066
835.097	2914
835.235	3032
835.373	3005
835.511	3028
835.65	2948
835.788	2979
835.926	2826
836.064	2773
836.202	2811
836.34	3112
836.478	3123
836.615	3051
836.753	3112
836.891	3169
837.029	3173
837.167	3127
837.305	3039
837.443	2998
837.58	2963
837.718	3100
837.856	3058
837.993	3017
838.131	3116
838.269	3081
838.406	3119
838.544	3051
838.681	2891
838.819	2902
838.956	2830
839.094	2864
839.231	2910
839.369	3024
839.506	3382
839.643	3226
839.781	3013
839.918	2979
840.055	3024
840.193	3047
840.33	3070
840.467	3074
840.604	3157
840.742	3428
840.879	3055
841.016	3009
841.153	3108
841.29	3340
841.427	3275
841.564	3230
841.701	3363
841.838	3237
841.975	3184
842.112	3184
842.249	3062
842.385	3047
842.522	3260
842.659	3051
842.796	3028
842.933	3070
843.069	3039
843.206	3009
843.343	3157
843.479	3097
843.616	3123
843.752	2906
843.889	2845
844.025	3074
844.162	2891
844.298	3047
844.435	2941
844.571	2925
844.708	3055
844.844	3138
844.98	3214
845.117	3173
845.253	3043
845.389	3013
845.525	3089
845.661	3104
845.798	3017
845.934	3184
846.07	3047
846.206	3214
846.342	3298
846.478	3230
846.614	3089
846.75	3032
846.886	3013
847.022	3237
847.158	3112
847.294	3169
847.429	3226
847.565	3195
847.701	3496
847.837	3013
847.972	2975
848.108	3154
848.244	3123
848.379	2998
848.515	2906
848.65	2922
848.786	2914
848.921	2994
849.057	3093
849.192	3127
849.328	3089
849.463	3100
849.598	3058
849.734	3039
849.869	2975
850.004	2883
850.14	2979
850.275	2910
850.41	2838
850.545	2887
850.68	2929
850.815	2952
850.95	2944
851.085	3176
851.22	3085
851.355	3043
851.49	2929
851.625	2994
851.76	2998
851.895	2963
852.03	2902
852.165	3036
852.299	3093
852.434	3176
852.569	3127
852.703	3154
852.838	3226
852.973	3359
853.107	3321
853.242	3142
853.376	3085
853.511	2960
853.645	3024
853.78	3253
853.914	3089
854.048	3127
854.183	3077
854.317	3112
854.451	3241
854.585	3104
854.72	3066
854.854	3180
854.988	3028
855.122	3081
855.256	2982
855.39	3131
855.524	3222
855.658	3218
855.792	3146
855.926	3161
856.06	3233
856.194	3237
856.327	3131
856.461	3055
856.595	3062
856.729	3066
856.862	3195
856.996	3138
857.13	3184
857.263	3260
857.397	3253
857.53	3112
857.664	3180
857.797	3192
857.931	3230
858.064	3184
858.197	3218
858.331	3089
858.464	3100
858.597	2994
858.731	3146
858.864	3123
858.997	3085
859.13	3123
859.263	3169
859.396	3207
859.529	3085
859.662	3043
859.795	3085
859.928	3138
860.061	3264
860.194	3237
860.327	3150
860.46	3077
860.592	3203
860.725	3233
860.858	3203
860.99	3093
861.123	3043
861.256	3051
861.388	3154
861.521	3690
861.653	2994
861.786	2952
861.918	2990
862.05	3074
862.183	3093
862.315	3150
862.447	3180
862.58	3051
862.712	2960
862.844	2857
862.976	2990
863.108	3017
863.24	3329
863.372	2845
863.504	2971
863.636	2952
863.768	3024
863.9	2975
864.032	2895
864.164	2937
864.296	3024
864.428	3108
864.559	3108
864.691	3070
864.823	3051
864.954	3013
865.086	3020
865.217	2975
865.349	2967
865.48	2975
865.612	3051
865.743	3100
865.875	2975
866.006	2933
866.137	2986
866.269	2948
866.4	2937
866.531	2918
866.662	2899
866.793	2902
866.924	2857
867.055	2971
867.186	2910
867.317	2910
867.448	2838
867.579	2845
867.71	2815
867.841	2826
867.972	2914
868.103	2887
868.233	2887
868.364	2872
868.495	2883
868.625	3066
868.756	3173
868.886	2941
869.017	3013
869.147	3203
869.278	3127
869.408	3051
869.539	3013
869.669	3089
869.799	2994
869.929	3089
870.06	3074
870.19	3325
870.32	3260
870.45	3275
870.58	3336
870.71	3431
870.84	3420
870.97	3302
871.1	3283
871.23	3454
871.36	3473
871.489	3348
871.619	3378
871.749	3405
871.879	3447
872.008	3454
872.138	3374
872.267	3283
872.397	3146
872.526	3074
872.656	3005
872.785	3074
872.915	3233
873.044	3306
873.173	3203
873.303	3272
873.432	3249
873.561	3249
873.69	3169
873.819	3112
873.948	3211
874.077	3062
874.206	3066
874.335	3081
874.464	3188
874.593	3283
874.722	3260
874.851	3409
874.979	3340
875.108	3272
875.237	3207
875.365	3165
875.494	3127
875.623	3260
875.751	3055
875.88	3119
876.008	3218
876.136	3192
876.265	3359
876.393	3519
876.521	3382
876.65	3386
876.778	3348
876.906	3249
877.034	3180
877.162	3249
877.29	3169
877.418	3245
877.546	3233
877.674	3211
877.802	3230
877.93	3211
878.058	3150
878.185	3104
878.313	3184
878.441	3184
878.568	3058
878.696	3131
878.824	3222
878.951	3268
879.079	3462
879.206	3648
879.333	3412
879.461	3325
879.588	3340
879.715	3481
879.842	3572
879.97	3359
880.097	3142
880.224	3119
880.351	3161
880.478	3173
880.605	3184
880.732	3207
880.859	3454
880.986	3298
881.112	3313
881.239	3184
881.366	3081
881.493	3005
881.619	2994
881.746	3077
881.872	3081
881.999	3112
882.125	3097
882.252	3260
882.378	3332
882.505	3424
882.631	3287
882.757	3142
882.883	3184
883.01	3214
883.136	3214
883.262	3074
883.388	3104
883.514	3329
883.64	3321
883.766	3294
883.892	3188
884.018	3230
884.143	3401
884.269	3538
884.395	3192
884.52	3173
884.646	3165
884.772	3097
884.897	3093
885.023	3203
885.148	3367
885.274	3409
885.399	3378
885.524	3287
885.65	3275
885.775	3268
885.9	3241
886.025	3454
886.15	3359
886.275	3279
886.4	3226
886.525	3306
886.65	3260
886.775	3260
886.9	3477
887.025	3622
887.149	3443
887.274	3222
887.399	3199
887.523	3241
887.648	3173
887.773	3173
887.897	3355
888.021	3382
888.146	3302
888.27	3416
888.395	3496
888.519	3393
888.643	3450
888.767	3462
888.891	3306
889.015	3230
889.139	3287
889.263	3256
889.387	3431
889.511	3485
889.635	3428
889.759	3260
889.883	3272
890.006	3359
890.13	3481
890.254	3272
890.377	3351
890.501	3195
890.624	3184
890.748	3313
890.871	3184
890.995	3108
891.118	3055
891.241	3192
891.364	3207
891.488	3340
891.611	3184
891.734	3192
891.857	3294
891.98	3237
892.103	3313
892.226	3245
892.349	3218
892.471	3077
892.594	3203
892.717	3230
892.839	3237
892.962	3294
893.085	3317
893.207	3287
893.33	3135
893.452	3211
893.575	3344
893.697	3283
893.819	3450
893.941	3507
894.064	3412
894.186	3268
894.308	3230
894.43	3454
894.552	3523
894.674	3469
894.796	3241
894.918	3348
895.04	3275
895.161	3420
895.283	3359
895.405	3294
895.526	3351
895.648	3428
895.769	3378
895.891	3447
896.012	3466
896.134	3458
896.255	3428
896.376	3355
896.498	3367
896.619	3409
896.74	3351
896.861	3355
896.982	3660
897.103	3861
897.224	3584
897.345	3538
897.466	3431
897.587	3473
897.708	3625
897.828	3538
897.949	3412
898.07	3317
898.19	3431
898.311	3568
898.431	3416
898.552	3511
898.672	3580
898.792	3545
898.913	3542
899.033	3416
899.153	3260
899.273	3199
899.393	3272
899.513	3332
899.633	3275
899.753	3321
899.873	3294
899.993	3405
900.113	3359
900.232	3386
900.352	3310
900.472	3302
900.591	3211
900.711	3306
900.83	3226
900.95	3412
901.069	3481
901.189	3351
901.308	3138
901.427	3127
901.546	3214
901.665	3287
901.784	3329
901.904	3195
902.023	3123
902.141	3017
902.26	2982
902.379	3104
902.498	3066
902.617	3032
902.735	3233
902.854	3256
902.973	3207
903.091	3032
903.21	3077
903.328	3116
903.446	3157
903.565	3093
903.683	3195
903.801	3131
903.919	3226
904.038	3275
904.156	3169
904.274	3313
904.392	3275
904.51	3287
904.627	3321
904.745	3439
904.863	3519
904.981	3249
905.098	3161
905.216	3207
905.334	3275
905.451	3317
905.569	3310
905.686	3386
905.803	3424
905.921	3302
906.038	3416
906.155	3321
906.272	3237
906.389	3325
906.506	3233
906.623	3272
906.74	3291
906.857	3176
906.974	3256
907.091	3443
907.208	3580
907.324	3462
907.441	3370
907.557	3211
907.674	3222
907.79	3199
907.907	3317
908.023	3386
908.139	3367
908.256	3287
908.372	3367
908.488	3344
908.604	3207
908.72	3260
908.836	3260
908.952	3275
909.068	3336
909.184	3526
909.3	3374
909.415	3511
909.531	3496
909.647	3264
909.762	3260
909.878	3272
909.993	3382
910.108	3332
910.224	3329
910.339	3424
910.454	3332
910.57	3279
910.685	3230
910.8	3599
910.915	3519
911.03	3401
911.145	3283
911.259	3272
911.374	3302
911.489	3245
911.604	3199
911.718	3161
911.833	3131
911.947	3036
912.062	2963
912.176	3180
912.291	3203
912.405	3237
912.519	3424
912.633	3462
912.748	3348
912.862	3272
912.976	3169
913.09	3005
913.204	3104
913.318	3203
913.431	3317
913.545	3344
913.659	3401
913.772	3329
913.886	3218
914	3195
914.113	3359
914.226	3393
914.34	3355
914.453	3214
914.566	3416
914.68	3253
914.793	3344
914.906	3176
915.019	3135
915.132	3093
915.245	3173
915.358	3207
915.47	3203
915.583	3233
915.696	3298
915.809	3439
915.921	3405
916.034	3287
916.146	3272
916.259	3214
916.371	3378
916.483	3359
916.595	3310
916.708	3310
916.82	3325
916.932	3344
917.044	3348
917.156	3313
917.268	3214
917.38	3268
917.491	3313
917.603	3355
917.715	3450
917.826	3488
917.938	3374
918.049	3287
918.161	3409
918.272	3553
918.384	3591
918.495	3488
918.606	3302
918.717	3272
918.828	3367
918.939	3428
919.05	3302
919.161	3367
919.272	3146
919.383	3291
919.494	3500
919.604	3690
919.715	3511
919.826	3370
919.936	3481
920.047	3633
920.157	3507
920.267	3747
920.378	3568
920.488	3557
920.598	3781
920.708	3937
920.818	3785
920.928	3842
921.038	3968
921.148	4002
921.258	3736
921.368	3622
921.477	3584
921.587	3485
921.697	3443
921.806	3603
921.916	3519
922.025	3409
922.134	3351
922.244	3287
922.353	3412
922.462	3249
922.571	3241
922.68	3093
922.789	3074
922.898	3119
923.007	3081
923.116	3180
923.224	3195
923.333	3157
923.442	3112
923.55	3074
923.659	3142
923.767	3275
923.876	3108
923.984	3245
924.092	3081
924.201	3184
924.309	3203
924.417	3237
924.525	3180
924.633	3199
924.741	3998
924.849	3009
924.956	3241
925.064	3116
925.172	3043
925.279	3112
925.387	3195
925.494	3157
925.602	3397
925.709	3313
925.816	3138
925.924	3310
926.031	3348
926.138	3321
926.245	3340
926.352	3264
926.459	3378
926.566	3500
926.673	3344
926.779	3253
926.886	3268
926.993	3154
927.099	3138
927.206	3077
927.312	3097
927.419	3233
927.525	3230
927.631	3268
927.737	3157
927.843	3108
927.95	3039
928.056	3138
928.162	3188
928.267	3283
928.373	3861
928.479	3317
928.585	3036
928.69	3195
928.796	3260
928.901	3157
929.007	3058
929.112	3195
929.218	3169
929.323	3188
929.428	3161
929.533	3287
929.638	3127
929.743	3154
929.848	3264
929.953	3192
930.058	3142
930.163	3043
930.267	3017
930.372	3154
930.477	3028
930.581	3298
930.685	3142
930.79	3028
930.894	3135
930.998	3058
931.103	3253
931.207	2952
931.311	2937
931.415	2922
931.519	2792
931.623	2823
