Data from test_V78500241_1026.txt Node
Date: Fri Mar 25 16:22:18 CST 2022
User: usil
Spectrometer: V785-0024
Trigger mode: 0
Integration Time (sec): 4.000000E-1
Scans to average: 1
Nonlinearity correction enabled: false
Boxcar width: 0
Storing dark spectrum: false
XAxis mode: Wavelengths
Number of Pixels in Spectrum: 1024
>>>>>Begin Spectral Data<<<<<
801.071	2914
801.214	2922
801.356	2876
801.499	2941
801.641	2864
801.783	2922
801.926	3058
802.068	2956
802.211	3020
802.353	2994
802.496	2944
802.638	3028
802.78	3028
802.923	3062
803.065	2982
803.208	2899
803.35	2922
803.492	2922
803.635	2948
803.777	2788
803.919	2853
804.061	3180
804.204	2944
804.346	2902
804.488	2842
804.63	2948
804.773	2849
804.915	2944
805.057	3093
805.199	2948
805.341	2960
805.483	3024
805.626	3013
805.768	2967
805.91	3077
806.052	3097
806.194	3058
806.336	3195
806.478	3017
806.62	2906
806.762	2948
806.904	3055
807.046	3176
807.188	2990
807.33	2902
807.472	3017
807.614	2880
807.756	2990
807.898	2922
808.04	2880
808.182	2967
808.324	2952
808.465	2887
808.607	2880
808.749	2830
808.891	2853
809.033	2960
809.174	2960
809.316	2887
809.458	2895
809.6	2796
809.741	2781
809.883	2743
810.025	2842
810.166	2868
810.308	2830
810.45	2876
810.591	2785
810.733	2739
810.875	2807
811.016	2769
811.158	2754
811.299	2819
811.441	2925
811.582	2872
811.724	2811
811.865	2853
812.007	2891
812.148	2868
812.29	2857
812.431	2887
812.573	2918
812.714	3009
812.855	3032
812.997	3039
813.138	3123
813.279	2994
813.421	2967
813.562	2952
813.703	2883
813.845	2933
813.986	2788
814.127	2731
814.268	2804
814.41	2823
814.551	2800
814.692	2906
814.833	2842
814.974	2857
815.115	2948
815.256	2868
815.397	2826
815.539	2876
815.68	2766
815.821	2807
815.962	2906
816.103	2910
816.244	2868
816.385	2883
816.526	2937
816.666	2914
816.807	2724
816.948	2910
817.089	2891
817.23	2849
817.371	2792
817.512	2815
817.653	2845
817.793	2819
817.934	2868
818.075	2963
818.216	2986
818.356	2998
818.497	2872
818.638	2788
818.778	2823
818.919	2758
819.06	2769
819.2	2910
819.341	2834
819.481	2804
819.622	2925
819.762	3047
819.903	3074
820.043	2925
820.184	2925
820.324	2933
820.465	3024
820.605	3055
820.746	3017
820.886	2937
821.026	3093
821.167	3173
821.307	3260
821.447	3298
821.588	3241
821.728	3207
821.868	3176
822.008	3100
822.149	3180
822.289	3253
822.429	3077
822.569	3066
822.709	3161
822.849	3013
822.99	3081
823.13	3154
823.27	3214
823.41	3127
823.55	3173
823.69	3119
823.83	3192
823.97	3135
824.11	3001
824.25	3024
824.389	3058
824.529	3131
824.669	3047
824.809	3184
824.949	3279
825.089	3237
825.228	3169
825.368	2975
825.508	2960
825.648	2975
825.787	3005
825.927	3036
826.067	2910
826.206	2948
826.346	3051
826.485	3070
826.625	3100
826.765	3260
826.904	3203
827.044	2971
827.183	2952
827.323	2845
827.462	2975
827.601	2899
827.741	2891
827.88	2979
828.02	2849
828.159	2956
828.298	3028
828.437	3119
828.577	3062
828.716	3241
828.855	3066
828.994	2891
829.134	2899
829.273	2910
829.412	2883
829.551	2868
829.69	2902
829.829	2960
829.968	3119
830.107	3013
830.246	2982
830.385	2899
830.524	2853
830.663	2815
830.802	2716
830.941	2663
831.08	2625
831.219	2735
831.357	2766
831.496	2948
831.635	2712
831.774	2617
831.913	2651
832.051	2541
832.19	2533
832.329	2667
832.467	2556
832.606	2473
832.744	2583
832.883	2575
833.022	2594
833.16	2689
833.299	2689
833.437	2697
833.576	2682
833.714	2705
833.852	2735
833.991	2758
834.129	2804
834.267	2811
834.406	2800
834.544	2857
834.682	2849
834.821	2861
834.959	3062
835.097	2902
835.235	3066
835.373	2963
835.511	3020
835.65	2967
835.788	2922
835.926	2864
836.064	2796
836.202	2853
836.34	3070
836.478	3112
836.615	3032
836.753	3146
836.891	3230
837.029	3138
837.167	3108
837.305	3024
837.443	3001
837.58	2960
837.718	3127
837.856	3036
837.993	3062
838.131	3081
838.269	3104
838.406	3093
838.544	3077
838.681	2967
838.819	2902
838.956	2823
839.094	2811
839.231	2929
839.369	3005
839.506	3355
839.643	3230
839.781	2998
839.918	3005
840.055	3028
840.193	3028
840.33	3077
840.467	3123
840.604	3119
840.742	3409
840.879	3077
841.016	3043
841.153	3097
841.29	3332
841.427	3306
841.564	3249
841.701	3317
841.838	3249
841.975	3169
842.112	3222
842.249	3062
842.385	3055
842.522	3226
842.659	3085
842.796	3039
842.933	3036
843.069	3043
843.206	2990
843.343	3192
843.479	3100
843.616	3119
843.752	2906
843.889	2876
844.025	3089
844.162	2872
844.298	3055
844.435	2986
844.571	2906
844.708	3093
844.844	3176
844.98	3230
845.117	3180
845.253	3070
845.389	3028
845.525	3085
845.661	3097
845.798	3028
845.934	3138
846.07	3055
846.206	3218
846.342	3302
846.478	3237
846.614	3089
846.75	3058
846.886	3001
847.022	3233
847.158	3138
847.294	3211
847.429	3249
847.565	3214
847.701	3496
847.837	2994
847.972	2986
848.108	3173
848.244	3135
848.379	3024
848.515	2941
848.65	2899
848.786	2914
848.921	3017
849.057	3138
849.192	3161
849.328	3089
849.463	3150
849.598	3062
849.734	3024
849.869	2979
850.004	2895
850.14	2925
850.275	2899
850.41	2823
850.545	2887
850.68	2914
850.815	2944
850.95	2971
851.085	3203
851.22	3097
851.355	3017
851.49	2956
851.625	2937
851.76	3017
851.895	2944
852.03	2922
852.165	2994
852.299	3146
852.434	3169
852.569	3154
852.703	3146
852.838	3249
852.973	3336
853.107	3291
853.242	3123
853.376	3100
853.511	2963
853.645	3028
853.78	3180
853.914	3127
854.048	3097
854.183	3077
854.317	3146
854.451	3302
854.585	3135
854.72	3085
854.854	3192
854.988	3017
855.122	3062
855.256	2975
855.39	3100
855.524	3241
855.658	3154
855.792	3146
855.926	3180
856.06	3211
856.194	3233
856.327	3165
856.461	3108
856.595	3074
856.729	3108
856.862	3207
856.996	3157
857.13	3222
857.263	3218
857.397	3294
857.53	3062
857.664	3173
857.797	3256
857.931	3230
858.064	3207
858.197	3230
858.331	3142
858.464	3077
858.597	3009
858.731	3089
858.864	3112
858.997	3104
859.13	3169
859.263	3188
859.396	3192
859.529	3066
859.662	3081
859.795	3024
859.928	3150
860.061	3214
860.194	3287
860.327	3138
860.46	3104
860.592	3233
860.725	3233
860.858	3218
860.99	3074
861.123	3051
861.256	3051
861.388	3180
861.521	3835
861.653	3005
861.786	2982
861.918	3036
862.05	3028
862.183	3074
862.315	3173
862.447	3180
862.58	3077
862.712	2941
862.844	2899
862.976	2967
863.108	3020
863.24	3420
863.372	2876
863.504	2948
863.636	2963
863.768	3039
863.9	2948
864.032	2910
864.164	2952
864.296	3024
864.428	3070
864.559	3100
864.691	3070
864.823	3058
864.954	3055
865.086	3039
865.217	2956
865.349	2941
865.48	2967
865.612	3001
865.743	3157
865.875	2986
866.006	2971
866.137	2960
866.269	2941
866.4	2941
866.531	2895
866.662	2849
866.793	2876
866.924	2880
867.055	2963
867.186	2925
867.317	2849
867.448	2853
867.579	2861
867.71	2861
867.841	2815
867.972	2929
868.103	2868
868.233	2842
868.364	2842
868.495	2895
868.625	3070
868.756	3135
868.886	2975
869.017	2963
869.147	3161
869.278	3161
869.408	3066
869.539	3005
869.669	3119
869.799	3036
869.929	3150
870.06	3135
870.19	3287
870.32	3268
870.45	3279
870.58	3382
870.71	3409
870.84	3431
870.97	3329
871.1	3264
871.23	3458
871.36	3431
871.489	3336
871.619	3397
871.749	3416
871.879	3439
872.008	3496
872.138	3370
872.267	3291
872.397	3135
872.526	3074
872.656	3028
872.785	3093
872.915	3203
873.044	3310
873.173	3222
873.303	3249
873.432	3207
873.561	3230
873.69	3157
873.819	3123
873.948	3192
874.077	3066
874.206	3028
874.335	3093
874.464	3237
874.593	3332
874.722	3226
874.851	3397
874.979	3340
875.108	3302
875.237	3161
875.365	3169
875.494	3173
875.623	3256
875.751	3100
875.88	3104
876.008	3207
876.136	3253
876.265	3374
876.393	3511
876.521	3367
876.65	3401
876.778	3298
876.906	3249
877.034	3157
877.162	3211
877.29	3195
877.418	3275
877.546	3237
877.674	3241
877.802	3241
877.93	3203
878.058	3138
878.185	3093
878.313	3188
878.441	3233
878.568	3074
878.696	3157
878.824	3226
878.951	3287
879.079	3458
879.206	3614
879.333	3454
879.461	3279
879.588	3351
879.715	3481
879.842	3568
879.97	3344
880.097	3173
880.224	3131
880.351	3169
880.478	3203
880.605	3176
880.732	3165
880.859	3435
880.986	3302
881.112	3348
881.239	3222
881.366	3116
881.493	3058
881.619	3062
881.746	3074
881.872	3104
881.999	3085
882.125	3157
882.252	3279
882.378	3279
882.505	3435
882.631	3275
882.757	3138
882.883	3218
883.01	3192
883.136	3131
883.262	3081
883.388	3085
883.514	3340
883.64	3317
883.766	3313
883.892	3154
884.018	3249
884.143	3416
884.269	3507
884.395	3207
884.52	3169
884.646	3165
884.772	3131
884.897	3089
885.023	3241
885.148	3298
885.274	3386
885.399	3336
885.524	3264
885.65	3260
885.775	3310
885.9	3279
886.025	3428
886.15	3351
886.275	3294
886.4	3253
886.525	3264
886.65	3264
886.775	3264
886.9	3473
887.025	3656
887.149	3428
887.274	3222
887.399	3184
887.523	3218
887.648	3184
887.773	3169
887.897	3370
888.021	3401
888.146	3294
888.27	3401
888.395	3519
888.519	3450
888.643	3485
888.767	3473
888.891	3310
889.015	3253
889.139	3279
889.263	3226
889.387	3386
889.511	3492
889.635	3466
889.759	3275
889.883	3294
890.006	3386
890.13	3515
890.254	3260
890.377	3348
890.501	3222
890.624	3195
890.748	3279
890.871	3184
890.995	3119
891.118	3055
891.241	3188
891.364	3188
891.488	3306
891.611	3131
891.734	3222
891.857	3275
891.98	3256
892.103	3340
892.226	3245
892.349	3256
892.471	3142
892.594	3230
892.717	3283
892.839	3260
892.962	3283
893.085	3340
893.207	3313
893.33	3131
893.452	3218
893.575	3310
893.697	3230
893.819	3481
893.941	3523
894.064	3416
894.186	3233
894.308	3245
894.43	3439
894.552	3511
894.674	3462
894.796	3226
894.918	3287
895.04	3298
895.161	3416
895.283	3386
895.405	3325
895.526	3363
895.648	3386
895.769	3439
895.891	3447
896.012	3511
896.134	3458
896.255	3382
896.376	3389
896.498	3340
896.619	3405
896.74	3355
896.861	3401
896.982	3675
897.103	3835
897.224	3606
897.345	3492
897.466	3439
897.587	3515
897.708	3648
897.828	3545
897.949	3435
898.07	3344
898.19	3420
898.311	3622
898.431	3439
898.552	3485
898.672	3564
898.792	3572
898.913	3523
899.033	3401
899.153	3279
899.273	3195
899.393	3287
899.513	3302
899.633	3325
899.753	3313
899.873	3291
899.993	3386
900.113	3359
900.232	3329
900.352	3336
900.472	3287
900.591	3199
900.711	3268
900.83	3241
900.95	3386
901.069	3473
901.189	3329
901.308	3173
901.427	3138
901.546	3222
901.665	3287
901.784	3325
901.904	3211
902.023	3146
902.141	2998
902.26	3001
902.379	3116
902.498	3058
902.617	3051
902.735	3203
902.854	3230
902.973	3195
903.091	3070
903.21	3047
903.328	3173
903.446	3062
903.565	3097
903.683	3211
903.801	3161
903.919	3241
904.038	3256
904.156	3169
904.274	3310
904.392	3237
904.51	3313
904.627	3355
904.745	3431
904.863	3481
904.981	3260
905.098	3207
905.216	3237
905.334	3275
905.451	3317
905.569	3291
905.686	3401
905.803	3435
905.921	3283
906.038	3409
906.155	3332
906.272	3275
906.389	3359
906.506	3218
906.623	3283
906.74	3287
906.857	3165
906.974	3260
907.091	3462
907.208	3534
907.324	3454
907.441	3401
907.557	3199
907.674	3264
907.79	3203
907.907	3260
908.023	3374
908.139	3359
908.256	3306
908.372	3351
908.488	3389
908.604	3294
908.72	3237
908.836	3272
908.952	3325
909.068	3336
909.184	3447
909.3	3378
909.415	3515
909.531	3481
909.647	3298
909.762	3321
909.878	3237
909.993	3351
910.108	3363
910.224	3374
910.339	3386
910.454	3332
910.57	3272
910.685	3260
910.8	3614
910.915	3519
911.03	3447
911.145	3283
911.259	3279
911.374	3321
911.489	3195
911.604	3230
911.718	3135
911.833	3184
911.947	3020
912.062	3005
912.176	3150
912.291	3211
912.405	3199
912.519	3412
912.633	3439
912.748	3336
912.862	3249
912.976	3188
913.09	3062
913.204	3123
913.318	3207
913.431	3355
913.545	3325
913.659	3397
913.772	3298
913.886	3199
914	3218
914.113	3351
914.226	3416
914.34	3336
914.453	3241
914.566	3401
914.68	3241
914.793	3313
914.906	3142
915.019	3112
915.132	3043
915.245	3157
915.358	3184
915.47	3264
915.583	3264
915.696	3283
915.809	3389
915.921	3409
916.034	3237
916.146	3283
916.259	3173
916.371	3370
916.483	3325
916.595	3233
916.708	3317
916.82	3340
916.932	3310
917.044	3359
917.156	3317
917.268	3275
917.38	3313
917.491	3272
917.603	3355
917.715	3431
917.826	3477
917.938	3367
918.049	3325
918.161	3412
918.272	3584
918.384	3538
918.495	3469
918.606	3317
918.717	3298
918.828	3363
918.939	3389
919.05	3268
919.161	3378
919.272	3188
919.383	3253
919.494	3481
919.604	3682
919.715	3500
919.826	3409
919.936	3477
920.047	3572
920.157	3564
920.267	3762
920.378	3641
920.488	3580
920.598	3785
920.708	3960
920.818	3823
920.928	3827
921.038	3991
921.148	4021
921.258	3682
921.368	3610
921.477	3606
921.587	3511
921.697	3473
921.806	3625
921.916	3538
922.025	3363
922.134	3348
922.244	3321
922.353	3412
922.462	3230
922.571	3207
922.68	3093
922.789	3097
922.898	3097
923.007	3039
923.116	3226
923.224	3169
923.333	3192
923.442	3066
923.55	3070
923.659	3165
923.767	3176
923.876	3116
923.984	3214
924.092	3085
924.201	3211
924.309	3211
924.417	3272
924.525	3180
924.633	3272
924.741	4188
924.849	3001
924.956	3272
925.064	3112
925.172	3036
925.279	3108
925.387	3203
925.494	3180
925.602	3340
925.709	3306
925.816	3192
925.924	3272
926.031	3351
926.138	3348
926.245	3378
926.352	3256
926.459	3393
926.566	3477
926.673	3344
926.779	3226
926.886	3249
926.993	3112
927.099	3131
927.206	3108
927.312	3108
927.419	3211
927.525	3203
927.631	3264
927.737	3138
927.843	3138
927.95	3043
928.056	3154
928.162	3157
928.267	3253
928.373	3892
928.479	3313
928.585	3032
928.69	3230
928.796	3237
928.901	3199
929.007	3066
929.112	3211
929.218	3150
929.323	3142
929.428	3104
929.533	3310
929.638	3135
929.743	3157
929.848	3245
929.953	3214
930.058	3180
930.163	3028
930.267	3028
930.372	3184
930.477	3047
930.581	3325
930.685	3180
930.79	3051
930.894	3077
930.998	3104
931.103	3245
931.207	2933
931.311	2975
931.415	2948
931.519	2796
931.623	2792
