Data from test_V78500241_1654.txt Node
Date: Fri Mar 25 16:26:39 CST 2022
User: usil
Spectrometer: V785-0024
Trigger mode: 0
Integration Time (sec): 4.000000E-1
Scans to average: 1
Nonlinearity correction enabled: false
Boxcar width: 0
Storing dark spectrum: false
XAxis mode: Wavelengths
Number of Pixels in Spectrum: 1024
>>>>>Begin Spectral Data<<<<<
801.071	2887
801.214	2925
801.356	2868
801.499	2925
801.641	2857
801.783	2922
801.926	3058
802.068	2971
802.211	2982
802.353	3005
802.496	2979
802.638	3017
802.78	3058
802.923	3062
803.065	2986
803.208	2887
803.35	2891
803.492	2952
803.635	2922
803.777	2754
803.919	2861
804.061	3188
804.204	2956
804.346	2895
804.488	2857
804.63	2998
804.773	2849
804.915	2891
805.057	3058
805.199	2948
805.341	2982
805.483	3036
805.626	3009
805.768	2960
805.91	3077
806.052	3116
806.194	3013
806.336	3199
806.478	3005
806.62	2952
806.762	2929
806.904	3058
807.046	3138
807.188	2960
807.33	2918
807.472	3005
807.614	2906
807.756	2998
807.898	2914
808.04	2880
808.182	2944
808.324	2956
808.465	2895
808.607	2853
808.749	2788
808.891	2819
809.033	2956
809.174	2960
809.316	2891
809.458	2891
809.6	2773
809.741	2815
809.883	2758
810.025	2838
810.166	2868
810.308	2845
810.45	2830
810.591	2766
810.733	2750
810.875	2819
811.016	2720
811.158	2746
811.299	2758
811.441	2941
811.582	2922
811.724	2826
811.865	2819
812.007	2887
812.148	2853
812.29	2830
812.431	2861
812.573	2941
812.714	2982
812.855	3047
812.997	3036
813.138	3119
813.279	3017
813.421	2994
813.562	2952
813.703	2880
813.845	2880
813.986	2758
814.127	2735
814.268	2792
814.41	2853
814.551	2804
814.692	2830
814.833	2819
814.974	2887
815.115	2929
815.256	2845
815.397	2800
815.539	2876
815.68	2769
815.821	2769
815.962	2952
816.103	2914
816.244	2880
816.385	2868
816.526	2967
816.666	2922
816.807	2731
816.948	2918
817.089	2906
817.23	2823
817.371	2788
817.512	2800
817.653	2792
817.793	2819
817.934	2868
818.075	2979
818.216	2967
818.356	3039
818.497	2880
818.638	2792
818.778	2792
818.919	2769
819.06	2788
819.2	2861
819.341	2804
819.481	2807
819.622	2933
819.762	3085
819.903	3043
820.043	2895
820.184	2906
820.324	2887
820.465	3013
820.605	3005
820.746	3017
820.886	2956
821.026	3074
821.167	3161
821.307	3241
821.447	3298
821.588	3230
821.728	3226
821.868	3176
822.008	3074
822.149	3142
822.289	3192
822.429	3085
822.569	3089
822.709	3142
822.849	3047
822.99	3058
823.13	3180
823.27	3195
823.41	3142
823.55	3150
823.69	3161
823.83	3173
823.97	3089
824.11	2952
824.25	2990
824.389	2990
824.529	3074
824.669	3051
824.809	3199
824.949	3253
825.089	3233
825.228	3157
825.368	2963
825.508	2963
825.648	2933
825.787	3017
825.927	2971
826.067	2956
826.206	2952
826.346	3032
826.485	3093
826.625	3051
826.765	3287
826.904	3218
827.044	2971
827.183	2941
827.323	2918
827.462	2963
827.601	2902
827.741	2941
827.88	2922
828.02	2826
828.159	2956
828.298	3032
828.437	3112
828.577	3074
828.716	3207
828.855	3085
828.994	2902
829.134	2902
829.273	2902
829.412	2853
829.551	2899
829.69	2880
829.829	2963
829.968	3097
830.107	3009
830.246	3013
830.385	2925
830.524	2842
830.663	2811
830.802	2716
830.941	2625
831.08	2613
831.219	2743
831.357	2731
831.496	2929
831.635	2701
831.774	2659
831.913	2670
832.051	2530
832.19	2560
832.329	2682
832.467	2526
832.606	2492
832.744	2568
832.883	2606
833.022	2552
833.16	2655
833.299	2667
833.437	2663
833.576	2682
833.714	2754
833.852	2727
833.991	2754
834.129	2823
834.267	2819
834.406	2785
834.544	2845
834.682	2880
834.821	2872
834.959	3043
835.097	2876
835.235	3058
835.373	2982
835.511	2990
835.65	2956
835.788	2963
835.926	2792
836.064	2773
836.202	2834
836.34	3062
836.478	3123
836.615	3039
836.753	3161
836.891	3211
837.029	3146
837.167	3077
837.305	3062
837.443	3036
837.58	2914
837.718	3161
837.856	3032
837.993	2998
838.131	3085
838.269	3127
838.406	3104
838.544	3066
838.681	2929
838.819	2906
838.956	2769
839.094	2845
839.231	2902
839.369	3024
839.506	3397
839.643	3207
839.781	2990
839.918	2937
840.055	3058
840.193	3055
840.33	3058
840.467	3089
840.604	3146
840.742	3393
840.879	3005
841.016	3047
841.153	3127
841.29	3348
841.427	3264
841.564	3306
841.701	3264
841.838	3256
841.975	3176
842.112	3195
842.249	3062
842.385	3028
842.522	3241
842.659	3051
842.796	3062
842.933	3077
843.069	3039
843.206	3051
843.343	3157
843.479	3085
843.616	3119
843.752	2876
843.889	2834
844.025	3066
844.162	2853
844.298	3058
844.435	2963
844.571	2864
844.708	3062
844.844	3176
844.98	3203
845.117	3176
845.253	3051
845.389	3017
845.525	3074
845.661	3089
845.798	2986
845.934	3123
846.07	3047
846.206	3180
846.342	3294
846.478	3203
846.614	3123
846.75	3028
846.886	3009
847.022	3237
847.158	3104
847.294	3165
847.429	3226
847.565	3173
847.701	3500
847.837	3024
847.972	2960
848.108	3161
848.244	3112
848.379	2952
848.515	2929
848.65	2925
848.786	2986
848.921	2986
849.057	3085
849.192	3138
849.328	3047
849.463	3131
849.598	3024
849.734	3036
849.869	2948
850.004	2918
850.14	2944
850.275	2891
850.41	2834
850.545	2872
850.68	2906
850.815	3001
850.95	2956
851.085	3180
851.22	3131
851.355	3009
851.49	2982
851.625	3020
851.76	3009
851.895	2925
852.03	2918
852.165	3024
852.299	3081
852.434	3184
852.569	3131
852.703	3173
852.838	3218
852.973	3313
853.107	3344
853.242	3154
853.376	3066
853.511	2941
853.645	3043
853.78	3237
853.914	3097
854.048	3093
854.183	3081
854.317	3135
854.451	3272
854.585	3123
854.72	3043
854.854	3146
854.988	3017
855.122	3077
855.256	2975
855.39	3100
855.524	3249
855.658	3161
855.792	3138
855.926	3188
856.06	3230
856.194	3237
856.327	3116
856.461	3100
856.595	3039
856.729	3074
856.862	3184
856.996	3188
857.13	3184
857.263	3211
857.397	3287
857.53	3108
857.664	3184
857.797	3218
857.931	3260
858.064	3161
858.197	3211
858.331	3119
858.464	3093
858.597	2971
858.731	3119
858.864	3123
858.997	3055
859.13	3150
859.263	3188
859.396	3192
859.529	3100
859.662	3062
859.795	3017
859.928	3154
860.061	3253
860.194	3272
860.327	3119
860.46	3066
860.592	3195
860.725	3237
860.858	3226
860.99	3097
861.123	3024
861.256	3024
861.388	3131
861.521	3850
861.653	2990
861.786	2982
861.918	3024
862.05	3017
862.183	3097
862.315	3157
862.447	3188
862.58	3074
862.712	2914
862.844	2914
862.976	3043
863.108	2998
863.24	3428
863.372	2864
863.504	2960
863.636	2891
863.768	3036
863.9	2952
864.032	2895
864.164	2956
864.296	3020
864.428	3077
864.559	3081
864.691	3085
864.823	3077
864.954	3013
865.086	3032
865.217	2998
865.349	2952
865.48	2960
865.612	3020
865.743	3146
865.875	2986
866.006	2925
866.137	2960
866.269	2937
866.4	2952
866.531	2922
866.662	2887
866.793	2910
866.924	2891
867.055	2979
867.186	2941
867.317	2883
867.448	2815
867.579	2853
867.71	2845
867.841	2781
867.972	2891
868.103	2918
868.233	2906
868.364	2895
868.495	2883
868.625	3077
868.756	3142
868.886	2975
869.017	3032
869.147	3146
869.278	3150
869.408	3028
869.539	2986
869.669	3081
869.799	3058
869.929	3138
870.06	3116
870.19	3332
870.32	3294
870.45	3291
870.58	3374
870.71	3405
870.84	3458
870.97	3279
871.1	3218
871.23	3485
871.36	3424
871.489	3306
871.619	3389
871.749	3389
871.879	3397
872.008	3466
872.138	3367
872.267	3211
872.397	3108
872.526	3100
872.656	3001
872.785	3097
872.915	3222
873.044	3340
873.173	3222
873.303	3249
873.432	3260
873.561	3268
873.69	3173
873.819	3138
873.948	3188
874.077	3104
874.206	3043
874.335	3089
874.464	3233
874.593	3310
874.722	3199
874.851	3416
874.979	3332
875.108	3302
875.237	3180
875.365	3169
875.494	3180
875.623	3245
875.751	3036
875.88	3104
876.008	3203
876.136	3207
876.265	3344
876.393	3519
876.521	3401
876.65	3397
876.778	3340
876.906	3230
877.034	3176
877.162	3211
877.29	3173
877.418	3279
877.546	3233
877.674	3195
877.802	3214
877.93	3245
878.058	3138
878.185	3119
878.313	3207
878.441	3188
878.568	3097
878.696	3119
878.824	3249
878.951	3329
879.079	3420
879.206	3610
879.333	3424
879.461	3313
879.588	3363
879.715	3492
879.842	3599
879.97	3370
880.097	3138
880.224	3123
880.351	3192
880.478	3203
880.605	3165
880.732	3169
880.859	3450
880.986	3310
881.112	3344
881.239	3176
881.366	3104
881.493	3020
881.619	3024
881.746	3032
881.872	3097
881.999	3081
882.125	3173
882.252	3184
882.378	3272
882.505	3412
882.631	3256
882.757	3135
882.883	3195
883.01	3218
883.136	3192
883.262	3047
883.388	3127
883.514	3294
883.64	3374
883.766	3287
883.892	3195
884.018	3230
884.143	3393
884.269	3507
884.395	3203
884.52	3157
884.646	3154
884.772	3123
884.897	3085
885.023	3188
885.148	3313
885.274	3397
885.399	3344
885.524	3256
885.65	3275
885.775	3298
885.9	3294
886.025	3386
886.15	3329
886.275	3256
886.4	3241
886.525	3291
886.65	3256
886.775	3279
886.9	3469
887.025	3595
887.149	3416
887.274	3222
887.399	3169
887.523	3176
887.648	3165
887.773	3131
887.897	3363
888.021	3389
888.146	3283
888.27	3409
888.395	3507
888.519	3405
888.643	3428
888.767	3443
888.891	3310
889.015	3268
889.139	3302
889.263	3260
889.387	3386
889.511	3515
889.635	3424
889.759	3298
889.883	3275
890.006	3363
890.13	3507
890.254	3264
890.377	3332
890.501	3211
890.624	3188
890.748	3317
890.871	3150
890.995	3066
891.118	3024
891.241	3192
891.364	3233
891.488	3283
891.611	3150
891.734	3226
891.857	3283
891.98	3222
892.103	3340
892.226	3298
892.349	3176
892.471	3127
892.594	3283
892.717	3294
892.839	3241
892.962	3298
893.085	3359
893.207	3291
893.33	3135
893.452	3214
893.575	3351
893.697	3260
893.819	3466
893.941	3477
894.064	3450
894.186	3294
894.308	3279
894.43	3431
894.552	3538
894.674	3500
894.796	3249
894.918	3336
895.04	3283
895.161	3370
895.283	3405
895.405	3325
895.526	3348
895.648	3389
895.769	3420
895.891	3443
896.012	3469
896.134	3469
896.255	3389
896.376	3401
896.498	3374
896.619	3458
896.74	3310
896.861	3389
896.982	3652
897.103	3808
897.224	3561
897.345	3477
897.466	3443
897.587	3454
897.708	3633
897.828	3507
897.949	3428
898.07	3321
898.19	3370
898.311	3568
898.431	3462
898.552	3500
898.672	3568
898.792	3549
898.913	3481
899.033	3405
899.153	3279
899.273	3226
899.393	3302
899.513	3321
899.633	3310
899.753	3325
899.873	3283
899.993	3378
900.113	3317
900.232	3401
900.352	3386
900.472	3272
900.591	3192
900.711	3268
900.83	3268
900.95	3431
901.069	3526
901.189	3321
901.308	3176
901.427	3116
901.546	3188
901.665	3268
901.784	3310
901.904	3207
902.023	3154
902.141	3009
902.26	2933
902.379	3154
902.498	3077
902.617	3047
902.735	3207
902.854	3222
902.973	3157
903.091	3039
903.21	3070
903.328	3116
903.446	3097
903.565	3097
903.683	3222
903.801	3112
903.919	3268
904.038	3279
904.156	3180
904.274	3241
904.392	3214
904.51	3272
904.627	3325
904.745	3412
904.863	3538
904.981	3249
905.098	3169
905.216	3233
905.334	3317
905.451	3321
905.569	3253
905.686	3389
905.803	3397
905.921	3317
906.038	3397
906.155	3336
906.272	3287
906.389	3329
906.506	3249
906.623	3256
906.74	3302
906.857	3131
906.974	3291
907.091	3431
907.208	3561
907.324	3507
907.441	3378
907.557	3226
907.674	3226
907.79	3195
907.907	3233
908.023	3378
908.139	3317
908.256	3298
908.372	3340
908.488	3317
908.604	3256
908.72	3241
908.836	3302
908.952	3287
909.068	3348
909.184	3431
909.3	3374
909.415	3469
909.531	3485
909.647	3268
909.762	3313
909.878	3253
909.993	3340
910.108	3329
910.224	3329
910.339	3409
910.454	3336
910.57	3249
910.685	3203
910.8	3549
910.915	3507
911.03	3462
911.145	3256
911.259	3249
911.374	3321
911.489	3253
911.604	3169
911.718	3112
911.833	3161
911.947	3036
912.062	2998
912.176	3173
912.291	3211
912.405	3203
912.519	3458
912.633	3473
912.748	3325
912.862	3245
912.976	3142
913.09	3097
913.204	3157
913.318	3249
913.431	3340
913.545	3351
913.659	3450
913.772	3382
913.886	3241
914	3203
914.113	3359
914.226	3412
914.34	3397
914.453	3249
914.566	3443
914.68	3332
914.793	3348
914.906	3173
915.019	3154
915.132	3085
915.245	3211
915.358	3249
915.47	3260
915.583	3283
915.696	3310
915.809	3416
915.921	3447
916.034	3245
916.146	3321
916.259	3222
916.371	3431
916.483	3412
916.595	3294
916.708	3355
916.82	3363
916.932	3428
917.044	3405
917.156	3367
917.268	3268
917.38	3310
917.491	3344
917.603	3405
917.715	3485
917.826	3488
917.938	3428
918.049	3310
918.161	3443
918.272	3610
918.384	3576
918.495	3523
918.606	3386
918.717	3348
918.828	3378
918.939	3450
919.05	3382
919.161	3424
919.272	3249
919.383	3317
919.494	3561
919.604	3732
919.715	3504
919.826	3466
919.936	3496
920.047	3587
920.157	3637
920.267	3785
920.378	3671
920.488	3599
920.598	3812
920.708	3972
920.818	3838
920.928	3857
921.038	4021
921.148	3994
921.258	3770
921.368	3682
921.477	3595
921.587	3584
921.697	3477
921.806	3637
921.916	3507
922.025	3378
922.134	3393
922.244	3348
922.353	3454
922.462	3287
922.571	3275
922.68	3150
922.789	3119
922.898	3157
923.007	3161
923.116	3253
923.224	3226
923.333	3226
923.442	3138
923.55	3127
923.659	3169
923.767	3241
923.876	3150
923.984	3279
924.092	3157
924.201	3253
924.309	3253
924.417	3325
924.525	3214
924.633	3256
924.741	4219
924.849	3104
924.956	3226
925.064	3116
925.172	3070
925.279	3154
925.387	3207
925.494	3249
925.602	3378
925.709	3340
925.816	3207
925.924	3317
926.031	3439
926.138	3329
926.245	3397
926.352	3279
926.459	3458
926.566	3500
926.673	3329
926.779	3256
926.886	3264
926.993	3176
927.099	3154
927.206	3146
927.312	3123
927.419	3249
927.525	3214
927.631	3310
927.737	3199
927.843	3161
927.95	3062
928.056	3188
928.162	3218
928.267	3218
928.373	3804
928.479	3325
928.585	3100
928.69	3253
928.796	3310
928.901	3222
929.007	3039
929.112	3256
929.218	3188
929.323	3165
929.428	3154
929.533	3351
929.638	3157
929.743	3195
929.848	3287
929.953	3256
930.058	3165
930.163	3032
930.267	3055
930.372	3230
930.477	3062
930.581	3351
930.685	3192
930.79	3135
930.894	3157
930.998	3112
931.103	3332
931.207	2979
931.311	2952
931.415	2967
931.519	2769
931.623	2880
