Data from test_V78500241_1226.txt Node
Date: Fri Mar 25 16:23:41 CST 2022
User: usil
Spectrometer: V785-0024
Trigger mode: 0
Integration Time (sec): 4.000000E-1
Scans to average: 1
Nonlinearity correction enabled: false
Boxcar width: 0
Storing dark spectrum: false
XAxis mode: Wavelengths
Number of Pixels in Spectrum: 1024
>>>>>Begin Spectral Data<<<<<
801.071	2929
801.214	2960
801.356	2887
801.499	2906
801.641	2883
801.783	2929
801.926	3074
802.068	2998
802.211	2994
802.353	3039
802.496	2967
802.638	3001
802.78	3032
802.923	3077
803.065	2990
803.208	2925
803.35	2944
803.492	2941
803.635	2963
803.777	2758
803.919	2880
804.061	3237
804.204	2948
804.346	2914
804.488	2883
804.63	3020
804.773	2895
804.915	2979
805.057	3093
805.199	2952
805.341	2948
805.483	3005
805.626	3055
805.768	2967
805.91	3085
806.052	3112
806.194	3024
806.336	3241
806.478	3005
806.62	2986
806.762	3001
806.904	3058
807.046	3169
807.188	3001
807.33	2956
807.472	2948
807.614	2956
807.756	3009
807.898	2910
808.04	2891
808.182	2979
808.324	2948
808.465	2899
808.607	2883
808.749	2811
808.891	2883
809.033	2975
809.174	2948
809.316	2933
809.458	2918
809.6	2773
809.741	2804
809.883	2773
810.025	2861
810.166	2853
810.308	2864
810.45	2864
810.591	2807
810.733	2739
810.875	2830
811.016	2826
811.158	2811
811.299	2796
811.441	2941
811.582	2910
811.724	2815
811.865	2823
812.007	2929
812.148	2880
812.29	2872
812.431	2944
812.573	2887
812.714	2979
812.855	3047
812.997	3062
813.138	3150
813.279	2998
813.421	2982
813.562	2941
813.703	2929
813.845	2891
813.986	2769
814.127	2785
814.268	2849
814.41	2849
814.551	2830
814.692	2872
814.833	2815
814.974	2933
815.115	2982
815.256	2830
815.397	2819
815.539	2864
815.68	2826
815.821	2834
815.962	2933
816.103	2967
816.244	2887
816.385	2868
816.526	2994
816.666	2937
816.807	2777
816.948	2853
817.089	2922
817.23	2891
817.371	2785
817.512	2826
817.653	2819
817.793	2864
817.934	2925
818.075	2990
818.216	2975
818.356	2998
818.497	2906
818.638	2796
818.778	2838
818.919	2811
819.06	2766
819.2	2902
819.341	2807
819.481	2823
819.622	2929
819.762	3081
819.903	3077
820.043	2956
820.184	2910
820.324	2895
820.465	3020
820.605	3028
820.746	3032
820.886	2944
821.026	3116
821.167	3154
821.307	3313
821.447	3298
821.588	3310
821.728	3180
821.868	3211
822.008	3070
822.149	3161
822.289	3233
822.429	3116
822.569	3081
822.709	3165
822.849	3032
822.99	3077
823.13	3184
823.27	3207
823.41	3150
823.55	3176
823.69	3165
823.83	3207
823.97	3104
824.11	3043
824.25	2971
824.389	3070
824.529	3127
824.669	3032
824.809	3207
824.949	3249
825.089	3176
825.228	3142
825.368	3039
825.508	2956
825.648	2956
825.787	3005
825.927	3051
826.067	2956
826.206	3017
826.346	3001
826.485	3062
826.625	3112
826.765	3264
826.904	3184
827.044	3024
827.183	2963
827.323	2883
827.462	2994
827.601	2941
827.741	2922
827.88	2979
828.02	2864
828.159	2971
828.298	3047
828.437	3123
828.577	3043
828.716	3249
828.855	3074
828.994	2914
829.134	2887
829.273	2944
829.412	2868
829.551	2857
829.69	2918
829.829	3013
829.968	3108
830.107	3039
830.246	3032
830.385	2960
830.524	2861
830.663	2811
830.802	2701
830.941	2640
831.08	2655
831.219	2743
831.357	2746
831.496	2960
831.635	2674
831.774	2655
831.913	2625
832.051	2564
832.19	2575
832.329	2712
832.467	2533
832.606	2499
832.744	2571
832.883	2583
833.022	2583
833.16	2667
833.299	2697
833.437	2686
833.576	2724
833.714	2705
833.852	2727
833.991	2769
834.129	2838
834.267	2853
834.406	2796
834.544	2815
834.682	2887
834.821	2872
834.959	3093
835.097	2899
835.235	3074
835.373	3017
835.511	3009
835.65	2975
835.788	2967
835.926	2823
836.064	2811
836.202	2849
836.34	3089
836.478	3150
836.615	3077
836.753	3161
836.891	3199
837.029	3138
837.167	3081
837.305	3032
837.443	3066
837.58	2967
837.718	3146
837.856	3085
837.993	3043
838.131	3100
838.269	3123
838.406	3104
838.544	3104
838.681	2944
838.819	2914
838.956	2800
839.094	2842
839.231	2918
839.369	3013
839.506	3393
839.643	3226
839.781	3005
839.918	2944
840.055	3055
840.193	3047
840.33	3081
840.467	3093
840.604	3116
840.742	3412
840.879	3043
841.016	3074
841.153	3161
841.29	3344
841.427	3302
841.564	3272
841.701	3344
841.838	3264
841.975	3176
842.112	3214
842.249	3100
842.385	3032
842.522	3268
842.659	3062
842.796	3051
842.933	3085
843.069	3043
843.206	3043
843.343	3211
843.479	3131
843.616	3123
843.752	2929
843.889	2868
844.025	3077
844.162	2902
844.298	3085
844.435	2941
844.571	2914
844.708	3093
844.844	3180
844.98	3253
845.117	3154
845.253	3020
845.389	3013
845.525	3074
845.661	3070
845.798	3001
845.934	3131
846.07	3070
846.206	3214
846.342	3275
846.478	3230
846.614	3104
846.75	3058
846.886	3032
847.022	3264
847.158	3161
847.294	3230
847.429	3222
847.565	3218
847.701	3473
847.837	3047
847.972	3001
848.108	3176
848.244	3150
848.379	2960
848.515	2948
848.65	2914
848.786	2918
848.921	3036
849.057	3116
849.192	3116
849.328	3097
849.463	3093
849.598	3024
849.734	3017
849.869	2982
850.004	2925
850.14	2982
850.275	2902
850.41	2830
850.545	2868
850.68	2948
850.815	2937
850.95	2990
851.085	3199
851.22	3108
851.355	3001
851.49	3001
851.625	2963
851.76	3024
851.895	2929
852.03	2906
852.165	2979
852.299	3077
852.434	3188
852.569	3146
852.703	3154
852.838	3245
852.973	3329
853.107	3272
853.242	3116
853.376	3085
853.511	2952
853.645	3047
853.78	3218
853.914	3112
854.048	3142
854.183	3127
854.317	3157
854.451	3287
854.585	3135
854.72	3093
854.854	3237
854.988	3066
855.122	3066
855.256	2952
855.39	3127
855.524	3245
855.658	3203
855.792	3131
855.926	3180
856.06	3214
856.194	3188
856.327	3169
856.461	3066
856.595	3058
856.729	3066
856.862	3245
856.996	3146
857.13	3192
857.263	3207
857.397	3256
857.53	3093
857.664	3207
857.797	3207
857.931	3230
858.064	3161
858.197	3195
858.331	3131
858.464	3074
858.597	3005
858.731	3146
858.864	3146
858.997	3100
859.13	3142
859.263	3211
859.396	3207
859.529	3104
859.662	3058
859.795	3066
859.928	3116
860.061	3253
860.194	3291
860.327	3112
860.46	3074
860.592	3211
860.725	3233
860.858	3256
860.99	3077
861.123	3051
861.256	3024
861.388	3157
861.521	3698
861.653	3017
861.786	2979
861.918	2994
862.05	3005
862.183	3081
862.315	3131
862.447	3207
862.58	3100
862.712	2952
862.844	2842
862.976	3047
863.108	3009
863.24	3439
863.372	2857
863.504	2971
863.636	2937
863.768	3020
863.9	2922
864.032	2849
864.164	2933
864.296	3032
864.428	3100
864.559	3100
864.691	3051
864.823	3081
864.954	2990
865.086	3039
865.217	2998
865.349	2952
865.48	2963
865.612	3024
865.743	3142
865.875	2937
866.006	2922
866.137	2963
866.269	2971
866.4	2960
866.531	2895
866.662	2891
866.793	2891
866.924	2868
867.055	2948
867.186	2906
867.317	2914
867.448	2853
867.579	2823
867.71	2853
867.841	2849
867.972	2895
868.103	2876
868.233	2883
868.364	2883
868.495	2899
868.625	3058
868.756	3173
868.886	2937
869.017	3001
869.147	3146
869.278	3169
869.408	3028
869.539	3051
869.669	3097
869.799	3036
869.929	3119
870.06	3066
870.19	3291
870.32	3249
870.45	3268
870.58	3393
870.71	3435
870.84	3428
870.97	3287
871.1	3192
871.23	3477
871.36	3450
871.489	3348
871.619	3409
871.749	3420
871.879	3420
872.008	3481
872.138	3359
872.267	3275
872.397	3112
872.526	3089
872.656	3013
872.785	3093
872.915	3245
873.044	3332
873.173	3241
873.303	3211
873.432	3226
873.561	3237
873.69	3138
873.819	3146
873.948	3188
874.077	3097
874.206	3032
874.335	3074
874.464	3184
874.593	3336
874.722	3237
874.851	3424
874.979	3351
875.108	3321
875.237	3165
875.365	3142
875.494	3195
875.623	3218
875.751	3081
875.88	3097
876.008	3203
876.136	3211
876.265	3351
876.393	3538
876.521	3355
876.65	3401
876.778	3294
876.906	3260
877.034	3199
877.162	3203
877.29	3176
877.418	3253
877.546	3272
877.674	3264
877.802	3264
877.93	3230
878.058	3138
878.185	3089
878.313	3192
878.441	3180
878.568	3039
878.696	3157
878.824	3226
878.951	3310
879.079	3428
879.206	3564
879.333	3409
879.461	3336
879.588	3367
879.715	3492
879.842	3595
879.97	3374
880.097	3161
880.224	3123
880.351	3176
880.478	3199
880.605	3157
880.732	3157
880.859	3450
880.986	3294
881.112	3302
881.239	3203
881.366	3097
881.493	3066
881.619	3032
881.746	3070
881.872	3093
881.999	3108
882.125	3127
882.252	3203
882.378	3283
882.505	3428
882.631	3287
882.757	3116
882.883	3241
883.01	3230
883.136	3165
883.262	3097
883.388	3112
883.514	3321
883.64	3378
883.766	3313
883.892	3192
884.018	3222
884.143	3378
884.269	3507
884.395	3180
884.52	3154
884.646	3176
884.772	3135
884.897	3085
885.023	3211
885.148	3344
885.274	3428
885.399	3336
885.524	3249
885.65	3233
885.775	3310
885.9	3291
886.025	3435
886.15	3363
886.275	3256
886.4	3214
886.525	3321
886.65	3272
886.775	3264
886.9	3500
887.025	3652
887.149	3416
887.274	3256
887.399	3135
887.523	3245
887.648	3154
887.773	3199
887.897	3340
888.021	3393
888.146	3253
888.27	3405
888.395	3526
888.519	3443
888.643	3450
888.767	3439
888.891	3359
889.015	3260
889.139	3233
889.263	3275
889.387	3428
889.511	3469
889.635	3443
889.759	3260
889.883	3283
890.006	3344
890.13	3462
890.254	3264
890.377	3291
890.501	3199
890.624	3157
890.748	3268
890.871	3165
890.995	3089
891.118	3074
891.241	3199
891.364	3203
891.488	3306
891.611	3157
891.734	3264
891.857	3283
891.98	3199
892.103	3313
892.226	3272
892.349	3195
892.471	3154
892.594	3188
892.717	3268
892.839	3241
892.962	3294
893.085	3355
893.207	3233
893.33	3176
893.452	3169
893.575	3317
893.697	3283
893.819	3431
893.941	3492
894.064	3405
894.186	3249
894.308	3233
894.43	3435
894.552	3534
894.674	3431
894.796	3214
894.918	3294
895.04	3283
895.161	3435
895.283	3374
895.405	3275
895.526	3393
895.648	3431
895.769	3401
895.891	3405
896.012	3477
896.134	3458
896.255	3401
896.376	3359
896.498	3329
896.619	3412
896.74	3370
896.861	3382
896.982	3675
897.103	3831
897.224	3576
897.345	3526
897.466	3439
897.587	3466
897.708	3606
897.828	3549
897.949	3435
898.07	3310
898.19	3370
898.311	3595
898.431	3450
898.552	3469
898.672	3595
898.792	3568
898.913	3492
899.033	3431
899.153	3321
899.273	3192
899.393	3321
899.513	3317
899.633	3348
899.753	3287
899.873	3291
899.993	3355
900.113	3348
900.232	3363
900.352	3344
900.472	3291
900.591	3207
900.711	3291
900.83	3226
900.95	3428
901.069	3454
901.189	3359
901.308	3161
901.427	3150
901.546	3195
901.665	3310
901.784	3340
901.904	3180
902.023	3161
902.141	3005
902.26	2982
902.379	3142
902.498	3097
902.617	3032
902.735	3188
902.854	3222
902.973	3135
903.091	3036
903.21	3077
903.328	3161
903.446	3100
903.565	3097
903.683	3176
903.801	3135
903.919	3233
904.038	3291
904.156	3154
904.274	3272
904.392	3253
904.51	3298
904.627	3340
904.745	3462
904.863	3500
904.981	3287
905.098	3169
905.216	3237
905.334	3275
905.451	3317
905.569	3283
905.686	3401
905.803	3447
905.921	3230
906.038	3431
906.155	3325
906.272	3268
906.389	3336
906.506	3241
906.623	3283
906.74	3233
906.857	3199
906.974	3275
907.091	3481
907.208	3553
907.324	3473
907.441	3378
907.557	3214
907.674	3249
907.79	3241
907.907	3249
908.023	3386
908.139	3378
908.256	3344
908.372	3374
908.488	3374
908.604	3230
908.72	3195
908.836	3256
908.952	3298
909.068	3325
909.184	3477
909.3	3386
909.415	3511
909.531	3443
909.647	3264
909.762	3279
909.878	3230
909.993	3325
910.108	3298
910.224	3321
910.339	3397
910.454	3336
910.57	3275
910.685	3188
910.8	3603
910.915	3523
911.03	3431
911.145	3253
911.259	3302
911.374	3332
911.489	3214
911.604	3214
911.718	3127
911.833	3157
911.947	3032
912.062	2975
912.176	3123
912.291	3180
912.405	3253
912.519	3431
912.633	3458
912.748	3321
912.862	3237
912.976	3157
913.09	3036
913.204	3154
913.318	3211
913.431	3351
913.545	3329
913.659	3412
913.772	3279
913.886	3211
914	3169
914.113	3355
914.226	3397
914.34	3321
914.453	3237
914.566	3386
914.68	3283
914.793	3287
914.906	3161
915.019	3085
915.132	3066
915.245	3157
915.358	3176
915.47	3218
915.583	3283
915.696	3313
915.809	3412
915.921	3401
916.034	3237
916.146	3222
916.259	3241
916.371	3389
916.483	3389
916.595	3264
916.708	3351
916.82	3355
916.932	3336
917.044	3363
917.156	3336
917.268	3298
917.38	3279
917.491	3264
917.603	3363
917.715	3431
917.826	3439
917.938	3355
918.049	3275
918.161	3420
918.272	3587
918.384	3568
918.495	3488
918.606	3359
918.717	3268
918.828	3382
918.939	3416
919.05	3325
919.161	3370
919.272	3184
919.383	3260
919.494	3492
919.604	3686
919.715	3500
919.826	3424
919.936	3473
920.047	3576
920.157	3564
920.267	3762
920.378	3595
920.488	3610
920.598	3762
920.708	3953
920.818	3800
920.928	3842
921.038	4006
921.148	4010
921.258	3720
921.368	3663
921.477	3591
921.587	3538
921.697	3431
921.806	3584
921.916	3488
922.025	3332
922.134	3378
922.244	3313
922.353	3431
922.462	3241
922.571	3249
922.68	3104
922.789	3070
922.898	3131
923.007	3077
923.116	3226
923.224	3165
923.333	3222
923.442	3093
923.55	3089
923.659	3138
923.767	3203
923.876	3165
923.984	3230
924.092	3112
924.201	3195
924.309	3211
924.417	3233
924.525	3195
924.633	3233
924.741	3987
924.849	3017
924.956	3233
925.064	3077
925.172	3028
925.279	3104
925.387	3211
925.494	3169
925.602	3291
925.709	3313
925.816	3169
925.924	3291
926.031	3370
926.138	3329
926.245	3340
926.352	3253
926.459	3428
926.566	3443
926.673	3317
926.779	3222
926.886	3222
926.993	3135
927.099	3135
927.206	3119
927.312	3100
927.419	3245
927.525	3184
927.631	3230
927.737	3161
927.843	3112
927.95	3009
928.056	3146
928.162	3184
928.267	3260
928.373	3835
928.479	3340
928.585	3062
928.69	3195
928.796	3264
928.901	3131
929.007	3036
929.112	3192
929.218	3199
929.323	3108
929.428	3127
929.533	3310
929.638	3104
929.743	3165
929.848	3245
929.953	3207
930.058	3142
930.163	3013
930.267	3043
930.372	3188
930.477	3032
930.581	3317
930.685	3211
930.79	3036
930.894	3108
930.998	3081
931.103	3268
931.207	2948
931.311	2963
931.415	2925
931.519	2781
931.623	2800
