Data from test_V78500241_1037.txt Node
Date: Fri Mar 25 16:22:23 CST 2022
User: usil
Spectrometer: V785-0024
Trigger mode: 0
Integration Time (sec): 4.000000E-1
Scans to average: 1
Nonlinearity correction enabled: false
Boxcar width: 0
Storing dark spectrum: false
XAxis mode: Wavelengths
Number of Pixels in Spectrum: 1024
>>>>>Begin Spectral Data<<<<<
801.071	2883
801.214	2925
801.356	2842
801.499	2925
801.641	2849
801.783	2899
801.926	3055
802.068	3005
802.211	2982
802.353	2971
802.496	2975
802.638	2979
802.78	2986
802.923	3081
803.065	2986
803.208	2891
803.35	2880
803.492	2914
803.635	2937
803.777	2758
803.919	2842
804.061	3173
804.204	2941
804.346	2883
804.488	2838
804.63	2971
804.773	2876
804.915	2872
805.057	3074
805.199	2899
805.341	2960
805.483	3009
805.626	3028
805.768	2982
805.91	3043
806.052	3100
806.194	3013
806.336	3233
806.478	3043
806.62	2952
806.762	2975
806.904	3032
807.046	3154
807.188	2982
807.33	2899
807.472	2963
807.614	2857
807.756	2986
807.898	2922
808.04	2914
808.182	2990
808.324	2944
808.465	2887
808.607	2891
808.749	2766
808.891	2845
809.033	2933
809.174	2998
809.316	2857
809.458	2849
809.6	2762
809.741	2750
809.883	2792
810.025	2826
810.166	2857
810.308	2861
810.45	2857
810.591	2769
810.733	2735
810.875	2845
811.016	2750
811.158	2750
811.299	2796
811.441	2902
811.582	2876
811.724	2815
811.865	2800
812.007	2880
812.148	2857
812.29	2857
812.431	2883
812.573	2914
812.714	2941
812.855	3024
812.997	3032
813.138	3100
813.279	3032
813.421	2948
813.562	2956
813.703	2857
813.845	2842
813.986	2762
814.127	2746
814.268	2807
814.41	2834
814.551	2811
814.692	2861
814.833	2823
814.974	2902
815.115	2967
815.256	2807
815.397	2819
815.539	2849
815.68	2788
815.821	2811
815.962	2941
816.103	2906
816.244	2853
816.385	2868
816.526	2979
816.666	2914
816.807	2769
816.948	2891
817.089	2876
817.23	2861
817.371	2746
817.512	2773
817.653	2826
817.793	2800
817.934	2857
818.075	2941
818.216	2971
818.356	3047
818.497	2883
818.638	2758
818.778	2796
818.919	2796
819.06	2769
819.2	2849
819.341	2792
819.481	2804
819.622	2922
819.762	3055
819.903	3047
820.043	2895
820.184	2861
820.324	2876
820.465	3009
820.605	2967
820.746	3028
820.886	2922
821.026	3089
821.167	3131
821.307	3233
821.447	3298
821.588	3260
821.728	3173
821.868	3203
822.008	3074
822.149	3192
822.289	3245
822.429	3051
822.569	3100
822.709	3161
822.849	3001
822.99	3062
823.13	3169
823.27	3188
823.41	3081
823.55	3112
823.69	3131
823.83	3157
823.97	3070
824.11	3024
824.25	2982
824.389	3051
824.529	3066
824.669	3024
824.809	3188
824.949	3241
825.089	3192
825.228	3154
825.368	2971
825.508	2925
825.648	2937
825.787	2979
825.927	2998
826.067	2960
826.206	2967
826.346	3009
826.485	3051
826.625	3085
826.765	3222
826.904	3241
827.044	2990
827.183	2937
827.323	2819
827.462	2975
827.601	2902
827.741	2918
827.88	2910
828.02	2838
828.159	3001
828.298	3017
828.437	3066
828.577	3051
828.716	3226
828.855	3039
828.994	2895
829.134	2864
829.273	2922
829.412	2857
829.551	2880
829.69	2880
829.829	2982
829.968	3135
830.107	3009
830.246	3020
830.385	2895
830.524	2914
830.663	2853
830.802	2754
830.941	2648
831.08	2629
831.219	2785
831.357	2777
831.496	2956
831.635	2773
831.774	2651
831.913	2689
832.051	2564
832.19	2602
832.329	2697
832.467	2564
832.606	2541
832.744	2602
832.883	2640
833.022	2606
833.16	2674
833.299	2724
833.437	2735
833.576	2754
833.714	2750
833.852	2777
833.991	2781
834.129	2872
834.267	2853
834.406	2811
834.544	2902
834.682	2929
834.821	2887
834.959	3104
835.097	2948
835.235	3047
835.373	3032
835.511	3055
835.65	2956
835.788	2975
835.926	2876
836.064	2834
836.202	2910
836.34	3127
836.478	3180
836.615	3097
836.753	3195
836.891	3245
837.029	3165
837.167	3150
837.305	3108
837.443	3070
837.58	3017
837.718	3165
837.856	3108
837.993	3055
838.131	3184
838.269	3173
838.406	3131
838.544	3135
838.681	2956
838.819	2971
838.956	2876
839.094	2883
839.231	2941
839.369	3104
839.506	3374
839.643	3272
839.781	3047
839.918	3013
840.055	3077
840.193	3104
840.33	3077
840.467	3150
840.604	3165
840.742	3443
840.879	3108
841.016	3081
841.153	3119
841.29	3374
841.427	3336
841.564	3275
841.701	3298
841.838	3264
841.975	3211
842.112	3226
842.249	3127
842.385	3062
842.522	3294
842.659	3119
842.796	3081
842.933	3138
843.069	3081
843.206	3074
843.343	3230
843.479	3150
843.616	3195
843.752	2948
843.889	2887
844.025	3081
844.162	2895
844.298	3100
844.435	3005
844.571	2944
844.708	3135
844.844	3192
844.98	3279
845.117	3211
845.253	3089
845.389	3032
845.525	3116
845.661	3127
845.798	3047
845.934	3138
846.07	3085
846.206	3256
846.342	3370
846.478	3237
846.614	3116
846.75	3089
846.886	3074
847.022	3291
847.158	3169
847.294	3226
847.429	3253
847.565	3268
847.701	3511
847.837	3043
847.972	3032
848.108	3203
848.244	3218
848.379	3020
848.515	2963
848.65	2967
848.786	2994
848.921	3062
849.057	3104
849.192	3150
849.328	3127
849.463	3142
849.598	3112
849.734	3074
849.869	3020
850.004	2941
850.14	2990
850.275	2910
850.41	2845
850.545	2910
850.68	2967
850.815	2979
850.95	3024
851.085	3203
851.22	3146
851.355	3058
851.49	2990
851.625	3051
851.76	3043
851.895	2952
852.03	2925
852.165	3070
852.299	3116
852.434	3218
852.569	3184
852.703	3222
852.838	3264
852.973	3367
853.107	3351
853.242	3211
853.376	3112
853.511	3036
853.645	3055
853.78	3256
853.914	3150
854.048	3161
854.183	3058
854.317	3180
854.451	3310
854.585	3165
854.72	3131
854.854	3245
854.988	3093
855.122	3085
855.256	3028
855.39	3127
855.524	3291
855.658	3207
855.792	3184
855.926	3237
856.06	3260
856.194	3291
856.327	3195
856.461	3093
856.595	3146
856.729	3138
856.862	3283
856.996	3184
857.13	3195
857.263	3264
857.397	3275
857.53	3150
857.664	3237
857.797	3222
857.931	3294
858.064	3184
858.197	3272
858.331	3154
858.464	3138
858.597	3028
858.731	3176
858.864	3142
858.997	3100
859.13	3180
859.263	3195
859.396	3218
859.529	3119
859.662	3093
859.795	3104
859.928	3165
860.061	3310
860.194	3340
860.327	3157
860.46	3119
860.592	3272
860.725	3214
860.858	3287
860.99	3131
861.123	3104
861.256	3062
861.388	3135
861.521	3873
861.653	3039
861.786	3001
861.918	3047
862.05	3135
862.183	3116
862.315	3169
862.447	3214
862.58	3085
862.712	2963
862.844	2876
862.976	3043
863.108	3058
863.24	3454
863.372	2902
863.504	2998
863.636	3001
863.768	3089
863.9	3017
864.032	2948
864.164	2956
864.296	3051
864.428	3100
864.559	3104
864.691	3070
864.823	3108
864.954	3047
865.086	3070
865.217	3013
865.349	2971
865.48	2994
865.612	3047
865.743	3176
865.875	3009
866.006	2979
866.137	2994
866.269	3005
866.4	2960
866.531	2967
866.662	2914
866.793	2941
866.924	2944
867.055	2956
867.186	2952
867.317	2899
867.448	2895
867.579	2887
867.71	2906
867.841	2834
867.972	2933
868.103	2922
868.233	2899
868.364	2918
868.495	2918
868.625	3119
868.756	3169
868.886	2948
869.017	3028
869.147	3180
869.278	3165
869.408	3089
869.539	3055
869.669	3123
869.799	3047
869.929	3146
870.06	3142
870.19	3329
870.32	3325
870.45	3291
870.58	3409
870.71	3454
870.84	3397
870.97	3332
871.1	3241
871.23	3515
871.36	3450
871.489	3355
871.619	3435
871.749	3424
871.879	3447
872.008	3507
872.138	3367
872.267	3245
872.397	3123
872.526	3131
872.656	3047
872.785	3157
872.915	3268
873.044	3310
873.173	3279
873.303	3214
873.432	3226
873.561	3264
873.69	3180
873.819	3146
873.948	3218
874.077	3131
874.206	3058
874.335	3093
874.464	3218
874.593	3325
874.722	3222
874.851	3397
874.979	3420
875.108	3370
875.237	3195
875.365	3207
875.494	3199
875.623	3279
875.751	3104
875.88	3119
876.008	3199
876.136	3207
876.265	3397
876.393	3515
876.521	3466
876.65	3416
876.778	3378
876.906	3249
877.034	3253
877.162	3222
877.29	3188
877.418	3283
877.546	3275
877.674	3298
877.802	3275
877.93	3249
878.058	3176
878.185	3127
878.313	3218
878.441	3233
878.568	3070
878.696	3146
878.824	3249
878.951	3294
879.079	3447
879.206	3648
879.333	3511
879.461	3325
879.588	3378
879.715	3469
879.842	3603
879.97	3431
880.097	3173
880.224	3119
880.351	3211
880.478	3256
880.605	3218
880.732	3203
880.859	3534
880.986	3336
881.112	3321
881.239	3237
881.366	3100
881.493	3047
881.619	3039
881.746	3116
881.872	3123
881.999	3154
882.125	3192
882.252	3226
882.378	3283
882.505	3477
882.631	3321
882.757	3176
882.883	3237
883.01	3218
883.136	3184
883.262	3085
883.388	3138
883.514	3336
883.64	3367
883.766	3325
883.892	3207
884.018	3268
884.143	3447
884.269	3534
884.395	3195
884.52	3157
884.646	3222
884.772	3108
884.897	3089
885.023	3237
885.148	3351
885.274	3416
885.399	3340
885.524	3260
885.65	3237
885.775	3344
885.9	3264
886.025	3462
886.15	3374
886.275	3344
886.4	3203
886.525	3332
886.65	3306
886.775	3310
886.9	3530
887.025	3652
887.149	3416
887.274	3264
887.399	3211
887.523	3211
887.648	3199
887.773	3226
887.897	3401
888.021	3416
888.146	3310
888.27	3439
888.395	3519
888.519	3420
888.643	3466
888.767	3477
888.891	3348
889.015	3253
889.139	3310
889.263	3253
889.387	3401
889.511	3507
889.635	3454
889.759	3298
889.883	3332
890.006	3409
890.13	3485
890.254	3279
890.377	3329
890.501	3195
890.624	3218
890.748	3336
890.871	3161
890.995	3085
891.118	3085
891.241	3199
891.364	3214
891.488	3310
891.611	3211
891.734	3241
891.857	3317
891.98	3249
892.103	3340
892.226	3317
892.349	3203
892.471	3135
892.594	3211
892.717	3336
892.839	3275
892.962	3325
893.085	3363
893.207	3294
893.33	3157
893.452	3264
893.575	3367
893.697	3287
893.819	3504
893.941	3515
894.064	3458
894.186	3283
894.308	3260
894.43	3477
894.552	3564
894.674	3545
894.796	3291
894.918	3310
895.04	3325
895.161	3412
895.283	3412
895.405	3329
895.526	3374
895.648	3507
895.769	3439
895.891	3462
896.012	3530
896.134	3488
896.255	3435
896.376	3370
896.498	3397
896.619	3447
896.74	3386
896.861	3393
896.982	3694
897.103	3854
897.224	3591
897.345	3492
897.466	3424
897.587	3462
897.708	3641
897.828	3587
897.949	3435
898.07	3370
898.19	3397
898.311	3603
898.431	3485
898.552	3515
898.672	3599
898.792	3584
898.913	3545
899.033	3420
899.153	3351
899.273	3264
899.393	3329
899.513	3355
899.633	3325
899.753	3374
899.873	3348
899.993	3336
900.113	3332
900.232	3386
900.352	3370
900.472	3302
900.591	3157
900.711	3298
900.83	3249
900.95	3393
901.069	3488
901.189	3378
901.308	3211
901.427	3116
901.546	3184
901.665	3313
901.784	3351
901.904	3226
902.023	3157
902.141	3013
902.26	3024
902.379	3142
902.498	3100
902.617	3058
902.735	3230
902.854	3260
902.973	3199
903.091	3066
903.21	3112
903.328	3150
903.446	3127
903.565	3116
903.683	3195
903.801	3161
903.919	3256
904.038	3287
904.156	3188
904.274	3233
904.392	3272
904.51	3302
904.627	3344
904.745	3481
904.863	3473
904.981	3306
905.098	3169
905.216	3230
905.334	3340
905.451	3283
905.569	3298
905.686	3443
905.803	3454
905.921	3298
906.038	3466
906.155	3344
906.272	3287
906.389	3332
906.506	3268
906.623	3256
906.74	3279
906.857	3199
906.974	3253
907.091	3473
907.208	3603
907.324	3485
907.441	3412
907.557	3245
907.674	3218
907.79	3214
907.907	3302
908.023	3424
908.139	3374
908.256	3317
908.372	3374
908.488	3363
908.604	3256
908.72	3222
908.836	3283
908.952	3287
909.068	3332
909.184	3469
909.3	3409
909.415	3473
909.531	3466
909.647	3268
909.762	3298
909.878	3268
909.993	3405
910.108	3336
910.224	3348
910.339	3412
910.454	3325
910.57	3264
910.685	3237
910.8	3614
910.915	3519
911.03	3431
911.145	3249
911.259	3260
911.374	3294
911.489	3275
911.604	3268
911.718	3112
911.833	3180
911.947	3055
912.062	3013
912.176	3157
912.291	3207
912.405	3211
912.519	3412
912.633	3485
912.748	3313
912.862	3306
912.976	3150
913.09	3085
913.204	3142
913.318	3199
913.431	3401
913.545	3348
913.659	3416
913.772	3298
913.886	3218
914	3188
914.113	3386
914.226	3367
914.34	3359
914.453	3214
914.566	3424
914.68	3306
914.793	3321
914.906	3157
915.019	3131
915.132	3077
915.245	3146
915.358	3230
915.47	3264
915.583	3268
915.696	3329
915.809	3409
915.921	3397
916.034	3283
916.146	3294
916.259	3230
916.371	3424
916.483	3386
916.595	3241
916.708	3367
916.82	3340
916.932	3367
917.044	3329
917.156	3389
917.268	3264
917.38	3325
917.491	3298
917.603	3412
917.715	3481
917.826	3488
917.938	3348
918.049	3317
918.161	3443
918.272	3534
918.384	3587
918.495	3496
918.606	3355
918.717	3302
918.828	3367
918.939	3431
919.05	3313
919.161	3367
919.272	3165
919.383	3329
919.494	3492
919.604	3717
919.715	3492
919.826	3409
919.936	3469
920.047	3584
920.157	3511
920.267	3762
920.378	3629
920.488	3561
920.598	3778
920.708	3956
920.818	3812
920.928	3804
921.038	4040
921.148	3983
921.258	3679
921.368	3625
921.477	3595
921.587	3534
921.697	3462
921.806	3641
921.916	3523
922.025	3359
922.134	3370
922.244	3321
922.353	3473
922.462	3245
922.571	3199
922.68	3104
922.789	3070
922.898	3150
923.007	3104
923.116	3218
923.224	3207
923.333	3180
923.442	3074
923.55	3089
923.659	3192
923.767	3192
923.876	3097
923.984	3222
924.092	3131
924.201	3203
924.309	3233
924.417	3253
924.525	3192
924.633	3207
924.741	4147
924.849	3043
924.956	3241
925.064	3119
925.172	3039
925.279	3085
925.387	3176
925.494	3192
925.602	3401
925.709	3325
925.816	3192
925.924	3283
926.031	3397
926.138	3310
926.245	3348
926.352	3256
926.459	3450
926.566	3458
926.673	3340
926.779	3256
926.886	3291
926.993	3146
927.099	3116
927.206	3104
927.312	3070
927.419	3207
927.525	3211
927.631	3272
927.737	3116
927.843	3146
927.95	3017
928.056	3157
928.162	3154
928.267	3272
928.373	3884
928.479	3325
928.585	3085
928.69	3226
928.796	3291
928.901	3150
929.007	3062
929.112	3218
929.218	3188
929.323	3165
929.428	3169
929.533	3321
929.638	3100
929.743	3173
929.848	3256
929.953	3249
930.058	3135
930.163	2979
930.267	3039
930.372	3176
930.477	3032
930.581	3344
930.685	3176
930.79	3066
930.894	3154
930.998	3100
931.103	3275
931.207	2971
931.311	2979
931.415	2929
931.519	2769
931.623	2815
