Data from test_V78500241_7.txt Node
Date: Fri Mar 25 16:15:15 CST 2022
User: usil
Spectrometer: V785-0024
Trigger mode: 0
Integration Time (sec): 4.000000E-1
Scans to average: 1
Nonlinearity correction enabled: false
Boxcar width: 0
Storing dark spectrum: false
XAxis mode: Wavelengths
Number of Pixels in Spectrum: 1024
>>>>>Begin Spectral Data<<<<<
801.071	2937
801.214	2975
801.356	2899
801.499	2944
801.641	2918
801.783	2914
801.926	3074
802.068	3051
802.211	3070
802.353	3081
802.496	3043
802.638	3047
802.78	3135
802.923	3131
803.065	3039
803.208	2925
803.35	2975
803.492	2971
803.635	2960
803.777	2819
803.919	2880
804.061	3241
804.204	2986
804.346	2963
804.488	2891
804.63	3005
804.773	2941
804.915	2963
805.057	3131
805.199	2975
805.341	3024
805.483	3070
805.626	3055
805.768	2998
805.91	3154
806.052	3157
806.194	3066
806.336	3294
806.478	3066
806.62	2963
806.762	3028
806.904	3100
807.046	3230
807.188	3066
807.33	2925
807.472	3047
807.614	2941
807.756	3039
807.898	2960
808.04	2963
808.182	3009
808.324	3043
808.465	2925
808.607	2925
808.749	2864
808.891	2880
809.033	3055
809.174	3024
809.316	2933
809.458	2941
809.6	2830
809.741	2800
809.883	2807
810.025	2883
810.166	2948
810.308	2887
810.45	2887
810.591	2834
810.733	2826
810.875	2891
811.016	2819
811.158	2781
811.299	2819
811.441	2975
811.582	2929
811.724	2883
811.865	2891
812.007	2941
812.148	2910
812.29	2857
812.431	2922
812.573	2986
812.714	2990
812.855	3093
812.997	3135
813.138	3138
813.279	3058
813.421	3051
813.562	3005
813.703	2899
813.845	2944
813.986	2811
814.127	2762
814.268	2861
814.41	2887
814.551	2864
814.692	2925
814.833	2880
814.974	2944
815.115	2994
815.256	2902
815.397	2887
815.539	2929
815.68	2815
815.821	2834
815.962	2994
816.103	2982
816.244	2895
816.385	2944
816.526	3017
816.666	2967
816.807	2769
816.948	2922
817.089	2895
817.23	2933
817.371	2815
817.512	2880
817.653	2895
817.793	2895
817.934	2906
818.075	3039
818.216	3032
818.356	3032
818.497	2922
818.638	2849
818.778	2902
818.919	2849
819.06	2811
819.2	2891
819.341	2845
819.481	2853
819.622	2979
819.762	3131
819.903	3127
820.043	3009
820.184	2963
820.324	2956
820.465	3089
820.605	3066
820.746	3074
820.886	3005
821.026	3142
821.167	3253
821.307	3313
821.447	3325
821.588	3275
821.728	3275
821.868	3233
822.008	3161
822.149	3268
822.289	3291
822.429	3146
822.569	3131
822.709	3253
822.849	3085
822.99	3108
823.13	3222
823.27	3268
823.41	3218
823.55	3184
823.69	3176
823.83	3237
823.97	3150
824.11	3036
824.25	3081
824.389	3135
824.529	3154
824.669	3157
824.809	3222
824.949	3329
825.089	3275
825.228	3207
825.368	3051
825.508	3009
825.648	3028
825.787	3066
825.927	3074
826.067	2971
826.206	3001
826.346	3055
826.485	3089
826.625	3180
826.765	3351
826.904	3272
827.044	2998
827.183	2982
827.323	2933
827.462	3055
827.601	2975
827.741	2982
827.88	3013
828.02	2914
828.159	3043
828.298	3104
828.437	3173
828.577	3100
828.716	3237
828.855	3123
828.994	2967
829.134	2933
829.273	2998
829.412	2925
829.551	2906
829.69	2941
829.829	3047
829.968	3188
830.107	3074
830.246	3062
830.385	2895
830.524	2933
830.663	2872
830.802	2773
830.941	2686
831.08	2689
831.219	2842
831.357	2785
831.496	2998
831.635	2739
831.774	2705
831.913	2735
832.051	2590
832.19	2594
832.329	2705
832.467	2590
832.606	2552
832.744	2621
832.883	2617
833.022	2648
833.16	2708
833.299	2727
833.437	2731
833.576	2754
833.714	2720
833.852	2796
833.991	2807
834.129	2849
834.267	2864
834.406	2834
834.544	2960
834.682	2922
834.821	2880
834.959	3119
835.097	2933
835.235	3127
835.373	3036
835.511	3062
835.65	3039
835.788	2982
835.926	2864
836.064	2861
836.202	2918
836.34	3154
836.478	3184
836.615	3085
836.753	3161
836.891	3249
837.029	3195
837.167	3104
837.305	3123
837.443	3070
837.58	2994
837.718	3180
837.856	3112
837.993	3077
838.131	3154
838.269	3142
838.406	3146
838.544	3062
838.681	2990
838.819	2971
838.956	2853
839.094	2891
839.231	2952
839.369	3028
839.506	3389
839.643	3268
839.781	3062
839.918	3005
840.055	3077
840.193	3081
840.33	3104
840.467	3157
840.604	3214
840.742	3435
840.879	3146
841.016	3112
841.153	3154
841.29	3393
841.427	3336
841.564	3294
841.701	3336
841.838	3249
841.975	3184
842.112	3253
842.249	3131
842.385	3104
842.522	3275
842.659	3131
842.796	3119
842.933	3154
843.069	3077
843.206	3097
843.343	3222
843.479	3119
843.616	3203
843.752	2937
843.889	2906
844.025	3097
844.162	2902
844.298	3081
844.435	2998
844.571	2967
844.708	3138
844.844	3245
844.98	3313
845.117	3203
845.253	3116
845.389	3058
845.525	3165
845.661	3138
845.798	3066
845.934	3135
846.07	3081
846.206	3260
846.342	3359
846.478	3306
846.614	3154
846.75	3116
846.886	3070
847.022	3268
847.158	3169
847.294	3245
847.429	3275
847.565	3260
847.701	3591
847.837	3112
847.972	3058
848.108	3211
848.244	3207
848.379	3032
848.515	3005
848.65	2994
848.786	3013
848.921	3043
849.057	3142
849.192	3176
849.328	3123
849.463	3154
849.598	3058
849.734	3089
849.869	3024
850.004	2963
850.14	2986
850.275	2941
850.41	2883
850.545	2910
850.68	2990
850.815	3017
850.95	3005
851.085	3272
851.22	3138
851.355	3089
851.49	3051
851.625	3043
851.76	3066
851.895	2998
852.03	2963
852.165	3108
852.299	3180
852.434	3233
852.569	3173
852.703	3245
852.838	3298
852.973	3405
853.107	3370
853.242	3230
853.376	3127
853.511	2998
853.645	3066
853.78	3279
853.914	3176
854.048	3127
854.183	3123
854.317	3233
854.451	3386
854.585	3199
854.72	3154
854.854	3245
854.988	3089
855.122	3154
855.256	3066
855.39	3157
855.524	3256
855.658	3253
855.792	3180
855.926	3256
856.06	3245
856.194	3313
856.327	3192
856.461	3108
856.595	3123
856.729	3123
856.862	3260
856.996	3211
857.13	3260
857.263	3279
857.397	3317
857.53	3157
857.664	3268
857.797	3313
857.931	3310
858.064	3226
858.197	3283
858.331	3176
858.464	3131
858.597	3070
858.731	3154
858.864	3184
858.997	3112
859.13	3161
859.263	3283
859.396	3237
859.529	3154
859.662	3100
859.795	3074
859.928	3188
860.061	3325
860.194	3355
860.327	3173
860.46	3123
860.592	3279
860.725	3275
860.858	3306
860.99	3146
861.123	3081
861.256	3112
861.388	3180
861.521	3762
861.653	3077
861.786	3036
861.918	3047
862.05	3127
862.183	3135
862.315	3192
862.447	3260
862.58	3146
862.712	2929
862.844	2899
862.976	3066
863.108	3081
863.24	3469
863.372	2922
863.504	3001
863.636	2967
863.768	3066
863.9	2994
864.032	2937
864.164	2986
864.296	3017
864.428	3135
864.559	3127
864.691	3138
864.823	3089
864.954	3100
865.086	3116
865.217	3039
865.349	3001
865.48	3070
865.612	3085
865.743	3165
865.875	3047
866.006	2994
866.137	3055
866.269	3020
866.4	2971
866.531	2979
866.662	2952
866.793	2948
866.924	2956
867.055	3039
867.186	3005
867.317	2948
867.448	2899
867.579	2914
867.71	2918
867.841	2880
867.972	2990
868.103	2944
868.233	2948
868.364	2956
868.495	2963
868.625	3157
868.756	3249
868.886	3070
869.017	3097
869.147	3298
869.278	3249
869.408	3116
869.539	3104
869.669	3154
869.799	3119
869.929	3218
870.06	3169
870.19	3428
870.32	3382
870.45	3386
870.58	3462
870.71	3549
870.84	3553
870.97	3393
871.1	3313
871.23	3542
871.36	3549
871.489	3382
871.619	3538
871.749	3500
871.879	3511
872.008	3595
872.138	3469
872.267	3401
872.397	3241
872.526	3161
872.656	3077
872.785	3211
872.915	3370
873.044	3389
873.173	3310
873.303	3359
873.432	3302
873.561	3313
873.69	3260
873.819	3230
873.948	3287
874.077	3195
874.206	3150
874.335	3195
874.464	3336
874.593	3466
874.722	3374
874.851	3500
874.979	3428
875.108	3401
875.237	3275
875.365	3249
875.494	3249
875.623	3344
875.751	3184
875.88	3173
876.008	3253
876.136	3363
876.265	3492
876.393	3610
876.521	3488
876.65	3492
876.778	3428
876.906	3367
877.034	3268
877.162	3332
877.29	3253
877.418	3336
877.546	3367
877.674	3321
877.802	3317
877.93	3348
878.058	3241
878.185	3218
878.313	3298
878.441	3283
878.568	3169
878.696	3241
878.824	3340
878.951	3431
879.079	3568
879.206	3713
879.333	3534
879.461	3416
879.588	3450
879.715	3606
879.842	3675
879.97	3504
880.097	3245
880.224	3150
880.351	3264
880.478	3317
880.605	3279
880.732	3230
880.859	3557
880.986	3405
881.112	3454
881.239	3283
881.366	3199
881.493	3100
881.619	3138
881.746	3138
881.872	3176
881.999	3176
882.125	3256
882.252	3374
882.378	3363
882.505	3568
882.631	3344
882.757	3195
882.883	3325
883.01	3313
883.136	3260
883.262	3176
883.388	3176
883.514	3420
883.64	3435
883.766	3355
883.892	3264
884.018	3298
884.143	3504
884.269	3641
884.395	3344
884.52	3249
884.646	3256
884.772	3268
884.897	3203
885.023	3310
885.148	3428
885.274	3492
885.399	3473
885.524	3363
885.65	3344
885.775	3393
885.9	3378
886.025	3504
886.15	3485
886.275	3401
886.4	3321
886.525	3412
886.65	3351
886.775	3359
886.9	3549
887.025	3701
887.149	3473
887.274	3317
887.399	3249
887.523	3310
887.648	3272
887.773	3291
887.897	3443
888.021	3507
888.146	3401
888.27	3523
888.395	3641
888.519	3545
888.643	3534
888.767	3481
888.891	3393
889.015	3310
889.139	3386
889.263	3302
889.387	3500
889.511	3633
889.635	3545
889.759	3363
889.883	3378
890.006	3477
890.13	3595
890.254	3355
890.377	3454
890.501	3287
890.624	3313
890.748	3378
890.871	3306
890.995	3173
891.118	3176
891.241	3279
891.364	3291
891.488	3424
891.611	3268
891.734	3313
891.857	3389
891.98	3291
892.103	3447
892.226	3386
892.349	3294
892.471	3218
892.594	3344
892.717	3397
892.839	3344
892.962	3351
893.085	3477
893.207	3367
893.33	3173
893.452	3279
893.575	3431
893.697	3340
893.819	3561
893.941	3595
894.064	3534
894.186	3332
894.308	3329
894.43	3549
894.552	3629
894.674	3584
894.796	3374
894.918	3405
895.04	3382
895.161	3519
895.283	3473
895.405	3382
895.526	3447
895.648	3534
895.769	3477
895.891	3561
896.012	3530
896.134	3561
896.255	3515
896.376	3477
896.498	3447
896.619	3519
896.74	3515
896.861	3466
896.982	3778
897.103	3953
897.224	3709
897.345	3614
897.466	3549
897.587	3595
897.708	3736
897.828	3682
897.949	3587
898.07	3409
898.19	3485
898.311	3724
898.431	3561
898.552	3614
898.672	3732
898.792	3675
898.913	3606
899.033	3511
899.153	3359
899.273	3310
899.393	3351
899.513	3443
899.633	3412
899.753	3435
899.873	3359
899.993	3496
900.113	3420
900.232	3458
900.352	3409
900.472	3378
900.591	3279
900.711	3386
900.83	3325
900.95	3485
901.069	3633
901.189	3466
901.308	3256
901.427	3192
901.546	3272
901.665	3401
901.784	3393
901.904	3264
902.023	3256
902.141	3100
902.26	3051
902.379	3188
902.498	3207
902.617	3127
902.735	3283
902.854	3306
902.973	3268
903.091	3127
903.21	3131
903.328	3207
903.446	3184
903.565	3207
903.683	3291
903.801	3195
903.919	3298
904.038	3374
904.156	3241
904.274	3389
904.392	3321
904.51	3382
904.627	3397
904.745	3485
904.863	3622
904.981	3302
905.098	3264
905.216	3302
905.334	3386
905.451	3370
905.569	3428
905.686	3481
905.803	3511
905.921	3382
906.038	3523
906.155	3458
906.272	3351
906.389	3389
906.506	3329
906.623	3332
906.74	3336
906.857	3279
906.974	3317
907.091	3561
907.208	3648
907.324	3557
907.441	3458
907.557	3313
907.674	3325
907.79	3313
907.907	3370
908.023	3420
908.139	3466
908.256	3389
908.372	3469
908.488	3450
908.604	3363
908.72	3329
908.836	3363
908.952	3363
909.068	3439
909.184	3549
909.3	3496
909.415	3622
909.531	3564
909.647	3329
909.762	3344
909.878	3329
909.993	3401
910.108	3428
910.224	3405
910.339	3466
910.454	3435
910.57	3378
910.685	3355
910.8	3686
910.915	3622
911.03	3530
911.145	3317
911.259	3359
911.374	3378
911.489	3336
911.604	3336
911.718	3180
911.833	3214
911.947	3097
912.062	3081
912.176	3226
912.291	3245
912.405	3291
912.519	3530
912.633	3584
912.748	3412
912.862	3378
912.976	3272
913.09	3150
913.204	3207
913.318	3332
913.431	3420
913.545	3435
913.659	3500
913.772	3412
913.886	3275
914	3283
914.113	3409
914.226	3450
914.34	3462
914.453	3336
914.566	3526
914.68	3416
914.793	3386
914.906	3222
915.019	3195
915.132	3142
915.245	3283
915.358	3298
915.47	3283
915.583	3325
915.696	3393
915.809	3485
915.921	3504
916.034	3317
916.146	3340
916.259	3302
916.371	3466
916.483	3409
916.595	3332
916.708	3416
916.82	3435
916.932	3431
917.044	3424
917.156	3439
917.268	3370
917.38	3397
917.491	3386
917.603	3458
917.715	3515
917.826	3530
917.938	3416
918.049	3332
918.161	3496
918.272	3667
918.384	3663
918.495	3549
918.606	3420
918.717	3363
918.828	3443
918.939	3496
919.05	3367
919.161	3481
919.272	3230
919.383	3332
919.494	3599
919.604	3747
919.715	3538
919.826	3462
919.936	3542
920.047	3701
920.157	3614
920.267	3876
920.378	3686
920.488	3660
920.598	3880
920.708	4044
920.818	3907
920.928	3922
921.038	4128
921.148	4105
921.258	3755
921.368	3740
921.477	3652
921.587	3599
921.697	3545
921.806	3694
921.916	3599
922.025	3450
922.134	3435
922.244	3367
922.353	3488
922.462	3374
922.571	3313
922.68	3207
922.789	3154
922.898	3188
923.007	3165
923.116	3268
923.224	3241
923.333	3222
923.442	3169
923.55	3173
923.659	3230
923.767	3256
923.876	3203
923.984	3332
924.092	3192
924.201	3253
924.309	3306
924.417	3317
924.525	3294
924.633	3306
924.741	4268
924.849	3077
924.956	3370
925.064	3165
925.172	3119
925.279	3169
925.387	3272
925.494	3260
925.602	3424
925.709	3412
925.816	3249
925.924	3370
926.031	3443
926.138	3409
926.245	3420
926.352	3317
926.459	3504
926.566	3530
926.673	3416
926.779	3344
926.886	3332
926.993	3180
927.099	3226
927.206	3173
927.312	3173
927.419	3336
927.525	3264
927.631	3344
927.737	3241
927.843	3173
927.95	3100
928.056	3214
928.162	3264
928.267	3336
928.373	3861
928.479	3374
928.585	3119
928.69	3272
928.796	3306
928.901	3199
929.007	3138
929.112	3249
929.218	3245
929.323	3245
929.428	3230
929.533	3355
929.638	3176
929.743	3253
929.848	3340
929.953	3249
930.058	3230
930.163	3039
930.267	3127
930.372	3233
930.477	3119
930.581	3412
930.685	3237
930.79	3097
930.894	3199
930.998	3150
931.103	3340
931.207	3005
931.311	3001
931.415	2982
931.519	2792
931.623	2880
