Data from test_V78500241_950.txt Node
Date: Fri Mar 25 16:21:47 CST 2022
User: usil
Spectrometer: V785-0024
Trigger mode: 0
Integration Time (sec): 4.000000E-1
Scans to average: 1
Nonlinearity correction enabled: false
Boxcar width: 0
Storing dark spectrum: false
XAxis mode: Wavelengths
Number of Pixels in Spectrum: 1024
>>>>>Begin Spectral Data<<<<<
801.071	2963
801.214	2971
801.356	2891
801.499	2910
801.641	2883
801.783	2952
801.926	3066
802.068	2998
802.211	2979
802.353	3055
802.496	2975
802.638	3051
802.78	3070
802.923	3100
803.065	2998
803.208	2906
803.35	2918
803.492	2944
803.635	2941
803.777	2792
803.919	2883
804.061	3195
804.204	2967
804.346	2922
804.488	2876
804.63	3005
804.773	2880
804.915	2914
805.057	3089
805.199	2952
805.341	2986
805.483	3070
805.626	3032
805.768	2967
805.91	3085
806.052	3127
806.194	3039
806.336	3249
806.478	3043
806.62	2986
806.762	3005
806.904	3085
807.046	3154
807.188	2990
807.33	2880
807.472	2982
807.614	2910
807.756	2982
807.898	2952
808.04	2922
808.182	2994
808.324	2960
808.465	2922
808.607	2902
808.749	2815
808.891	2826
809.033	2967
809.174	2979
809.316	2887
809.458	2914
809.6	2800
809.741	2792
809.883	2804
810.025	2842
810.166	2830
810.308	2853
810.45	2853
810.591	2807
810.733	2777
810.875	2857
811.016	2792
811.158	2762
811.299	2823
811.441	2918
811.582	2891
811.724	2838
811.865	2849
812.007	2906
812.148	2895
812.29	2849
812.431	2914
812.573	2929
812.714	3001
812.855	3066
812.997	3020
813.138	3112
813.279	3005
813.421	2944
813.562	2952
813.703	2868
813.845	2883
813.986	2754
814.127	2750
814.268	2800
814.41	2853
814.551	2842
814.692	2895
814.833	2826
814.974	2918
815.115	2979
815.256	2838
815.397	2800
815.539	2880
815.68	2773
815.821	2807
815.962	2967
816.103	2944
816.244	2891
816.385	2872
816.526	2986
816.666	2937
816.807	2750
816.948	2887
817.089	2937
817.23	2842
817.371	2781
817.512	2800
817.653	2842
817.793	2838
817.934	2906
818.075	2979
818.216	2994
818.356	3028
818.497	2906
818.638	2777
818.778	2826
818.919	2811
819.06	2781
819.2	2914
819.341	2823
819.481	2804
819.622	2944
819.762	3104
819.903	3032
820.043	2902
820.184	2902
820.324	2937
820.465	3028
820.605	3001
820.746	3032
820.886	2929
821.026	3100
821.167	3169
821.307	3268
821.447	3275
821.588	3260
821.728	3218
821.868	3188
822.008	3093
822.149	3207
822.289	3302
822.429	3123
822.569	3104
822.709	3154
822.849	3028
822.99	3043
823.13	3161
823.27	3222
823.41	3085
823.55	3142
823.69	3180
823.83	3195
823.97	3097
824.11	3024
824.25	3001
824.389	3062
824.529	3100
824.669	3081
824.809	3203
824.949	3256
825.089	3207
825.228	3184
825.368	3036
825.508	2975
825.648	2971
825.787	3009
825.927	3043
826.067	2941
826.206	2948
826.346	3017
826.485	3077
826.625	3108
826.765	3283
826.904	3207
827.044	2979
827.183	2960
827.323	2902
827.462	2937
827.601	2922
827.741	2956
827.88	2971
828.02	2857
828.159	2986
828.298	3020
828.437	3123
828.577	3077
828.716	3237
828.855	3070
828.994	2952
829.134	2922
829.273	2960
829.412	2876
829.551	2861
829.69	2910
829.829	2990
829.968	3119
830.107	3001
830.246	3043
830.385	2937
830.524	2887
830.663	2819
830.802	2735
830.941	2651
831.08	2629
831.219	2735
831.357	2811
831.496	2937
831.635	2750
831.774	2667
831.913	2659
832.051	2564
832.19	2598
832.329	2686
832.467	2526
832.606	2537
832.744	2606
832.883	2579
833.022	2571
833.16	2667
833.299	2712
833.437	2735
833.576	2735
833.714	2746
833.852	2735
833.991	2777
834.129	2804
834.267	2830
834.406	2785
834.544	2887
834.682	2842
834.821	2891
834.959	3085
835.097	2933
835.235	3123
835.373	3009
835.511	3036
835.65	2982
835.788	2952
835.926	2811
836.064	2853
836.202	2872
836.34	3077
836.478	3135
836.615	3062
836.753	3150
836.891	3237
837.029	3169
837.167	3127
837.305	3058
837.443	3020
837.58	2979
837.718	3119
837.856	3089
837.993	3032
838.131	3123
838.269	3104
838.406	3093
838.544	3039
838.681	2952
838.819	2929
838.956	2796
839.094	2830
839.231	2941
839.369	3009
839.506	3329
839.643	3241
839.781	2994
839.918	2963
840.055	3070
840.193	3020
840.33	3093
840.467	3135
840.604	3142
840.742	3382
840.879	3062
841.016	3051
841.153	3150
841.29	3336
841.427	3272
841.564	3253
841.701	3279
841.838	3241
841.975	3192
842.112	3230
842.249	3036
842.385	3036
842.522	3260
842.659	3074
842.796	3062
842.933	3081
843.069	3051
843.206	3047
843.343	3154
843.479	3138
843.616	3165
843.752	2853
843.889	2864
844.025	3127
844.162	2842
844.298	3131
844.435	2979
844.571	2922
844.708	3039
844.844	3135
844.98	3291
845.117	3146
845.253	3036
845.389	3020
845.525	3093
845.661	3123
845.798	3036
845.934	3123
846.07	3085
846.206	3211
846.342	3306
846.478	3222
846.614	3077
846.75	3062
846.886	3055
847.022	3230
847.158	3188
847.294	3195
847.429	3260
847.565	3184
847.701	3462
847.837	3043
847.972	3013
848.108	3154
848.244	3131
848.379	2986
848.515	2960
848.65	2922
848.786	2994
848.921	3028
849.057	3051
849.192	3131
849.328	3104
849.463	3119
849.598	3066
849.734	3032
849.869	2971
850.004	2914
850.14	2967
850.275	2906
850.41	2845
850.545	2880
850.68	2922
850.815	2960
850.95	2960
851.085	3154
851.22	3100
851.355	3017
851.49	3013
851.625	2994
851.76	3043
851.895	2929
852.03	2906
852.165	3032
852.299	3135
852.434	3142
852.569	3104
852.703	3203
852.838	3298
852.973	3340
853.107	3325
853.242	3165
853.376	3055
853.511	2975
853.645	3051
853.78	3214
853.914	3123
854.048	3089
854.183	3093
854.317	3157
854.451	3272
854.585	3131
854.72	3104
854.854	3192
854.988	3070
855.122	3077
855.256	3005
855.39	3089
855.524	3226
855.658	3169
855.792	3188
855.926	3184
856.06	3192
856.194	3237
856.327	3138
856.461	3097
856.595	3081
856.729	3066
856.862	3203
856.996	3180
857.13	3157
857.263	3222
857.397	3272
857.53	3127
857.664	3214
857.797	3226
857.931	3233
858.064	3157
858.197	3214
858.331	3150
858.464	3077
858.597	3001
858.731	3081
858.864	3116
858.997	3077
859.13	3146
859.263	3150
859.396	3226
859.529	3077
859.662	3043
859.795	3028
859.928	3146
860.061	3294
860.194	3287
860.327	3127
860.46	3062
860.592	3249
860.725	3260
860.858	3260
860.99	3047
861.123	3085
861.256	3055
861.388	3161
861.521	3793
861.653	2990
861.786	2952
861.918	2975
862.05	3093
862.183	3097
862.315	3112
862.447	3165
862.58	3089
862.712	2971
862.844	2861
862.976	3017
863.108	3017
863.24	3454
863.372	2883
863.504	2975
863.636	2941
863.768	2998
863.9	2986
864.032	2929
864.164	2944
864.296	3013
864.428	3108
864.559	3108
864.691	3036
864.823	3081
864.954	2990
865.086	3051
865.217	2986
865.349	2948
865.48	3028
865.612	3009
865.743	3135
865.875	2963
866.006	2941
866.137	3001
866.269	2960
866.4	2925
866.531	2895
866.662	2857
866.793	2902
866.924	2864
867.055	2971
867.186	2918
867.317	2914
867.448	2819
867.579	2838
867.71	2845
867.841	2777
867.972	2944
868.103	2891
868.233	2883
868.364	2906
868.495	2864
868.625	3051
868.756	3184
868.886	2948
869.017	3024
869.147	3188
869.278	3150
869.408	3032
869.539	2971
869.669	3074
869.799	3032
869.929	3131
870.06	3135
870.19	3325
870.32	3260
870.45	3325
870.58	3351
870.71	3397
870.84	3435
870.97	3275
871.1	3249
871.23	3458
871.36	3469
871.489	3340
871.619	3374
871.749	3397
871.879	3405
872.008	3492
872.138	3348
872.267	3268
872.397	3154
872.526	3116
872.656	3001
872.785	3093
872.915	3233
873.044	3313
873.173	3253
873.303	3249
873.432	3253
873.561	3253
873.69	3119
873.819	3135
873.948	3188
874.077	3066
874.206	3017
874.335	3074
874.464	3203
874.593	3370
874.722	3230
874.851	3351
874.979	3325
875.108	3313
875.237	3173
875.365	3176
875.494	3154
875.623	3245
875.751	3058
875.88	3089
876.008	3214
876.136	3222
876.265	3317
876.393	3526
876.521	3443
876.65	3389
876.778	3363
876.906	3203
877.034	3188
877.162	3195
877.29	3203
877.418	3218
877.546	3253
877.674	3249
877.802	3253
877.93	3237
878.058	3123
878.185	3089
878.313	3230
878.441	3199
878.568	3047
878.696	3127
878.824	3275
878.951	3298
879.079	3447
879.206	3622
879.333	3481
879.461	3348
879.588	3359
879.715	3500
879.842	3618
879.97	3386
880.097	3180
880.224	3077
880.351	3218
880.478	3218
880.605	3207
880.732	3192
880.859	3454
880.986	3306
881.112	3313
881.239	3146
881.366	3089
881.493	3055
881.619	3055
881.746	3066
881.872	3089
881.999	3097
882.125	3154
882.252	3222
882.378	3306
882.505	3389
882.631	3260
882.757	3127
882.883	3214
883.01	3211
883.136	3157
883.262	3112
883.388	3097
883.514	3370
883.64	3370
883.766	3275
883.892	3173
884.018	3195
884.143	3409
884.269	3523
884.395	3203
884.52	3150
884.646	3184
884.772	3119
884.897	3070
885.023	3195
885.148	3313
885.274	3401
885.399	3363
885.524	3294
885.65	3287
885.775	3313
885.9	3264
886.025	3428
886.15	3382
886.275	3329
886.4	3211
886.525	3283
886.65	3275
886.775	3268
886.9	3507
887.025	3633
887.149	3386
887.274	3264
887.399	3195
887.523	3214
887.648	3207
887.773	3188
887.897	3351
888.021	3389
888.146	3298
888.27	3386
888.395	3553
888.519	3447
888.643	3450
888.767	3428
888.891	3298
889.015	3237
889.139	3329
889.263	3230
889.387	3374
889.511	3511
889.635	3435
889.759	3310
889.883	3275
890.006	3329
890.13	3473
890.254	3291
890.377	3332
890.501	3195
890.624	3116
890.748	3310
890.871	3165
890.995	3089
891.118	3066
891.241	3180
891.364	3256
891.488	3317
891.611	3157
891.734	3188
891.857	3294
891.98	3222
892.103	3355
892.226	3272
892.349	3226
892.471	3104
892.594	3214
892.717	3275
892.839	3237
892.962	3283
893.085	3340
893.207	3275
893.33	3131
893.452	3195
893.575	3332
893.697	3249
893.819	3473
893.941	3519
894.064	3450
894.186	3256
894.308	3275
894.43	3428
894.552	3523
894.674	3439
894.796	3306
894.918	3313
895.04	3268
895.161	3439
895.283	3370
895.405	3306
895.526	3351
895.648	3420
895.769	3393
895.891	3447
896.012	3454
896.134	3481
896.255	3439
896.376	3405
896.498	3329
896.619	3435
896.74	3359
896.861	3401
896.982	3652
897.103	3827
897.224	3599
897.345	3477
897.466	3386
897.587	3492
897.708	3606
897.828	3561
897.949	3477
898.07	3348
898.19	3435
898.311	3568
898.431	3428
898.552	3485
898.672	3633
898.792	3572
898.913	3538
899.033	3378
899.153	3260
899.273	3245
899.393	3291
899.513	3291
899.633	3306
899.753	3306
899.873	3306
899.993	3420
900.113	3306
900.232	3363
900.352	3374
900.472	3317
900.591	3192
900.711	3302
900.83	3218
900.95	3405
901.069	3515
901.189	3329
901.308	3180
901.427	3150
901.546	3161
901.665	3253
901.784	3302
901.904	3230
902.023	3165
902.141	2998
902.26	2971
902.379	3154
902.498	3066
902.617	3081
902.735	3195
902.854	3211
902.973	3195
903.091	3020
903.21	3013
903.328	3116
903.446	3135
903.565	3089
903.683	3195
903.801	3173
903.919	3226
904.038	3253
904.156	3123
904.274	3306
904.392	3241
904.51	3253
904.627	3340
904.745	3416
904.863	3485
904.981	3226
905.098	3150
905.216	3253
905.334	3313
905.451	3291
905.569	3294
905.686	3416
905.803	3454
905.921	3329
906.038	3401
906.155	3359
906.272	3264
906.389	3355
906.506	3218
906.623	3260
906.74	3272
906.857	3207
906.974	3253
907.091	3450
907.208	3538
907.324	3469
907.441	3397
907.557	3245
907.674	3298
907.79	3199
907.907	3287
908.023	3397
908.139	3367
908.256	3378
908.372	3370
908.488	3363
908.604	3275
908.72	3241
908.836	3253
908.952	3294
909.068	3348
909.184	3473
909.3	3382
909.415	3504
909.531	3458
909.647	3275
909.762	3275
909.878	3233
909.993	3348
910.108	3310
910.224	3340
910.339	3443
910.454	3310
910.57	3291
910.685	3203
910.8	3572
910.915	3549
911.03	3401
911.145	3226
911.259	3260
911.374	3329
911.489	3214
911.604	3233
911.718	3097
911.833	3154
911.947	3062
912.062	2963
912.176	3146
912.291	3218
912.405	3226
912.519	3428
912.633	3488
912.748	3287
912.862	3279
912.976	3188
913.09	3077
913.204	3108
913.318	3218
913.431	3332
913.545	3363
913.659	3412
913.772	3325
913.886	3233
914	3165
914.113	3340
914.226	3393
914.34	3367
914.453	3199
914.566	3409
914.68	3256
914.793	3340
914.906	3123
915.019	3116
915.132	3074
915.245	3180
915.358	3207
915.47	3222
915.583	3222
915.696	3321
915.809	3382
915.921	3389
916.034	3264
916.146	3222
916.259	3211
916.371	3359
916.483	3332
916.595	3241
916.708	3325
916.82	3336
916.932	3298
917.044	3340
917.156	3348
917.268	3237
917.38	3275
917.491	3272
917.603	3370
917.715	3428
917.826	3462
917.938	3370
918.049	3279
918.161	3416
918.272	3603
918.384	3545
918.495	3488
918.606	3336
918.717	3291
918.828	3363
918.939	3420
919.05	3294
919.161	3348
919.272	3218
919.383	3279
919.494	3458
919.604	3713
919.715	3488
919.826	3367
919.936	3469
920.047	3553
920.157	3545
920.267	3732
920.378	3587
920.488	3557
920.598	3819
920.708	3945
920.818	3838
920.928	3838
921.038	4032
921.148	3956
921.258	3679
921.368	3641
921.477	3599
921.587	3572
921.697	3485
921.806	3603
921.916	3500
922.025	3332
922.134	3355
922.244	3279
922.353	3409
922.462	3302
922.571	3207
922.68	3112
922.789	3043
922.898	3150
923.007	3066
923.116	3211
923.224	3176
923.333	3184
923.442	3135
923.55	3051
923.659	3142
923.767	3245
923.876	3127
923.984	3199
924.092	3089
924.201	3222
924.309	3203
924.417	3264
924.525	3173
924.633	3214
924.741	4185
924.849	3074
924.956	3287
925.064	3100
925.172	3043
925.279	3089
925.387	3188
925.494	3226
925.602	3378
925.709	3336
925.816	3165
925.924	3310
926.031	3405
926.138	3363
926.245	3359
926.352	3218
926.459	3420
926.566	3477
926.673	3321
926.779	3226
926.886	3233
926.993	3161
927.099	3119
927.206	3089
927.312	3131
927.419	3218
927.525	3214
927.631	3260
927.737	3100
927.843	3131
927.95	3017
928.056	3142
928.162	3157
928.267	3211
928.373	3903
928.479	3321
928.585	3043
928.69	3237
928.796	3306
928.901	3184
929.007	3020
929.112	3211
929.218	3211
929.323	3127
929.428	3161
929.533	3321
929.638	3119
929.743	3173
929.848	3237
929.953	3195
930.058	3127
930.163	2979
930.267	3055
930.372	3195
930.477	3047
930.581	3340
930.685	3157
930.79	3051
930.894	3135
930.998	3062
931.103	3272
931.207	2941
931.311	2933
931.415	2895
931.519	2773
931.623	2819
