Data from test_V78500241_907.txt Node
Date: Fri Mar 25 16:21:29 CST 2022
User: usil
Spectrometer: V785-0024
Trigger mode: 0
Integration Time (sec): 4.000000E-1
Scans to average: 1
Nonlinearity correction enabled: false
Boxcar width: 0
Storing dark spectrum: false
XAxis mode: Wavelengths
Number of Pixels in Spectrum: 1024
>>>>>Begin Spectral Data<<<<<
801.071	2887
801.214	2937
801.356	2899
801.499	2906
801.641	2883
801.783	2944
801.926	3024
802.068	2994
802.211	3028
802.353	3028
802.496	2933
802.638	3028
802.78	3001
802.923	3085
803.065	2975
803.208	2933
803.35	2895
803.492	2963
803.635	2971
803.777	2781
803.919	2880
804.061	3245
804.204	2979
804.346	2918
804.488	2895
804.63	3020
804.773	2891
804.915	2941
805.057	3066
805.199	2963
805.341	2986
805.483	3077
805.626	3020
805.768	2967
805.91	3093
806.052	3089
806.194	3024
806.336	3272
806.478	3039
806.62	2998
806.762	2979
806.904	3062
807.046	3180
807.188	2967
807.33	2922
807.472	3020
807.614	2918
807.756	2956
807.898	2914
808.04	2895
808.182	3024
808.324	2982
808.465	2891
808.607	2891
808.749	2807
808.891	2883
809.033	3005
809.174	2963
809.316	2906
809.458	2868
809.6	2788
809.741	2743
809.883	2754
810.025	2880
810.166	2845
810.308	2842
810.45	2864
810.591	2769
810.733	2826
810.875	2807
811.016	2807
811.158	2777
811.299	2823
811.441	2914
811.582	2910
811.724	2804
811.865	2830
812.007	2899
812.148	2906
812.29	2811
812.431	2914
812.573	2937
812.714	2986
812.855	3062
812.997	3081
813.138	3108
813.279	3024
813.421	2967
813.562	2967
813.703	2887
813.845	2868
813.986	2766
814.127	2727
814.268	2830
814.41	2815
814.551	2804
814.692	2895
814.833	2834
814.974	2876
815.115	2971
815.256	2796
815.397	2823
815.539	2891
815.68	2785
815.821	2796
815.962	2956
816.103	2910
816.244	2834
816.385	2887
816.526	2967
816.666	2918
816.807	2724
816.948	2887
817.089	2918
817.23	2849
817.371	2785
817.512	2792
817.653	2849
817.793	2807
817.934	2899
818.075	2971
818.216	2998
818.356	3043
818.497	2857
818.638	2796
818.778	2815
818.919	2781
819.06	2785
819.2	2864
819.341	2830
819.481	2792
819.622	2925
819.762	3127
819.903	3047
820.043	2929
820.184	2956
820.324	2910
820.465	3032
820.605	3028
820.746	3043
820.886	2960
821.026	3123
821.167	3180
821.307	3272
821.447	3287
821.588	3264
821.728	3226
821.868	3264
822.008	3119
822.149	3199
822.289	3264
822.429	3127
822.569	3066
822.709	3207
822.849	3077
822.99	3138
823.13	3192
823.27	3233
823.41	3165
823.55	3207
823.69	3180
823.83	3222
823.97	3157
824.11	3058
824.25	3089
824.389	3123
824.529	3161
824.669	3146
824.809	3222
824.949	3302
825.089	3310
825.228	3226
825.368	3043
825.508	2986
825.648	3013
825.787	3081
825.927	3032
826.067	3024
826.206	3028
826.346	3070
826.485	3127
826.625	3146
826.765	3310
826.904	3218
827.044	3093
827.183	2975
827.323	2918
827.462	2998
827.601	2975
827.741	2994
827.88	3005
828.02	2895
828.159	3017
828.298	3074
828.437	3146
828.577	3089
828.716	3272
828.855	3131
828.994	2971
829.134	2876
829.273	2971
829.412	2906
829.551	2895
829.69	2941
829.829	2990
829.968	3154
830.107	3051
830.246	3074
830.385	2948
830.524	2922
830.663	2838
830.802	2758
830.941	2705
831.08	2648
831.219	2823
831.357	2788
831.496	2994
831.635	2762
831.774	2667
831.913	2731
832.051	2598
832.19	2640
832.329	2697
832.467	2533
832.606	2518
832.744	2617
832.883	2613
833.022	2617
833.16	2667
833.299	2697
833.437	2724
833.576	2705
833.714	2735
833.852	2769
833.991	2796
834.129	2868
834.267	2845
834.406	2838
834.544	2910
834.682	2906
834.821	2944
834.959	3085
835.097	2941
835.235	3089
835.373	3001
835.511	3051
835.65	3009
835.788	2998
835.926	2864
836.064	2849
836.202	2910
836.34	3108
836.478	3211
836.615	3062
836.753	3169
836.891	3260
837.029	3207
837.167	3142
837.305	3112
837.443	3081
837.58	3013
837.718	3135
837.856	3097
837.993	3055
838.131	3150
838.269	3161
838.406	3131
838.544	3123
838.681	2956
838.819	2910
838.956	2819
839.094	2853
839.231	2918
839.369	3047
839.506	3435
839.643	3218
839.781	3039
839.918	2971
840.055	3093
840.193	3051
840.33	3085
840.467	3127
840.604	3203
840.742	3458
840.879	3093
841.016	3119
841.153	3165
841.29	3340
841.427	3306
841.564	3275
841.701	3325
841.838	3249
841.975	3203
842.112	3237
842.249	3119
842.385	3074
842.522	3260
842.659	3112
842.796	3108
842.933	3150
843.069	3085
843.206	3047
843.343	3180
843.479	3165
843.616	3188
843.752	2914
843.889	2880
844.025	3135
844.162	2906
844.298	3119
844.435	2994
844.571	2941
844.708	3081
844.844	3241
844.98	3256
845.117	3192
845.253	3108
845.389	3017
845.525	3119
845.661	3097
845.798	3024
845.934	3123
846.07	3081
846.206	3241
846.342	3325
846.478	3230
846.614	3100
846.75	3089
846.886	3051
847.022	3272
847.158	3176
847.294	3195
847.429	3264
847.565	3203
847.701	3530
847.837	3081
847.972	3051
848.108	3165
848.244	3165
848.379	3017
848.515	2956
848.65	2948
848.786	3009
848.921	3009
849.057	3100
849.192	3169
849.328	3081
849.463	3081
849.598	3108
849.734	3055
849.869	2982
850.004	2937
850.14	3020
850.275	2933
850.41	2853
850.545	2918
850.68	2990
850.815	2971
850.95	2967
851.085	3245
851.22	3127
851.355	3074
851.49	3001
851.625	3028
851.76	3036
851.895	2956
852.03	2891
852.165	3070
852.299	3157
852.434	3214
852.569	3214
852.703	3211
852.838	3279
852.973	3340
853.107	3370
853.242	3180
853.376	3131
853.511	3013
853.645	3028
853.78	3260
853.914	3142
854.048	3154
854.183	3089
854.317	3154
854.451	3256
854.585	3123
854.72	3131
854.854	3214
854.988	3093
855.122	3097
855.256	3020
855.39	3142
855.524	3302
855.658	3188
855.792	3195
855.926	3226
856.06	3260
856.194	3321
856.327	3173
856.461	3108
856.595	3104
856.729	3146
856.862	3226
856.996	3180
857.13	3218
857.263	3272
857.397	3310
857.53	3146
857.664	3176
857.797	3279
857.931	3245
858.064	3207
858.197	3214
858.331	3135
858.464	3055
858.597	3055
858.731	3123
858.864	3161
858.997	3104
859.13	3180
859.263	3157
859.396	3222
859.529	3138
859.662	3108
859.795	3074
859.928	3176
860.061	3291
860.194	3329
860.327	3203
860.46	3123
860.592	3279
860.725	3222
860.858	3291
860.99	3127
861.123	3047
861.256	3119
861.388	3161
861.521	3831
861.653	3013
861.786	3020
861.918	3024
862.05	3070
862.183	3108
862.315	3142
862.447	3192
862.58	3100
862.712	2975
862.844	2899
862.976	3058
863.108	3028
863.24	3321
863.372	2910
863.504	2990
863.636	2994
863.768	3055
863.9	2998
864.032	2971
864.164	2960
864.296	3051
864.428	3112
864.559	3119
864.691	3123
864.823	3100
864.954	3028
865.086	3032
865.217	3039
865.349	2956
865.48	2994
865.612	3036
865.743	3154
865.875	2990
866.006	2929
866.137	2990
866.269	2975
866.4	2944
866.531	2937
866.662	2876
866.793	2914
866.924	2899
867.055	2982
867.186	2952
867.317	2876
867.448	2868
867.579	2883
867.71	2864
867.841	2849
867.972	2925
868.103	2910
868.233	2887
868.364	2895
868.495	2922
868.625	3104
868.756	3173
868.886	2990
869.017	3036
869.147	3165
869.278	3199
869.408	3062
869.539	3051
869.669	3108
869.799	3028
869.929	3161
870.06	3150
870.19	3367
870.32	3279
870.45	3283
870.58	3431
870.71	3439
870.84	3450
870.97	3306
871.1	3241
871.23	3500
871.36	3481
871.489	3348
871.619	3428
871.749	3439
871.879	3477
872.008	3507
872.138	3386
872.267	3283
872.397	3180
872.526	3135
872.656	3013
872.785	3119
872.915	3245
873.044	3359
873.173	3211
873.303	3230
873.432	3264
873.561	3218
873.69	3184
873.819	3157
873.948	3245
874.077	3150
874.206	3077
874.335	3127
874.464	3253
874.593	3378
874.722	3249
874.851	3420
874.979	3370
875.108	3351
875.237	3203
875.365	3214
875.494	3165
875.623	3237
875.751	3131
875.88	3100
876.008	3218
876.136	3253
876.265	3386
876.393	3492
876.521	3462
876.65	3401
876.778	3329
876.906	3268
877.034	3222
877.162	3203
877.29	3180
877.418	3272
877.546	3321
877.674	3249
877.802	3272
877.93	3218
878.058	3173
878.185	3188
878.313	3253
878.441	3237
878.568	3074
878.696	3176
878.824	3253
878.951	3287
879.079	3447
879.206	3587
879.333	3405
879.461	3370
879.588	3393
879.715	3481
879.842	3648
879.97	3428
880.097	3207
880.224	3165
880.351	3203
880.478	3207
880.605	3188
880.732	3195
880.859	3534
880.986	3340
881.112	3332
881.239	3226
881.366	3116
881.493	3058
881.619	3001
881.746	3058
881.872	3116
881.999	3097
882.125	3138
882.252	3268
882.378	3310
882.505	3454
882.631	3291
882.757	3180
882.883	3256
883.01	3207
883.136	3188
883.262	3081
883.388	3127
883.514	3302
883.64	3370
883.766	3294
883.892	3218
884.018	3245
884.143	3447
884.269	3542
884.395	3207
884.52	3192
884.646	3173
884.772	3173
884.897	3089
885.023	3237
885.148	3420
885.274	3485
885.399	3382
885.524	3317
885.65	3275
885.775	3332
885.9	3272
886.025	3450
886.15	3351
886.275	3313
886.4	3268
886.525	3325
886.65	3294
886.775	3321
886.9	3542
887.025	3686
887.149	3435
887.274	3260
887.399	3188
887.523	3226
887.648	3214
887.773	3222
887.897	3397
888.021	3397
888.146	3306
888.27	3477
888.395	3538
888.519	3397
888.643	3515
888.767	3466
888.891	3344
889.015	3237
889.139	3272
889.263	3245
889.387	3412
889.511	3534
889.635	3447
889.759	3279
889.883	3302
890.006	3393
890.13	3477
890.254	3348
890.377	3340
890.501	3226
890.624	3176
890.748	3332
890.871	3207
890.995	3119
891.118	3058
891.241	3180
891.364	3230
891.488	3294
891.611	3169
891.734	3272
891.857	3294
891.98	3241
892.103	3355
892.226	3249
892.349	3211
892.471	3135
892.594	3233
892.717	3313
892.839	3249
892.962	3310
893.085	3359
893.207	3317
893.33	3184
893.452	3233
893.575	3359
893.697	3253
893.819	3481
893.941	3458
894.064	3454
894.186	3260
894.308	3291
894.43	3466
894.552	3534
894.674	3458
894.796	3272
894.918	3340
895.04	3283
895.161	3450
895.283	3382
895.405	3332
895.526	3374
895.648	3443
895.769	3378
895.891	3450
896.012	3504
896.134	3507
896.255	3420
896.376	3420
896.498	3367
896.619	3466
896.74	3351
896.861	3378
896.982	3675
897.103	3873
897.224	3610
897.345	3523
897.466	3443
897.587	3511
897.708	3671
897.828	3595
897.949	3424
898.07	3317
898.19	3382
898.311	3633
898.431	3447
898.552	3485
898.672	3542
898.792	3576
898.913	3557
899.033	3409
899.153	3291
899.273	3275
899.393	3287
899.513	3344
899.633	3298
899.753	3355
899.873	3332
899.993	3355
900.113	3348
900.232	3424
900.352	3374
900.472	3321
900.591	3211
900.711	3329
900.83	3306
900.95	3424
901.069	3504
901.189	3355
901.308	3150
901.427	3180
901.546	3176
901.665	3317
901.784	3336
901.904	3237
902.023	3161
902.141	3047
902.26	2998
902.379	3150
902.498	3093
902.617	3070
902.735	3192
902.854	3249
902.973	3188
903.091	3055
903.21	3074
903.328	3142
903.446	3093
903.565	3097
903.683	3214
903.801	3131
903.919	3237
904.038	3256
904.156	3192
904.274	3253
904.392	3260
904.51	3272
904.627	3374
904.745	3428
904.863	3496
904.981	3275
905.098	3199
905.216	3211
905.334	3298
905.451	3298
905.569	3344
905.686	3409
905.803	3435
905.921	3241
906.038	3450
906.155	3363
906.272	3298
906.389	3336
906.506	3230
906.623	3256
906.74	3287
906.857	3195
906.974	3264
907.091	3462
907.208	3599
907.324	3447
907.441	3397
907.557	3203
907.674	3249
907.79	3207
907.907	3298
908.023	3363
908.139	3355
908.256	3336
908.372	3374
908.488	3386
908.604	3264
908.72	3249
908.836	3313
908.952	3294
909.068	3344
909.184	3534
909.3	3386
909.415	3515
909.531	3477
909.647	3310
909.762	3306
909.878	3233
909.993	3389
910.108	3321
910.224	3306
910.339	3393
910.454	3359
910.57	3298
910.685	3256
910.8	3584
910.915	3507
911.03	3428
911.145	3268
911.259	3317
911.374	3291
911.489	3291
911.604	3260
911.718	3142
911.833	3146
911.947	3043
912.062	3001
912.176	3176
912.291	3199
912.405	3233
912.519	3450
912.633	3477
912.748	3317
912.862	3306
912.976	3154
913.09	3074
913.204	3146
913.318	3211
913.431	3344
913.545	3340
913.659	3420
913.772	3294
913.886	3245
914	3237
914.113	3370
914.226	3435
914.34	3370
914.453	3237
914.566	3405
914.68	3291
914.793	3344
914.906	3146
915.019	3104
915.132	3077
915.245	3154
915.358	3184
915.47	3211
915.583	3226
915.696	3279
915.809	3439
915.921	3424
916.034	3279
916.146	3283
916.259	3226
916.371	3401
916.483	3382
916.595	3294
916.708	3336
916.82	3359
916.932	3348
917.044	3340
917.156	3374
917.268	3260
917.38	3294
917.491	3298
917.603	3355
917.715	3424
917.826	3488
917.938	3363
918.049	3279
918.161	3420
918.272	3568
918.384	3561
918.495	3526
918.606	3355
918.717	3264
918.828	3367
918.939	3428
919.05	3306
919.161	3374
919.272	3192
919.383	3291
919.494	3496
919.604	3709
919.715	3504
919.826	3405
919.936	3492
920.047	3572
920.157	3572
920.267	3778
920.378	3622
920.488	3584
920.598	3755
920.708	3937
920.818	3808
920.928	3793
921.038	4013
921.148	3994
921.258	3713
921.368	3606
921.477	3576
921.587	3534
921.697	3469
921.806	3603
921.916	3496
922.025	3348
922.134	3355
922.244	3367
922.353	3435
922.462	3253
922.571	3241
922.68	3112
922.789	3066
922.898	3173
923.007	3104
923.116	3173
923.224	3203
923.333	3192
923.442	3157
923.55	3108
923.659	3150
923.767	3241
923.876	3142
923.984	3211
924.092	3093
924.201	3157
924.309	3203
924.417	3241
924.525	3180
924.633	3237
924.741	4177
924.849	3066
924.956	3272
925.064	3089
925.172	3039
925.279	3119
925.387	3230
925.494	3218
925.602	3329
925.709	3310
925.816	3222
925.924	3306
926.031	3370
926.138	3291
926.245	3332
926.352	3249
926.459	3393
926.566	3481
926.673	3329
926.779	3256
926.886	3211
926.993	3146
927.099	3142
927.206	3100
927.312	3104
927.419	3199
927.525	3226
927.631	3268
927.737	3157
927.843	3127
927.95	3066
928.056	3116
928.162	3184
928.267	3233
928.373	3838
928.479	3298
928.585	3062
928.69	3214
928.796	3260
928.901	3150
929.007	3085
929.112	3188
929.218	3176
929.323	3142
929.428	3116
929.533	3283
929.638	3131
929.743	3184
929.848	3268
929.953	3211
930.058	3176
930.163	2990
930.267	3074
930.372	3203
930.477	3020
930.581	3340
930.685	3157
930.79	3062
930.894	3100
930.998	3097
931.103	3294
931.207	2967
931.311	2922
931.415	2956
931.519	2777
931.623	2834
