Data from test_V78500241_621.txt Node
Date: Fri Mar 25 16:19:30 CST 2022
User: usil
Spectrometer: V785-0024
Trigger mode: 0
Integration Time (sec): 4.000000E-1
Scans to average: 1
Nonlinearity correction enabled: false
Boxcar width: 0
Storing dark spectrum: false
XAxis mode: Wavelengths
Number of Pixels in Spectrum: 1024
>>>>>Begin Spectral Data<<<<<
801.071	2906
801.214	2948
801.356	2876
801.499	2891
801.641	2864
801.783	2906
801.926	3062
802.068	2960
802.211	2979
802.353	3009
802.496	2941
802.638	3009
802.78	3017
802.923	3055
803.065	2994
803.208	2906
803.35	2910
803.492	2918
803.635	2937
803.777	2731
803.919	2864
804.061	3211
804.204	2971
804.346	2922
804.488	2838
804.63	2948
804.773	2872
804.915	2914
805.057	3108
805.199	2906
805.341	2963
805.483	3017
805.626	2944
805.768	2929
805.91	3100
806.052	3093
806.194	3013
806.336	3226
806.478	3043
806.62	2925
806.762	2967
806.904	3062
807.046	3157
807.188	2971
807.33	2899
807.472	2937
807.614	2925
807.756	2990
807.898	2910
808.04	2902
808.182	2944
808.324	2971
808.465	2868
808.607	2895
808.749	2823
808.891	2864
809.033	2975
809.174	2979
809.316	2864
809.458	2902
809.6	2785
809.741	2750
809.883	2796
810.025	2819
810.166	2826
810.308	2876
810.45	2868
810.591	2766
810.733	2773
810.875	2838
811.016	2777
811.158	2724
811.299	2804
811.441	2899
811.582	2906
811.724	2823
811.865	2853
812.007	2906
812.148	2845
812.29	2861
812.431	2899
812.573	2941
812.714	2982
812.855	3032
812.997	3028
813.138	3119
813.279	3036
813.421	3005
813.562	2960
813.703	2872
813.845	2887
813.986	2727
814.127	2697
814.268	2823
814.41	2842
814.551	2773
814.692	2853
814.833	2861
814.974	2906
815.115	2963
815.256	2811
815.397	2826
815.539	2895
815.68	2781
815.821	2773
815.962	2952
816.103	2895
816.244	2857
816.385	2845
816.526	2967
816.666	2918
816.807	2724
816.948	2937
817.089	2922
817.23	2834
817.371	2773
817.512	2781
817.653	2807
817.793	2788
817.934	2861
818.075	2944
818.216	2986
818.356	3005
818.497	2895
818.638	2746
818.778	2830
818.919	2834
819.06	2743
819.2	2872
819.341	2800
819.481	2762
819.622	2910
819.762	3135
819.903	3013
820.043	2948
820.184	2910
820.324	2891
820.465	3005
820.605	2975
820.746	3028
820.886	2922
821.026	3093
821.167	3150
821.307	3233
821.447	3237
821.588	3226
821.728	3233
821.868	3173
822.008	3066
822.149	3195
822.289	3237
822.429	3112
822.569	3074
822.709	3165
822.849	2994
822.99	3062
823.13	3154
823.27	3207
823.41	3104
823.55	3142
823.69	3146
823.83	3188
823.97	3089
824.11	2998
824.25	2975
824.389	3017
824.529	3150
824.669	3058
824.809	3173
824.949	3237
825.089	3218
825.228	3161
825.368	3001
825.508	2944
825.648	2937
825.787	2975
825.927	2990
826.067	2948
826.206	2982
826.346	3074
826.485	3036
826.625	3123
826.765	3260
826.904	3192
827.044	2998
827.183	2902
827.323	2868
827.462	2971
827.601	2895
827.741	2925
827.88	2960
828.02	2853
828.159	2948
828.298	3036
828.437	3100
828.577	3028
828.716	3233
828.855	3039
828.994	2891
829.134	2872
829.273	2937
829.412	2861
829.551	2845
829.69	2880
829.829	2998
829.968	3112
830.107	2986
830.246	3043
830.385	2902
830.524	2876
830.663	2807
830.802	2754
830.941	2644
831.08	2632
831.219	2750
831.357	2781
831.496	2895
831.635	2705
831.774	2663
831.913	2655
832.051	2552
832.19	2522
832.329	2705
832.467	2552
832.606	2492
832.744	2575
832.883	2560
833.022	2556
833.16	2640
833.299	2670
833.437	2659
833.576	2659
833.714	2697
833.852	2720
833.991	2781
834.129	2819
834.267	2807
834.406	2830
834.544	2853
834.682	2857
834.821	2861
834.959	3108
835.097	2902
835.235	3039
835.373	3009
835.511	3017
835.65	2929
835.788	2918
835.926	2845
836.064	2800
836.202	2868
836.34	3051
836.478	3165
836.615	3036
836.753	3157
836.891	3214
837.029	3154
837.167	3074
837.305	3074
837.443	3043
837.58	2986
837.718	3131
837.856	3070
837.993	3009
838.131	3104
838.269	3104
838.406	3097
838.544	3062
838.681	2948
838.819	2929
838.956	2815
839.094	2845
839.231	2925
839.369	3055
839.506	3416
839.643	3188
839.781	3005
839.918	2933
840.055	3036
840.193	3020
840.33	3058
840.467	3089
840.604	3173
840.742	3378
840.879	3089
841.016	3039
841.153	3138
841.29	3302
841.427	3302
841.564	3268
841.701	3272
841.838	3237
841.975	3138
842.112	3218
842.249	3077
842.385	3020
842.522	3249
842.659	3093
842.796	3074
842.933	3104
843.069	3028
843.206	3032
843.343	3203
843.479	3116
843.616	3138
843.752	2906
843.889	2887
844.025	3074
844.162	2880
844.298	3100
844.435	2952
844.571	2918
844.708	3055
844.844	3192
844.98	3249
845.117	3165
845.253	3062
845.389	3009
845.525	3100
845.661	3116
845.798	3009
845.934	3081
846.07	3066
846.206	3192
846.342	3272
846.478	3226
846.614	3089
846.75	3020
846.886	3001
847.022	3218
847.158	3119
847.294	3199
847.429	3260
847.565	3176
847.701	3473
847.837	3020
847.972	3036
848.108	3131
848.244	3104
848.379	2975
848.515	2944
848.65	2933
848.786	2918
848.921	2986
849.057	3100
849.192	3161
849.328	3055
849.463	3074
849.598	3047
849.734	2990
849.869	2990
850.004	2933
850.14	2929
850.275	2868
850.41	2815
850.545	2864
850.68	2944
850.815	2895
850.95	2971
851.085	3150
851.22	3085
851.355	3017
851.49	2990
851.625	2979
851.76	3013
851.895	2944
852.03	2918
852.165	3028
852.299	3108
852.434	3195
852.569	3123
852.703	3169
852.838	3264
852.973	3325
853.107	3348
853.242	3150
853.376	3104
853.511	2944
853.645	3066
853.78	3218
853.914	3157
854.048	3085
854.183	3077
854.317	3135
854.451	3313
854.585	3123
854.72	3100
854.854	3218
854.988	3039
855.122	3074
855.256	2948
855.39	3146
855.524	3268
855.658	3169
855.792	3180
855.926	3142
856.06	3207
856.194	3260
856.327	3154
856.461	3081
856.595	3093
856.729	3093
856.862	3222
856.996	3142
857.13	3184
857.263	3207
857.397	3256
857.53	3097
857.664	3188
857.797	3214
857.931	3245
858.064	3135
858.197	3218
858.331	3119
858.464	3070
858.597	3020
858.731	3085
858.864	3146
858.997	3081
859.13	3142
859.263	3173
859.396	3154
859.529	3112
859.662	3077
859.795	3051
859.928	3169
860.061	3264
860.194	3279
860.327	3146
860.46	3097
860.592	3245
860.725	3245
860.858	3256
860.99	3108
861.123	3028
861.256	3070
861.388	3127
861.521	3698
861.653	2952
861.786	2971
861.918	2990
862.05	3074
862.183	3085
862.315	3169
862.447	3188
862.58	3070
862.712	2941
862.844	2880
862.976	3032
863.108	2967
863.24	3405
863.372	2925
863.504	2944
863.636	2948
863.768	3036
863.9	2990
864.032	2902
864.164	2902
864.296	3024
864.428	3077
864.559	3085
864.691	3074
864.823	3070
864.954	3036
865.086	3028
865.217	2971
865.349	2960
865.48	2956
865.612	3001
865.743	3138
865.875	2998
866.006	2922
866.137	2979
866.269	2952
866.4	2944
866.531	2899
866.662	2944
866.793	2918
866.924	2891
867.055	2937
867.186	2910
867.317	2891
867.448	2883
867.579	2815
867.71	2857
867.841	2811
867.972	2925
868.103	2910
868.233	2876
868.364	2887
868.495	2880
868.625	3043
868.756	3135
868.886	2944
869.017	3013
869.147	3074
869.278	3154
869.408	3036
869.539	3024
869.669	3074
869.799	3009
869.929	3138
870.06	3119
870.19	3287
870.32	3287
870.45	3287
870.58	3374
870.71	3462
870.84	3462
870.97	3275
871.1	3218
871.23	3477
871.36	3454
871.489	3359
871.619	3382
871.749	3370
871.879	3428
872.008	3447
872.138	3374
872.267	3253
872.397	3169
872.526	3062
872.656	3013
872.785	3100
872.915	3211
873.044	3321
873.173	3192
873.303	3211
873.432	3237
873.561	3207
873.69	3173
873.819	3135
873.948	3184
874.077	3070
874.206	2982
874.335	3051
874.464	3199
874.593	3336
874.722	3214
874.851	3332
874.979	3359
875.108	3344
875.237	3203
875.365	3173
875.494	3131
875.623	3218
875.751	3116
875.88	3089
876.008	3203
876.136	3214
876.265	3321
876.393	3485
876.521	3409
876.65	3378
876.778	3344
876.906	3192
877.034	3207
877.162	3222
877.29	3184
877.418	3268
877.546	3188
877.674	3241
877.802	3237
877.93	3268
878.058	3150
878.185	3089
878.313	3165
878.441	3188
878.568	3043
878.696	3169
878.824	3230
878.951	3306
879.079	3431
879.206	3606
879.333	3443
879.461	3317
879.588	3374
879.715	3473
879.842	3625
879.97	3409
880.097	3184
880.224	3150
880.351	3195
880.478	3203
880.605	3165
880.732	3161
880.859	3496
880.986	3291
881.112	3264
881.239	3180
881.366	3081
881.493	2994
881.619	3028
881.746	3055
881.872	3055
881.999	3093
882.125	3135
882.252	3241
882.378	3275
882.505	3435
882.631	3294
882.757	3150
882.883	3218
883.01	3222
883.136	3154
883.262	3062
883.388	3112
883.514	3294
883.64	3382
883.766	3313
883.892	3195
884.018	3233
884.143	3416
884.269	3515
884.395	3203
884.52	3157
884.646	3203
884.772	3119
884.897	3119
885.023	3180
885.148	3325
885.274	3443
885.399	3359
885.524	3310
885.65	3272
885.775	3283
885.9	3283
886.025	3428
886.15	3355
886.275	3283
886.4	3245
886.525	3329
886.65	3283
886.775	3279
886.9	3492
887.025	3682
887.149	3431
887.274	3245
887.399	3142
887.523	3180
887.648	3199
887.773	3161
887.897	3389
888.021	3393
888.146	3275
888.27	3435
888.395	3504
888.519	3416
888.643	3454
888.767	3439
888.891	3348
889.015	3222
889.139	3279
889.263	3264
889.387	3397
889.511	3488
889.635	3443
889.759	3298
889.883	3321
890.006	3420
890.13	3458
890.254	3317
890.377	3317
890.501	3218
890.624	3157
890.748	3329
890.871	3176
890.995	3116
891.118	3055
891.241	3173
891.364	3233
891.488	3317
891.611	3169
891.734	3188
891.857	3264
891.98	3264
892.103	3363
892.226	3272
892.349	3184
892.471	3089
892.594	3233
892.717	3287
892.839	3260
892.962	3275
893.085	3363
893.207	3363
893.33	3138
893.452	3173
893.575	3317
893.697	3226
893.819	3485
893.941	3542
894.064	3443
894.186	3272
894.308	3241
894.43	3443
894.552	3492
894.674	3439
894.796	3291
894.918	3298
895.04	3298
895.161	3397
895.283	3389
895.405	3313
895.526	3397
895.648	3443
895.769	3439
895.891	3435
896.012	3450
896.134	3477
896.255	3401
896.376	3386
896.498	3344
896.619	3466
896.74	3367
896.861	3370
896.982	3694
897.103	3827
897.224	3610
897.345	3481
897.466	3409
897.587	3481
897.708	3614
897.828	3549
897.949	3431
898.07	3340
898.19	3416
898.311	3595
898.431	3447
898.552	3549
898.672	3572
898.792	3591
898.913	3561
899.033	3416
899.153	3283
899.273	3226
899.393	3283
899.513	3321
899.633	3325
899.753	3344
899.873	3313
899.993	3340
900.113	3321
900.232	3416
900.352	3382
900.472	3302
900.591	3184
900.711	3336
900.83	3218
900.95	3409
901.069	3477
901.189	3355
901.308	3188
901.427	3135
901.546	3184
901.665	3260
901.784	3325
901.904	3226
902.023	3165
902.141	3062
902.26	2982
902.379	3123
902.498	3097
902.617	3024
902.735	3188
902.854	3249
902.973	3199
903.091	3066
903.21	3062
903.328	3199
903.446	3108
903.565	3104
903.683	3188
903.801	3142
903.919	3214
904.038	3264
904.156	3180
904.274	3253
904.392	3264
904.51	3302
904.627	3306
904.745	3409
904.863	3485
904.981	3241
905.098	3184
905.216	3195
905.334	3287
905.451	3287
905.569	3329
905.686	3378
905.803	3458
905.921	3268
906.038	3409
906.155	3336
906.272	3310
906.389	3302
906.506	3253
906.623	3249
906.74	3253
906.857	3214
906.974	3222
907.091	3447
907.208	3549
907.324	3488
907.441	3405
907.557	3184
907.674	3256
907.79	3226
907.907	3253
908.023	3382
908.139	3329
908.256	3313
908.372	3351
908.488	3310
908.604	3291
908.72	3226
908.836	3264
908.952	3321
909.068	3329
909.184	3492
909.3	3348
909.415	3462
909.531	3431
909.647	3275
909.762	3287
909.878	3241
909.993	3363
910.108	3370
910.224	3359
910.339	3409
910.454	3321
910.57	3294
910.685	3237
910.8	3603
910.915	3549
911.03	3416
911.145	3272
911.259	3283
911.374	3336
911.489	3260
911.604	3199
911.718	3127
911.833	3150
911.947	3051
912.062	2982
912.176	3169
912.291	3222
912.405	3222
912.519	3466
912.633	3435
912.748	3298
912.862	3287
912.976	3176
913.09	3085
913.204	3135
913.318	3230
913.431	3310
913.545	3310
913.659	3389
913.772	3325
913.886	3203
914	3161
914.113	3363
914.226	3389
914.34	3370
914.453	3226
914.566	3405
914.68	3294
914.793	3336
914.906	3169
915.019	3131
915.132	3039
915.245	3154
915.358	3275
915.47	3233
915.583	3268
915.696	3264
915.809	3412
915.921	3416
916.034	3260
916.146	3245
916.259	3180
916.371	3374
916.483	3336
916.595	3283
916.708	3313
916.82	3344
916.932	3348
917.044	3325
917.156	3336
917.268	3272
917.38	3287
917.491	3287
917.603	3389
917.715	3485
917.826	3416
917.938	3401
918.049	3226
918.161	3428
918.272	3595
918.384	3542
918.495	3500
918.606	3325
918.717	3291
918.828	3363
918.939	3393
919.05	3283
919.161	3382
919.272	3195
919.383	3294
919.494	3515
919.604	3660
919.715	3454
919.826	3424
919.936	3431
920.047	3587
920.157	3523
920.267	3797
920.378	3637
920.488	3538
920.598	3804
920.708	3941
920.818	3770
920.928	3850
921.038	4048
921.148	3949
921.258	3698
921.368	3595
921.477	3564
921.587	3504
921.697	3473
921.806	3614
921.916	3507
922.025	3317
922.134	3359
922.244	3332
922.353	3382
922.462	3283
922.571	3226
922.68	3108
922.789	3074
922.898	3127
923.007	3116
923.116	3237
923.224	3233
923.333	3184
923.442	3108
923.55	3077
923.659	3119
923.767	3211
923.876	3116
923.984	3226
924.092	3058
924.201	3207
924.309	3214
924.417	3279
924.525	3226
924.633	3214
924.741	4048
924.849	3024
924.956	3237
925.064	3070
925.172	3066
925.279	3100
925.387	3188
925.494	3226
925.602	3344
925.709	3310
925.816	3211
925.924	3287
926.031	3351
926.138	3306
926.245	3367
926.352	3249
926.459	3420
926.566	3504
926.673	3332
926.779	3214
926.886	3222
926.993	3184
927.099	3119
927.206	3135
927.312	3142
927.419	3218
927.525	3176
927.631	3253
927.737	3173
927.843	3142
927.95	3062
928.056	3112
928.162	3146
928.267	3245
928.373	3774
928.479	3283
928.585	3047
928.69	3214
928.796	3283
928.901	3161
929.007	3039
929.112	3192
929.218	3176
929.323	3173
929.428	3173
929.533	3313
929.638	3127
929.743	3142
929.848	3245
929.953	3192
930.058	3157
930.163	3001
930.267	3062
930.372	3256
930.477	3028
930.581	3279
930.685	3207
930.79	3066
930.894	3077
930.998	3074
931.103	3268
931.207	2944
931.311	2982
931.415	2925
931.519	2758
931.623	2811
