Data from test_V78500241_1700.txt Node
Date: Fri Mar 25 16:26:58 CST 2022
User: usil
Spectrometer: V785-0024
Trigger mode: 0
Integration Time (sec): 4.000000E-1
Scans to average: 1
Nonlinearity correction enabled: false
Boxcar width: 0
Storing dark spectrum: false
XAxis mode: Wavelengths
Number of Pixels in Spectrum: 1024
>>>>>Begin Spectral Data<<<<<
801.071	2925
801.214	2952
801.356	2895
801.499	2922
801.641	2883
801.783	2941
801.926	3066
802.068	2956
802.211	2986
802.353	3055
802.496	2982
802.638	3013
802.78	3001
802.923	3058
803.065	2960
803.208	2952
803.35	2956
803.492	2990
803.635	2937
803.777	2754
803.919	2845
804.061	3207
804.204	2979
804.346	2929
804.488	2910
804.63	2998
804.773	2910
804.915	2899
805.057	3070
805.199	2960
805.341	2967
805.483	3097
805.626	3032
805.768	2994
805.91	3097
806.052	3116
806.194	3066
806.336	3222
806.478	3017
806.62	2963
806.762	2952
806.904	3039
807.046	3142
807.188	3020
807.33	2929
807.472	3009
807.614	2914
807.756	2982
807.898	2929
808.04	2895
808.182	2967
808.324	2975
808.465	2922
808.607	2880
808.749	2800
808.891	2845
809.033	2982
809.174	2979
809.316	2845
809.458	2899
809.6	2796
809.741	2800
809.883	2746
810.025	2849
810.166	2872
810.308	2876
810.45	2834
810.591	2792
810.733	2811
810.875	2857
811.016	2811
811.158	2773
811.299	2811
811.441	2952
811.582	2899
811.724	2880
811.865	2826
812.007	2899
812.148	2887
812.29	2842
812.431	2910
812.573	2929
812.714	2960
812.855	3043
812.997	3051
813.138	3161
813.279	3039
813.421	2998
813.562	2960
813.703	2895
813.845	2899
813.986	2777
814.127	2727
814.268	2834
814.41	2857
814.551	2796
814.692	2872
814.833	2834
814.974	2887
815.115	2933
815.256	2864
815.397	2842
815.539	2883
815.68	2766
815.821	2804
815.962	2933
816.103	2922
816.244	2883
816.385	2902
816.526	2956
816.666	2933
816.807	2743
816.948	2922
817.089	2910
817.23	2857
817.371	2807
817.512	2815
817.653	2819
817.793	2811
817.934	2910
818.075	2998
818.216	3013
818.356	3051
818.497	2872
818.638	2804
818.778	2861
818.919	2838
819.06	2766
819.2	2883
819.341	2826
819.481	2819
819.622	2963
819.762	3085
819.903	3070
820.043	2914
820.184	2914
820.324	2868
820.465	3032
820.605	3043
820.746	3043
820.886	2944
821.026	3123
821.167	3142
821.307	3321
821.447	3294
821.588	3245
821.728	3230
821.868	3199
822.008	3097
822.149	3192
822.289	3211
822.429	3104
822.569	3085
822.709	3192
822.849	3047
822.99	3093
823.13	3180
823.27	3230
823.41	3100
823.55	3169
823.69	3173
823.83	3180
823.97	3100
824.11	3020
824.25	3009
824.389	3070
824.529	3127
824.669	3066
824.809	3195
824.949	3272
825.089	3256
825.228	3199
825.368	3017
825.508	2922
825.648	2990
825.787	3074
825.927	3005
826.067	2994
826.206	2963
826.346	3066
826.485	3077
826.625	3104
826.765	3287
826.904	3199
827.044	3009
827.183	2948
827.323	2857
827.462	2982
827.601	2910
827.741	2925
827.88	2990
828.02	2883
828.159	2967
828.298	3051
828.437	3119
828.577	3043
828.716	3256
828.855	3077
828.994	2906
829.134	2891
829.273	2922
829.412	2899
829.551	2842
829.69	2910
829.829	3013
829.968	3131
830.107	3009
830.246	3051
830.385	2918
830.524	2864
830.663	2834
830.802	2746
830.941	2667
831.08	2625
831.219	2746
831.357	2785
831.496	2922
831.635	2712
831.774	2648
831.913	2655
832.051	2571
832.19	2568
832.329	2689
832.467	2552
832.606	2469
832.744	2587
832.883	2564
833.022	2579
833.16	2651
833.299	2659
833.437	2670
833.576	2724
833.714	2716
833.852	2750
833.991	2766
834.129	2849
834.267	2826
834.406	2773
834.544	2899
834.682	2845
834.821	2887
834.959	3070
835.097	2933
835.235	3074
835.373	2998
835.511	3024
835.65	2982
835.788	2975
835.926	2864
836.064	2826
836.202	2880
836.34	3108
836.478	3154
836.615	3043
836.753	3123
836.891	3203
837.029	3173
837.167	3116
837.305	3116
837.443	3043
837.58	2941
837.718	3116
837.856	3085
837.993	3024
838.131	3093
838.269	3135
838.406	3116
838.544	3112
838.681	2944
838.819	2956
838.956	2853
839.094	2819
839.231	2963
839.369	3009
839.506	3393
839.643	3218
839.781	3047
839.918	2960
840.055	3077
840.193	3058
840.33	3058
840.467	3089
840.604	3169
840.742	3317
840.879	3066
841.016	3066
841.153	3127
841.29	3325
841.427	3291
841.564	3306
841.701	3313
841.838	3237
841.975	3142
842.112	3230
842.249	3108
842.385	3032
842.522	3245
842.659	3089
842.796	3066
842.933	3142
843.069	3047
843.206	3055
843.343	3207
843.479	3142
843.616	3146
843.752	2902
843.889	2864
844.025	3093
844.162	2883
844.298	3066
844.435	2952
844.571	2929
844.708	3036
844.844	3169
844.98	3230
845.117	3195
845.253	3085
845.389	3047
845.525	3116
845.661	3127
845.798	3032
845.934	3123
846.07	3047
846.206	3253
846.342	3317
846.478	3272
846.614	3070
846.75	3062
846.886	3013
847.022	3237
847.158	3135
847.294	3195
847.429	3249
847.565	3249
847.701	3507
847.837	3009
847.972	2971
848.108	3131
848.244	3127
848.379	2979
848.515	2937
848.65	2952
848.786	2937
848.921	2979
849.057	3100
849.192	3154
849.328	3093
849.463	3119
849.598	3036
849.734	3032
849.869	3001
850.004	2899
850.14	2956
850.275	2899
850.41	2872
850.545	2902
850.68	2933
850.815	2956
850.95	2941
851.085	3218
851.22	3081
851.355	3047
851.49	2990
851.625	2994
851.76	3009
851.895	2952
852.03	2880
852.165	3017
852.299	3116
852.434	3161
852.569	3135
852.703	3192
852.838	3279
852.973	3336
853.107	3329
853.242	3146
853.376	3089
853.511	2975
853.645	3055
853.78	3268
853.914	3077
854.048	3085
854.183	3089
854.317	3138
854.451	3291
854.585	3116
854.72	3097
854.854	3184
854.988	3062
855.122	3089
855.256	3020
855.39	3097
855.524	3275
855.658	3176
855.792	3173
855.926	3165
856.06	3245
856.194	3294
856.327	3157
856.461	3055
856.595	3055
856.729	3089
856.862	3203
856.996	3169
857.13	3165
857.263	3214
857.397	3272
857.53	3119
857.664	3157
857.797	3272
857.931	3287
858.064	3146
858.197	3207
858.331	3119
858.464	3116
858.597	2990
858.731	3112
858.864	3116
858.997	3081
859.13	3100
859.263	3195
859.396	3211
859.529	3112
859.662	3085
859.795	3051
859.928	3169
860.061	3298
860.194	3256
860.327	3146
860.46	3093
860.592	3233
860.725	3222
860.858	3222
860.99	3146
861.123	3047
861.256	3070
861.388	3169
861.521	3934
861.653	3020
861.786	3001
861.918	2990
862.05	3074
862.183	3093
862.315	3165
862.447	3192
862.58	3097
862.712	2922
862.844	2853
862.976	2994
863.108	2998
863.24	3435
863.372	2838
863.504	2994
863.636	2944
863.768	2998
863.9	2979
864.032	2914
864.164	2902
864.296	3020
864.428	3066
864.559	3058
864.691	3058
864.823	3058
864.954	2982
865.086	3032
865.217	2963
865.349	2960
865.48	2956
865.612	2998
865.743	3150
865.875	2998
866.006	2941
866.137	2963
866.269	2891
866.4	2918
866.531	2933
866.662	2914
866.793	2922
866.924	2891
867.055	2998
867.186	2937
867.317	2861
867.448	2872
867.579	2861
867.71	2838
867.841	2815
867.972	2891
868.103	2922
868.233	2853
868.364	2883
868.495	2914
868.625	3032
868.756	3176
868.886	2971
869.017	2994
869.147	3161
869.278	3146
869.408	3051
869.539	3051
869.669	3135
869.799	3017
869.929	3123
870.06	3108
870.19	3302
870.32	3268
870.45	3313
870.58	3389
870.71	3439
870.84	3454
870.97	3283
871.1	3233
871.23	3458
871.36	3466
871.489	3351
871.619	3348
871.749	3389
871.879	3397
872.008	3469
872.138	3344
872.267	3241
872.397	3131
872.526	3089
872.656	3017
872.785	3066
872.915	3214
873.044	3321
873.173	3184
873.303	3222
873.432	3195
873.561	3245
873.69	3142
873.819	3116
873.948	3218
874.077	3055
874.206	3020
874.335	3077
874.464	3199
874.593	3348
874.722	3249
874.851	3393
874.979	3351
875.108	3268
875.237	3157
875.365	3165
875.494	3138
875.623	3222
875.751	3108
875.88	3112
876.008	3150
876.136	3188
876.265	3329
876.393	3500
876.521	3386
876.65	3382
876.778	3294
876.906	3264
877.034	3249
877.162	3173
877.29	3165
877.418	3207
877.546	3169
877.674	3249
877.802	3222
877.93	3184
878.058	3169
878.185	3100
878.313	3199
878.441	3184
878.568	3097
878.696	3108
878.824	3207
878.951	3321
879.079	3450
879.206	3641
879.333	3450
879.461	3329
879.588	3370
879.715	3485
879.842	3576
879.97	3382
880.097	3135
880.224	3104
880.351	3192
880.478	3218
880.605	3207
880.732	3195
880.859	3492
880.986	3336
881.112	3340
881.239	3188
881.366	3119
881.493	3058
881.619	3020
881.746	3062
881.872	3093
881.999	3093
882.125	3127
882.252	3294
882.378	3272
882.505	3435
882.631	3294
882.757	3184
882.883	3195
883.01	3253
883.136	3173
883.262	3108
883.388	3119
883.514	3317
883.64	3374
883.766	3272
883.892	3199
884.018	3222
884.143	3397
884.269	3538
884.395	3211
884.52	3173
884.646	3165
884.772	3112
884.897	3097
885.023	3241
885.148	3351
885.274	3378
885.399	3389
885.524	3294
885.65	3268
885.775	3325
885.9	3268
886.025	3405
886.15	3412
886.275	3260
886.4	3253
886.525	3332
886.65	3310
886.775	3245
886.9	3500
887.025	3614
887.149	3409
887.274	3214
887.399	3176
887.523	3211
887.648	3192
887.773	3203
887.897	3374
888.021	3382
888.146	3310
888.27	3450
888.395	3492
888.519	3435
888.643	3447
888.767	3439
888.891	3310
889.015	3249
889.139	3336
889.263	3218
889.387	3370
889.511	3481
889.635	3435
889.759	3306
889.883	3310
890.006	3409
890.13	3488
890.254	3241
890.377	3355
890.501	3188
890.624	3165
890.748	3306
890.871	3203
890.995	3108
891.118	3089
891.241	3199
891.364	3230
891.488	3317
891.611	3188
891.734	3233
891.857	3306
891.98	3214
892.103	3321
892.226	3264
892.349	3192
892.471	3108
892.594	3203
892.717	3317
892.839	3230
892.962	3264
893.085	3351
893.207	3283
893.33	3176
893.452	3211
893.575	3329
893.697	3230
893.819	3450
893.941	3519
894.064	3428
894.186	3256
894.308	3237
894.43	3431
894.552	3534
894.674	3439
894.796	3313
894.918	3313
895.04	3279
895.161	3409
895.283	3412
895.405	3332
895.526	3321
895.648	3439
895.769	3428
895.891	3443
896.012	3477
896.134	3466
896.255	3435
896.376	3359
896.498	3378
896.619	3458
896.74	3340
896.861	3412
896.982	3698
897.103	3842
897.224	3584
897.345	3519
897.466	3435
897.587	3504
897.708	3599
897.828	3526
897.949	3439
898.07	3294
898.19	3420
898.311	3614
898.431	3439
898.552	3473
898.672	3587
898.792	3568
898.913	3519
899.033	3428
899.153	3272
899.273	3165
899.393	3302
899.513	3313
899.633	3306
899.753	3275
899.873	3310
899.993	3378
900.113	3310
900.232	3367
900.352	3367
900.472	3283
900.591	3195
900.711	3272
900.83	3249
900.95	3405
901.069	3515
901.189	3344
901.308	3150
901.427	3131
901.546	3222
901.665	3275
901.784	3378
901.904	3188
902.023	3161
902.141	2967
902.26	2971
902.379	3146
902.498	3081
902.617	3039
902.735	3199
902.854	3233
902.973	3226
903.091	3070
903.21	3058
903.328	3157
903.446	3066
903.565	3074
903.683	3207
903.801	3131
903.919	3233
904.038	3260
904.156	3119
904.274	3302
904.392	3272
904.51	3237
904.627	3359
904.745	3443
904.863	3507
904.981	3253
905.098	3157
905.216	3195
905.334	3294
905.451	3275
905.569	3313
905.686	3401
905.803	3412
905.921	3245
906.038	3447
906.155	3351
906.272	3283
906.389	3348
906.506	3230
906.623	3233
906.74	3302
906.857	3188
906.974	3233
907.091	3401
907.208	3576
907.324	3454
907.441	3401
907.557	3230
907.674	3249
907.79	3233
907.907	3287
908.023	3420
908.139	3428
908.256	3329
908.372	3374
908.488	3351
908.604	3241
908.72	3211
908.836	3291
908.952	3291
909.068	3359
909.184	3454
909.3	3393
909.415	3519
909.531	3477
909.647	3294
909.762	3291
909.878	3264
909.993	3344
910.108	3336
910.224	3351
910.339	3416
910.454	3306
910.57	3332
910.685	3245
910.8	3595
910.915	3545
911.03	3401
911.145	3253
911.259	3253
911.374	3306
911.489	3226
911.604	3218
911.718	3104
911.833	3192
911.947	3036
912.062	2994
912.176	3207
912.291	3199
912.405	3291
912.519	3428
912.633	3488
912.748	3336
912.862	3249
912.976	3173
913.09	3089
913.204	3127
913.318	3192
913.431	3302
913.545	3332
913.659	3370
913.772	3306
913.886	3222
914	3180
914.113	3351
914.226	3405
914.34	3351
914.453	3195
914.566	3397
914.68	3283
914.793	3348
914.906	3146
915.019	3157
915.132	3093
915.245	3180
915.358	3195
915.47	3199
915.583	3272
915.696	3275
915.809	3367
915.921	3382
916.034	3245
916.146	3237
916.259	3256
916.371	3363
916.483	3351
916.595	3294
916.708	3317
916.82	3317
916.932	3344
917.044	3348
917.156	3359
917.268	3275
917.38	3317
917.491	3313
917.603	3348
917.715	3473
917.826	3492
917.938	3382
918.049	3245
918.161	3424
918.272	3584
918.384	3553
918.495	3500
918.606	3336
918.717	3264
918.828	3348
918.939	3405
919.05	3298
919.161	3355
919.272	3146
919.383	3298
919.494	3504
919.604	3652
919.715	3507
919.826	3405
919.936	3431
920.047	3606
920.157	3545
920.267	3713
920.378	3610
920.488	3572
920.598	3770
920.708	3945
920.818	3838
920.928	3835
921.038	4051
921.148	3968
921.258	3656
921.368	3648
921.477	3564
921.587	3553
921.697	3469
921.806	3629
921.916	3545
922.025	3344
922.134	3348
922.244	3313
922.353	3412
922.462	3256
922.571	3222
922.68	3123
922.789	3089
922.898	3131
923.007	3074
923.116	3192
923.224	3161
923.333	3184
923.442	3089
923.55	3085
923.659	3184
923.767	3222
923.876	3100
923.984	3230
924.092	3116
924.201	3176
924.309	3211
924.417	3279
924.525	3150
924.633	3249
924.741	4002
924.849	2994
924.956	3275
925.064	3100
925.172	3051
925.279	3119
925.387	3173
925.494	3192
925.602	3313
925.709	3310
925.816	3188
925.924	3302
926.031	3344
926.138	3321
926.245	3321
926.352	3226
926.459	3405
926.566	3466
926.673	3321
926.779	3268
926.886	3253
926.993	3154
927.099	3104
927.206	3138
927.312	3131
927.419	3256
927.525	3184
927.631	3279
927.737	3116
927.843	3108
927.95	3024
928.056	3135
928.162	3169
928.267	3302
928.373	3873
928.479	3325
928.585	3077
928.69	3226
928.796	3310
928.901	3131
929.007	3055
929.112	3222
929.218	3157
929.323	3188
929.428	3119
929.533	3272
929.638	3108
929.743	3184
929.848	3233
929.953	3214
930.058	3138
930.163	2994
930.267	3024
930.372	3195
930.477	3001
930.581	3302
930.685	3146
930.79	3062
930.894	3131
930.998	3100
931.103	3264
931.207	2929
931.311	2967
931.415	2952
931.519	2769
931.623	2830
