Data from test_V78500241_1600.txt Node
Date: Fri Mar 25 16:26:17 CST 2022
User: usil
Spectrometer: V785-0024
Trigger mode: 0
Integration Time (sec): 4.000000E-1
Scans to average: 1
Nonlinearity correction enabled: false
Boxcar width: 0
Storing dark spectrum: false
XAxis mode: Wavelengths
Number of Pixels in Spectrum: 1024
>>>>>Begin Spectral Data<<<<<
801.071	2918
801.214	2918
801.356	2891
801.499	2864
801.641	2845
801.783	2906
801.926	3047
802.068	2994
802.211	2975
802.353	3058
802.496	2960
802.638	2998
802.78	3074
802.923	3081
803.065	3020
803.208	2899
803.35	2937
803.492	2929
803.635	2944
803.777	2777
803.919	2857
804.061	3214
804.204	2971
804.346	2906
804.488	2853
804.63	2963
804.773	2880
804.915	2933
805.057	3077
805.199	2883
805.341	2971
805.483	3032
805.626	2975
805.768	2948
805.91	3112
806.052	3135
806.194	3013
806.336	3245
806.478	3024
806.62	2979
806.762	2998
806.904	3047
807.046	3195
807.188	2933
807.33	2906
807.472	3005
807.614	2941
807.756	3017
807.898	2948
808.04	2864
808.182	2986
808.324	2914
808.465	2891
808.607	2883
808.749	2823
808.891	2830
809.033	3001
809.174	2967
809.316	2872
809.458	2883
809.6	2792
809.741	2777
809.883	2785
810.025	2796
810.166	2853
810.308	2872
810.45	2834
810.591	2750
810.733	2754
810.875	2864
811.016	2743
811.158	2781
811.299	2864
811.441	2918
811.582	2853
811.724	2781
811.865	2769
812.007	2880
812.148	2902
812.29	2861
812.431	2861
812.573	2929
812.714	2956
812.855	3024
812.997	3055
813.138	3157
813.279	3036
813.421	2971
813.562	2952
813.703	2857
813.845	2925
813.986	2754
814.127	2758
814.268	2815
814.41	2842
814.551	2785
814.692	2864
814.833	2796
814.974	2899
815.115	2963
815.256	2868
815.397	2811
815.539	2872
815.68	2792
815.821	2781
815.962	2925
816.103	2948
816.244	2826
816.385	2899
816.526	2941
816.666	2952
816.807	2758
816.948	2906
817.089	2910
817.23	2842
817.371	2773
817.512	2788
817.653	2838
817.793	2834
817.934	2887
818.075	2948
818.216	2990
818.356	3020
818.497	2880
818.638	2777
818.778	2800
818.919	2769
819.06	2766
819.2	2857
819.341	2811
819.481	2796
819.622	2937
819.762	3104
819.903	3039
820.043	2918
820.184	2914
820.324	2872
820.465	2979
820.605	3051
820.746	3013
820.886	2933
821.026	3104
821.167	3127
821.307	3222
821.447	3275
821.588	3207
821.728	3199
821.868	3199
822.008	3047
822.149	3157
822.289	3230
822.429	3074
822.569	3066
822.709	3161
822.849	3017
822.99	3066
823.13	3154
823.27	3203
823.41	3066
823.55	3154
823.69	3142
823.83	3176
823.97	3066
824.11	3013
824.25	2960
824.389	3024
824.529	3104
824.669	3028
824.809	3207
824.949	3245
825.089	3199
825.228	3169
825.368	2982
825.508	2948
825.648	2986
825.787	2990
825.927	3032
826.067	2963
826.206	2960
826.346	3058
826.485	3051
826.625	3093
826.765	3260
826.904	3207
827.044	2967
827.183	2902
827.323	2853
827.462	2994
827.601	2906
827.741	2899
827.88	2963
828.02	2857
828.159	2990
828.298	3020
828.437	3085
828.577	3047
828.716	3230
828.855	3036
828.994	2922
829.134	2906
829.273	2906
829.412	2857
829.551	2804
829.69	2937
829.829	3005
829.968	3081
830.107	3017
830.246	2979
830.385	2948
830.524	2876
830.663	2845
830.802	2739
830.941	2663
831.08	2594
831.219	2758
831.357	2754
831.496	2944
831.635	2705
831.774	2648
831.913	2594
832.051	2530
832.19	2560
832.329	2674
832.467	2526
832.606	2484
832.744	2590
832.883	2587
833.022	2575
833.16	2663
833.299	2667
833.437	2663
833.576	2712
833.714	2739
833.852	2716
833.991	2785
834.129	2815
834.267	2811
834.406	2804
834.544	2853
834.682	2872
834.821	2868
834.959	3055
835.097	2880
835.235	3085
835.373	2971
835.511	2967
835.65	2937
835.788	2937
835.926	2826
836.064	2804
836.202	2842
836.34	3089
836.478	3150
836.615	3020
836.753	3085
836.891	3207
837.029	3173
837.167	3146
837.305	3085
837.443	3062
837.58	2960
837.718	3131
837.856	3093
837.993	3058
838.131	3127
838.269	3081
838.406	3058
838.544	3058
838.681	2929
838.819	2952
838.956	2815
839.094	2819
839.231	2887
839.369	2998
839.506	3325
839.643	3211
839.781	2986
839.918	2910
840.055	3058
840.193	3066
840.33	3089
840.467	3055
840.604	3127
840.742	3386
840.879	3036
841.016	3017
841.153	3108
841.29	3298
841.427	3268
841.564	3268
841.701	3294
841.838	3192
841.975	3169
842.112	3176
842.249	3032
842.385	2994
842.522	3237
842.659	3085
842.796	3043
842.933	3116
843.069	3039
843.206	3032
843.343	3165
843.479	3146
843.616	3123
843.752	2899
843.889	2872
844.025	3089
844.162	2895
844.298	3028
844.435	2948
844.571	2925
844.708	3074
844.844	3192
844.98	3214
845.117	3180
845.253	3051
845.389	3005
845.525	3070
845.661	3074
845.798	3036
845.934	3108
846.07	3032
846.206	3165
846.342	3321
846.478	3237
846.614	3066
846.75	3028
846.886	3020
847.022	3241
847.158	3093
847.294	3184
847.429	3203
847.565	3211
847.701	3500
847.837	3070
847.972	3009
848.108	3135
848.244	3154
848.379	2952
848.515	2944
848.65	2941
848.786	2948
848.921	2994
849.057	3093
849.192	3142
849.328	3077
849.463	3062
849.598	3055
849.734	3036
849.869	2925
850.004	2929
850.14	2948
850.275	2948
850.41	2845
850.545	2895
850.68	2922
850.815	2929
850.95	2944
851.085	3211
851.22	3074
851.355	3020
851.49	2982
851.625	2982
851.76	3036
851.895	2937
852.03	2899
852.165	3013
852.299	3100
852.434	3199
852.569	3127
852.703	3165
852.838	3226
852.973	3325
853.107	3317
853.242	3089
853.376	3093
853.511	2986
853.645	3043
853.78	3207
853.914	3112
854.048	3108
854.183	3089
854.317	3142
854.451	3279
854.585	3150
854.72	3108
854.854	3192
854.988	3051
855.122	3070
855.256	2998
855.39	3138
855.524	3192
855.658	3157
855.792	3165
855.926	3188
856.06	3214
856.194	3245
856.327	3119
856.461	3058
856.595	3062
856.729	3070
856.862	3226
856.996	3150
857.13	3188
857.263	3253
857.397	3279
857.53	3112
857.664	3180
857.797	3214
857.931	3256
858.064	3165
858.197	3180
858.331	3131
858.464	3112
858.597	3036
858.731	3131
858.864	3108
858.997	3093
859.13	3161
859.263	3207
859.396	3184
859.529	3097
859.662	3055
859.795	3051
859.928	3142
860.061	3249
860.194	3279
860.327	3135
860.46	3062
860.592	3264
860.725	3256
860.858	3237
860.99	3142
861.123	3051
861.256	3066
861.388	3146
861.521	3838
861.653	2998
861.786	2979
861.918	2998
862.05	3051
862.183	3104
862.315	3154
862.447	3211
862.58	3123
862.712	2963
862.844	2891
862.976	3020
863.108	2986
863.24	3260
863.372	2883
863.504	2975
863.636	2952
863.768	3005
863.9	3001
864.032	2902
864.164	2902
864.296	3017
864.428	3085
864.559	3131
864.691	3055
864.823	3066
864.954	3058
865.086	3062
865.217	2979
865.349	2971
865.48	2982
865.612	3020
865.743	3154
865.875	2986
866.006	2906
866.137	2982
866.269	2933
866.4	2929
866.531	2910
866.662	2918
866.793	2868
866.924	2864
867.055	2937
867.186	2937
867.317	2849
867.448	2811
867.579	2826
867.71	2880
867.841	2842
867.972	2876
868.103	2872
868.233	2906
868.364	2887
868.495	2902
868.625	3085
868.756	3142
868.886	2918
869.017	2990
869.147	3173
869.278	3157
869.408	3051
869.539	3020
869.669	3051
869.799	3020
869.929	3138
870.06	3097
870.19	3298
870.32	3298
870.45	3294
870.58	3397
870.71	3450
870.84	3412
870.97	3294
871.1	3272
871.23	3511
871.36	3443
871.489	3370
871.619	3367
871.749	3386
871.879	3462
872.008	3473
872.138	3306
872.267	3272
872.397	3180
872.526	3081
872.656	2982
872.785	3085
872.915	3233
873.044	3306
873.173	3214
873.303	3268
873.432	3214
873.561	3222
873.69	3165
873.819	3161
873.948	3214
874.077	3070
874.206	3043
874.335	3032
874.464	3222
874.593	3317
874.722	3256
874.851	3378
874.979	3332
875.108	3321
875.237	3199
875.365	3157
875.494	3165
875.623	3233
875.751	3058
875.88	3104
876.008	3176
876.136	3188
876.265	3340
876.393	3523
876.521	3420
876.65	3405
876.778	3348
876.906	3237
877.034	3199
877.162	3211
877.29	3184
877.418	3241
877.546	3249
877.674	3241
877.802	3260
877.93	3222
878.058	3157
878.185	3055
878.313	3192
878.441	3233
878.568	3047
878.696	3154
878.824	3253
878.951	3275
879.079	3435
879.206	3667
879.333	3424
879.461	3306
879.588	3393
879.715	3462
879.842	3561
879.97	3359
880.097	3173
880.224	3108
880.351	3199
880.478	3184
880.605	3218
880.732	3195
880.859	3450
880.986	3283
881.112	3313
881.239	3192
881.366	3093
881.493	3017
881.619	3013
881.746	3062
881.872	3089
881.999	3062
882.125	3154
882.252	3233
882.378	3283
882.505	3409
882.631	3260
882.757	3150
882.883	3195
883.01	3245
883.136	3180
883.262	3104
883.388	3123
883.514	3298
883.64	3363
883.766	3275
883.892	3180
884.018	3207
884.143	3393
884.269	3515
884.395	3195
884.52	3123
884.646	3131
884.772	3074
884.897	3100
885.023	3176
885.148	3310
885.274	3431
885.399	3332
885.524	3237
885.65	3264
885.775	3310
885.9	3275
886.025	3416
886.15	3389
886.275	3291
886.4	3294
886.525	3313
886.65	3294
886.775	3253
886.9	3481
887.025	3637
887.149	3389
887.274	3237
887.399	3203
887.523	3207
887.648	3180
887.773	3211
887.897	3306
888.021	3409
888.146	3260
888.27	3439
888.395	3504
888.519	3397
888.643	3420
888.767	3412
888.891	3321
889.015	3241
889.139	3313
889.263	3218
889.387	3389
889.511	3538
889.635	3447
889.759	3306
889.883	3298
890.006	3370
890.13	3485
890.254	3291
890.377	3310
890.501	3176
890.624	3199
890.748	3268
890.871	3161
890.995	3112
891.118	3081
891.241	3199
891.364	3199
891.488	3287
891.611	3154
891.734	3214
891.857	3260
891.98	3233
892.103	3325
892.226	3249
892.349	3203
892.471	3093
892.594	3264
892.717	3283
892.839	3233
892.962	3310
893.085	3367
893.207	3298
893.33	3165
893.452	3176
893.575	3389
893.697	3214
893.819	3431
893.941	3488
894.064	3454
894.186	3329
894.308	3226
894.43	3409
894.552	3530
894.674	3447
894.796	3283
894.918	3325
895.04	3241
895.161	3389
895.283	3359
895.405	3291
895.526	3359
895.648	3409
895.769	3416
895.891	3462
896.012	3507
896.134	3488
896.255	3416
896.376	3401
896.498	3279
896.619	3450
896.74	3355
896.861	3393
896.982	3679
897.103	3838
897.224	3606
897.345	3496
897.466	3435
897.587	3488
897.708	3629
897.828	3564
897.949	3447
898.07	3313
898.19	3389
898.311	3595
898.431	3488
898.552	3507
898.672	3564
898.792	3542
898.913	3549
899.033	3424
899.153	3291
899.273	3214
899.393	3275
899.513	3310
899.633	3275
899.753	3344
899.873	3279
899.993	3351
900.113	3313
900.232	3401
900.352	3340
900.472	3332
900.591	3211
900.711	3317
900.83	3268
900.95	3397
901.069	3507
901.189	3317
901.308	3142
901.427	3157
901.546	3169
901.665	3268
901.784	3310
901.904	3165
902.023	3154
902.141	3005
902.26	3005
902.379	3135
902.498	3085
902.617	3066
902.735	3180
902.854	3218
902.973	3199
903.091	3017
903.21	3036
903.328	3146
903.446	3116
903.565	3116
903.683	3230
903.801	3108
903.919	3260
904.038	3275
904.156	3211
904.274	3287
904.392	3245
904.51	3313
904.627	3332
904.745	3439
904.863	3519
904.981	3207
905.098	3203
905.216	3260
905.334	3268
905.451	3329
905.569	3287
905.686	3431
905.803	3431
905.921	3287
906.038	3420
906.155	3374
906.272	3287
906.389	3321
906.506	3230
906.623	3245
906.74	3279
906.857	3222
906.974	3237
907.091	3450
907.208	3584
907.324	3462
907.441	3378
907.557	3203
907.674	3264
907.79	3218
907.907	3264
908.023	3405
908.139	3378
908.256	3313
908.372	3363
908.488	3355
908.604	3249
908.72	3218
908.836	3291
908.952	3268
909.068	3313
909.184	3485
909.3	3401
909.415	3488
909.531	3466
909.647	3241
909.762	3340
909.878	3264
909.993	3336
910.108	3340
910.224	3355
910.339	3416
910.454	3329
910.57	3272
910.685	3249
910.8	3595
910.915	3515
911.03	3462
911.145	3237
911.259	3275
911.374	3310
911.489	3230
911.604	3233
911.718	3058
911.833	3157
911.947	3001
912.062	2975
912.176	3127
912.291	3184
912.405	3211
912.519	3420
912.633	3481
912.748	3359
912.862	3306
912.976	3119
913.09	3066
913.204	3150
913.318	3211
913.431	3298
913.545	3340
913.659	3439
913.772	3378
913.886	3237
914	3176
914.113	3329
914.226	3409
914.34	3382
914.453	3211
914.566	3401
914.68	3298
914.793	3306
914.906	3157
915.019	3104
915.132	3047
915.245	3180
915.358	3214
915.47	3203
915.583	3291
915.696	3348
915.809	3409
915.921	3397
916.034	3279
916.146	3226
916.259	3207
916.371	3389
916.483	3348
916.595	3264
916.708	3306
916.82	3321
916.932	3313
917.044	3329
917.156	3355
917.268	3260
917.38	3306
917.491	3302
917.603	3382
917.715	3420
917.826	3496
917.938	3370
918.049	3275
918.161	3458
918.272	3580
918.384	3576
918.495	3500
918.606	3325
918.717	3283
918.828	3321
918.939	3401
919.05	3291
919.161	3370
919.272	3161
919.383	3260
919.494	3519
919.604	3686
919.715	3488
919.826	3405
919.936	3462
920.047	3557
920.157	3564
920.267	3724
920.378	3595
920.488	3542
920.598	3743
920.708	3937
920.818	3785
920.928	3812
921.038	4006
921.148	3964
921.258	3698
921.368	3633
921.477	3591
921.587	3519
921.697	3428
921.806	3603
921.916	3519
922.025	3310
922.134	3359
922.244	3298
922.353	3447
922.462	3222
922.571	3211
922.68	3097
922.789	3058
922.898	3089
923.007	3089
923.116	3207
923.224	3169
923.333	3161
923.442	3150
923.55	3070
923.659	3154
923.767	3203
923.876	3123
923.984	3214
924.092	3108
924.201	3184
924.309	3233
924.417	3272
924.525	3192
924.633	3241
924.741	4192
924.849	3039
924.956	3256
925.064	3074
925.172	3001
925.279	3097
925.387	3207
925.494	3180
925.602	3355
925.709	3344
925.816	3169
925.924	3268
926.031	3382
926.138	3336
926.245	3344
926.352	3241
926.459	3416
926.566	3458
926.673	3321
926.779	3264
926.886	3279
926.993	3157
927.099	3116
927.206	3116
927.312	3135
927.419	3237
927.525	3161
927.631	3249
927.737	3108
927.843	3108
927.95	3009
928.056	3150
928.162	3150
928.267	3233
928.373	3842
928.479	3306
928.585	3097
928.69	3169
928.796	3226
928.901	3131
929.007	3097
929.112	3192
929.218	3154
929.323	3154
929.428	3138
929.533	3313
929.638	3119
929.743	3184
929.848	3230
929.953	3237
930.058	3119
930.163	2979
930.267	3051
930.372	3161
930.477	3020
930.581	3336
930.685	3157
930.79	3089
930.894	3119
930.998	3112
931.103	3275
931.207	2963
931.311	2944
931.415	2914
931.519	2781
931.623	2800
