Data from test_V78500241_1332.txt Node
Date: Fri Mar 25 16:24:25 CST 2022
User: usil
Spectrometer: V785-0024
Trigger mode: 0
Integration Time (sec): 4.000000E-1
Scans to average: 1
Nonlinearity correction enabled: false
Boxcar width: 0
Storing dark spectrum: false
XAxis mode: Wavelengths
Number of Pixels in Spectrum: 1024
>>>>>Begin Spectral Data<<<<<
801.071	2929
801.214	2963
801.356	2906
801.499	2910
801.641	2887
801.783	2963
801.926	3062
802.068	2990
802.211	2971
802.353	2982
802.496	3017
802.638	3066
802.78	3070
802.923	3081
803.065	2975
803.208	2876
803.35	2948
803.492	2963
803.635	2929
803.777	2792
803.919	2857
804.061	3214
804.204	2982
804.346	2933
804.488	2838
804.63	3001
804.773	2880
804.915	2899
805.057	3085
805.199	2918
805.341	2967
805.483	3074
805.626	3020
805.768	2971
805.91	3127
806.052	3123
806.194	3039
806.336	3222
806.478	3028
806.62	2929
806.762	2994
806.904	3081
807.046	3161
807.188	3013
807.33	2952
807.472	3005
807.614	2902
807.756	3001
807.898	2944
808.04	2895
808.182	2956
808.324	2933
808.465	2864
808.607	2902
808.749	2777
808.891	2830
809.033	3001
809.174	2941
809.316	2906
809.458	2891
809.6	2777
809.741	2792
809.883	2796
810.025	2876
810.166	2872
810.308	2861
810.45	2876
810.591	2762
810.733	2781
810.875	2868
811.016	2762
811.158	2750
811.299	2819
811.441	2887
811.582	2891
811.724	2845
811.865	2853
812.007	2891
812.148	2906
812.29	2834
812.431	2929
812.573	2956
812.714	2937
812.855	3066
812.997	3062
813.138	3093
813.279	3036
813.421	3001
813.562	2941
813.703	2838
813.845	2842
813.986	2773
814.127	2743
814.268	2819
814.41	2823
814.551	2788
814.692	2857
814.833	2788
814.974	2887
815.115	2933
815.256	2830
815.397	2815
815.539	2864
815.68	2788
815.821	2769
815.962	2963
816.103	2910
816.244	2887
816.385	2876
816.526	2967
816.666	2929
816.807	2716
816.948	2891
817.089	2887
817.23	2887
817.371	2762
817.512	2804
817.653	2864
817.793	2838
817.934	2868
818.075	2952
818.216	2975
818.356	3009
818.497	2895
818.638	2796
818.778	2823
818.919	2804
819.06	2788
819.2	2876
819.341	2811
819.481	2796
819.622	2910
819.762	3131
819.903	3077
820.043	2929
820.184	2925
820.324	2914
820.465	3032
820.605	3017
820.746	3051
820.886	2952
821.026	3081
821.167	3142
821.307	3298
821.447	3275
821.588	3283
821.728	3237
821.868	3241
822.008	3066
822.149	3207
822.289	3245
822.429	3104
822.569	3104
822.709	3207
822.849	3043
822.99	3119
823.13	3146
823.27	3253
823.41	3131
823.55	3192
823.69	3176
823.83	3214
823.97	3161
824.11	3058
824.25	3055
824.389	3112
824.529	3135
824.669	3123
824.809	3241
824.949	3291
825.089	3302
825.228	3237
825.368	3020
825.508	2990
825.648	2994
825.787	3077
825.927	3081
826.067	2986
826.206	3009
826.346	3066
826.485	3119
826.625	3154
826.765	3306
826.904	3233
827.044	3039
827.183	2975
827.323	2933
827.462	2998
827.601	2956
827.741	2982
827.88	2998
828.02	2876
828.159	3005
828.298	3074
828.437	3173
828.577	3085
828.716	3291
828.855	3142
828.994	2986
829.134	2914
829.273	2963
829.412	2895
829.551	2883
829.69	2944
829.829	3039
829.968	3173
830.107	3062
830.246	3074
830.385	2963
830.524	2906
830.663	2872
830.802	2781
830.941	2724
831.08	2674
831.219	2792
831.357	2796
831.496	3013
831.635	2769
831.774	2701
831.913	2720
832.051	2575
832.19	2598
832.329	2701
832.467	2583
832.606	2545
832.744	2636
832.883	2606
833.022	2651
833.16	2663
833.299	2746
833.437	2735
833.576	2716
833.714	2727
833.852	2781
833.991	2769
834.129	2868
834.267	2819
834.406	2804
834.544	2910
834.682	2876
834.821	2880
834.959	3089
835.097	2952
835.235	3100
835.373	3081
835.511	3047
835.65	3001
835.788	2960
835.926	2872
836.064	2887
836.202	2906
836.34	3097
836.478	3195
836.615	3100
836.753	3184
836.891	3233
837.029	3195
837.167	3142
837.305	3089
837.443	3077
837.58	3005
837.718	3184
837.856	3116
837.993	3074
838.131	3184
838.269	3104
838.406	3119
838.544	3089
838.681	2971
838.819	2929
838.956	2861
839.094	2883
839.231	2941
839.369	3017
839.506	3386
839.643	3249
839.781	3062
839.918	2986
840.055	3085
840.193	3123
840.33	3058
840.467	3142
840.604	3161
840.742	3435
840.879	3093
841.016	3085
841.153	3169
841.29	3336
841.427	3313
841.564	3317
841.701	3344
841.838	3283
841.975	3226
842.112	3249
842.249	3112
842.385	3047
842.522	3313
842.659	3119
842.796	3077
842.933	3169
843.069	3070
843.206	3070
843.343	3241
843.479	3165
843.616	3150
843.752	2891
843.889	2906
844.025	3123
844.162	2880
844.298	3108
844.435	2971
844.571	2941
844.708	3104
844.844	3211
844.98	3268
845.117	3188
845.253	3100
845.389	3028
845.525	3131
845.661	3123
845.798	3036
845.934	3161
846.07	3100
846.206	3237
846.342	3370
846.478	3226
846.614	3142
846.75	3070
846.886	3051
847.022	3272
847.158	3131
847.294	3241
847.429	3294
847.565	3245
847.701	3481
847.837	3051
847.972	3009
848.108	3180
848.244	3203
848.379	2963
848.515	2979
848.65	2956
848.786	3043
848.921	3024
849.057	3150
849.192	3157
849.328	3062
849.463	3142
849.598	3097
849.734	3036
849.869	2975
850.004	2948
850.14	3020
850.275	2914
850.41	2883
850.545	2941
850.68	2948
850.815	2963
850.95	3028
851.085	3233
851.22	3138
851.355	3028
851.49	3017
851.625	3020
851.76	3047
851.895	2933
852.03	2906
852.165	3062
852.299	3150
852.434	3241
852.569	3184
852.703	3207
852.838	3253
852.973	3416
853.107	3336
853.242	3203
853.376	3085
853.511	3058
853.645	3051
853.78	3264
853.914	3192
854.048	3131
854.183	3085
854.317	3154
854.451	3310
854.585	3154
854.72	3131
854.854	3241
854.988	3077
855.122	3127
855.256	3005
855.39	3154
855.524	3222
855.658	3226
855.792	3214
855.926	3188
856.06	3211
856.194	3321
856.327	3199
856.461	3146
856.595	3100
856.729	3097
856.862	3233
856.996	3214
857.13	3195
857.263	3245
857.397	3283
857.53	3161
857.664	3211
857.797	3249
857.931	3310
858.064	3184
858.197	3279
858.331	3154
858.464	3112
858.597	2990
858.731	3138
858.864	3127
858.997	3100
859.13	3188
859.263	3222
859.396	3237
859.529	3112
859.662	3070
859.795	3070
859.928	3203
860.061	3287
860.194	3287
860.327	3150
860.46	3150
860.592	3245
860.725	3291
860.858	3279
860.99	3116
861.123	3093
861.256	3089
861.388	3150
861.521	3694
861.653	3032
861.786	2982
861.918	3009
862.05	3047
862.183	3116
862.315	3169
862.447	3203
862.58	3100
862.712	2994
862.844	2845
862.976	3043
863.108	2994
863.24	3332
863.372	2902
863.504	3017
863.636	2986
863.768	3020
863.9	3009
864.032	2944
864.164	2971
864.296	3051
864.428	3077
864.559	3116
864.691	3108
864.823	3104
864.954	3039
865.086	3070
865.217	2986
865.349	3005
865.48	3028
865.612	3051
865.743	3176
865.875	3017
866.006	2979
866.137	2975
866.269	2929
866.4	2918
866.531	2952
866.662	2948
866.793	2918
866.924	2902
867.055	2967
867.186	2948
867.317	2902
867.448	2849
867.579	2868
867.71	2864
867.841	2842
867.972	2941
868.103	2956
868.233	2883
868.364	2906
868.495	2906
868.625	3081
868.756	3173
868.886	2994
869.017	3036
869.147	3214
869.278	3214
869.408	3047
869.539	3020
869.669	3100
869.799	3085
869.929	3119
870.06	3150
870.19	3329
870.32	3321
870.45	3329
870.58	3397
870.71	3469
870.84	3462
870.97	3363
871.1	3268
871.23	3500
871.36	3469
871.489	3351
871.619	3382
871.749	3393
871.879	3431
872.008	3534
872.138	3355
872.267	3279
872.397	3169
872.526	3146
872.656	3024
872.785	3089
872.915	3230
873.044	3340
873.173	3249
873.303	3253
873.432	3256
873.561	3272
873.69	3146
873.819	3165
873.948	3211
874.077	3119
874.206	3055
874.335	3104
874.464	3241
874.593	3355
874.722	3222
874.851	3420
874.979	3359
875.108	3321
875.237	3245
875.365	3154
875.494	3161
875.623	3241
875.751	3093
875.88	3142
876.008	3211
876.136	3233
876.265	3412
876.393	3530
876.521	3454
876.65	3409
876.778	3313
876.906	3218
877.034	3249
877.162	3195
877.29	3169
877.418	3272
877.546	3249
877.674	3256
877.802	3199
877.93	3214
878.058	3176
878.185	3154
878.313	3218
878.441	3203
878.568	3104
878.696	3093
878.824	3260
878.951	3310
879.079	3431
879.206	3644
879.333	3481
879.461	3363
879.588	3401
879.715	3443
879.842	3606
879.97	3378
880.097	3203
880.224	3123
880.351	3203
880.478	3279
880.605	3192
880.732	3249
880.859	3481
880.986	3355
881.112	3332
881.239	3233
881.366	3127
881.493	3100
881.619	3043
881.746	3097
881.872	3100
881.999	3108
882.125	3161
882.252	3237
882.378	3310
882.505	3439
882.631	3294
882.757	3138
882.883	3241
883.01	3218
883.136	3176
883.262	3119
883.388	3146
883.514	3367
883.64	3363
883.766	3298
883.892	3161
884.018	3260
884.143	3424
884.269	3557
884.395	3218
884.52	3154
884.646	3195
884.772	3146
884.897	3127
885.023	3199
885.148	3313
885.274	3435
885.399	3401
885.524	3321
885.65	3268
885.775	3378
885.9	3317
886.025	3435
886.15	3389
886.275	3313
886.4	3272
886.525	3287
886.65	3313
886.775	3302
886.9	3492
887.025	3679
887.149	3450
887.274	3245
887.399	3207
887.523	3218
887.648	3214
887.773	3169
887.897	3389
888.021	3412
888.146	3329
888.27	3450
888.395	3572
888.519	3431
888.643	3488
888.767	3485
888.891	3291
889.015	3233
889.139	3332
889.263	3264
889.387	3409
889.511	3534
889.635	3412
889.759	3332
889.883	3298
890.006	3393
890.13	3507
890.254	3294
890.377	3294
890.501	3233
890.624	3199
890.748	3306
890.871	3203
890.995	3142
891.118	3085
891.241	3199
891.364	3211
891.488	3260
891.611	3161
891.734	3256
891.857	3283
891.98	3268
892.103	3321
892.226	3313
892.349	3230
892.471	3138
892.594	3253
892.717	3302
892.839	3253
892.962	3279
893.085	3374
893.207	3298
893.33	3161
893.452	3211
893.575	3340
893.697	3253
893.819	3466
893.941	3504
894.064	3504
894.186	3275
894.308	3279
894.43	3420
894.552	3523
894.674	3477
894.796	3298
894.918	3363
895.04	3332
895.161	3439
895.283	3355
895.405	3310
895.526	3393
895.648	3428
895.769	3439
895.891	3458
896.012	3504
896.134	3462
896.255	3454
896.376	3397
896.498	3370
896.619	3466
896.74	3348
896.861	3431
896.982	3720
897.103	3888
897.224	3606
897.345	3519
897.466	3420
897.587	3496
897.708	3637
897.828	3557
897.949	3454
898.07	3344
898.19	3378
898.311	3599
898.431	3450
898.552	3504
898.672	3606
898.792	3599
898.913	3542
899.033	3454
899.153	3272
899.273	3203
899.393	3310
899.513	3363
899.633	3294
899.753	3306
899.873	3317
899.993	3370
900.113	3325
900.232	3409
900.352	3317
900.472	3268
900.591	3249
900.711	3287
900.83	3230
900.95	3431
901.069	3515
901.189	3389
901.308	3188
901.427	3154
901.546	3192
901.665	3283
901.784	3317
901.904	3214
902.023	3138
902.141	3036
902.26	2994
902.379	3138
902.498	3116
902.617	3024
902.735	3222
902.854	3218
902.973	3176
903.091	3043
903.21	3028
903.328	3157
903.446	3100
903.565	3100
903.683	3203
903.801	3165
903.919	3226
904.038	3275
904.156	3154
904.274	3283
904.392	3233
904.51	3287
904.627	3348
904.745	3428
904.863	3507
904.981	3287
905.098	3203
905.216	3249
905.334	3313
905.451	3302
905.569	3332
905.686	3443
905.803	3428
905.921	3306
906.038	3409
906.155	3363
906.272	3256
906.389	3302
906.506	3203
906.623	3260
906.74	3294
906.857	3233
906.974	3283
907.091	3424
907.208	3557
907.324	3473
907.441	3454
907.557	3218
907.674	3260
907.79	3218
907.907	3275
908.023	3405
908.139	3370
908.256	3332
908.372	3344
908.488	3351
908.604	3245
908.72	3249
908.836	3279
908.952	3268
909.068	3336
909.184	3485
909.3	3382
909.415	3519
909.531	3511
909.647	3245
909.762	3279
909.878	3260
909.993	3355
910.108	3397
910.224	3344
910.339	3428
910.454	3355
910.57	3291
910.685	3256
910.8	3603
910.915	3530
911.03	3447
911.145	3260
911.259	3260
911.374	3332
911.489	3275
911.604	3222
911.718	3093
911.833	3199
911.947	2990
912.062	3001
912.176	3180
912.291	3188
912.405	3207
912.519	3409
912.633	3431
912.748	3325
912.862	3272
912.976	3157
913.09	3066
913.204	3161
913.318	3211
913.431	3340
913.545	3348
913.659	3382
913.772	3313
913.886	3272
914	3195
914.113	3367
914.226	3454
914.34	3401
914.453	3214
914.566	3412
914.68	3298
914.793	3317
914.906	3097
915.019	3127
915.132	3047
915.245	3157
915.358	3230
915.47	3222
915.583	3275
915.696	3291
915.809	3439
915.921	3458
916.034	3256
916.146	3233
916.259	3256
916.371	3397
916.483	3378
916.595	3260
916.708	3317
916.82	3329
916.932	3344
917.044	3351
917.156	3340
917.268	3211
917.38	3294
917.491	3283
917.603	3344
917.715	3420
917.826	3511
917.938	3351
918.049	3279
918.161	3420
918.272	3572
918.384	3587
918.495	3507
918.606	3317
918.717	3287
918.828	3344
918.939	3454
919.05	3321
919.161	3389
919.272	3169
919.383	3287
919.494	3469
919.604	3701
919.715	3515
919.826	3420
919.936	3447
920.047	3587
920.157	3618
920.267	3751
920.378	3580
920.488	3595
920.598	3774
920.708	3956
920.818	3816
920.928	3823
921.038	4021
921.148	3953
921.258	3694
921.368	3618
921.477	3568
921.587	3511
921.697	3435
921.806	3667
921.916	3534
922.025	3363
922.134	3378
922.244	3306
922.353	3412
922.462	3249
922.571	3211
922.68	3135
922.789	3116
922.898	3131
923.007	3108
923.116	3195
923.224	3214
923.333	3195
923.442	3131
923.55	3142
923.659	3104
923.767	3230
923.876	3138
923.984	3249
924.092	3066
924.201	3237
924.309	3192
924.417	3283
924.525	3203
924.633	3230
924.741	3991
924.849	3043
924.956	3283
925.064	3074
925.172	3032
925.279	3119
925.387	3230
925.494	3230
925.602	3382
925.709	3310
925.816	3150
925.924	3279
926.031	3344
926.138	3370
926.245	3416
926.352	3260
926.459	3389
926.566	3481
926.673	3313
926.779	3226
926.886	3260
926.993	3138
927.099	3150
927.206	3138
927.312	3081
927.419	3249
927.525	3218
927.631	3283
927.737	3150
927.843	3116
927.95	3058
928.056	3154
928.162	3211
928.267	3233
928.373	3876
928.479	3317
928.585	3070
928.69	3218
928.796	3275
928.901	3135
929.007	3055
929.112	3226
929.218	3203
929.323	3123
929.428	3138
929.533	3313
929.638	3161
929.743	3195
929.848	3268
929.953	3203
930.058	3165
930.163	3020
930.267	3074
930.372	3211
930.477	3009
930.581	3313
930.685	3180
930.79	3066
930.894	3093
930.998	3085
931.103	3279
931.207	2979
931.311	2952
931.415	2925
931.519	2819
931.623	2834
