Data from test_V78500241_1879.txt Node
Date: Fri Mar 25 16:28:13 CST 2022
User: usil
Spectrometer: V785-0024
Trigger mode: 0
Integration Time (sec): 4.000000E-1
Scans to average: 1
Nonlinearity correction enabled: false
Boxcar width: 0
Storing dark spectrum: false
XAxis mode: Wavelengths
Number of Pixels in Spectrum: 1024
>>>>>Begin Spectral Data<<<<<
801.071	2887
801.214	2914
801.356	2864
801.499	2895
801.641	2876
801.783	2918
801.926	3051
802.068	2979
802.211	3013
802.353	3039
802.496	2975
802.638	2963
802.78	3020
802.923	3097
803.065	2979
803.208	2899
803.35	2906
803.492	2933
803.635	2914
803.777	2754
803.919	2845
804.061	3176
804.204	2975
804.346	2899
804.488	2864
804.63	2982
804.773	2861
804.915	2891
805.057	3089
805.199	2906
805.341	2975
805.483	3066
805.626	3020
805.768	2963
805.91	3066
806.052	3135
806.194	3020
806.336	3222
806.478	3055
806.62	2941
806.762	2971
806.904	3070
807.046	3142
807.188	3009
807.33	2887
807.472	2990
807.614	2929
807.756	2963
807.898	2929
808.04	2895
808.182	2941
808.324	2963
808.465	2891
808.607	2876
808.749	2804
808.891	2849
809.033	2925
809.174	2982
809.316	2883
809.458	2891
809.6	2754
809.741	2785
809.883	2766
810.025	2853
810.166	2857
810.308	2819
810.45	2853
810.591	2724
810.733	2773
810.875	2872
811.016	2773
811.158	2785
811.299	2815
811.441	2868
811.582	2880
811.724	2845
811.865	2861
812.007	2971
812.148	2899
812.29	2857
812.431	2899
812.573	2922
812.714	2963
812.855	3009
812.997	3024
813.138	3161
813.279	2979
813.421	2956
813.562	2982
813.703	2853
813.845	2883
813.986	2762
814.127	2720
814.268	2849
814.41	2830
814.551	2796
814.692	2868
814.833	2807
814.974	2872
815.115	2960
815.256	2834
815.397	2815
815.539	2838
815.68	2758
815.821	2796
815.962	2937
816.103	2914
816.244	2895
816.385	2876
816.526	2910
816.666	2925
816.807	2762
816.948	2902
817.089	2941
817.23	2883
817.371	2773
817.512	2773
817.653	2842
817.793	2804
817.934	2906
818.075	2937
818.216	3001
818.356	2998
818.497	2899
818.638	2807
818.778	2823
818.919	2777
819.06	2750
819.2	2902
819.341	2792
819.481	2804
819.622	2906
819.762	3097
819.903	3047
820.043	2906
820.184	2899
820.324	2933
820.465	3032
820.605	3028
820.746	3017
820.886	2914
821.026	3074
821.167	3135
821.307	3253
821.447	3268
821.588	3264
821.728	3218
821.868	3195
822.008	3097
822.149	3173
822.289	3138
822.429	3051
822.569	3097
822.709	3192
822.849	3013
822.99	3039
823.13	3116
823.27	3173
823.41	3131
823.55	3146
823.69	3150
823.83	3203
823.97	3089
824.11	3013
824.25	2975
824.389	3085
824.529	3112
824.669	3062
824.809	3214
824.949	3233
825.089	3176
825.228	3135
825.368	2998
825.508	2925
825.648	2918
825.787	3005
825.927	3017
826.067	2994
826.206	2948
826.346	3032
826.485	3047
826.625	3150
826.765	3268
826.904	3233
827.044	2986
827.183	2933
827.323	2842
827.462	2975
827.601	2895
827.741	2914
827.88	2948
828.02	2887
828.159	2960
828.298	2994
828.437	3097
828.577	3020
828.716	3237
828.855	3062
828.994	2891
829.134	2853
829.273	2891
829.412	2857
829.551	2872
829.69	2895
829.829	2952
829.968	3112
830.107	3017
830.246	3058
830.385	2891
830.524	2861
830.663	2823
830.802	2739
830.941	2651
831.08	2659
831.219	2762
831.357	2758
831.496	2918
831.635	2682
831.774	2663
831.913	2655
832.051	2537
832.19	2571
832.329	2678
832.467	2526
832.606	2473
832.744	2602
832.883	2602
833.022	2549
833.16	2632
833.299	2674
833.437	2682
833.576	2663
833.714	2708
833.852	2720
833.991	2743
834.129	2861
834.267	2800
834.406	2750
834.544	2876
834.682	2872
834.821	2868
834.959	3043
835.097	2922
835.235	3062
835.373	2982
835.511	3020
835.65	2948
835.788	2941
835.926	2864
836.064	2807
836.202	2838
836.34	3104
836.478	3176
836.615	3005
836.753	3135
836.891	3176
837.029	3173
837.167	3119
837.305	3097
837.443	2998
837.58	2967
837.718	3116
837.856	3081
837.993	2990
838.131	3097
838.269	3108
838.406	3081
838.544	3058
838.681	2929
838.819	2937
838.956	2826
839.094	2819
839.231	2872
839.369	3024
839.506	3397
839.643	3211
839.781	3001
839.918	2948
840.055	3028
840.193	3055
840.33	3032
840.467	3116
840.604	3161
840.742	3325
840.879	3028
841.016	3032
841.153	3135
841.29	3332
841.427	3325
841.564	3249
841.701	3260
841.838	3233
841.975	3176
842.112	3233
842.249	3089
842.385	3051
842.522	3272
842.659	3097
842.796	3055
842.933	3135
843.069	3051
843.206	3036
843.343	3184
843.479	3077
843.616	3100
843.752	2887
843.889	2826
844.025	3055
844.162	2838
844.298	3062
844.435	2960
844.571	2918
844.708	3062
844.844	3180
844.98	3188
845.117	3169
845.253	3062
845.389	2982
845.525	3085
845.661	3066
845.798	3009
845.934	3097
846.07	3051
846.206	3195
846.342	3355
846.478	3218
846.614	3077
846.75	3032
846.886	3005
847.022	3253
847.158	3142
847.294	3188
847.429	3214
847.565	3214
847.701	3488
847.837	3058
847.972	2975
848.108	3119
848.244	3165
848.379	3017
848.515	2948
848.65	2929
848.786	2944
848.921	3024
849.057	3055
849.192	3154
849.328	3104
849.463	3100
849.598	3066
849.734	3043
849.869	2952
850.004	2933
850.14	2933
850.275	2880
850.41	2826
850.545	2887
850.68	2910
850.815	2929
850.95	2971
851.085	3173
851.22	3100
851.355	3005
851.49	2933
851.625	3001
851.76	2994
851.895	2922
852.03	2899
852.165	2975
852.299	3116
852.434	3211
852.569	3150
852.703	3192
852.838	3218
852.973	3329
853.107	3313
853.242	3142
853.376	3085
853.511	2990
853.645	3062
853.78	3226
853.914	3119
854.048	3104
854.183	3066
854.317	3135
854.451	3268
854.585	3100
854.72	3074
854.854	3169
854.988	3039
855.122	3051
855.256	2941
855.39	3142
855.524	3207
855.658	3150
855.792	3116
855.926	3211
856.06	3173
856.194	3253
856.327	3146
856.461	3055
856.595	3081
856.729	3081
856.862	3203
856.996	3195
857.13	3211
857.263	3211
857.397	3233
857.53	3150
857.664	3184
857.797	3222
857.931	3249
858.064	3161
858.197	3199
858.331	3119
858.464	3062
858.597	3024
858.731	3154
858.864	3097
858.997	3070
859.13	3138
859.263	3192
859.396	3188
859.529	3097
859.662	3066
859.795	3066
859.928	3135
860.061	3245
860.194	3275
860.327	3150
860.46	3077
860.592	3233
860.725	3233
860.858	3214
860.99	3104
861.123	3009
861.256	3036
861.388	3127
861.521	3789
861.653	3013
861.786	2994
861.918	3020
862.05	3066
862.183	3112
862.315	3169
862.447	3199
862.58	3104
862.712	2956
862.844	2872
862.976	3005
863.108	3028
863.24	3325
863.372	2876
863.504	2960
863.636	2944
863.768	3005
863.9	2941
864.032	2922
864.164	2963
864.296	3028
864.428	3051
864.559	3104
864.691	3081
864.823	3077
864.954	3036
865.086	3047
865.217	2944
865.349	2941
865.48	2960
865.612	3039
865.743	3150
865.875	2963
866.006	2956
866.137	2960
866.269	2922
866.4	2933
866.531	2910
866.662	2883
866.793	2887
866.924	2910
867.055	2925
867.186	2922
867.317	2876
867.448	2834
867.579	2842
867.71	2868
867.841	2796
867.972	2948
868.103	2899
868.233	2891
868.364	2880
868.495	2899
868.625	3036
868.756	3157
868.886	2971
869.017	3039
869.147	3146
869.278	3154
869.408	3024
869.539	3032
869.669	3089
869.799	3036
869.929	3119
870.06	3104
870.19	3302
870.32	3302
870.45	3306
870.58	3340
870.71	3466
870.84	3439
870.97	3310
871.1	3237
871.23	3504
871.36	3416
871.489	3344
871.619	3374
871.749	3389
871.879	3424
872.008	3473
872.138	3370
872.267	3249
872.397	3169
872.526	3058
872.656	2994
872.785	3089
872.915	3237
873.044	3302
873.173	3211
873.303	3226
873.432	3249
873.561	3275
873.69	3104
873.819	3123
873.948	3157
874.077	3116
874.206	3032
874.335	3066
874.464	3176
874.593	3351
874.722	3230
874.851	3412
874.979	3329
875.108	3298
875.237	3203
875.365	3150
875.494	3138
875.623	3245
875.751	3093
875.88	3112
876.008	3188
876.136	3222
876.265	3370
876.393	3523
876.521	3409
876.65	3409
876.778	3359
876.906	3245
877.034	3157
877.162	3207
877.29	3146
877.418	3226
877.546	3226
877.674	3222
877.802	3218
877.93	3195
878.058	3127
878.185	3097
878.313	3161
878.441	3192
878.568	3085
878.696	3192
878.824	3253
878.951	3279
879.079	3412
879.206	3595
879.333	3431
879.461	3336
879.588	3355
879.715	3519
879.842	3618
879.97	3359
880.097	3157
880.224	3131
880.351	3214
880.478	3199
880.605	3176
880.732	3161
880.859	3496
880.986	3275
881.112	3329
881.239	3230
881.366	3146
881.493	3001
881.619	3032
881.746	3074
881.872	3100
881.999	3116
882.125	3142
882.252	3233
882.378	3294
882.505	3454
882.631	3253
882.757	3173
882.883	3188
883.01	3222
883.136	3188
883.262	3081
883.388	3154
883.514	3317
883.64	3359
883.766	3321
883.892	3157
884.018	3226
884.143	3393
884.269	3538
884.395	3207
884.52	3165
884.646	3211
884.772	3123
884.897	3142
885.023	3195
885.148	3321
885.274	3447
885.399	3386
885.524	3279
885.65	3245
885.775	3302
885.9	3279
886.025	3409
886.15	3355
886.275	3321
886.4	3214
886.525	3294
886.65	3226
886.775	3283
886.9	3462
887.025	3652
887.149	3416
887.274	3253
887.399	3180
887.523	3218
887.648	3192
887.773	3165
887.897	3382
888.021	3454
888.146	3306
888.27	3412
888.395	3538
888.519	3424
888.643	3454
888.767	3462
888.891	3294
889.015	3237
889.139	3283
889.263	3249
889.387	3397
889.511	3504
889.635	3424
889.759	3332
889.883	3325
890.006	3416
890.13	3477
890.254	3302
890.377	3306
890.501	3192
890.624	3176
890.748	3298
890.871	3173
890.995	3077
891.118	3062
891.241	3207
891.364	3214
891.488	3321
891.611	3199
891.734	3218
891.857	3279
891.98	3253
892.103	3321
892.226	3245
892.349	3195
892.471	3074
892.594	3249
892.717	3283
892.839	3249
892.962	3245
893.085	3340
893.207	3268
893.33	3161
893.452	3173
893.575	3332
893.697	3268
893.819	3439
893.941	3473
894.064	3439
894.186	3253
894.308	3218
894.43	3431
894.552	3515
894.674	3428
894.796	3249
894.918	3317
895.04	3260
895.161	3420
895.283	3389
895.405	3355
895.526	3355
895.648	3359
895.769	3401
895.891	3439
896.012	3473
896.134	3431
896.255	3435
896.376	3412
896.498	3325
896.619	3424
896.74	3329
896.861	3409
896.982	3660
897.103	3835
897.224	3614
897.345	3504
897.466	3435
897.587	3519
897.708	3625
897.828	3515
897.949	3397
898.07	3313
898.19	3370
898.311	3545
898.431	3488
898.552	3515
898.672	3557
898.792	3557
898.913	3534
899.033	3409
899.153	3298
899.273	3226
899.393	3287
899.513	3264
899.633	3325
899.753	3310
899.873	3279
899.993	3329
900.113	3359
900.232	3344
900.352	3355
900.472	3291
900.591	3222
900.711	3275
900.83	3241
900.95	3412
901.069	3496
901.189	3321
901.308	3184
901.427	3104
901.546	3203
901.665	3313
901.784	3363
901.904	3169
902.023	3138
902.141	3036
902.26	2975
902.379	3157
902.498	3066
902.617	3043
902.735	3241
902.854	3176
902.973	3150
903.091	3017
903.21	3039
903.328	3119
903.446	3081
903.565	3085
903.683	3253
903.801	3089
903.919	3237
904.038	3249
904.156	3184
904.274	3214
904.392	3275
904.51	3291
904.627	3325
904.745	3401
904.863	3507
904.981	3253
905.098	3104
905.216	3249
905.334	3279
905.451	3302
905.569	3321
905.686	3450
905.803	3481
905.921	3245
906.038	3401
906.155	3313
906.272	3241
906.389	3306
906.506	3237
906.623	3275
906.74	3283
906.857	3184
906.974	3233
907.091	3450
907.208	3542
907.324	3500
907.441	3351
907.557	3203
907.674	3218
907.79	3203
907.907	3272
908.023	3367
908.139	3397
908.256	3359
908.372	3348
908.488	3355
908.604	3226
908.72	3268
908.836	3272
908.952	3245
909.068	3389
909.184	3458
909.3	3397
909.415	3511
909.531	3450
909.647	3275
909.762	3275
909.878	3256
909.993	3351
910.108	3336
910.224	3370
910.339	3397
910.454	3344
910.57	3306
910.685	3222
910.8	3564
910.915	3530
911.03	3443
911.145	3291
911.259	3283
911.374	3313
911.489	3272
911.604	3222
911.718	3123
911.833	3131
911.947	3055
912.062	2982
912.176	3165
912.291	3180
912.405	3188
912.519	3424
912.633	3458
912.748	3298
912.862	3256
912.976	3146
913.09	3032
913.204	3123
913.318	3207
913.431	3336
913.545	3325
913.659	3458
913.772	3313
913.886	3245
914	3192
914.113	3321
914.226	3397
914.34	3363
914.453	3192
914.566	3393
914.68	3329
914.793	3291
914.906	3097
915.019	3093
915.132	3055
915.245	3154
915.358	3180
915.47	3199
915.583	3275
915.696	3306
915.809	3401
915.921	3439
916.034	3268
916.146	3245
916.259	3211
916.371	3382
916.483	3348
916.595	3249
916.708	3340
916.82	3351
916.932	3321
917.044	3321
917.156	3332
917.268	3283
917.38	3253
917.491	3268
917.603	3332
917.715	3462
917.826	3431
917.938	3355
918.049	3268
918.161	3454
918.272	3561
918.384	3572
918.495	3477
918.606	3306
918.717	3275
918.828	3355
918.939	3382
919.05	3317
919.161	3325
919.272	3169
919.383	3245
919.494	3500
919.604	3663
919.715	3469
919.826	3405
919.936	3485
920.047	3603
920.157	3561
920.267	3770
920.378	3580
920.488	3549
920.598	3819
920.708	3953
920.818	3797
920.928	3831
921.038	4021
921.148	4036
921.258	3667
921.368	3622
921.477	3553
921.587	3519
921.697	3443
921.806	3610
921.916	3511
922.025	3348
922.134	3359
922.244	3306
922.353	3355
922.462	3256
922.571	3226
922.68	3135
922.789	3036
922.898	3116
923.007	3097
923.116	3165
923.224	3188
923.333	3173
923.442	3081
923.55	3093
923.659	3135
923.767	3188
923.876	3116
923.984	3253
924.092	3097
924.201	3195
924.309	3230
924.417	3264
924.525	3207
924.633	3230
924.741	4017
924.849	3001
924.956	3230
925.064	3097
925.172	3058
925.279	3119
925.387	3230
925.494	3207
925.602	3340
925.709	3298
925.816	3188
925.924	3287
926.031	3378
926.138	3348
926.245	3344
926.352	3241
926.459	3420
926.566	3412
926.673	3283
926.779	3218
926.886	3294
926.993	3123
927.099	3135
927.206	3108
927.312	3119
927.419	3222
927.525	3214
927.631	3268
927.737	3131
927.843	3119
927.95	3058
928.056	3119
928.162	3173
928.267	3241
928.373	3728
928.479	3253
928.585	3081
928.69	3199
928.796	3241
928.901	3195
929.007	3028
929.112	3207
929.218	3192
929.323	3192
929.428	3146
929.533	3291
929.638	3142
929.743	3135
929.848	3272
929.953	3207
930.058	3157
930.163	2990
930.267	3051
930.372	3176
930.477	3009
930.581	3329
930.685	3165
930.79	3058
930.894	3138
930.998	3089
931.103	3298
931.207	2982
931.311	2952
931.415	2925
931.519	2769
931.623	2773
