Data from test_V78500241_2021.txt Node
Date: Fri Mar 25 16:29:12 CST 2022
User: usil
Spectrometer: V785-0024
Trigger mode: 0
Integration Time (sec): 4.000000E-1
Scans to average: 1
Nonlinearity correction enabled: false
Boxcar width: 0
Storing dark spectrum: false
XAxis mode: Wavelengths
Number of Pixels in Spectrum: 1024
>>>>>Begin Spectral Data<<<<<
801.071	2918
801.214	2941
801.356	2876
801.499	2914
801.641	2868
801.783	2948
801.926	3062
802.068	3017
802.211	3001
802.353	3051
802.496	2979
802.638	3039
802.78	3077
802.923	3066
803.065	3028
803.208	2929
803.35	2971
803.492	2960
803.635	2941
803.777	2773
803.919	2868
804.061	3226
804.204	2971
804.346	2929
804.488	2883
804.63	3005
804.773	2918
804.915	2941
805.057	3100
805.199	2933
805.341	2982
805.483	3055
805.626	2979
805.768	2948
805.91	3055
806.052	3142
806.194	3047
806.336	3264
806.478	3039
806.62	2975
806.762	2986
806.904	3058
807.046	3184
807.188	2998
807.33	2929
807.472	3001
807.614	2937
807.756	2952
807.898	2952
808.04	2895
808.182	2990
808.324	2982
808.465	2918
808.607	2823
808.749	2819
808.891	2849
809.033	2982
809.174	3001
809.316	2899
809.458	2906
809.6	2785
809.741	2750
809.883	2731
810.025	2845
810.166	2902
810.308	2811
810.45	2864
810.591	2777
810.733	2788
810.875	2845
811.016	2762
811.158	2777
811.299	2807
811.441	2922
811.582	2906
811.724	2804
811.865	2830
812.007	2895
812.148	2891
812.29	2853
812.431	2857
812.573	2925
812.714	2952
812.855	3043
812.997	3032
813.138	3119
813.279	3017
813.421	3017
813.562	2979
813.703	2868
813.845	2891
813.986	2788
814.127	2724
814.268	2815
814.41	2826
814.551	2842
814.692	2872
814.833	2807
814.974	2861
815.115	2971
815.256	2811
815.397	2826
815.539	2876
815.68	2766
815.821	2796
815.962	2929
816.103	2933
816.244	2857
816.385	2880
816.526	2982
816.666	2895
816.807	2766
816.948	2902
817.089	2906
817.23	2849
817.371	2785
817.512	2792
817.653	2906
817.793	2815
817.934	2887
818.075	2960
818.216	3001
818.356	3005
818.497	2899
818.638	2758
818.778	2838
818.919	2781
819.06	2773
819.2	2887
819.341	2823
819.481	2819
819.622	2933
819.762	3108
819.903	3062
820.043	2880
820.184	2918
820.324	2895
820.465	3017
820.605	2998
820.746	2963
820.886	2918
821.026	3108
821.167	3146
821.307	3233
821.447	3268
821.588	3218
821.728	3203
821.868	3207
822.008	3074
822.149	3131
822.289	3195
822.429	3070
822.569	3070
822.709	3188
822.849	3032
822.99	3055
823.13	3157
823.27	3222
823.41	3131
823.55	3176
823.69	3161
823.83	3199
823.97	3108
824.11	2990
824.25	2967
824.389	3066
824.529	3100
824.669	3043
824.809	3180
824.949	3211
825.089	3222
825.228	3161
825.368	2998
825.508	2941
825.648	2971
825.787	3009
825.927	2998
826.067	2982
826.206	2941
826.346	3036
826.485	3058
826.625	3089
826.765	3241
826.904	3203
827.044	2994
827.183	2941
827.323	2876
827.462	2967
827.601	2922
827.741	2944
827.88	2944
828.02	2864
828.159	2971
828.298	3036
828.437	3127
828.577	3005
828.716	3256
828.855	3062
828.994	2906
829.134	2902
829.273	2906
829.412	2857
829.551	2883
829.69	2918
829.829	3005
829.968	3093
830.107	3055
830.246	3051
830.385	2891
830.524	2861
830.663	2845
830.802	2720
830.941	2644
831.08	2663
831.219	2735
831.357	2746
831.496	2937
831.635	2727
831.774	2621
831.913	2670
832.051	2575
832.19	2545
832.329	2678
832.467	2568
832.606	2511
832.744	2579
832.883	2564
833.022	2579
833.16	2625
833.299	2674
833.437	2727
833.576	2701
833.714	2682
833.852	2762
833.991	2785
834.129	2819
834.267	2834
834.406	2788
834.544	2880
834.682	2861
834.821	2842
834.959	3055
835.097	2914
835.235	3032
835.373	2967
835.511	3032
835.65	2944
835.788	2914
835.926	2845
836.064	2830
836.202	2842
836.34	3097
836.478	3150
836.615	3074
836.753	3135
836.891	3222
837.029	3157
837.167	3127
837.305	3043
837.443	3043
837.58	2956
837.718	3142
837.856	3036
837.993	3009
838.131	3097
838.269	3097
838.406	3081
838.544	3089
838.681	2937
838.819	2956
838.956	2777
839.094	2845
839.231	2891
839.369	3028
839.506	3382
839.643	3230
839.781	3017
839.918	2952
840.055	3043
840.193	3074
840.33	3066
840.467	3093
840.604	3184
840.742	3443
840.879	3043
841.016	3024
841.153	3066
841.29	3317
841.427	3283
841.564	3272
841.701	3313
841.838	3237
841.975	3176
842.112	3192
842.249	3089
842.385	3009
842.522	3241
842.659	3074
842.796	3070
842.933	3108
843.069	3032
843.206	3047
843.343	3188
843.479	3116
843.616	3150
843.752	2902
843.889	2853
844.025	3097
844.162	2880
844.298	3074
844.435	2914
844.571	2906
844.708	3100
844.844	3195
844.98	3245
845.117	3214
845.253	3066
845.389	2994
845.525	3081
845.661	3085
845.798	2994
845.934	3127
846.07	3051
846.206	3233
846.342	3306
846.478	3260
846.614	3093
846.75	3077
846.886	3028
847.022	3264
847.158	3127
847.294	3184
847.429	3249
847.565	3203
847.701	3450
847.837	2979
847.972	2956
848.108	3157
848.244	3112
848.379	2982
848.515	2971
848.65	2944
848.786	2960
848.921	3020
849.057	3119
849.192	3127
849.328	3070
849.463	3074
849.598	3058
849.734	3001
849.869	2990
850.004	2910
850.14	2956
850.275	2914
850.41	2849
850.545	2883
850.68	2895
850.815	2967
850.95	2986
851.085	3180
851.22	3123
851.355	2990
851.49	2944
851.625	2986
851.76	3028
851.895	2952
852.03	2902
852.165	3039
852.299	3112
852.434	3241
852.569	3131
852.703	3157
852.838	3230
852.973	3336
853.107	3310
853.242	3138
853.376	3089
853.511	2967
853.645	3074
853.78	3260
853.914	3116
854.048	3104
854.183	3085
854.317	3150
854.451	3287
854.585	3157
854.72	3077
854.854	3203
854.988	3070
855.122	3047
855.256	2990
855.39	3123
855.524	3226
855.658	3199
855.792	3146
855.926	3207
856.06	3176
856.194	3245
856.327	3142
856.461	3066
856.595	3119
856.729	3085
856.862	3222
856.996	3157
857.13	3184
857.263	3249
857.397	3268
857.53	3089
857.664	3161
857.797	3226
857.931	3268
858.064	3176
858.197	3207
858.331	3131
858.464	3055
858.597	2979
858.731	3116
858.864	3142
858.997	3093
859.13	3138
859.263	3161
859.396	3192
859.529	3066
859.662	3051
859.795	3077
859.928	3135
860.061	3325
860.194	3291
860.327	3135
860.46	3089
860.592	3241
860.725	3249
860.858	3256
860.99	3127
861.123	3020
861.256	3039
861.388	3135
861.521	3823
861.653	3028
861.786	2975
861.918	2986
862.05	3058
862.183	3043
862.315	3146
862.447	3192
862.58	3104
862.712	2979
862.844	2876
862.976	3039
863.108	3009
863.24	3294
863.372	2895
863.504	2960
863.636	2933
863.768	3009
863.9	2960
864.032	2925
864.164	2944
864.296	3005
864.428	3100
864.559	3108
864.691	3104
864.823	3089
864.954	3009
865.086	2960
865.217	2990
865.349	2941
865.48	2994
865.612	3013
865.743	3108
865.875	3058
866.006	2929
866.137	2982
866.269	2952
866.4	2925
866.531	2918
866.662	2857
866.793	2876
866.924	2887
867.055	2963
867.186	2918
867.317	2861
867.448	2853
867.579	2823
867.71	2815
867.841	2815
867.972	2883
868.103	2853
868.233	2857
868.364	2868
868.495	2902
868.625	3062
868.756	3138
868.886	2952
869.017	3020
869.147	3157
869.278	3195
869.408	3020
869.539	3032
869.669	3104
869.799	3017
869.929	3146
870.06	3104
870.19	3317
870.32	3279
870.45	3249
870.58	3370
870.71	3420
870.84	3428
870.97	3264
871.1	3211
871.23	3473
871.36	3428
871.489	3340
871.619	3355
871.749	3412
871.879	3393
872.008	3454
872.138	3409
872.267	3291
872.397	3127
872.526	3100
872.656	2979
872.785	3093
872.915	3245
873.044	3310
873.173	3195
873.303	3237
873.432	3211
873.561	3233
873.69	3146
873.819	3154
873.948	3150
874.077	3089
874.206	3085
874.335	3108
874.464	3188
874.593	3336
874.722	3260
874.851	3378
874.979	3344
875.108	3321
875.237	3169
875.365	3173
875.494	3161
875.623	3222
875.751	3081
875.88	3058
876.008	3169
876.136	3154
876.265	3370
876.393	3523
876.521	3386
876.65	3397
876.778	3275
876.906	3291
877.034	3176
877.162	3218
877.29	3180
877.418	3230
877.546	3253
877.674	3245
877.802	3199
877.93	3195
878.058	3127
878.185	3108
878.313	3195
878.441	3211
878.568	3024
878.696	3116
878.824	3218
878.951	3325
879.079	3409
879.206	3580
879.333	3469
879.461	3344
879.588	3363
879.715	3466
879.842	3591
879.97	3363
880.097	3169
880.224	3119
880.351	3138
880.478	3214
880.605	3180
880.732	3150
880.859	3435
880.986	3291
881.112	3317
881.239	3180
881.366	3081
881.493	3028
881.619	3047
881.746	3043
881.872	3074
881.999	3074
882.125	3165
882.252	3214
882.378	3279
882.505	3458
882.631	3256
882.757	3165
882.883	3192
883.01	3249
883.136	3188
883.262	3097
883.388	3089
883.514	3321
883.64	3374
883.766	3317
883.892	3222
884.018	3233
884.143	3439
884.269	3534
884.395	3203
884.52	3173
884.646	3226
884.772	3123
884.897	3097
885.023	3176
885.148	3340
885.274	3397
885.399	3325
885.524	3268
885.65	3237
885.775	3321
885.9	3275
886.025	3393
886.15	3382
886.275	3275
886.4	3260
886.525	3302
886.65	3272
886.775	3279
886.9	3469
887.025	3618
887.149	3405
887.274	3253
887.399	3157
887.523	3211
887.648	3135
887.773	3192
887.897	3363
888.021	3416
888.146	3317
888.27	3424
888.395	3523
888.519	3412
888.643	3466
888.767	3447
888.891	3302
889.015	3226
889.139	3279
889.263	3211
889.387	3431
889.511	3500
889.635	3447
889.759	3306
889.883	3329
890.006	3370
890.13	3462
890.254	3264
890.377	3317
890.501	3127
890.624	3184
890.748	3294
890.871	3154
890.995	3112
891.118	3032
891.241	3192
891.364	3218
891.488	3310
891.611	3165
891.734	3230
891.857	3306
891.98	3203
892.103	3298
892.226	3260
892.349	3195
892.471	3119
892.594	3268
892.717	3291
892.839	3279
892.962	3291
893.085	3378
893.207	3253
893.33	3123
893.452	3203
893.575	3321
893.697	3222
893.819	3477
893.941	3454
894.064	3477
894.186	3272
894.308	3298
894.43	3428
894.552	3507
894.674	3458
894.796	3260
894.918	3294
895.04	3291
895.161	3428
895.283	3363
895.405	3260
895.526	3386
895.648	3409
895.769	3348
895.891	3431
896.012	3428
896.134	3477
896.255	3397
896.376	3374
896.498	3351
896.619	3420
896.74	3351
896.861	3374
896.982	3667
897.103	3816
897.224	3561
897.345	3462
897.466	3435
897.587	3504
897.708	3618
897.828	3496
897.949	3397
898.07	3302
898.19	3401
898.311	3584
898.431	3386
898.552	3496
898.672	3595
898.792	3572
898.913	3511
899.033	3401
899.153	3279
899.273	3207
899.393	3279
899.513	3302
899.633	3317
899.753	3344
899.873	3310
899.993	3340
900.113	3317
900.232	3409
900.352	3340
900.472	3287
900.591	3218
900.711	3264
900.83	3253
900.95	3405
901.069	3485
901.189	3344
901.308	3112
901.427	3108
901.546	3165
901.665	3291
901.784	3306
901.904	3176
902.023	3104
902.141	2975
902.26	3001
902.379	3116
902.498	3055
902.617	3058
902.735	3195
902.854	3214
902.973	3203
903.091	3074
903.21	3055
903.328	3154
903.446	3119
903.565	3081
903.683	3199
903.801	3123
903.919	3218
904.038	3256
904.156	3157
904.274	3275
904.392	3233
904.51	3291
904.627	3340
904.745	3374
904.863	3462
904.981	3241
905.098	3157
905.216	3214
905.334	3230
905.451	3279
905.569	3317
905.686	3420
905.803	3443
905.921	3272
906.038	3409
906.155	3374
906.272	3256
906.389	3321
906.506	3249
906.623	3272
906.74	3260
906.857	3154
906.974	3253
907.091	3454
907.208	3538
907.324	3454
907.441	3344
907.557	3180
907.674	3241
907.79	3161
907.907	3283
908.023	3351
908.139	3348
908.256	3291
908.372	3332
908.488	3351
908.604	3268
908.72	3245
908.836	3272
908.952	3256
909.068	3329
909.184	3519
909.3	3359
909.415	3504
909.531	3443
909.647	3268
909.762	3226
909.878	3233
909.993	3374
910.108	3302
910.224	3336
910.339	3401
910.454	3325
910.57	3283
910.685	3226
910.8	3584
910.915	3542
911.03	3386
911.145	3222
911.259	3260
911.374	3348
911.489	3237
911.604	3222
911.718	3112
911.833	3093
911.947	3009
912.062	2994
912.176	3165
912.291	3165
912.405	3214
912.519	3439
912.633	3469
912.748	3325
912.862	3253
912.976	3161
913.09	3051
913.204	3116
913.318	3173
913.431	3336
913.545	3325
913.659	3386
913.772	3329
913.886	3192
914	3184
914.113	3329
914.226	3393
914.34	3359
914.453	3222
914.566	3431
914.68	3249
914.793	3291
914.906	3127
915.019	3150
915.132	3081
915.245	3119
915.358	3176
915.47	3218
915.583	3272
915.696	3230
915.809	3374
915.921	3389
916.034	3226
916.146	3230
916.259	3199
916.371	3367
916.483	3351
916.595	3264
916.708	3363
916.82	3294
916.932	3367
917.044	3348
917.156	3336
917.268	3253
917.38	3279
917.491	3306
917.603	3351
917.715	3439
917.826	3462
917.938	3374
918.049	3283
918.161	3420
918.272	3603
918.384	3564
918.495	3515
918.606	3329
918.717	3283
918.828	3389
918.939	3424
919.05	3306
919.161	3378
919.272	3211
919.383	3294
919.494	3561
919.604	3709
919.715	3504
919.826	3435
919.936	3447
920.047	3641
920.157	3614
920.267	3774
920.378	3656
920.488	3599
920.598	3827
920.708	4025
920.818	3838
920.928	3884
921.038	4086
921.148	4021
921.258	3751
921.368	3648
921.477	3633
921.587	3587
921.697	3477
921.806	3648
921.916	3584
922.025	3355
922.134	3409
922.244	3348
922.353	3477
922.462	3306
922.571	3279
922.68	3165
922.789	3093
922.898	3173
923.007	3135
923.116	3222
923.224	3184
923.333	3264
923.442	3142
923.55	3119
923.659	3173
923.767	3253
923.876	3150
923.984	3291
924.092	3127
924.201	3249
924.309	3275
924.417	3317
924.525	3207
924.633	3272
924.741	4227
924.849	3116
924.956	3298
925.064	3161
925.172	3093
925.279	3127
925.387	3233
925.494	3241
925.602	3363
925.709	3389
925.816	3245
925.924	3298
926.031	3401
926.138	3389
926.245	3397
926.352	3256
926.459	3450
926.566	3523
926.673	3370
926.779	3287
926.886	3283
926.993	3188
927.099	3169
927.206	3195
927.312	3146
927.419	3241
927.525	3264
927.631	3351
927.737	3154
927.843	3131
927.95	3051
928.056	3173
928.162	3218
928.267	3253
928.373	3930
928.479	3321
928.585	3112
928.69	3226
928.796	3313
928.901	3218
929.007	3097
929.112	3241
929.218	3207
929.323	3161
929.428	3157
929.533	3382
929.638	3154
929.743	3180
929.848	3329
929.953	3230
930.058	3154
930.163	3020
930.267	3077
930.372	3253
930.477	3036
930.581	3329
930.685	3184
930.79	3119
930.894	3138
930.998	3135
931.103	3310
931.207	2990
931.311	2982
931.415	2929
931.519	2800
931.623	2857
