Data from test_V78500241_1191.txt Node
Date: Fri Mar 25 16:23:27 CST 2022
User: usil
Spectrometer: V785-0024
Trigger mode: 0
Integration Time (sec): 4.000000E-1
Scans to average: 1
Nonlinearity correction enabled: false
Boxcar width: 0
Storing dark spectrum: false
XAxis mode: Wavelengths
Number of Pixels in Spectrum: 1024
>>>>>Begin Spectral Data<<<<<
801.071	2899
801.214	2929
801.356	2872
801.499	2929
801.641	2899
801.783	2906
801.926	3058
802.068	2956
802.211	3001
802.353	3009
802.496	2979
802.638	3009
802.78	3036
802.923	3100
803.065	3047
803.208	2887
803.35	2906
803.492	2960
803.635	2918
803.777	2785
803.919	2861
804.061	3192
804.204	2937
804.346	2883
804.488	2853
804.63	2990
804.773	2887
804.915	2899
805.057	3051
805.199	2914
805.341	2956
805.483	3009
805.626	3009
805.768	2937
805.91	3074
806.052	3100
806.194	3028
806.336	3233
806.478	3047
806.62	2948
806.762	2956
806.904	3043
807.046	3157
807.188	3013
807.33	2895
807.472	2979
807.614	2880
807.756	2952
807.898	2918
808.04	2906
808.182	2975
808.324	2952
808.465	2872
808.607	2864
808.749	2800
808.891	2804
809.033	2967
809.174	2994
809.316	2891
809.458	2883
809.6	2769
809.741	2777
809.883	2777
810.025	2872
810.166	2849
810.308	2845
810.45	2857
810.591	2773
810.733	2750
810.875	2819
811.016	2762
811.158	2758
811.299	2781
811.441	2944
811.582	2899
811.724	2815
811.865	2807
812.007	2883
812.148	2883
812.29	2842
812.431	2895
812.573	2963
812.714	2948
812.855	3028
812.997	3032
813.138	3131
813.279	2986
813.421	2971
813.562	2963
813.703	2826
813.845	2868
813.986	2758
814.127	2705
814.268	2815
814.41	2811
814.551	2796
814.692	2861
814.833	2826
814.974	2895
815.115	2944
815.256	2796
815.397	2762
815.539	2864
815.68	2777
815.821	2788
815.962	2914
816.103	2952
816.244	2872
816.385	2845
816.526	2948
816.666	2941
816.807	2754
816.948	2861
817.089	2902
817.23	2823
817.371	2758
817.512	2788
817.653	2826
817.793	2830
817.934	2876
818.075	2967
818.216	2960
818.356	3001
818.497	2868
818.638	2766
818.778	2842
818.919	2796
819.06	2750
819.2	2842
819.341	2823
819.481	2804
819.622	2906
819.762	3112
819.903	3001
820.043	2902
820.184	2910
820.324	2880
820.465	2986
820.605	3039
820.746	3077
820.886	2944
821.026	3085
821.167	3188
821.307	3253
821.447	3294
821.588	3253
821.728	3230
821.868	3218
822.008	3043
822.149	3192
822.289	3241
822.429	3066
822.569	3131
822.709	3195
822.849	3058
822.99	3127
823.13	3195
823.27	3237
823.41	3135
823.55	3165
823.69	3203
823.83	3192
823.97	3135
824.11	3009
824.25	3074
824.389	3062
824.529	3135
824.669	3100
824.809	3222
824.949	3294
825.089	3207
825.228	3214
825.368	3020
825.508	2956
825.648	2979
825.787	3058
825.927	3089
826.067	3017
826.206	3036
826.346	3100
826.485	3150
826.625	3169
826.765	3313
826.904	3245
827.044	3005
827.183	2956
827.323	2864
827.462	3009
827.601	2956
827.741	2975
827.88	3028
828.02	2902
828.159	3020
828.298	3074
828.437	3135
828.577	3062
828.716	3279
828.855	3127
828.994	2990
829.134	2902
829.273	2933
829.412	2937
829.551	2918
829.69	2914
829.829	3036
829.968	3138
830.107	3039
830.246	3070
830.385	2960
830.524	2922
830.663	2838
830.802	2762
830.941	2689
831.08	2682
831.219	2815
831.357	2800
831.496	3001
831.635	2735
831.774	2693
831.913	2667
832.051	2571
832.19	2610
832.329	2720
832.467	2571
832.606	2545
832.744	2636
832.883	2590
833.022	2625
833.16	2644
833.299	2716
833.437	2720
833.576	2697
833.714	2777
833.852	2769
833.991	2834
834.129	2861
834.267	2876
834.406	2830
834.544	2906
834.682	2933
834.821	2910
834.959	3074
835.097	2941
835.235	3070
835.373	3017
835.511	3055
835.65	2975
835.788	2994
835.926	2861
836.064	2849
836.202	2891
836.34	3108
836.478	3146
836.615	3085
836.753	3173
836.891	3226
837.029	3203
837.167	3108
837.305	3123
837.443	3074
837.58	2986
837.718	3192
837.856	3077
837.993	3043
838.131	3173
838.269	3127
838.406	3142
838.544	3100
838.681	2982
838.819	2918
838.956	2853
839.094	2883
839.231	2979
839.369	3020
839.506	3420
839.643	3256
839.781	3028
839.918	3009
840.055	3047
840.193	3108
840.33	3077
840.467	3116
840.604	3188
840.742	3405
840.879	3085
841.016	3055
841.153	3146
841.29	3359
841.427	3382
841.564	3279
841.701	3310
841.838	3218
841.975	3161
842.112	3230
842.249	3116
842.385	3097
842.522	3321
842.659	3123
842.796	3070
842.933	3146
843.069	3032
843.206	3051
843.343	3222
843.479	3165
843.616	3150
843.752	2902
843.889	2929
844.025	3100
844.162	2910
844.298	3089
844.435	2960
844.571	2963
844.708	3131
844.844	3199
844.98	3253
845.117	3222
845.253	3066
845.389	3020
845.525	3100
845.661	3135
845.798	3055
845.934	3131
846.07	3058
846.206	3203
846.342	3344
846.478	3256
846.614	3097
846.75	3077
846.886	3028
847.022	3256
847.158	3161
847.294	3260
847.429	3268
847.565	3260
847.701	3485
847.837	3028
847.972	3009
848.108	3203
848.244	3150
848.379	3051
848.515	2982
848.65	2944
848.786	2982
848.921	3062
849.057	3119
849.192	3173
849.328	3074
849.463	3135
849.598	3028
849.734	3039
849.869	2979
850.004	2952
850.14	3013
850.275	2971
850.41	2853
850.545	2906
850.68	2960
850.815	3013
850.95	3005
851.085	3211
851.22	3173
851.355	3047
851.49	2998
851.625	3001
851.76	3051
851.895	2929
852.03	2963
852.165	3047
852.299	3108
852.434	3207
852.569	3131
852.703	3180
852.838	3275
852.973	3340
853.107	3344
853.242	3157
853.376	3123
853.511	3024
853.645	3039
853.78	3245
853.914	3127
854.048	3104
854.183	3097
854.317	3142
854.451	3329
854.585	3161
854.72	3112
854.854	3230
854.988	3047
855.122	3062
855.256	3005
855.39	3150
855.524	3256
855.658	3211
855.792	3157
855.926	3249
856.06	3241
856.194	3298
856.327	3173
856.461	3085
856.595	3135
856.729	3097
856.862	3245
856.996	3192
857.13	3195
857.263	3241
857.397	3302
857.53	3135
857.664	3211
857.797	3260
857.931	3283
858.064	3230
858.197	3226
858.331	3123
858.464	3100
858.597	3009
858.731	3119
858.864	3138
858.997	3119
859.13	3142
859.263	3226
859.396	3233
859.529	3142
859.662	3093
859.795	3123
859.928	3161
860.061	3302
860.194	3348
860.327	3127
860.46	3146
860.592	3264
860.725	3264
860.858	3291
860.99	3131
861.123	3043
861.256	3089
861.388	3146
861.521	3747
861.653	3009
861.786	3001
861.918	2998
862.05	3055
862.183	3112
862.315	3180
862.447	3207
862.58	3131
862.712	2956
862.844	2883
862.976	3039
863.108	2998
863.24	3351
863.372	2902
863.504	2960
863.636	2979
863.768	3039
863.9	2975
864.032	2944
864.164	2952
864.296	3055
864.428	3108
864.559	3097
864.691	3085
864.823	3077
864.954	3062
865.086	3043
865.217	3009
865.349	2910
865.48	2998
865.612	3051
865.743	3207
865.875	2990
866.006	2941
866.137	2986
866.269	2956
866.4	2948
866.531	2918
866.662	2925
866.793	2891
866.924	2922
867.055	2990
867.186	2925
867.317	2895
867.448	2872
867.579	2876
867.71	2891
867.841	2849
867.972	2937
868.103	2925
868.233	2883
868.364	2857
868.495	2902
868.625	3108
868.756	3169
868.886	3005
869.017	3017
869.147	3188
869.278	3222
869.408	3070
869.539	3047
869.669	3116
869.799	3039
869.929	3173
870.06	3116
870.19	3317
870.32	3329
870.45	3272
870.58	3405
870.71	3454
870.84	3485
870.97	3306
871.1	3249
871.23	3473
871.36	3450
871.489	3325
871.619	3397
871.749	3454
871.879	3481
872.008	3526
872.138	3367
872.267	3317
872.397	3161
872.526	3100
872.656	2979
872.785	3108
872.915	3249
873.044	3291
873.173	3264
873.303	3253
873.432	3256
873.561	3268
873.69	3199
873.819	3169
873.948	3237
874.077	3112
874.206	3093
874.335	3047
874.464	3192
874.593	3344
874.722	3283
874.851	3416
874.979	3367
875.108	3340
875.237	3173
875.365	3142
875.494	3176
875.623	3268
875.751	3097
875.88	3146
876.008	3165
876.136	3218
876.265	3378
876.393	3519
876.521	3424
876.65	3416
876.778	3321
876.906	3279
877.034	3188
877.162	3241
877.29	3188
877.418	3237
877.546	3272
877.674	3256
877.802	3237
877.93	3180
878.058	3131
878.185	3165
878.313	3226
878.441	3214
878.568	3093
878.696	3184
878.824	3241
878.951	3306
879.079	3450
879.206	3587
879.333	3454
879.461	3344
879.588	3378
879.715	3488
879.842	3637
879.97	3378
880.097	3165
880.224	3100
880.351	3180
880.478	3268
880.605	3184
880.732	3218
880.859	3519
880.986	3283
881.112	3298
881.239	3195
881.366	3100
881.493	3051
881.619	3039
881.746	3100
881.872	3135
881.999	3104
882.125	3142
882.252	3241
882.378	3302
882.505	3424
882.631	3291
882.757	3203
882.883	3253
883.01	3264
883.136	3165
883.262	3108
883.388	3123
883.514	3370
883.64	3382
883.766	3310
883.892	3169
884.018	3233
884.143	3447
884.269	3576
884.395	3207
884.52	3173
884.646	3203
884.772	3135
884.897	3146
885.023	3188
885.148	3332
885.274	3431
885.399	3363
885.524	3287
885.65	3291
885.775	3317
885.9	3325
886.025	3416
886.15	3359
886.275	3321
886.4	3245
886.525	3294
886.65	3283
886.775	3268
886.9	3523
887.025	3660
887.149	3397
887.274	3241
887.399	3188
887.523	3192
887.648	3207
887.773	3226
887.897	3397
888.021	3378
888.146	3317
888.27	3443
888.395	3568
888.519	3447
888.643	3393
888.767	3428
888.891	3313
889.015	3226
889.139	3321
889.263	3230
889.387	3412
889.511	3538
889.635	3450
889.759	3310
889.883	3302
890.006	3412
890.13	3504
890.254	3294
890.377	3344
890.501	3218
890.624	3146
890.748	3344
890.871	3184
890.995	3150
891.118	3104
891.241	3253
891.364	3245
891.488	3306
891.611	3207
891.734	3226
891.857	3279
891.98	3283
892.103	3382
892.226	3298
892.349	3230
892.471	3116
892.594	3207
892.717	3298
892.839	3275
892.962	3329
893.085	3363
893.207	3321
893.33	3138
893.452	3214
893.575	3382
893.697	3222
893.819	3481
893.941	3534
894.064	3492
894.186	3249
894.308	3283
894.43	3485
894.552	3542
894.674	3511
894.796	3291
894.918	3336
895.04	3306
895.161	3412
895.283	3401
895.405	3306
895.526	3382
895.648	3462
895.769	3428
895.891	3458
896.012	3488
896.134	3435
896.255	3416
896.376	3340
896.498	3386
896.619	3431
896.74	3321
896.861	3412
896.982	3724
897.103	3831
897.224	3584
897.345	3507
897.466	3469
897.587	3530
897.708	3591
897.828	3557
897.949	3428
898.07	3363
898.19	3420
898.311	3629
898.431	3473
898.552	3519
898.672	3564
898.792	3618
898.913	3557
899.033	3397
899.153	3294
899.273	3249
899.393	3264
899.513	3283
899.633	3344
899.753	3340
899.873	3310
899.993	3359
900.113	3336
900.232	3363
900.352	3378
900.472	3291
900.591	3241
900.711	3272
900.83	3260
900.95	3397
901.069	3481
901.189	3332
901.308	3157
901.427	3138
901.546	3188
901.665	3302
901.784	3336
901.904	3211
902.023	3146
902.141	3028
902.26	3013
902.379	3119
902.498	3077
902.617	3085
902.735	3192
902.854	3233
902.973	3218
903.091	3055
903.21	3089
903.328	3142
903.446	3104
903.565	3123
903.683	3218
903.801	3135
903.919	3226
904.038	3279
904.156	3154
904.274	3291
904.392	3268
904.51	3253
904.627	3329
904.745	3450
904.863	3462
904.981	3237
905.098	3180
905.216	3241
905.334	3317
905.451	3344
905.569	3294
905.686	3435
905.803	3454
905.921	3283
906.038	3393
906.155	3359
906.272	3272
906.389	3321
906.506	3214
906.623	3253
906.74	3275
906.857	3169
906.974	3233
907.091	3447
907.208	3519
907.324	3458
907.441	3382
907.557	3256
907.674	3241
907.79	3207
907.907	3279
908.023	3374
908.139	3351
908.256	3348
908.372	3382
908.488	3351
908.604	3249
908.72	3241
908.836	3287
908.952	3294
909.068	3332
909.184	3450
909.3	3420
909.415	3496
909.531	3447
909.647	3306
909.762	3298
909.878	3260
909.993	3340
910.108	3370
910.224	3344
910.339	3393
910.454	3344
910.57	3310
910.685	3233
910.8	3591
910.915	3542
911.03	3397
911.145	3260
911.259	3253
911.374	3317
911.489	3226
911.604	3211
911.718	3116
911.833	3142
911.947	3074
912.062	2986
912.176	3154
912.291	3214
912.405	3237
912.519	3447
912.633	3450
912.748	3306
912.862	3264
912.976	3203
913.09	3089
913.204	3100
913.318	3211
913.431	3363
913.545	3336
913.659	3409
913.772	3344
913.886	3203
914	3176
914.113	3401
914.226	3397
914.34	3374
914.453	3176
914.566	3412
914.68	3283
914.793	3332
914.906	3108
915.019	3093
915.132	3066
915.245	3165
915.358	3233
915.47	3199
915.583	3272
915.696	3294
915.809	3374
915.921	3416
916.034	3249
916.146	3264
916.259	3233
916.371	3359
916.483	3374
916.595	3272
916.708	3332
916.82	3348
916.932	3306
917.044	3325
917.156	3340
917.268	3237
917.38	3279
917.491	3310
917.603	3359
917.715	3439
917.826	3439
917.938	3382
918.049	3275
918.161	3431
918.272	3580
918.384	3587
918.495	3485
918.606	3332
918.717	3283
918.828	3397
918.939	3409
919.05	3279
919.161	3348
919.272	3199
919.383	3294
919.494	3481
919.604	3671
919.715	3416
919.826	3420
919.936	3473
920.047	3595
920.157	3534
920.267	3728
920.378	3614
920.488	3564
920.598	3759
920.708	3930
920.818	3835
920.928	3831
921.038	4017
921.148	4029
921.258	3675
921.368	3618
921.477	3580
921.587	3568
921.697	3454
921.806	3610
921.916	3511
922.025	3336
922.134	3374
922.244	3291
922.353	3458
922.462	3268
922.571	3176
922.68	3097
922.789	3058
922.898	3131
923.007	3093
923.116	3195
923.224	3192
923.333	3207
923.442	3097
923.55	3077
923.659	3161
923.767	3211
923.876	3104
923.984	3188
924.092	3108
924.201	3226
924.309	3195
924.417	3226
924.525	3184
924.633	3207
924.741	3972
924.849	3074
924.956	3275
925.064	3074
925.172	3047
925.279	3089
925.387	3192
925.494	3218
925.602	3332
925.709	3336
925.816	3188
925.924	3260
926.031	3412
926.138	3313
926.245	3355
926.352	3233
926.459	3458
926.566	3458
926.673	3336
926.779	3245
926.886	3283
926.993	3119
927.099	3100
927.206	3131
927.312	3127
927.419	3249
927.525	3195
927.631	3237
927.737	3157
927.843	3104
927.95	3005
928.056	3116
928.162	3184
928.267	3283
928.373	3903
928.479	3325
928.585	3066
928.69	3203
928.796	3245
928.901	3176
929.007	3032
929.112	3203
929.218	3180
929.323	3131
929.428	3150
929.533	3306
929.638	3127
929.743	3180
929.848	3302
929.953	3260
930.058	3119
930.163	3020
930.267	3051
930.372	3173
930.477	3017
930.581	3344
930.685	3154
930.79	3024
930.894	3127
930.998	3123
931.103	3294
931.207	2971
931.311	2941
931.415	2929
931.519	2785
931.623	2792
