Data from test_V78500241_1403.txt Node
Date: Fri Mar 25 16:24:55 CST 2022
User: usil
Spectrometer: V785-0024
Trigger mode: 0
Integration Time (sec): 4.000000E-1
Scans to average: 1
Nonlinearity correction enabled: false
Boxcar width: 0
Storing dark spectrum: false
XAxis mode: Wavelengths
Number of Pixels in Spectrum: 1024
>>>>>Begin Spectral Data<<<<<
801.071	2944
801.214	2975
801.356	2883
801.499	2967
801.641	2914
801.783	2952
801.926	3077
802.068	3024
802.211	3017
802.353	3047
802.496	3024
802.638	3009
802.78	3074
802.923	3097
803.065	3043
803.208	2960
803.35	2937
803.492	2948
803.635	2925
803.777	2766
803.919	2823
804.061	3188
804.204	2948
804.346	2906
804.488	2872
804.63	3047
804.773	2891
804.915	2937
805.057	3043
805.199	2914
805.341	2998
805.483	3028
805.626	3009
805.768	3020
805.91	3081
806.052	3138
806.194	3036
806.336	3253
806.478	3013
806.62	2960
806.762	2994
806.904	3127
807.046	3230
807.188	3013
807.33	2933
807.472	2975
807.614	2914
807.756	2994
807.898	2922
808.04	2937
808.182	2998
808.324	2971
808.465	2887
808.607	2899
808.749	2826
808.891	2853
809.033	2982
809.174	2982
809.316	2899
809.458	2895
809.6	2754
809.741	2754
809.883	2792
810.025	2872
810.166	2830
810.308	2845
810.45	2857
810.591	2777
810.733	2762
810.875	2838
811.016	2807
811.158	2769
811.299	2815
811.441	2948
811.582	2880
811.724	2792
811.865	2838
812.007	2925
812.148	2906
812.29	2864
812.431	2887
812.573	2948
812.714	2971
812.855	3047
812.997	3062
813.138	3093
813.279	2990
813.421	3017
813.562	2979
813.703	2883
813.845	2929
813.986	2792
814.127	2739
814.268	2830
814.41	2842
814.551	2838
814.692	2899
814.833	2807
814.974	2910
815.115	2960
815.256	2838
815.397	2815
815.539	2838
815.68	2781
815.821	2785
815.962	2960
816.103	2895
816.244	2880
816.385	2868
816.526	2948
816.666	2910
816.807	2777
816.948	2891
817.089	2922
817.23	2868
817.371	2773
817.512	2792
817.653	2838
817.793	2857
817.934	2891
818.075	2986
818.216	2979
818.356	3055
818.497	2880
818.638	2807
818.778	2853
818.919	2834
819.06	2773
819.2	2918
819.341	2826
819.481	2826
819.622	2902
819.762	3089
819.903	3055
820.043	2906
820.184	2899
820.324	2910
820.465	3020
820.605	3032
820.746	3062
820.886	2937
821.026	3089
821.167	3161
821.307	3294
821.447	3264
821.588	3249
821.728	3207
821.868	3233
822.008	3127
822.149	3226
822.289	3249
822.429	3093
822.569	3066
822.709	3218
822.849	3032
822.99	3062
823.13	3180
823.27	3199
823.41	3119
823.55	3169
823.69	3154
823.83	3173
823.97	3116
824.11	3062
824.25	2998
824.389	3089
824.529	3142
824.669	3074
824.809	3195
824.949	3279
825.089	3256
825.228	3173
825.368	3024
825.508	2990
825.648	2960
825.787	2982
825.927	2994
826.067	2994
826.206	2967
826.346	3055
826.485	3093
826.625	3116
826.765	3260
826.904	3218
827.044	3009
827.183	2933
827.323	2895
827.462	3009
827.601	2944
827.741	2982
827.88	3009
828.02	2883
828.159	2971
828.298	3097
828.437	3112
828.577	3036
828.716	3230
828.855	3104
828.994	2918
829.134	2914
829.273	2944
829.412	2857
829.551	2849
829.69	2910
829.829	3017
829.968	3142
830.107	3036
830.246	3013
830.385	2944
830.524	2864
830.663	2811
830.802	2746
830.941	2689
831.08	2640
831.219	2769
831.357	2785
831.496	2979
831.635	2735
831.774	2670
831.913	2640
832.051	2541
832.19	2587
832.329	2716
832.467	2571
832.606	2503
832.744	2579
832.883	2602
833.022	2579
833.16	2682
833.299	2705
833.437	2750
833.576	2701
833.714	2754
833.852	2750
833.991	2788
834.129	2845
834.267	2842
834.406	2815
834.544	2902
834.682	2872
834.821	2914
834.959	3066
835.097	2918
835.235	3100
835.373	2967
835.511	2994
835.65	2956
835.788	2986
835.926	2815
836.064	2823
836.202	2842
836.34	3104
836.478	3180
836.615	3051
836.753	3142
836.891	3222
837.029	3188
837.167	3116
837.305	3081
837.443	3036
837.58	2971
837.718	3097
837.856	3097
837.993	3028
838.131	3119
838.269	3161
838.406	3116
838.544	3077
838.681	2960
838.819	2902
838.956	2845
839.094	2842
839.231	2956
839.369	3070
839.506	3393
839.643	3253
839.781	3020
839.918	2971
840.055	3043
840.193	3108
840.33	3051
840.467	3108
840.604	3127
840.742	3370
840.879	3043
841.016	3055
841.153	3131
841.29	3340
841.427	3351
841.564	3279
841.701	3344
841.838	3230
841.975	3142
842.112	3245
842.249	3089
842.385	3047
842.522	3222
842.659	3104
842.796	3066
842.933	3100
843.069	3058
843.206	3066
843.343	3188
843.479	3146
843.616	3180
843.752	2891
843.889	2887
844.025	3104
844.162	2880
844.298	3047
844.435	2979
844.571	2941
844.708	3116
844.844	3135
844.98	3222
845.117	3203
845.253	3039
845.389	3017
845.525	3108
845.661	3089
845.798	2998
845.934	3161
846.07	3077
846.206	3218
846.342	3336
846.478	3222
846.614	3055
846.75	3089
846.886	3013
847.022	3264
847.158	3135
847.294	3222
847.429	3226
847.565	3218
847.701	3447
847.837	3055
847.972	2979
848.108	3146
848.244	3116
848.379	3005
848.515	2956
848.65	2933
848.786	2933
848.921	3005
849.057	3123
849.192	3157
849.328	3074
849.463	3104
849.598	3074
849.734	3020
849.869	2994
850.004	2906
850.14	2975
850.275	2895
850.41	2883
850.545	2910
850.68	2948
850.815	2963
850.95	2967
851.085	3192
851.22	3116
851.355	3020
851.49	2960
851.625	2986
851.76	3001
851.895	2937
852.03	2929
852.165	3077
852.299	3112
852.434	3207
852.569	3138
852.703	3157
852.838	3253
852.973	3325
853.107	3348
853.242	3188
853.376	3104
853.511	2994
853.645	3024
853.78	3230
853.914	3131
854.048	3123
854.183	3108
854.317	3169
854.451	3336
854.585	3157
854.72	3142
854.854	3256
854.988	3066
855.122	3039
855.256	2971
855.39	3142
855.524	3203
855.658	3188
855.792	3127
855.926	3169
856.06	3256
856.194	3302
856.327	3165
856.461	3070
856.595	3074
856.729	3070
856.862	3207
856.996	3146
857.13	3233
857.263	3211
857.397	3253
857.53	3142
857.664	3218
857.797	3230
857.931	3264
858.064	3195
858.197	3230
858.331	3127
858.464	3100
858.597	3036
858.731	3116
858.864	3169
858.997	3058
859.13	3173
859.263	3154
859.396	3203
859.529	3089
859.662	3077
859.795	3066
859.928	3138
860.061	3260
860.194	3317
860.327	3119
860.46	3108
860.592	3245
860.725	3260
860.858	3275
860.99	3119
861.123	3081
861.256	3051
861.388	3150
861.521	3720
861.653	3032
861.786	2990
861.918	3013
862.05	3070
862.183	3100
862.315	3119
862.447	3218
862.58	3085
862.712	3001
862.844	2864
862.976	3028
863.108	2979
863.24	3344
863.372	2899
863.504	2979
863.636	2979
863.768	3032
863.9	2963
864.032	2925
864.164	2925
864.296	3051
864.428	3097
864.559	3119
864.691	3097
864.823	3055
864.954	3036
865.086	3055
865.217	3039
865.349	2952
865.48	2975
865.612	3017
865.743	3135
865.875	3009
866.006	2956
866.137	2963
866.269	2967
866.4	2944
866.531	2895
866.662	2876
866.793	2895
866.924	2929
867.055	2967
867.186	2933
867.317	2891
867.448	2815
867.579	2838
867.71	2849
867.841	2811
867.972	2910
868.103	2895
868.233	2899
868.364	2872
868.495	2906
868.625	3085
868.756	3161
868.886	2982
869.017	3020
869.147	3184
869.278	3188
869.408	3055
869.539	3020
869.669	3074
869.799	3043
869.929	3135
870.06	3135
870.19	3291
870.32	3287
870.45	3291
870.58	3344
870.71	3450
870.84	3439
870.97	3264
871.1	3230
871.23	3485
871.36	3416
871.489	3321
871.619	3386
871.749	3405
871.879	3405
872.008	3458
872.138	3348
872.267	3275
872.397	3123
872.526	3081
872.656	3024
872.785	3100
872.915	3226
873.044	3340
873.173	3211
873.303	3272
873.432	3272
873.561	3264
873.69	3165
873.819	3150
873.948	3188
874.077	3119
874.206	3032
874.335	3112
874.464	3214
874.593	3302
874.722	3275
874.851	3428
874.979	3325
875.108	3291
875.237	3173
875.365	3154
875.494	3154
875.623	3226
875.751	3070
875.88	3131
876.008	3214
876.136	3203
876.265	3386
876.393	3515
876.521	3420
876.65	3359
876.778	3344
876.906	3218
877.034	3192
877.162	3211
877.29	3161
877.418	3249
877.546	3211
877.674	3256
877.802	3260
877.93	3226
878.058	3123
878.185	3093
878.313	3211
878.441	3211
878.568	3062
878.696	3142
878.824	3268
878.951	3272
879.079	3481
879.206	3656
879.333	3443
879.461	3298
879.588	3344
879.715	3504
879.842	3599
879.97	3378
880.097	3169
880.224	3150
880.351	3192
880.478	3237
880.605	3157
880.732	3203
880.859	3500
880.986	3325
881.112	3374
881.239	3237
881.366	3081
881.493	3028
881.619	3055
881.746	3104
881.872	3119
881.999	3062
882.125	3131
882.252	3260
882.378	3302
882.505	3435
882.631	3291
882.757	3165
882.883	3207
883.01	3253
883.136	3142
883.262	3077
883.388	3097
883.514	3355
883.64	3386
883.766	3302
883.892	3192
884.018	3279
884.143	3420
884.269	3572
884.395	3207
884.52	3173
884.646	3154
884.772	3154
884.897	3066
885.023	3199
885.148	3336
885.274	3454
885.399	3370
885.524	3279
885.65	3260
885.775	3317
885.9	3306
886.025	3389
886.15	3397
886.275	3317
886.4	3230
886.525	3344
886.65	3253
886.775	3275
886.9	3473
887.025	3584
887.149	3405
887.274	3268
887.399	3157
887.523	3192
887.648	3192
887.773	3184
887.897	3348
888.021	3420
888.146	3329
888.27	3428
888.395	3580
888.519	3439
888.643	3431
888.767	3462
888.891	3317
889.015	3222
889.139	3291
889.263	3222
889.387	3393
889.511	3526
889.635	3420
889.759	3294
889.883	3256
890.006	3359
890.13	3462
890.254	3294
890.377	3340
890.501	3226
890.624	3192
890.748	3302
890.871	3161
890.995	3112
891.118	3055
891.241	3203
891.364	3253
891.488	3313
891.611	3184
891.734	3230
891.857	3283
891.98	3237
892.103	3317
892.226	3287
892.349	3188
892.471	3085
892.594	3237
892.717	3283
892.839	3241
892.962	3249
893.085	3370
893.207	3275
893.33	3165
893.452	3169
893.575	3306
893.697	3230
893.819	3481
893.941	3507
894.064	3450
894.186	3253
894.308	3249
894.43	3420
894.552	3496
894.674	3496
894.796	3291
894.918	3332
895.04	3275
895.161	3431
895.283	3363
895.405	3321
895.526	3340
895.648	3393
895.769	3469
895.891	3481
896.012	3473
896.134	3454
896.255	3401
896.376	3389
896.498	3348
896.619	3420
896.74	3359
896.861	3382
896.982	3686
897.103	3831
897.224	3576
897.345	3519
897.466	3401
897.587	3485
897.708	3629
897.828	3549
897.949	3454
898.07	3306
898.19	3405
898.311	3599
898.431	3462
898.552	3526
898.672	3606
898.792	3572
898.913	3530
899.033	3420
899.153	3264
899.273	3195
899.393	3283
899.513	3359
899.633	3317
899.753	3317
899.873	3291
899.993	3382
900.113	3313
900.232	3348
900.352	3313
900.472	3279
900.591	3199
900.711	3279
900.83	3245
900.95	3412
901.069	3511
901.189	3378
901.308	3173
901.427	3131
901.546	3192
901.665	3310
901.784	3332
901.904	3199
902.023	3135
902.141	2967
902.26	2967
902.379	3123
902.498	3097
902.617	3039
902.735	3169
902.854	3214
902.973	3195
903.091	3085
903.21	3062
903.328	3150
903.446	3123
903.565	3100
903.683	3237
903.801	3116
903.919	3249
904.038	3287
904.156	3180
904.274	3302
904.392	3256
904.51	3302
904.627	3332
904.745	3420
904.863	3488
904.981	3253
905.098	3169
905.216	3233
905.334	3275
905.451	3279
905.569	3306
905.686	3435
905.803	3439
905.921	3272
906.038	3412
906.155	3344
906.272	3268
906.389	3321
906.506	3230
906.623	3230
906.74	3294
906.857	3195
906.974	3256
907.091	3424
907.208	3561
907.324	3477
907.441	3351
907.557	3237
907.674	3260
907.79	3291
907.907	3298
908.023	3374
908.139	3351
908.256	3306
908.372	3332
908.488	3317
908.604	3283
908.72	3207
908.836	3283
908.952	3233
909.068	3355
909.184	3500
909.3	3405
909.415	3526
909.531	3462
909.647	3233
909.762	3291
909.878	3275
909.993	3336
910.108	3317
910.224	3348
910.339	3367
910.454	3302
910.57	3264
910.685	3214
910.8	3584
910.915	3530
911.03	3416
911.145	3256
911.259	3294
911.374	3325
911.489	3207
911.604	3233
911.718	3074
911.833	3173
911.947	3009
912.062	2971
912.176	3157
912.291	3207
912.405	3233
912.519	3405
912.633	3500
912.748	3287
912.862	3218
912.976	3154
913.09	3077
913.204	3119
913.318	3169
913.431	3325
913.545	3321
913.659	3405
913.772	3329
913.886	3207
914	3195
914.113	3313
914.226	3374
914.34	3370
914.453	3222
914.566	3401
914.68	3313
914.793	3332
914.906	3157
915.019	3127
915.132	3089
915.245	3173
915.358	3192
915.47	3222
915.583	3279
915.696	3283
915.809	3416
915.921	3428
916.034	3291
916.146	3241
916.259	3184
916.371	3363
916.483	3370
916.595	3268
916.708	3306
916.82	3321
916.932	3344
917.044	3313
917.156	3340
917.268	3260
917.38	3279
917.491	3268
917.603	3351
917.715	3439
917.826	3477
917.938	3412
918.049	3272
918.161	3450
918.272	3584
918.384	3549
918.495	3469
918.606	3325
918.717	3264
918.828	3348
918.939	3431
919.05	3302
919.161	3370
919.272	3211
919.383	3272
919.494	3500
919.604	3660
919.715	3443
919.826	3420
919.936	3439
920.047	3564
920.157	3545
920.267	3774
920.378	3633
920.488	3572
920.598	3778
920.708	3915
920.818	3819
920.928	3804
921.038	4040
921.148	3991
921.258	3743
921.368	3606
921.477	3606
921.587	3511
921.697	3412
921.806	3660
921.916	3519
922.025	3359
922.134	3359
922.244	3329
922.353	3412
922.462	3264
922.571	3226
922.68	3077
922.789	3104
922.898	3138
923.007	3100
923.116	3188
923.224	3184
923.333	3203
923.442	3104
923.55	3119
923.659	3135
923.767	3211
923.876	3112
923.984	3192
924.092	3089
924.201	3192
924.309	3169
924.417	3260
924.525	3199
924.633	3199
924.741	3979
924.849	3047
924.956	3222
925.064	3089
925.172	3036
925.279	3112
925.387	3192
925.494	3237
925.602	3359
925.709	3317
925.816	3211
925.924	3272
926.031	3378
926.138	3363
926.245	3382
926.352	3214
926.459	3405
926.566	3473
926.673	3302
926.779	3222
926.886	3249
926.993	3131
927.099	3108
927.206	3108
927.312	3131
927.419	3230
927.525	3226
927.631	3283
927.737	3089
927.843	3119
927.95	3032
928.056	3127
928.162	3195
928.267	3245
928.373	3850
928.479	3302
928.585	3074
928.69	3199
928.796	3291
928.901	3180
929.007	3028
929.112	3180
929.218	3161
929.323	3138
929.428	3104
929.533	3302
929.638	3112
929.743	3135
929.848	3268
929.953	3199
930.058	3135
930.163	2967
930.267	3051
930.372	3237
930.477	3039
930.581	3336
930.685	3203
930.79	2998
930.894	3097
930.998	3104
931.103	3291
931.207	2948
931.311	2933
931.415	2895
931.519	2773
931.623	2777
