Data from test_V78500241_1943.txt Node
Date: Fri Mar 25 16:28:39 CST 2022
User: usil
Spectrometer: V785-0024
Trigger mode: 0
Integration Time (sec): 4.000000E-1
Scans to average: 1
Nonlinearity correction enabled: false
Boxcar width: 0
Storing dark spectrum: false
XAxis mode: Wavelengths
Number of Pixels in Spectrum: 1024
>>>>>Begin Spectral Data<<<<<
801.071	2895
801.214	2944
801.356	2864
801.499	2880
801.641	2838
801.783	2899
801.926	3074
802.068	2944
802.211	2975
802.353	3039
802.496	2990
802.638	3020
802.78	3036
802.923	3077
803.065	2982
803.208	2922
803.35	2914
803.492	2956
803.635	2941
803.777	2766
803.919	2849
804.061	3195
804.204	2979
804.346	2925
804.488	2807
804.63	2982
804.773	2872
804.915	2887
805.057	3039
805.199	2918
805.341	2975
805.483	3058
805.626	2990
805.768	2967
805.91	3097
806.052	3058
806.194	3020
806.336	3230
806.478	3039
806.62	2948
806.762	2986
806.904	3028
807.046	3165
807.188	2979
807.33	2914
807.472	2975
807.614	2887
807.756	2982
807.898	2906
808.04	2891
808.182	2933
808.324	2963
808.465	2842
808.607	2906
808.749	2785
808.891	2815
809.033	2998
809.174	3005
809.316	2876
809.458	2895
809.6	2769
809.741	2754
809.883	2796
810.025	2823
810.166	2830
810.308	2857
810.45	2861
810.591	2777
810.733	2781
810.875	2853
811.016	2758
811.158	2762
811.299	2811
811.441	2956
811.582	2899
811.724	2826
811.865	2823
812.007	2933
812.148	2883
812.29	2823
812.431	2895
812.573	2914
812.714	2944
812.855	3055
812.997	3043
813.138	3116
813.279	2975
813.421	2990
813.562	2967
813.703	2880
813.845	2887
813.986	2754
814.127	2720
814.268	2842
814.41	2823
814.551	2830
814.692	2883
814.833	2826
814.974	2902
815.115	2979
815.256	2849
815.397	2834
815.539	2868
815.68	2788
815.821	2796
815.962	2910
816.103	2910
816.244	2864
816.385	2853
816.526	2982
816.666	2910
816.807	2743
816.948	2872
817.089	2925
817.23	2845
817.371	2773
817.512	2819
817.653	2819
817.793	2880
817.934	2887
818.075	3001
818.216	3024
818.356	3009
818.497	2910
818.638	2804
818.778	2807
818.919	2796
819.06	2712
819.2	2876
819.341	2804
819.481	2838
819.622	2925
819.762	3104
819.903	3039
820.043	2925
820.184	2918
820.324	2937
820.465	3005
820.605	2986
820.746	3005
820.886	2918
821.026	3070
821.167	3173
821.307	3237
821.447	3249
821.588	3230
821.728	3184
821.868	3199
822.008	3093
822.149	3218
822.289	3211
822.429	3032
822.569	3100
822.709	3169
822.849	3009
822.99	3055
823.13	3184
823.27	3135
823.41	3108
823.55	3127
823.69	3161
823.83	3207
823.97	3097
824.11	3013
824.25	2971
824.389	3017
824.529	3097
824.669	3039
824.809	3180
824.949	3264
825.089	3222
825.228	3150
825.368	2975
825.508	2971
825.648	2941
825.787	2982
825.927	3017
826.067	2975
826.206	2952
826.346	3058
826.485	3070
826.625	3074
826.765	3226
826.904	3161
827.044	3009
827.183	2902
827.323	2883
827.462	2994
827.601	2902
827.741	2937
827.88	2956
828.02	2853
828.159	2933
828.298	3013
828.437	3116
828.577	3028
828.716	3268
828.855	3066
828.994	2883
829.134	2914
829.273	2941
829.412	2880
829.551	2826
829.69	2887
829.829	3017
829.968	3100
830.107	3039
830.246	3005
830.385	2922
830.524	2838
830.663	2834
830.802	2720
830.941	2625
831.08	2621
831.219	2777
831.357	2766
831.496	2948
831.635	2739
831.774	2625
831.913	2659
832.051	2541
832.19	2575
832.329	2682
832.467	2530
832.606	2465
832.744	2583
832.883	2579
833.022	2560
833.16	2640
833.299	2682
833.437	2689
833.576	2716
833.714	2720
833.852	2708
833.991	2724
834.129	2853
834.267	2826
834.406	2785
834.544	2880
834.682	2838
834.821	2834
834.959	3047
835.097	2899
835.235	3077
835.373	3024
835.511	3020
835.65	2952
835.788	2990
835.926	2804
836.064	2815
836.202	2830
836.34	3123
836.478	3165
836.615	3001
836.753	3112
836.891	3184
837.029	3161
837.167	3093
837.305	3043
837.443	3020
837.58	2967
837.718	3138
837.856	3043
837.993	3020
838.131	3100
838.269	3070
838.406	3089
838.544	3047
838.681	2895
838.819	2925
838.956	2834
839.094	2811
839.231	2887
839.369	3005
839.506	3367
839.643	3207
839.781	3005
839.918	2948
840.055	3058
840.193	3039
840.33	3062
840.467	3097
840.604	3150
840.742	3393
840.879	3043
841.016	3009
841.153	3135
841.29	3310
841.427	3291
841.564	3253
841.701	3306
841.838	3226
841.975	3154
842.112	3226
842.249	3062
842.385	3077
842.522	3253
842.659	3104
842.796	3009
842.933	3108
843.069	3047
843.206	3024
843.343	3173
843.479	3089
843.616	3097
843.752	2891
843.889	2914
844.025	3066
844.162	2849
844.298	3020
844.435	2925
844.571	2887
844.708	3089
844.844	3138
844.98	3249
845.117	3180
845.253	3051
845.389	2960
845.525	3093
845.661	3055
845.798	3036
845.934	3127
846.07	3024
846.206	3222
846.342	3325
846.478	3207
846.614	3066
846.75	3104
846.886	3036
847.022	3256
847.158	3119
847.294	3176
847.429	3264
847.565	3241
847.701	3488
847.837	2998
847.972	3032
848.108	3119
848.244	3116
848.379	2960
848.515	2918
848.65	2971
848.786	2960
848.921	3001
849.057	3089
849.192	3138
849.328	3043
849.463	3081
849.598	3074
849.734	3036
849.869	2956
850.004	2925
850.14	2990
850.275	2948
850.41	2842
850.545	2868
850.68	2933
850.815	2967
850.95	2971
851.085	3157
851.22	3127
851.355	3017
851.49	3017
851.625	3024
851.76	2975
851.895	2948
852.03	2914
852.165	3058
852.299	3138
852.434	3176
852.569	3077
852.703	3195
852.838	3268
852.973	3313
853.107	3306
853.242	3161
853.376	3097
853.511	2982
853.645	3028
853.78	3203
853.914	3135
854.048	3142
854.183	3055
854.317	3104
854.451	3283
854.585	3142
854.72	3077
854.854	3214
854.988	3058
855.122	3089
855.256	2990
855.39	3119
855.524	3253
855.658	3188
855.792	3142
855.926	3203
856.06	3192
856.194	3268
856.327	3112
856.461	3055
856.595	3100
856.729	3085
856.862	3237
856.996	3119
857.13	3195
857.263	3253
857.397	3275
857.53	3108
857.664	3184
857.797	3199
857.931	3245
858.064	3142
858.197	3161
858.331	3131
858.464	3097
858.597	3028
858.731	3119
858.864	3089
858.997	3100
859.13	3138
859.263	3157
859.396	3188
859.529	3100
859.662	3085
859.795	3039
859.928	3146
860.061	3283
860.194	3275
860.327	3123
860.46	3093
860.592	3237
860.725	3253
860.858	3249
860.99	3062
861.123	3036
861.256	3055
861.388	3085
861.521	3865
861.653	3028
861.786	2979
861.918	2990
862.05	3055
862.183	3055
862.315	3116
862.447	3184
862.58	3131
862.712	2963
862.844	2864
862.976	3028
863.108	3009
863.24	3317
863.372	2876
863.504	2960
863.636	2914
863.768	2990
863.9	2979
864.032	2899
864.164	2891
864.296	3009
864.428	3104
864.559	3085
864.691	3070
864.823	3089
864.954	3017
865.086	3017
865.217	2967
865.349	2979
865.48	2960
865.612	3032
865.743	3127
865.875	2952
866.006	2925
866.137	2952
866.269	2906
866.4	2948
866.531	2899
866.662	2914
866.793	2895
866.924	2895
867.055	2960
867.186	2902
867.317	2891
867.448	2857
867.579	2845
867.71	2838
867.841	2807
867.972	2914
868.103	2918
868.233	2891
868.364	2834
868.495	2880
868.625	3093
868.756	3173
868.886	2948
869.017	3036
869.147	3154
869.278	3180
869.408	3039
869.539	3017
869.669	3081
869.799	3005
869.929	3135
870.06	3108
870.19	3317
870.32	3272
870.45	3313
870.58	3367
870.71	3462
870.84	3458
870.97	3294
871.1	3226
871.23	3485
871.36	3431
871.489	3363
871.619	3401
871.749	3412
871.879	3409
872.008	3469
872.138	3344
872.267	3241
872.397	3173
872.526	3119
872.656	2990
872.785	3119
872.915	3230
873.044	3298
873.173	3195
873.303	3256
873.432	3222
873.561	3218
873.69	3146
873.819	3089
873.948	3169
874.077	3097
874.206	3024
874.335	3077
874.464	3233
874.593	3336
874.722	3268
874.851	3405
874.979	3340
875.108	3291
875.237	3218
875.365	3142
875.494	3154
875.623	3253
875.751	3081
875.88	3085
876.008	3150
876.136	3237
876.265	3370
876.393	3507
876.521	3401
876.65	3401
876.778	3348
876.906	3211
877.034	3207
877.162	3233
877.29	3169
877.418	3260
877.546	3226
877.674	3253
877.802	3245
877.93	3203
878.058	3127
878.185	3085
878.313	3192
878.441	3211
878.568	3119
878.696	3112
878.824	3253
878.951	3313
879.079	3485
879.206	3648
879.333	3443
879.461	3344
879.588	3310
879.715	3458
879.842	3561
879.97	3374
880.097	3195
880.224	3138
880.351	3180
880.478	3233
880.605	3180
880.732	3195
880.859	3485
880.986	3302
881.112	3275
881.239	3211
881.366	3062
881.493	3055
881.619	3017
881.746	3055
881.872	3085
881.999	3104
882.125	3161
882.252	3256
882.378	3275
882.505	3409
882.631	3294
882.757	3146
882.883	3207
883.01	3218
883.136	3165
883.262	3119
883.388	3077
883.514	3279
883.64	3382
883.766	3302
883.892	3173
884.018	3256
884.143	3428
884.269	3553
884.395	3233
884.52	3131
884.646	3169
884.772	3131
884.897	3070
885.023	3218
885.148	3291
885.274	3431
885.399	3370
885.524	3279
885.65	3241
885.775	3291
885.9	3329
886.025	3439
886.15	3397
886.275	3317
886.4	3218
886.525	3336
886.65	3241
886.775	3310
886.9	3511
887.025	3648
887.149	3378
887.274	3249
887.399	3180
887.523	3195
887.648	3176
887.773	3207
887.897	3389
888.021	3389
888.146	3313
888.27	3454
888.395	3500
888.519	3424
888.643	3458
888.767	3469
888.891	3291
889.015	3264
889.139	3298
889.263	3214
889.387	3431
889.511	3488
889.635	3428
889.759	3275
889.883	3298
890.006	3397
890.13	3469
890.254	3264
890.377	3306
890.501	3214
890.624	3150
890.748	3310
890.871	3203
890.995	3093
891.118	3058
891.241	3176
891.364	3241
891.488	3340
891.611	3192
891.734	3241
891.857	3253
891.98	3268
892.103	3302
892.226	3279
892.349	3199
892.471	3104
892.594	3241
892.717	3253
892.839	3256
892.962	3287
893.085	3329
893.207	3279
893.33	3146
893.452	3226
893.575	3287
893.697	3211
893.819	3462
893.941	3485
894.064	3500
894.186	3260
894.308	3264
894.43	3431
894.552	3496
894.674	3443
894.796	3249
894.918	3317
895.04	3237
895.161	3462
895.283	3370
895.405	3340
895.526	3416
895.648	3382
895.769	3416
895.891	3458
896.012	3481
896.134	3454
896.255	3405
896.376	3348
896.498	3336
896.619	3431
896.74	3359
896.861	3416
896.982	3671
897.103	3812
897.224	3629
897.345	3526
897.466	3443
897.587	3447
897.708	3629
897.828	3519
897.949	3409
898.07	3355
898.19	3397
898.311	3622
898.431	3454
898.552	3488
898.672	3568
898.792	3561
898.913	3553
899.033	3386
899.153	3283
899.273	3176
899.393	3302
899.513	3340
899.633	3310
899.753	3298
899.873	3321
899.993	3393
900.113	3332
900.232	3393
900.352	3321
900.472	3294
900.591	3230
900.711	3310
900.83	3230
900.95	3428
901.069	3485
901.189	3344
901.308	3192
901.427	3150
901.546	3188
901.665	3287
901.784	3355
901.904	3203
902.023	3161
902.141	3024
902.26	2967
902.379	3119
902.498	3055
902.617	3070
902.735	3180
902.854	3226
902.973	3275
903.091	3047
903.21	3066
903.328	3169
903.446	3104
903.565	3093
903.683	3169
903.801	3135
903.919	3249
904.038	3310
904.156	3161
904.274	3291
904.392	3256
904.51	3306
904.627	3329
904.745	3397
904.863	3496
904.981	3256
905.098	3180
905.216	3207
905.334	3253
905.451	3264
905.569	3291
905.686	3420
905.803	3462
905.921	3310
906.038	3443
906.155	3378
906.272	3287
906.389	3329
906.506	3199
906.623	3249
906.74	3245
906.857	3165
906.974	3230
907.091	3393
907.208	3568
907.324	3466
907.441	3405
907.557	3195
907.674	3253
907.79	3169
907.907	3260
908.023	3393
908.139	3355
908.256	3351
908.372	3363
908.488	3351
908.604	3249
908.72	3195
908.836	3302
908.952	3272
909.068	3302
909.184	3496
909.3	3382
909.415	3469
909.531	3481
909.647	3302
909.762	3264
909.878	3264
909.993	3348
910.108	3317
910.224	3294
910.339	3397
910.454	3313
910.57	3298
910.685	3218
910.8	3591
910.915	3511
911.03	3458
911.145	3283
911.259	3264
911.374	3310
911.489	3264
911.604	3237
911.718	3123
911.833	3180
911.947	3024
912.062	3005
912.176	3154
912.291	3218
912.405	3207
912.519	3389
912.633	3511
912.748	3336
912.862	3264
912.976	3150
913.09	3058
913.204	3135
913.318	3176
913.431	3367
913.545	3317
913.659	3401
913.772	3302
913.886	3195
914	3203
914.113	3332
914.226	3397
914.34	3420
914.453	3176
914.566	3389
914.68	3306
914.793	3355
914.906	3142
915.019	3131
915.132	3077
915.245	3180
915.358	3218
915.47	3237
915.583	3268
915.696	3310
915.809	3401
915.921	3439
916.034	3241
916.146	3264
916.259	3233
916.371	3370
916.483	3359
916.595	3291
916.708	3321
916.82	3355
916.932	3310
917.044	3374
917.156	3321
917.268	3203
917.38	3310
917.491	3253
917.603	3382
917.715	3450
917.826	3458
917.938	3378
918.049	3264
918.161	3424
918.272	3561
918.384	3603
918.495	3519
918.606	3340
918.717	3275
918.828	3370
918.939	3416
919.05	3291
919.161	3397
919.272	3180
919.383	3283
919.494	3447
919.604	3690
919.715	3504
919.826	3378
919.936	3424
920.047	3572
920.157	3534
920.267	3759
920.378	3633
920.488	3557
920.598	3774
920.708	3979
920.818	3835
920.928	3835
921.038	4032
921.148	4032
921.258	3724
921.368	3625
921.477	3580
921.587	3545
921.697	3458
921.806	3610
921.916	3523
922.025	3332
922.134	3397
922.244	3321
922.353	3447
922.462	3272
922.571	3249
922.68	3127
922.789	3097
922.898	3150
923.007	3104
923.116	3230
923.224	3138
923.333	3188
923.442	3085
923.55	3100
923.659	3135
923.767	3207
923.876	3138
923.984	3260
924.092	3081
924.201	3184
924.309	3184
924.417	3260
924.525	3195
924.633	3233
924.741	4181
924.849	3024
924.956	3294
925.064	3089
925.172	3055
925.279	3093
925.387	3192
925.494	3192
925.602	3344
925.709	3306
925.816	3157
925.924	3294
926.031	3389
926.138	3321
926.245	3386
926.352	3272
926.459	3409
926.566	3458
926.673	3321
926.779	3260
926.886	3233
926.993	3165
927.099	3142
927.206	3089
927.312	3131
927.419	3230
927.525	3188
927.631	3268
927.737	3131
927.843	3100
927.95	3047
928.056	3135
928.162	3165
928.267	3268
928.373	3861
928.479	3321
928.585	3039
928.69	3233
928.796	3272
928.901	3180
929.007	3074
929.112	3195
929.218	3173
929.323	3123
929.428	3138
929.533	3359
929.638	3127
929.743	3161
929.848	3283
929.953	3222
930.058	3123
930.163	2979
930.267	3039
930.372	3203
930.477	3062
930.581	3310
930.685	3199
930.79	3055
930.894	3100
930.998	3112
931.103	3256
931.207	2971
931.311	2910
931.415	2880
931.519	2746
931.623	2807
