Data from test_V78500241_341.txt Node
Date: Fri Mar 25 16:17:33 CST 2022
User: usil
Spectrometer: V785-0024
Trigger mode: 0
Integration Time (sec): 4.000000E-1
Scans to average: 1
Nonlinearity correction enabled: false
Boxcar width: 0
Storing dark spectrum: false
XAxis mode: Wavelengths
Number of Pixels in Spectrum: 1024
>>>>>Begin Spectral Data<<<<<
801.071	2918
801.214	2902
801.356	2880
801.499	2902
801.641	2883
801.783	2933
801.926	3051
802.068	2944
802.211	3017
802.353	3020
802.496	2963
802.638	3020
802.78	3039
802.923	3039
803.065	2979
803.208	2883
803.35	2899
803.492	2948
803.635	2914
803.777	2746
803.919	2868
804.061	3203
804.204	2925
804.346	2899
804.488	2842
804.63	2994
804.773	2914
804.915	2872
805.057	3066
805.199	2941
805.341	2975
805.483	3047
805.626	2967
805.768	2956
805.91	3093
806.052	3104
806.194	3055
806.336	3203
806.478	3001
806.62	2944
806.762	2979
806.904	3097
807.046	3173
807.188	3017
807.33	2902
807.472	2979
807.614	2899
807.756	2967
807.898	2922
808.04	2880
808.182	2975
808.324	2963
808.465	2899
808.607	2872
808.749	2800
808.891	2853
809.033	2975
809.174	2963
809.316	2891
809.458	2880
809.6	2781
809.741	2773
809.883	2785
810.025	2842
810.166	2880
810.308	2826
810.45	2883
810.591	2773
810.733	2777
810.875	2807
811.016	2796
811.158	2796
811.299	2800
811.441	2929
811.582	2937
811.724	2834
811.865	2845
812.007	2914
812.148	2857
812.29	2864
812.431	2864
812.573	2952
812.714	2971
812.855	3028
812.997	3039
813.138	3157
813.279	3009
813.421	2998
813.562	2948
813.703	2849
813.845	2876
813.986	2766
814.127	2758
814.268	2838
814.41	2838
814.551	2830
814.692	2891
814.833	2811
814.974	2849
815.115	2963
815.256	2800
815.397	2804
815.539	2842
815.68	2785
815.821	2800
815.962	2929
816.103	2925
816.244	2891
816.385	2849
816.526	2952
816.666	2918
816.807	2754
816.948	2906
817.089	2925
817.23	2815
817.371	2781
817.512	2819
817.653	2811
817.793	2849
817.934	2887
818.075	2933
818.216	3009
818.356	3039
818.497	2868
818.638	2823
818.778	2838
818.919	2800
819.06	2743
819.2	2899
819.341	2826
819.481	2830
819.622	2929
819.762	3142
819.903	3024
820.043	2914
820.184	2880
820.324	2895
820.465	2986
820.605	2998
820.746	3005
820.886	2937
821.026	3131
821.167	3146
821.307	3249
821.447	3256
821.588	3268
821.728	3161
821.868	3211
822.008	3039
822.149	3142
822.289	3241
822.429	3116
822.569	3074
822.709	3188
822.849	3043
822.99	3074
823.13	3169
823.27	3188
823.41	3108
823.55	3173
823.69	3146
823.83	3184
823.97	3119
824.11	2998
824.25	2967
824.389	3085
824.529	3116
824.669	3108
824.809	3180
824.949	3287
825.089	3226
825.228	3142
825.368	2994
825.508	2971
825.648	2948
825.787	3024
825.927	3032
826.067	2971
826.206	2948
826.346	3036
826.485	3051
826.625	3119
826.765	3275
826.904	3203
827.044	2986
827.183	2944
827.323	2845
827.462	2998
827.601	2948
827.741	2899
827.88	2952
828.02	2826
828.159	2960
828.298	3036
828.437	3138
828.577	3039
828.716	3199
828.855	3077
828.994	2906
829.134	2883
829.273	2925
829.412	2845
829.551	2853
829.69	2906
829.829	3020
829.968	3135
830.107	3005
830.246	3043
830.385	2925
830.524	2891
830.663	2796
830.802	2686
830.941	2682
831.08	2667
831.219	2762
831.357	2766
831.496	2979
831.635	2769
831.774	2655
831.913	2629
832.051	2545
832.19	2598
832.329	2701
832.467	2533
832.606	2473
832.744	2579
832.883	2606
833.022	2568
833.16	2629
833.299	2720
833.437	2697
833.576	2724
833.714	2731
833.852	2724
833.991	2735
834.129	2834
834.267	2838
834.406	2819
834.544	2838
834.682	2853
834.821	2845
834.959	3028
835.097	2887
835.235	3043
835.373	2998
835.511	2982
835.65	2971
835.788	2929
835.926	2845
836.064	2838
836.202	2868
836.34	3066
836.478	3116
836.615	3028
836.753	3108
836.891	3173
837.029	3157
837.167	3100
837.305	3070
837.443	3043
837.58	2975
837.718	3135
837.856	3070
837.993	3047
838.131	3085
838.269	3089
838.406	3097
838.544	3066
838.681	2925
838.819	2929
838.956	2823
839.094	2823
839.231	2910
839.369	3017
839.506	3378
839.643	3226
839.781	2990
839.918	2967
840.055	3043
840.193	3051
840.33	3104
840.467	3055
840.604	3169
840.742	3405
840.879	3047
841.016	3055
841.153	3093
841.29	3294
841.427	3283
841.564	3260
841.701	3321
841.838	3211
841.975	3195
842.112	3214
842.249	3074
842.385	3039
842.522	3241
842.659	3070
842.796	3058
842.933	3131
843.069	3043
843.206	3066
843.343	3184
843.479	3116
843.616	3138
843.752	2910
843.889	2910
844.025	3055
844.162	2861
844.298	3081
844.435	2956
844.571	2899
844.708	3081
844.844	3176
844.98	3237
845.117	3157
845.253	3062
845.389	3001
845.525	3070
845.661	3070
845.798	3036
845.934	3119
846.07	3039
846.206	3218
846.342	3298
846.478	3226
846.614	3108
846.75	3036
846.886	3039
847.022	3214
847.158	3116
847.294	3176
847.429	3203
847.565	3214
847.701	3485
847.837	3043
847.972	2967
848.108	3169
848.244	3165
848.379	3017
848.515	2975
848.65	2960
848.786	2948
848.921	2994
849.057	3089
849.192	3150
849.328	3085
849.463	3138
849.598	3058
849.734	3013
849.869	2979
850.004	2902
850.14	2998
850.275	2925
850.41	2826
850.545	2883
850.68	2906
850.815	2944
850.95	2963
851.085	3176
851.22	3097
851.355	3028
851.49	3005
851.625	3009
851.76	2998
851.895	2933
852.03	2937
852.165	3062
852.299	3116
852.434	3180
852.569	3131
852.703	3203
852.838	3279
852.973	3348
853.107	3355
853.242	3192
853.376	3108
853.511	2975
853.645	3062
853.78	3260
853.914	3116
854.048	3100
854.183	3077
854.317	3150
854.451	3283
854.585	3135
854.72	3100
854.854	3157
854.988	3077
855.122	3089
855.256	2967
855.39	3093
855.524	3214
855.658	3207
855.792	3180
855.926	3142
856.06	3226
856.194	3207
856.327	3123
856.461	3074
856.595	3024
856.729	3093
856.862	3214
856.996	3138
857.13	3165
857.263	3192
857.397	3264
857.53	3070
857.664	3192
857.797	3218
857.931	3256
858.064	3157
858.197	3199
858.331	3131
858.464	3085
858.597	3005
858.731	3097
858.864	3119
858.997	3066
859.13	3165
859.263	3161
859.396	3131
859.529	3108
859.662	3062
859.795	3020
859.928	3131
860.061	3291
860.194	3275
860.327	3093
860.46	3093
860.592	3233
860.725	3253
860.858	3241
860.99	3135
861.123	3051
861.256	3013
861.388	3123
861.521	3759
861.653	3039
861.786	2967
861.918	3009
862.05	3066
862.183	3055
862.315	3173
862.447	3192
862.58	3097
862.712	2971
862.844	2883
862.976	2948
863.108	3017
863.24	3310
863.372	2891
863.504	2956
863.636	2960
863.768	2990
863.9	2967
864.032	2910
864.164	2952
864.296	3028
864.428	3104
864.559	3085
864.691	3066
864.823	3055
864.954	3032
865.086	3047
865.217	2948
865.349	2933
865.48	3005
865.612	3013
865.743	3157
865.875	3020
866.006	2933
866.137	2963
866.269	2937
866.4	2944
866.531	2918
866.662	2883
866.793	2861
866.924	2914
867.055	2979
867.186	2956
867.317	2883
867.448	2800
867.579	2819
867.71	2880
867.841	2838
867.972	2925
868.103	2914
868.233	2883
868.364	2895
868.495	2887
868.625	3108
868.756	3135
868.886	2971
869.017	2990
869.147	3169
869.278	3165
869.408	3036
869.539	3039
869.669	3085
869.799	3017
869.929	3150
870.06	3077
870.19	3332
870.32	3253
870.45	3287
870.58	3367
870.71	3420
870.84	3447
870.97	3329
871.1	3272
871.23	3488
871.36	3469
871.489	3336
871.619	3374
871.749	3382
871.879	3397
872.008	3481
872.138	3367
872.267	3253
872.397	3146
872.526	3093
872.656	3013
872.785	3119
872.915	3195
873.044	3321
873.173	3211
873.303	3226
873.432	3233
873.561	3241
873.69	3150
873.819	3138
873.948	3203
874.077	3104
874.206	3051
874.335	3077
874.464	3237
874.593	3329
874.722	3260
874.851	3351
874.979	3363
875.108	3302
875.237	3165
875.365	3169
875.494	3192
875.623	3264
875.751	3066
875.88	3123
876.008	3207
876.136	3241
876.265	3389
876.393	3488
876.521	3409
876.65	3424
876.778	3344
876.906	3283
877.034	3199
877.162	3260
877.29	3218
877.418	3241
877.546	3249
877.674	3279
877.802	3233
877.93	3241
878.058	3138
878.185	3127
878.313	3207
878.441	3207
878.568	3100
878.696	3176
878.824	3264
878.951	3253
879.079	3420
879.206	3591
879.333	3458
879.461	3332
879.588	3321
879.715	3443
879.842	3549
879.97	3374
880.097	3195
880.224	3146
880.351	3176
880.478	3222
880.605	3180
880.732	3195
880.859	3473
880.986	3306
881.112	3321
881.239	3226
881.366	3066
881.493	3032
881.619	3039
881.746	3066
881.872	3081
881.999	3127
882.125	3154
882.252	3241
882.378	3275
882.505	3409
882.631	3329
882.757	3180
882.883	3218
883.01	3233
883.136	3146
883.262	3081
883.388	3074
883.514	3294
883.64	3386
883.766	3287
883.892	3188
884.018	3245
884.143	3454
884.269	3564
884.395	3203
884.52	3207
884.646	3173
884.772	3123
884.897	3062
885.023	3203
885.148	3359
885.274	3355
885.399	3378
885.524	3230
885.65	3249
885.775	3325
885.9	3260
886.025	3409
886.15	3355
886.275	3310
886.4	3241
886.525	3332
886.65	3268
886.775	3268
886.9	3507
887.025	3637
887.149	3405
887.274	3256
887.399	3138
887.523	3165
887.648	3188
887.773	3199
887.897	3344
888.021	3378
888.146	3283
888.27	3447
888.395	3545
888.519	3409
888.643	3454
888.767	3458
888.891	3336
889.015	3230
889.139	3321
889.263	3287
889.387	3397
889.511	3511
889.635	3447
889.759	3279
889.883	3310
890.006	3424
890.13	3469
890.254	3275
890.377	3313
890.501	3211
890.624	3192
890.748	3283
890.871	3150
890.995	3100
891.118	3051
891.241	3180
891.364	3237
891.488	3313
891.611	3173
891.734	3195
891.857	3260
891.98	3230
892.103	3332
892.226	3302
892.349	3211
892.471	3100
892.594	3249
892.717	3272
892.839	3294
892.962	3249
893.085	3386
893.207	3268
893.33	3127
893.452	3211
893.575	3336
893.697	3249
893.819	3477
893.941	3450
894.064	3511
894.186	3313
894.308	3272
894.43	3462
894.552	3481
894.674	3473
894.796	3272
894.918	3298
895.04	3310
895.161	3428
895.283	3382
895.405	3313
895.526	3332
895.648	3393
895.769	3389
895.891	3409
896.012	3523
896.134	3488
896.255	3393
896.376	3370
896.498	3401
896.619	3416
896.74	3412
896.861	3397
896.982	3709
897.103	3812
897.224	3561
897.345	3492
897.466	3447
897.587	3477
897.708	3587
897.828	3599
897.949	3420
898.07	3332
898.19	3420
898.311	3595
898.431	3492
898.552	3507
898.672	3564
898.792	3542
898.913	3534
899.033	3401
899.153	3302
899.273	3233
899.393	3272
899.513	3325
899.633	3306
899.753	3302
899.873	3313
899.993	3355
900.113	3363
900.232	3363
900.352	3329
900.472	3310
900.591	3249
900.711	3291
900.83	3241
900.95	3439
901.069	3458
901.189	3317
901.308	3173
901.427	3146
901.546	3207
901.665	3272
901.784	3321
901.904	3176
902.023	3119
902.141	3005
902.26	2994
902.379	3131
902.498	3077
902.617	3028
902.735	3195
902.854	3268
902.973	3173
903.091	3032
903.21	3077
903.328	3127
903.446	3119
903.565	3089
903.683	3199
903.801	3135
903.919	3249
904.038	3283
904.156	3176
904.274	3279
904.392	3264
904.51	3283
904.627	3302
904.745	3458
904.863	3481
904.981	3260
905.098	3165
905.216	3237
905.334	3279
905.451	3283
905.569	3344
905.686	3401
905.803	3431
905.921	3275
906.038	3428
906.155	3367
906.272	3317
906.389	3336
906.506	3253
906.623	3226
906.74	3268
906.857	3207
906.974	3253
907.091	3397
907.208	3564
907.324	3473
907.441	3386
907.557	3207
907.674	3192
907.79	3214
907.907	3291
908.023	3359
908.139	3363
908.256	3325
908.372	3409
908.488	3359
908.604	3214
908.72	3214
908.836	3279
908.952	3260
909.068	3382
909.184	3481
909.3	3428
909.415	3496
909.531	3473
909.647	3264
909.762	3272
909.878	3245
909.993	3378
910.108	3325
910.224	3287
910.339	3420
910.454	3351
910.57	3310
910.685	3245
910.8	3606
910.915	3507
911.03	3420
911.145	3233
911.259	3214
911.374	3287
911.489	3218
911.604	3264
911.718	3135
911.833	3131
911.947	3043
912.062	2986
912.176	3184
912.291	3192
912.405	3184
912.519	3439
912.633	3466
912.748	3340
912.862	3245
912.976	3165
913.09	3028
913.204	3157
913.318	3173
913.431	3332
913.545	3370
913.659	3397
913.772	3348
913.886	3237
914	3203
914.113	3325
914.226	3439
914.34	3378
914.453	3214
914.566	3431
914.68	3310
914.793	3298
914.906	3157
915.019	3119
915.132	3089
915.245	3150
915.358	3218
915.47	3249
915.583	3222
915.696	3253
915.809	3435
915.921	3435
916.034	3287
916.146	3256
916.259	3256
916.371	3416
916.483	3370
916.595	3245
916.708	3329
916.82	3321
916.932	3336
917.044	3329
917.156	3329
917.268	3275
917.38	3313
917.491	3253
917.603	3359
917.715	3462
917.826	3469
917.938	3359
918.049	3317
918.161	3420
918.272	3580
918.384	3530
918.495	3458
918.606	3321
918.717	3287
918.828	3367
918.939	3412
919.05	3298
919.161	3386
919.272	3173
919.383	3298
919.494	3500
919.604	3705
919.715	3469
919.826	3386
919.936	3485
920.047	3584
920.157	3542
920.267	3812
920.378	3576
920.488	3587
920.598	3797
920.708	3922
920.818	3842
920.928	3846
921.038	4048
921.148	4013
921.258	3705
921.368	3675
921.477	3561
921.587	3496
921.697	3458
921.806	3637
921.916	3492
922.025	3405
922.134	3370
922.244	3302
922.353	3428
922.462	3310
922.571	3230
922.68	3089
922.789	3131
922.898	3142
923.007	3077
923.116	3211
923.224	3150
923.333	3135
923.442	3089
923.55	3077
923.659	3108
923.767	3195
923.876	3100
923.984	3233
924.092	3097
924.201	3195
924.309	3233
924.417	3272
924.525	3176
924.633	3230
924.741	4185
924.849	3058
924.956	3279
925.064	3100
925.172	3047
925.279	3104
925.387	3214
925.494	3169
925.602	3367
925.709	3302
925.816	3154
925.924	3272
926.031	3348
926.138	3325
926.245	3389
926.352	3253
926.459	3412
926.566	3485
926.673	3310
926.779	3230
926.886	3214
926.993	3154
927.099	3150
927.206	3127
927.312	3077
927.419	3237
927.525	3165
927.631	3218
927.737	3089
927.843	3085
927.95	3024
928.056	3119
928.162	3188
928.267	3226
928.373	3896
928.479	3329
928.585	3055
928.69	3211
928.796	3222
928.901	3173
929.007	3039
929.112	3237
929.218	3180
929.323	3192
929.428	3135
929.533	3283
929.638	3104
929.743	3157
929.848	3256
929.953	3195
930.058	3154
930.163	3001
930.267	3074
930.372	3203
930.477	3024
930.581	3287
930.685	3169
930.79	3074
930.894	3142
930.998	3100
931.103	3298
931.207	2933
931.311	2918
931.415	2937
931.519	2781
931.623	2804
