Data from test_V78500241_331.txt Node
Date: Fri Mar 25 16:17:29 CST 2022
User: usil
Spectrometer: V785-0024
Trigger mode: 0
Integration Time (sec): 4.000000E-1
Scans to average: 1
Nonlinearity correction enabled: false
Boxcar width: 0
Storing dark spectrum: false
XAxis mode: Wavelengths
Number of Pixels in Spectrum: 1024
>>>>>Begin Spectral Data<<<<<
801.071	2941
801.214	2956
801.356	2861
801.499	2872
801.641	2845
801.783	2941
801.926	3043
802.068	2975
802.211	2975
802.353	3032
802.496	2963
802.638	2982
802.78	2990
802.923	3085
803.065	2994
803.208	2918
803.35	2925
803.492	2918
803.635	2918
803.777	2735
803.919	2891
804.061	3161
804.204	2944
804.346	2868
804.488	2857
804.63	2982
804.773	2887
804.915	2883
805.057	3028
805.199	2925
805.341	2982
805.483	3028
805.626	3009
805.768	2975
805.91	3070
806.052	3116
806.194	3055
806.336	3241
806.478	3058
806.62	2944
806.762	2990
806.904	3066
807.046	3131
807.188	2979
807.33	2922
807.472	2971
807.614	2918
807.756	3001
807.898	2956
808.04	2910
808.182	2971
808.324	2944
808.465	2895
808.607	2891
808.749	2769
808.891	2887
809.033	3001
809.174	2986
809.316	2868
809.458	2895
809.6	2804
809.741	2766
809.883	2804
810.025	2815
810.166	2861
810.308	2845
810.45	2857
810.591	2788
810.733	2762
810.875	2834
811.016	2769
811.158	2758
811.299	2819
811.441	2948
811.582	2910
811.724	2804
811.865	2834
812.007	2914
812.148	2883
812.29	2861
812.431	2876
812.573	2925
812.714	2986
812.855	3013
812.997	3047
813.138	3127
813.279	2986
813.421	3017
813.562	2982
813.703	2902
813.845	2910
813.986	2796
814.127	2735
814.268	2842
814.41	2857
814.551	2819
814.692	2876
814.833	2857
814.974	2895
815.115	2941
815.256	2826
815.397	2796
815.539	2868
815.68	2785
815.821	2804
815.962	2982
816.103	2963
816.244	2899
816.385	2868
816.526	2967
816.666	2925
816.807	2724
816.948	2899
817.089	2929
817.23	2876
817.371	2800
817.512	2811
817.653	2845
817.793	2876
817.934	2880
818.075	2994
818.216	2982
818.356	3013
818.497	2849
818.638	2788
818.778	2815
818.919	2815
819.06	2785
819.2	2902
819.341	2807
819.481	2819
819.622	2986
819.762	3100
819.903	3070
820.043	2918
820.184	2883
820.324	2906
820.465	3036
820.605	3058
820.746	3013
820.886	2922
821.026	3100
821.167	3161
821.307	3226
821.447	3294
821.588	3211
821.728	3241
821.868	3226
822.008	3043
822.149	3154
822.289	3218
822.429	3085
822.569	3055
822.709	3249
822.849	3036
822.99	3112
823.13	3169
823.27	3253
823.41	3135
823.55	3119
823.69	3165
823.83	3157
823.97	3116
824.11	2986
824.25	2994
824.389	3062
824.529	3119
824.669	3051
824.809	3233
824.949	3211
825.089	3207
825.228	3165
825.368	3055
825.508	2960
825.648	2975
825.787	3036
825.927	3024
826.067	2975
826.206	2963
826.346	3009
826.485	3070
826.625	3108
826.765	3275
826.904	3233
827.044	2975
827.183	2967
827.323	2864
827.462	2990
827.601	2895
827.741	2929
827.88	2967
828.02	2861
828.159	2982
828.298	3013
828.437	3138
828.577	3058
828.716	3268
828.855	3047
828.994	2952
829.134	2918
829.273	2914
829.412	2891
829.551	2845
829.69	2914
829.829	2963
829.968	3146
830.107	3024
830.246	3005
830.385	2906
830.524	2880
830.663	2811
830.802	2731
830.941	2636
831.08	2629
831.219	2739
831.357	2697
831.496	2922
831.635	2724
831.774	2640
831.913	2644
832.051	2564
832.19	2560
832.329	2678
832.467	2568
832.606	2499
832.744	2632
832.883	2556
833.022	2560
833.16	2663
833.299	2636
833.437	2682
833.576	2689
833.714	2712
833.852	2716
833.991	2792
834.129	2842
834.267	2838
834.406	2815
834.544	2868
834.682	2872
834.821	2883
834.959	3093
835.097	2910
835.235	3077
835.373	3009
835.511	3024
835.65	2975
835.788	2986
835.926	2857
836.064	2792
836.202	2842
836.34	3097
836.478	3169
836.615	3055
836.753	3077
836.891	3211
837.029	3146
837.167	3108
837.305	3024
837.443	3024
837.58	2963
837.718	3127
837.856	3104
837.993	3047
838.131	3104
838.269	3066
838.406	3112
838.544	3097
838.681	2918
838.819	2948
838.956	2792
839.094	2804
839.231	2956
839.369	2994
839.506	3348
839.643	3226
839.781	3062
839.918	3009
840.055	3028
840.193	3036
840.33	3077
840.467	3097
840.604	3150
840.742	3424
840.879	3051
841.016	3032
841.153	3116
841.29	3355
841.427	3321
841.564	3253
841.701	3256
841.838	3218
841.975	3180
842.112	3222
842.249	3066
842.385	3036
842.522	3226
842.659	3097
842.796	3051
842.933	3081
843.069	3058
843.206	3070
843.343	3188
843.479	3085
843.616	3180
843.752	2918
843.889	2815
844.025	3062
844.162	2876
844.298	3077
844.435	2990
844.571	2922
844.708	3055
844.844	3203
844.98	3203
845.117	3195
845.253	3085
845.389	3013
845.525	3066
845.661	3093
845.798	3001
845.934	3116
846.07	3047
846.206	3237
846.342	3291
846.478	3237
846.614	3062
846.75	3036
846.886	3043
847.022	3241
847.158	3127
847.294	3173
847.429	3218
847.565	3207
847.701	3454
847.837	3043
847.972	3001
848.108	3127
848.244	3146
848.379	2975
848.515	2944
848.65	2933
848.786	2979
848.921	3009
849.057	3112
849.192	3138
849.328	3077
849.463	3100
849.598	3070
849.734	3039
849.869	2963
850.004	2910
850.14	2941
850.275	2899
850.41	2849
850.545	2868
850.68	2975
850.815	2963
850.95	2982
851.085	3230
851.22	3074
851.355	3032
851.49	2952
851.625	3028
851.76	3013
851.895	2925
852.03	2925
852.165	3024
852.299	3135
852.434	3184
852.569	3173
852.703	3142
852.838	3256
852.973	3306
853.107	3287
853.242	3180
853.376	3070
853.511	2975
853.645	3036
853.78	3245
853.914	3161
854.048	3100
854.183	3112
854.317	3146
854.451	3272
854.585	3119
854.72	3066
854.854	3214
854.988	3047
855.122	3070
855.256	2982
855.39	3138
855.524	3237
855.658	3154
855.792	3176
855.926	3211
856.06	3222
856.194	3237
856.327	3112
856.461	3020
856.595	3100
856.729	3100
856.862	3218
856.996	3150
857.13	3222
857.263	3214
857.397	3256
857.53	3127
857.664	3188
857.797	3230
857.931	3291
858.064	3161
858.197	3230
858.331	3150
858.464	3070
858.597	3001
858.731	3161
858.864	3123
858.997	3028
859.13	3135
859.263	3142
859.396	3226
859.529	3081
859.662	3043
859.795	3043
859.928	3154
860.061	3275
860.194	3325
860.327	3108
860.46	3077
860.592	3241
860.725	3233
860.858	3249
860.99	3089
861.123	3058
861.256	3070
861.388	3135
861.521	3861
861.653	2986
861.786	2944
861.918	3013
862.05	3043
862.183	3100
862.315	3195
862.447	3169
862.58	3097
862.712	2929
862.844	2868
862.976	3013
863.108	2994
863.24	3306
863.372	2899
863.504	2963
863.636	2956
863.768	3032
863.9	2982
864.032	2883
864.164	2933
864.296	3047
864.428	3066
864.559	3097
864.691	3074
864.823	3081
864.954	3070
865.086	3055
865.217	2986
865.349	2975
865.48	3005
865.612	3039
865.743	3138
865.875	2967
866.006	2937
866.137	2986
866.269	2971
866.4	2963
866.531	2922
866.662	2895
866.793	2887
866.924	2922
867.055	2933
867.186	2925
867.317	2887
867.448	2838
867.579	2880
867.71	2864
867.841	2804
867.972	2910
868.103	2906
868.233	2868
868.364	2864
868.495	2891
868.625	3081
868.756	3135
868.886	2944
869.017	3005
869.147	3184
869.278	3146
869.408	3051
869.539	3013
869.669	3097
869.799	3039
869.929	3154
870.06	3089
870.19	3310
870.32	3279
870.45	3310
870.58	3351
870.71	3485
870.84	3439
870.97	3302
871.1	3233
871.23	3492
871.36	3485
871.489	3336
871.619	3378
871.749	3416
871.879	3462
872.008	3466
872.138	3344
872.267	3233
872.397	3108
872.526	3085
872.656	3020
872.785	3116
872.915	3249
873.044	3306
873.173	3211
873.303	3245
873.432	3233
873.561	3226
873.69	3142
873.819	3131
873.948	3192
874.077	3108
874.206	3047
874.335	3093
874.464	3222
874.593	3344
874.722	3283
874.851	3351
874.979	3370
875.108	3317
875.237	3165
875.365	3142
875.494	3184
875.623	3218
875.751	3058
875.88	3150
876.008	3180
876.136	3226
876.265	3382
876.393	3500
876.521	3420
876.65	3355
876.778	3321
876.906	3233
877.034	3192
877.162	3245
877.29	3169
877.418	3253
877.546	3245
877.674	3268
877.802	3253
877.93	3237
878.058	3157
878.185	3142
878.313	3226
878.441	3173
878.568	3104
878.696	3154
878.824	3253
878.951	3306
879.079	3469
879.206	3618
879.333	3443
879.461	3329
879.588	3355
879.715	3462
879.842	3572
879.97	3359
880.097	3180
880.224	3112
880.351	3169
880.478	3260
880.605	3165
880.732	3188
880.859	3458
880.986	3302
881.112	3313
881.239	3214
881.366	3066
881.493	3055
881.619	3009
881.746	3100
881.872	3081
881.999	3051
882.125	3150
882.252	3275
882.378	3306
882.505	3409
882.631	3291
882.757	3192
882.883	3176
883.01	3207
883.136	3135
883.262	3097
883.388	3077
883.514	3336
883.64	3393
883.766	3340
883.892	3233
884.018	3230
884.143	3401
884.269	3496
884.395	3184
884.52	3176
884.646	3165
884.772	3116
884.897	3093
885.023	3184
885.148	3348
885.274	3405
885.399	3359
885.524	3264
885.65	3249
885.775	3298
885.9	3306
886.025	3428
886.15	3359
886.275	3294
886.4	3283
886.525	3302
886.65	3291
886.775	3253
886.9	3526
887.025	3618
887.149	3386
887.274	3291
887.399	3150
887.523	3192
887.648	3184
887.773	3207
887.897	3359
888.021	3389
888.146	3260
888.27	3409
888.395	3500
888.519	3439
888.643	3412
888.767	3466
888.891	3321
889.015	3211
889.139	3260
889.263	3237
889.387	3389
889.511	3500
889.635	3477
889.759	3287
889.883	3294
890.006	3416
890.13	3458
890.254	3268
890.377	3332
890.501	3230
890.624	3188
890.748	3298
890.871	3150
890.995	3104
891.118	3081
891.241	3211
891.364	3176
891.488	3306
891.611	3203
891.734	3218
891.857	3272
891.98	3230
892.103	3329
892.226	3264
892.349	3218
892.471	3123
892.594	3260
892.717	3291
892.839	3218
892.962	3287
893.085	3351
893.207	3279
893.33	3146
893.452	3233
893.575	3340
893.697	3245
893.819	3435
893.941	3549
894.064	3424
894.186	3253
894.308	3294
894.43	3466
894.552	3538
894.674	3500
894.796	3241
894.918	3306
895.04	3298
895.161	3439
895.283	3370
895.405	3340
895.526	3344
895.648	3439
895.769	3435
895.891	3435
896.012	3469
896.134	3477
896.255	3393
896.376	3374
896.498	3355
896.619	3428
896.74	3336
896.861	3416
896.982	3660
897.103	3812
897.224	3625
897.345	3519
897.466	3412
897.587	3492
897.708	3637
897.828	3557
897.949	3481
898.07	3348
898.19	3393
898.311	3580
898.431	3481
898.552	3511
898.672	3568
898.792	3580
898.913	3549
899.033	3420
899.153	3283
899.273	3249
899.393	3237
899.513	3313
899.633	3321
899.753	3317
899.873	3332
899.993	3363
900.113	3332
900.232	3420
900.352	3348
900.472	3336
900.591	3199
900.711	3298
900.83	3256
900.95	3424
901.069	3500
901.189	3332
901.308	3173
901.427	3142
901.546	3222
901.665	3291
901.784	3313
901.904	3230
902.023	3180
902.141	3005
902.26	2979
902.379	3119
902.498	3051
902.617	3036
902.735	3211
902.854	3222
902.973	3146
903.091	3036
903.21	3081
903.328	3123
903.446	3131
903.565	3081
903.683	3157
903.801	3146
903.919	3260
904.038	3287
904.156	3154
904.274	3294
904.392	3249
904.51	3272
904.627	3294
904.745	3412
904.863	3496
904.981	3237
905.098	3184
905.216	3211
905.334	3317
905.451	3344
905.569	3283
905.686	3439
905.803	3424
905.921	3325
906.038	3439
906.155	3386
906.272	3272
906.389	3344
906.506	3222
906.623	3294
906.74	3245
906.857	3165
906.974	3260
907.091	3439
907.208	3572
907.324	3496
907.441	3382
907.557	3218
907.674	3241
907.79	3207
907.907	3283
908.023	3370
908.139	3351
908.256	3332
908.372	3374
908.488	3374
908.604	3237
908.72	3222
908.836	3294
908.952	3298
909.068	3351
909.184	3496
909.3	3389
909.415	3496
909.531	3481
909.647	3317
909.762	3287
909.878	3264
909.993	3359
910.108	3332
910.224	3325
910.339	3454
910.454	3340
910.57	3310
910.685	3214
910.8	3629
910.915	3519
911.03	3458
911.145	3283
911.259	3264
911.374	3332
911.489	3199
911.604	3192
911.718	3138
911.833	3150
911.947	3036
912.062	2963
912.176	3142
912.291	3184
912.405	3241
912.519	3424
912.633	3507
912.748	3340
912.862	3233
912.976	3188
913.09	3055
913.204	3157
913.318	3222
913.431	3382
913.545	3359
913.659	3409
913.772	3340
913.886	3249
914	3192
914.113	3367
914.226	3428
914.34	3336
914.453	3218
914.566	3412
914.68	3279
914.793	3325
914.906	3161
915.019	3116
915.132	3077
915.245	3199
915.358	3237
915.47	3211
915.583	3294
915.696	3264
915.809	3435
915.921	3435
916.034	3287
916.146	3233
916.259	3199
916.371	3393
916.483	3355
916.595	3260
916.708	3332
916.82	3329
916.932	3325
917.044	3370
917.156	3416
917.268	3275
917.38	3313
917.491	3294
917.603	3378
917.715	3462
917.826	3504
917.938	3389
918.049	3268
918.161	3458
918.272	3557
918.384	3599
918.495	3477
918.606	3344
918.717	3245
918.828	3370
918.939	3416
919.05	3313
919.161	3382
919.272	3207
919.383	3275
919.494	3477
919.604	3663
919.715	3477
919.826	3378
919.936	3454
920.047	3610
920.157	3587
920.267	3766
920.378	3610
920.488	3538
920.598	3793
920.708	3960
920.818	3816
920.928	3808
921.038	4036
921.148	3994
921.258	3717
921.368	3622
921.477	3545
921.587	3564
921.697	3439
921.806	3656
921.916	3519
922.025	3340
922.134	3393
922.244	3329
922.353	3450
922.462	3253
922.571	3192
922.68	3119
922.789	3074
922.898	3131
923.007	3093
923.116	3180
923.224	3211
923.333	3214
923.442	3127
923.55	3112
923.659	3112
923.767	3211
923.876	3116
923.984	3260
924.092	3146
924.201	3192
924.309	3218
924.417	3241
924.525	3214
924.633	3218
924.741	4150
924.849	3039
924.956	3264
925.064	3089
925.172	3058
925.279	3070
925.387	3237
925.494	3207
925.602	3389
925.709	3302
925.816	3211
925.924	3291
926.031	3336
926.138	3332
926.245	3351
926.352	3241
926.459	3363
926.566	3454
926.673	3310
926.779	3207
926.886	3260
926.993	3146
927.099	3142
927.206	3119
927.312	3138
927.419	3199
927.525	3237
927.631	3279
927.737	3119
927.843	3097
927.95	3020
928.056	3119
928.162	3180
928.267	3264
928.373	3861
928.479	3344
928.585	3055
928.69	3195
928.796	3294
928.901	3180
929.007	3081
929.112	3226
929.218	3192
929.323	3154
929.428	3154
929.533	3294
929.638	3142
929.743	3188
929.848	3256
929.953	3222
930.058	3123
930.163	2994
930.267	3036
930.372	3169
930.477	3066
930.581	3325
930.685	3165
930.79	3062
930.894	3142
930.998	3100
931.103	3233
931.207	2944
931.311	2918
931.415	2929
931.519	2792
931.623	2826
