Data from test_V78500241_34.txt Node
Date: Fri Mar 25 16:15:26 CST 2022
User: usil
Spectrometer: V785-0024
Trigger mode: 0
Integration Time (sec): 4.000000E-1
Scans to average: 1
Nonlinearity correction enabled: false
Boxcar width: 0
Storing dark spectrum: false
XAxis mode: Wavelengths
Number of Pixels in Spectrum: 1024
>>>>>Begin Spectral Data<<<<<
801.071	2994
801.214	3028
801.356	2929
801.499	2982
801.641	2925
801.783	2952
801.926	3100
802.068	3047
802.211	3047
802.353	3077
802.496	3036
802.638	3112
802.78	3116
802.923	3142
803.065	3108
803.208	2952
803.35	2963
803.492	2994
803.635	3017
803.777	2804
803.919	2910
804.061	3264
804.204	3043
804.346	2975
804.488	2895
804.63	3066
804.773	2902
804.915	2963
805.057	3135
805.199	2982
805.341	3047
805.483	3104
805.626	3066
805.768	2994
805.91	3127
806.052	3157
806.194	3112
806.336	3275
806.478	3077
806.62	2998
806.762	3028
806.904	3146
807.046	3211
807.188	3047
807.33	2986
807.472	3036
807.614	2971
807.756	3020
807.898	2994
808.04	2986
808.182	3058
808.324	2971
808.465	2979
808.607	2956
808.749	2864
808.891	2876
809.033	3009
809.174	3032
809.316	2986
809.458	2929
809.6	2807
809.741	2823
809.883	2849
810.025	2910
810.166	2963
810.308	2902
810.45	2891
810.591	2834
810.733	2819
810.875	2910
811.016	2845
811.158	2834
811.299	2864
811.441	3032
811.582	2960
811.724	2891
811.865	2861
812.007	2982
812.148	2933
812.29	2899
812.431	2971
812.573	2998
812.714	3009
812.855	3123
812.997	3100
813.138	3150
813.279	3116
813.421	3039
813.562	2975
813.703	2899
813.845	2960
813.986	2807
814.127	2807
814.268	2891
814.41	2906
814.551	2823
814.692	2933
814.833	2891
814.974	2922
815.115	2998
815.256	2880
815.397	2853
815.539	2902
815.68	2830
815.821	2834
815.962	3017
816.103	2956
816.244	2937
816.385	2937
816.526	3039
816.666	3009
816.807	2769
816.948	2960
817.089	2960
817.23	2876
817.371	2815
817.512	2838
817.653	2887
817.793	2880
817.934	2979
818.075	3089
818.216	3039
818.356	3077
818.497	2922
818.638	2830
818.778	2910
818.919	2857
819.06	2785
819.2	2914
819.341	2857
819.481	2807
819.622	2948
819.762	3169
819.903	3108
820.043	2979
820.184	2937
820.324	2952
820.465	3089
820.605	3097
820.746	3077
820.886	3047
821.026	3127
821.167	3249
821.307	3348
821.447	3336
821.588	3264
821.728	3283
821.868	3272
822.008	3138
822.149	3249
822.289	3291
822.429	3154
822.569	3157
822.709	3272
822.849	3097
822.99	3135
823.13	3184
823.27	3249
823.41	3161
823.55	3203
823.69	3218
823.83	3214
823.97	3142
824.11	3032
824.25	3058
824.389	3116
824.529	3184
824.669	3116
824.809	3256
824.949	3310
825.089	3279
825.228	3195
825.368	3058
825.508	3013
825.648	3062
825.787	3077
825.927	3081
826.067	3017
826.206	3020
826.346	3097
826.485	3123
826.625	3180
826.765	3325
826.904	3302
827.044	3058
827.183	3017
827.323	2899
827.462	3028
827.601	2952
827.741	2979
827.88	2990
828.02	2899
828.159	3017
828.298	3077
828.437	3180
828.577	3085
828.716	3302
828.855	3104
828.994	2971
829.134	2922
829.273	2960
829.412	2937
829.551	2910
829.69	2952
829.829	3051
829.968	3138
830.107	3058
830.246	3036
830.385	2960
830.524	2902
830.663	2891
830.802	2804
830.941	2743
831.08	2720
831.219	2800
831.357	2785
831.496	2967
831.635	2769
831.774	2727
831.913	2701
832.051	2602
832.19	2610
832.329	2724
832.467	2617
832.606	2518
832.744	2632
832.883	2640
833.022	2667
833.16	2724
833.299	2724
833.437	2712
833.576	2762
833.714	2762
833.852	2807
833.991	2830
834.129	2853
834.267	2868
834.406	2887
834.544	2929
834.682	2960
834.821	2922
834.959	3138
835.097	2979
835.235	3119
835.373	3028
835.511	3055
835.65	3013
835.788	2979
835.926	2887
836.064	2861
836.202	2883
836.34	3165
836.478	3203
836.615	3085
836.753	3192
836.891	3249
837.029	3203
837.167	3146
837.305	3108
837.443	3119
837.58	3001
837.718	3241
837.856	3135
837.993	3055
838.131	3150
838.269	3154
838.406	3161
838.544	3165
838.681	2986
838.819	2982
838.956	2849
839.094	2864
839.231	2975
839.369	3085
839.506	3450
839.643	3279
839.781	3032
839.918	2971
840.055	3104
840.193	3097
840.33	3116
840.467	3195
840.604	3176
840.742	3450
840.879	3089
841.016	3085
841.153	3180
841.29	3424
841.427	3370
841.564	3317
841.701	3397
841.838	3260
841.975	3207
842.112	3283
842.249	3100
842.385	3112
842.522	3310
842.659	3146
842.796	3131
842.933	3150
843.069	3127
843.206	3051
843.343	3203
843.479	3135
843.616	3195
843.752	2933
843.889	2906
844.025	3123
844.162	2899
844.298	3108
844.435	2986
844.571	2971
844.708	3135
844.844	3203
844.98	3298
845.117	3211
845.253	3097
845.389	3062
845.525	3176
845.661	3138
845.798	3047
845.934	3169
846.07	3058
846.206	3264
846.342	3397
846.478	3287
846.614	3112
846.75	3119
846.886	3062
847.022	3340
847.158	3165
847.294	3226
847.429	3241
847.565	3241
847.701	3542
847.837	3066
847.972	3074
848.108	3207
848.244	3203
848.379	3032
848.515	2971
848.65	2982
848.786	3017
848.921	3051
849.057	3161
849.192	3195
849.328	3161
849.463	3184
849.598	3150
849.734	3070
849.869	3028
850.004	2998
850.14	2998
850.275	2982
850.41	2864
850.545	2910
850.68	2994
850.815	2998
850.95	2994
851.085	3192
851.22	3127
851.355	3097
851.49	3005
851.625	3028
851.76	3077
851.895	2975
852.03	2929
852.165	3093
852.299	3192
852.434	3218
852.569	3173
852.703	3245
852.838	3279
852.973	3393
853.107	3401
853.242	3218
853.376	3127
853.511	2994
853.645	3074
853.78	3298
853.914	3192
854.048	3161
854.183	3138
854.317	3169
854.451	3336
854.585	3192
854.72	3104
854.854	3222
854.988	3116
855.122	3127
855.256	3020
855.39	3146
855.524	3302
855.658	3230
855.792	3233
855.926	3226
856.06	3275
856.194	3332
856.327	3237
856.461	3097
856.595	3097
856.729	3154
856.862	3268
856.996	3218
857.13	3222
857.263	3272
857.397	3321
857.53	3192
857.664	3207
857.797	3287
857.931	3329
858.064	3207
858.197	3272
858.331	3180
858.464	3180
858.597	3047
858.731	3161
858.864	3184
858.997	3127
859.13	3218
859.263	3203
859.396	3237
859.529	3131
859.662	3108
859.795	3047
859.928	3195
860.061	3355
860.194	3348
860.327	3207
860.46	3108
860.592	3298
860.725	3256
860.858	3317
860.99	3173
861.123	3100
861.256	3104
861.388	3165
861.521	3903
861.653	3062
861.786	3043
861.918	3013
862.05	3112
862.183	3119
862.315	3154
862.447	3245
862.58	3142
862.712	3001
862.844	2906
862.976	3097
863.108	3051
863.24	3439
863.372	2910
863.504	3001
863.636	3013
863.768	3055
863.9	3055
864.032	2914
864.164	2994
864.296	3047
864.428	3108
864.559	3165
864.691	3108
864.823	3127
864.954	3074
865.086	3085
865.217	3017
865.349	3028
865.48	3032
865.612	3047
865.743	3176
865.875	3032
866.006	2982
866.137	3005
866.269	2990
866.4	2948
866.531	2971
866.662	2982
866.793	2895
866.924	2971
867.055	3001
867.186	2967
867.317	2929
867.448	2910
867.579	2891
867.71	2902
867.841	2815
867.972	2937
868.103	2918
868.233	2918
868.364	2914
868.495	2963
868.625	3161
868.756	3184
868.886	3024
869.017	3020
869.147	3222
869.278	3192
869.408	3081
869.539	3081
869.669	3157
869.799	3112
869.929	3161
870.06	3176
870.19	3382
870.32	3370
870.45	3382
870.58	3397
870.71	3469
870.84	3492
870.97	3332
871.1	3256
871.23	3504
871.36	3477
871.489	3378
871.619	3466
871.749	3450
871.879	3485
872.008	3564
872.138	3424
872.267	3340
872.397	3214
872.526	3176
872.656	3058
872.785	3184
872.915	3279
873.044	3416
873.173	3279
873.303	3317
873.432	3283
873.561	3279
873.69	3214
873.819	3184
873.948	3222
874.077	3138
874.206	3074
874.335	3146
874.464	3253
874.593	3363
874.722	3306
874.851	3416
874.979	3370
875.108	3409
875.237	3214
875.365	3214
875.494	3195
875.623	3313
875.751	3150
875.88	3173
876.008	3245
876.136	3275
876.265	3428
876.393	3576
876.521	3458
876.65	3443
876.778	3340
876.906	3336
877.034	3253
877.162	3253
877.29	3214
877.418	3302
877.546	3306
877.674	3291
877.802	3279
877.93	3287
878.058	3222
878.185	3108
878.313	3237
878.441	3264
878.568	3085
878.696	3237
878.824	3268
878.951	3329
879.079	3477
879.206	3603
879.333	3477
879.461	3359
879.588	3374
879.715	3542
879.842	3667
879.97	3439
880.097	3218
880.224	3188
880.351	3237
880.478	3279
880.605	3249
880.732	3256
880.859	3545
880.986	3374
881.112	3401
881.239	3230
881.366	3176
881.493	3108
881.619	3100
881.746	3135
881.872	3108
881.999	3188
882.125	3188
882.252	3291
882.378	3325
882.505	3450
882.631	3332
882.757	3188
882.883	3249
883.01	3287
883.136	3195
883.262	3150
883.388	3180
883.514	3370
883.64	3443
883.766	3363
883.892	3245
884.018	3272
884.143	3477
884.269	3603
884.395	3253
884.52	3203
884.646	3180
884.772	3161
884.897	3203
885.023	3245
885.148	3378
885.274	3481
885.399	3443
885.524	3348
885.65	3313
885.775	3359
885.9	3332
886.025	3466
886.15	3393
886.275	3340
886.4	3268
886.525	3321
886.65	3321
886.775	3332
886.9	3549
887.025	3698
887.149	3443
887.274	3275
887.399	3222
887.523	3241
887.648	3222
887.773	3245
887.897	3443
888.021	3462
888.146	3378
888.27	3488
888.395	3587
888.519	3481
888.643	3530
888.767	3526
888.891	3348
889.015	3340
889.139	3344
889.263	3317
889.387	3435
889.511	3553
889.635	3534
889.759	3351
889.883	3386
890.006	3409
890.13	3561
890.254	3336
890.377	3374
890.501	3260
890.624	3233
890.748	3351
890.871	3241
890.995	3127
891.118	3116
891.241	3272
891.364	3272
891.488	3367
891.611	3245
891.734	3306
891.857	3302
891.98	3294
892.103	3344
892.226	3344
892.349	3245
892.471	3135
892.594	3306
892.717	3363
892.839	3279
892.962	3329
893.085	3397
893.207	3359
893.33	3180
893.452	3241
893.575	3355
893.697	3272
893.819	3519
893.941	3580
894.064	3462
894.186	3359
894.308	3321
894.43	3500
894.552	3595
894.674	3534
894.796	3298
894.918	3367
895.04	3355
895.161	3466
895.283	3424
895.405	3405
895.526	3435
895.648	3466
895.769	3462
895.891	3469
896.012	3496
896.134	3549
896.255	3454
896.376	3428
896.498	3428
896.619	3515
896.74	3336
896.861	3424
896.982	3724
897.103	3903
897.224	3652
897.345	3538
897.466	3530
897.587	3553
897.708	3690
897.828	3587
897.949	3469
898.07	3382
898.19	3488
898.311	3686
898.431	3500
898.552	3545
898.672	3652
898.792	3610
898.913	3572
899.033	3454
899.153	3332
899.273	3272
899.393	3378
899.513	3378
899.633	3340
899.753	3374
899.873	3370
899.993	3420
900.113	3374
900.232	3466
900.352	3386
900.472	3344
900.591	3264
900.711	3317
900.83	3310
900.95	3447
901.069	3545
901.189	3412
901.308	3226
901.427	3173
901.546	3287
901.665	3340
901.784	3374
901.904	3287
902.023	3176
902.141	3036
902.26	3047
902.379	3165
902.498	3108
902.617	3093
902.735	3253
902.854	3260
902.973	3233
903.091	3089
903.21	3089
903.328	3176
903.446	3142
903.565	3146
903.683	3199
903.801	3119
903.919	3310
904.038	3321
904.156	3233
904.274	3302
904.392	3302
904.51	3348
904.627	3370
904.745	3477
904.863	3580
904.981	3313
905.098	3195
905.216	3264
905.334	3317
905.451	3329
905.569	3378
905.686	3462
905.803	3466
905.921	3298
906.038	3462
906.155	3397
906.272	3310
906.389	3386
906.506	3253
906.623	3329
906.74	3325
906.857	3237
906.974	3298
907.091	3515
907.208	3606
907.324	3564
907.441	3431
907.557	3256
907.674	3291
907.79	3233
907.907	3355
908.023	3393
908.139	3393
908.256	3420
908.372	3428
908.488	3416
908.604	3310
908.72	3260
908.836	3344
908.952	3298
909.068	3389
909.184	3553
909.3	3462
909.415	3519
909.531	3542
909.647	3329
909.762	3359
909.878	3336
909.993	3412
910.108	3405
910.224	3340
910.339	3488
910.454	3378
910.57	3325
910.685	3275
910.8	3644
910.915	3587
911.03	3492
911.145	3313
911.259	3291
911.374	3359
911.489	3260
911.604	3264
911.718	3142
911.833	3180
911.947	3108
912.062	3039
912.176	3184
912.291	3241
912.405	3253
912.519	3511
912.633	3507
912.748	3367
912.862	3313
912.976	3184
913.09	3097
913.204	3169
913.318	3272
913.431	3382
913.545	3401
913.659	3469
913.772	3382
913.886	3287
914	3207
914.113	3424
914.226	3466
914.34	3382
914.453	3256
914.566	3488
914.68	3367
914.793	3374
914.906	3161
915.019	3131
915.132	3116
915.245	3233
915.358	3211
915.47	3268
915.583	3313
915.696	3378
915.809	3488
915.921	3447
916.034	3279
916.146	3302
916.259	3264
916.371	3450
916.483	3450
916.595	3336
916.708	3370
916.82	3435
916.932	3351
917.044	3412
917.156	3378
917.268	3283
917.38	3348
917.491	3351
917.603	3424
917.715	3477
917.826	3523
917.938	3416
918.049	3310
918.161	3496
918.272	3603
918.384	3610
918.495	3557
918.606	3386
918.717	3302
918.828	3351
918.939	3462
919.05	3378
919.161	3397
919.272	3249
919.383	3313
919.494	3526
919.604	3747
919.715	3519
919.826	3450
919.936	3515
920.047	3599
920.157	3625
920.267	3827
920.378	3606
920.488	3572
920.598	3816
920.708	3998
920.818	3888
920.928	3888
921.038	4093
921.148	4051
921.258	3724
921.368	3671
921.477	3610
921.587	3557
921.697	3515
921.806	3698
921.916	3545
922.025	3405
922.134	3397
922.244	3370
922.353	3466
922.462	3272
922.571	3279
922.68	3169
922.789	3089
922.898	3207
923.007	3165
923.116	3249
923.224	3253
923.333	3256
923.442	3150
923.55	3146
923.659	3241
923.767	3256
923.876	3173
923.984	3272
924.092	3176
924.201	3226
924.309	3249
924.417	3294
924.525	3188
924.633	3310
924.741	4261
924.849	3089
924.956	3287
925.064	3142
925.172	3077
925.279	3150
925.387	3226
925.494	3233
925.602	3447
925.709	3370
925.816	3249
925.924	3363
926.031	3401
926.138	3367
926.245	3397
926.352	3310
926.459	3507
926.566	3553
926.673	3359
926.779	3321
926.886	3310
926.993	3218
927.099	3192
927.206	3176
927.312	3188
927.419	3275
927.525	3233
927.631	3332
927.737	3184
927.843	3150
927.95	3070
928.056	3195
928.162	3226
928.267	3298
928.373	3781
928.479	3378
928.585	3100
928.69	3275
928.796	3321
928.901	3233
929.007	3100
929.112	3245
929.218	3199
929.323	3165
929.428	3218
929.533	3374
929.638	3146
929.743	3192
929.848	3317
929.953	3283
930.058	3211
930.163	3070
930.267	3093
930.372	3245
930.477	3055
930.581	3359
930.685	3230
930.79	3097
930.894	3199
930.998	3116
931.103	3310
931.207	3028
931.311	2994
931.415	2994
931.519	2792
931.623	2842
