Data from test_V78500241_521.txt Node
Date: Fri Mar 25 16:18:48 CST 2022
User: usil
Spectrometer: V785-0024
Trigger mode: 0
Integration Time (sec): 4.000000E-1
Scans to average: 1
Nonlinearity correction enabled: false
Boxcar width: 0
Storing dark spectrum: false
XAxis mode: Wavelengths
Number of Pixels in Spectrum: 1024
>>>>>Begin Spectral Data<<<<<
801.071	2914
801.214	2986
801.356	2906
801.499	2914
801.641	2902
801.783	2956
801.926	3066
802.068	2998
802.211	3013
802.353	3089
802.496	2990
802.638	2990
802.78	3085
802.923	3074
803.065	2975
803.208	2937
803.35	2937
803.492	2944
803.635	2918
803.777	2773
803.919	2883
804.061	3222
804.204	2963
804.346	2933
804.488	2830
804.63	3017
804.773	2918
804.915	2914
805.057	3112
805.199	2941
805.341	2944
805.483	3074
805.626	2979
805.768	2975
805.91	3104
806.052	3123
806.194	3047
806.336	3233
806.478	2971
806.62	2971
806.762	2963
806.904	3051
807.046	3173
807.188	2963
807.33	2910
807.472	2982
807.614	2902
807.756	3032
807.898	2929
808.04	2914
808.182	2975
808.324	2933
808.465	2910
808.607	2883
808.749	2785
808.891	2842
809.033	3001
809.174	2975
809.316	2929
809.458	2883
809.6	2788
809.741	2792
809.883	2796
810.025	2815
810.166	2857
810.308	2842
810.45	2864
810.591	2758
810.733	2792
810.875	2857
811.016	2788
811.158	2758
811.299	2815
811.441	2998
811.582	2891
811.724	2826
811.865	2845
812.007	2910
812.148	2906
812.29	2845
812.431	2895
812.573	2941
812.714	2910
812.855	3066
812.997	3066
813.138	3112
813.279	3028
813.421	2994
813.562	2967
813.703	2895
813.845	2887
813.986	2792
814.127	2754
814.268	2842
814.41	2819
814.551	2849
814.692	2895
814.833	2842
814.974	2910
815.115	2922
815.256	2857
815.397	2853
815.539	2861
815.68	2781
815.821	2792
815.962	2941
816.103	2918
816.244	2861
816.385	2872
816.526	2967
816.666	2902
816.807	2769
816.948	2868
817.089	2891
817.23	2861
817.371	2792
817.512	2838
817.653	2838
817.793	2815
817.934	2918
818.075	2948
818.216	3013
818.356	2994
818.497	2910
818.638	2773
818.778	2819
818.919	2823
819.06	2788
819.2	2906
819.341	2796
819.481	2815
819.622	2952
819.762	3138
819.903	3043
820.043	2948
820.184	2895
820.324	2895
820.465	3017
820.605	3047
820.746	3032
820.886	2941
821.026	3100
821.167	3131
821.307	3253
821.447	3279
821.588	3237
821.728	3207
821.868	3207
822.008	3074
822.149	3199
822.289	3241
822.429	3062
822.569	3062
822.709	3173
822.849	2994
822.99	3051
823.13	3154
823.27	3184
823.41	3089
823.55	3165
823.69	3161
823.83	3207
823.97	3104
824.11	2971
824.25	2979
824.389	3074
824.529	3108
824.669	3047
824.809	3207
824.949	3264
825.089	3203
825.228	3142
825.368	3005
825.508	2967
825.648	2963
825.787	3013
825.927	3005
826.067	2960
826.206	2982
826.346	3058
826.485	3070
826.625	3150
826.765	3310
826.904	3203
827.044	3005
827.183	2963
827.323	2910
827.462	3020
827.601	2872
827.741	2937
827.88	2998
828.02	2826
828.159	2994
828.298	3017
828.437	3135
828.577	3047
828.716	3260
828.855	3089
828.994	2922
829.134	2895
829.273	2922
829.412	2880
829.551	2872
829.69	2895
829.829	2971
829.968	3112
830.107	3051
830.246	3093
830.385	2952
830.524	2868
830.663	2815
830.802	2705
830.941	2697
831.08	2629
831.219	2727
831.357	2712
831.496	2967
831.635	2727
831.774	2670
831.913	2655
832.051	2552
832.19	2556
832.329	2670
832.467	2568
832.606	2461
832.744	2575
832.883	2583
833.022	2590
833.16	2667
833.299	2705
833.437	2670
833.576	2716
833.714	2674
833.852	2762
833.991	2762
834.129	2864
834.267	2823
834.406	2769
834.544	2883
834.682	2899
834.821	2887
834.959	3070
835.097	2910
835.235	3043
835.373	2971
835.511	2998
835.65	2941
835.788	2979
835.926	2830
836.064	2811
836.202	2842
836.34	3093
836.478	3146
836.615	3058
836.753	3131
836.891	3180
837.029	3157
837.167	3116
837.305	3051
837.443	3077
837.58	2952
837.718	3154
837.856	3043
837.993	3001
838.131	3085
838.269	3131
838.406	3135
838.544	3146
838.681	2952
838.819	2899
838.956	2823
839.094	2826
839.231	2918
839.369	3017
839.506	3336
839.643	3195
839.781	2982
839.918	2944
840.055	3036
840.193	3032
840.33	3039
840.467	3077
840.604	3138
840.742	3428
840.879	3017
841.016	3047
841.153	3100
841.29	3317
841.427	3302
841.564	3264
841.701	3291
841.838	3203
841.975	3173
842.112	3233
842.249	3062
842.385	3036
842.522	3249
842.659	3062
842.796	3047
842.933	3104
843.069	3039
843.206	3020
843.343	3154
843.479	3104
843.616	3138
843.752	2872
843.889	2857
844.025	3081
844.162	2883
844.298	3097
844.435	2960
844.571	2925
844.708	3093
844.844	3192
844.98	3214
845.117	3218
845.253	3066
845.389	3020
845.525	3089
845.661	3074
845.798	2990
845.934	3173
846.07	3036
846.206	3214
846.342	3325
846.478	3253
846.614	3131
846.75	3066
846.886	3024
847.022	3253
847.158	3176
847.294	3195
847.429	3237
847.565	3230
847.701	3458
847.837	3028
847.972	2971
848.108	3142
848.244	3116
848.379	3009
848.515	2960
848.65	2902
848.786	2937
848.921	3024
849.057	3112
849.192	3138
849.328	3058
849.463	3142
849.598	3055
849.734	3062
849.869	2960
850.004	2929
850.14	2933
850.275	2910
850.41	2823
850.545	2883
850.68	2944
850.815	2963
850.95	2963
851.085	3169
851.22	3112
851.355	2979
851.49	2971
851.625	3009
851.76	3028
851.895	2925
852.03	2914
852.165	3009
852.299	3093
852.434	3184
852.569	3119
852.703	3157
852.838	3249
852.973	3298
853.107	3363
853.242	3173
853.376	3066
853.511	2975
853.645	3013
853.78	3218
853.914	3165
854.048	3085
854.183	3062
854.317	3127
854.451	3313
854.585	3119
854.72	3085
854.854	3199
854.988	3028
855.122	3104
855.256	2986
855.39	3123
855.524	3199
855.658	3161
855.792	3131
855.926	3195
856.06	3249
856.194	3264
856.327	3154
856.461	3036
856.595	3085
856.729	3093
856.862	3226
856.996	3169
857.13	3188
857.263	3184
857.397	3264
857.53	3108
857.664	3165
857.797	3245
857.931	3241
858.064	3142
858.197	3188
858.331	3165
858.464	3043
858.597	3001
858.731	3089
858.864	3108
858.997	3100
859.13	3119
859.263	3161
859.396	3211
859.529	3097
859.662	3097
859.795	3051
859.928	3123
860.061	3268
860.194	3302
860.327	3123
860.46	3047
860.592	3218
860.725	3245
860.858	3272
860.99	3100
861.123	3051
861.256	3039
861.388	3116
861.521	3892
861.653	3036
861.786	2933
861.918	3017
862.05	3047
862.183	3081
862.315	3119
862.447	3192
862.58	3100
862.712	2941
862.844	2834
862.976	3005
863.108	3005
863.24	3397
863.372	2857
863.504	2982
863.636	2967
863.768	3013
863.9	3005
864.032	2895
864.164	2979
864.296	3009
864.428	3066
864.559	3131
864.691	3066
864.823	3081
864.954	2982
865.086	3043
865.217	2998
865.349	2941
865.48	2979
865.612	2998
865.743	3165
865.875	2971
866.006	2922
866.137	2986
866.269	2922
866.4	2941
866.531	2925
866.662	2910
866.793	2906
866.924	2872
867.055	2960
867.186	2887
867.317	2857
867.448	2861
867.579	2842
867.71	2838
867.841	2830
867.972	2861
868.103	2906
868.233	2876
868.364	2883
868.495	2906
868.625	3097
868.756	3150
868.886	2952
869.017	3005
869.147	3180
869.278	3184
869.408	3055
869.539	3017
869.669	3062
869.799	3055
869.929	3123
870.06	3089
870.19	3348
870.32	3317
870.45	3294
870.58	3336
870.71	3450
870.84	3428
870.97	3279
871.1	3222
871.23	3492
871.36	3447
871.489	3401
871.619	3389
871.749	3397
871.879	3431
872.008	3458
872.138	3340
872.267	3253
872.397	3081
872.526	3070
872.656	2967
872.785	3142
872.915	3249
873.044	3306
873.173	3226
873.303	3237
873.432	3226
873.561	3233
873.69	3161
873.819	3116
873.948	3184
874.077	3104
874.206	3043
874.335	3055
874.464	3199
874.593	3389
874.722	3222
874.851	3389
874.979	3325
875.108	3291
875.237	3222
875.365	3150
875.494	3165
875.623	3237
875.751	3097
875.88	3123
876.008	3199
876.136	3211
876.265	3363
876.393	3428
876.521	3450
876.65	3416
876.778	3332
876.906	3226
877.034	3195
877.162	3207
877.29	3211
877.418	3245
877.546	3264
877.674	3230
877.802	3249
877.93	3230
878.058	3180
878.185	3112
878.313	3199
878.441	3222
878.568	3093
878.696	3135
878.824	3253
878.951	3317
879.079	3431
879.206	3641
879.333	3458
879.461	3317
879.588	3336
879.715	3492
879.842	3606
879.97	3382
880.097	3119
880.224	3093
880.351	3207
880.478	3214
880.605	3195
880.732	3180
880.859	3507
880.986	3302
881.112	3313
881.239	3207
881.366	3074
881.493	3043
881.619	3017
881.746	3039
881.872	3077
881.999	3070
882.125	3154
882.252	3287
882.378	3287
882.505	3401
882.631	3302
882.757	3169
882.883	3203
883.01	3233
883.136	3146
883.262	3108
883.388	3100
883.514	3317
883.64	3374
883.766	3313
883.892	3154
884.018	3230
884.143	3374
884.269	3504
884.395	3207
884.52	3176
884.646	3169
884.772	3100
884.897	3104
885.023	3161
885.148	3348
885.274	3458
885.399	3344
885.524	3249
885.65	3272
885.775	3310
885.9	3268
886.025	3428
886.15	3325
886.275	3283
886.4	3195
886.525	3336
886.65	3249
886.775	3222
886.9	3485
887.025	3633
887.149	3412
887.274	3256
887.399	3180
887.523	3214
887.648	3142
887.773	3176
887.897	3351
888.021	3424
888.146	3325
888.27	3443
888.395	3519
888.519	3469
888.643	3431
888.767	3443
888.891	3298
889.015	3233
889.139	3332
889.263	3279
889.387	3412
889.511	3515
889.635	3435
889.759	3287
889.883	3310
890.006	3332
890.13	3481
890.254	3241
890.377	3310
890.501	3199
890.624	3180
890.748	3302
890.871	3184
890.995	3116
891.118	3017
891.241	3184
891.364	3214
891.488	3325
891.611	3165
891.734	3230
891.857	3317
891.98	3195
892.103	3340
892.226	3245
892.349	3165
892.471	3089
892.594	3268
892.717	3294
892.839	3249
892.962	3329
893.085	3344
893.207	3310
893.33	3146
893.452	3245
893.575	3389
893.697	3272
893.819	3500
893.941	3462
894.064	3469
894.186	3233
894.308	3256
894.43	3435
894.552	3576
894.674	3496
894.796	3298
894.918	3321
895.04	3268
895.161	3416
895.283	3336
895.405	3287
895.526	3359
895.648	3401
895.769	3412
895.891	3469
896.012	3477
896.134	3447
896.255	3401
896.376	3363
896.498	3359
896.619	3424
896.74	3393
896.861	3409
896.982	3686
897.103	3831
897.224	3633
897.345	3523
897.466	3397
897.587	3488
897.708	3622
897.828	3507
897.949	3435
898.07	3348
898.19	3393
898.311	3618
898.431	3473
898.552	3477
898.672	3568
898.792	3557
898.913	3500
899.033	3424
899.153	3298
899.273	3222
899.393	3260
899.513	3302
899.633	3359
899.753	3317
899.873	3291
899.993	3393
900.113	3336
900.232	3367
900.352	3344
900.472	3253
900.591	3226
900.711	3291
900.83	3245
900.95	3389
901.069	3477
901.189	3344
901.308	3123
901.427	3138
901.546	3188
901.665	3291
901.784	3302
901.904	3241
902.023	3142
902.141	3039
902.26	3036
902.379	3123
902.498	3093
902.617	3058
902.735	3188
902.854	3161
902.973	3169
903.091	3047
903.21	3036
903.328	3138
903.446	3123
903.565	3108
903.683	3207
903.801	3104
903.919	3214
904.038	3268
904.156	3146
904.274	3279
904.392	3268
904.51	3249
904.627	3287
904.745	3416
904.863	3485
904.981	3237
905.098	3176
905.216	3237
905.334	3298
905.451	3272
905.569	3310
905.686	3458
905.803	3458
905.921	3249
906.038	3469
906.155	3351
906.272	3302
906.389	3336
906.506	3226
906.623	3214
906.74	3253
906.857	3195
906.974	3203
907.091	3473
907.208	3561
907.324	3488
907.441	3393
907.557	3214
907.674	3222
907.79	3214
907.907	3268
908.023	3378
908.139	3389
908.256	3340
908.372	3374
908.488	3310
908.604	3264
908.72	3268
908.836	3272
908.952	3245
909.068	3336
909.184	3492
909.3	3386
909.415	3488
909.531	3485
909.647	3264
909.762	3287
909.878	3222
909.993	3378
910.108	3291
910.224	3348
910.339	3340
910.454	3355
910.57	3294
910.685	3233
910.8	3564
910.915	3511
911.03	3428
911.145	3237
911.259	3279
911.374	3298
911.489	3260
911.604	3211
911.718	3131
911.833	3176
911.947	3020
912.062	2956
912.176	3142
912.291	3211
912.405	3195
912.519	3412
912.633	3466
912.748	3340
912.862	3245
912.976	3154
913.09	3028
913.204	3127
913.318	3256
913.431	3321
913.545	3313
913.659	3431
913.772	3321
913.886	3192
914	3192
914.113	3329
914.226	3367
914.34	3378
914.453	3176
914.566	3412
914.68	3256
914.793	3253
914.906	3161
915.019	3108
915.132	3108
915.245	3173
915.358	3218
915.47	3195
915.583	3256
915.696	3241
915.809	3397
915.921	3431
916.034	3230
916.146	3249
916.259	3237
916.371	3355
916.483	3344
916.595	3294
916.708	3321
916.82	3336
916.932	3317
917.044	3313
917.156	3351
917.268	3264
917.38	3279
917.491	3310
917.603	3386
917.715	3443
917.826	3488
917.938	3389
918.049	3313
918.161	3416
918.272	3561
918.384	3526
918.495	3515
918.606	3329
918.717	3237
918.828	3389
918.939	3424
919.05	3279
919.161	3363
919.272	3176
919.383	3241
919.494	3534
919.604	3671
919.715	3507
919.826	3424
919.936	3450
920.047	3599
920.157	3557
920.267	3755
920.378	3595
920.488	3572
920.598	3759
920.708	3979
920.818	3823
920.928	3823
921.038	3994
921.148	3975
921.258	3667
921.368	3625
921.477	3606
921.587	3515
921.697	3496
921.806	3610
921.916	3500
922.025	3336
922.134	3325
922.244	3306
922.353	3416
922.462	3287
922.571	3195
922.68	3066
922.789	3093
922.898	3135
923.007	3112
923.116	3230
923.224	3169
923.333	3184
923.442	3116
923.55	3051
923.659	3100
923.767	3245
923.876	3108
923.984	3211
924.092	3100
924.201	3195
924.309	3256
924.417	3253
924.525	3207
924.633	3237
924.741	4181
924.849	3047
924.956	3291
925.064	3131
925.172	3062
925.279	3104
925.387	3184
925.494	3199
925.602	3351
925.709	3332
925.816	3173
925.924	3268
926.031	3389
926.138	3306
926.245	3367
926.352	3241
926.459	3374
926.566	3469
926.673	3317
926.779	3211
926.886	3241
926.993	3165
927.099	3108
927.206	3135
927.312	3100
927.419	3199
927.525	3173
927.631	3283
927.737	3173
927.843	3119
927.95	3062
928.056	3119
928.162	3154
928.267	3249
928.373	3762
928.479	3283
928.585	3070
928.69	3188
928.796	3260
928.901	3176
929.007	2998
929.112	3211
929.218	3169
929.323	3173
929.428	3188
929.533	3348
929.638	3116
929.743	3188
929.848	3256
929.953	3188
930.058	3112
930.163	3009
930.267	3055
930.372	3184
930.477	3081
930.581	3306
930.685	3188
930.79	3058
930.894	3097
930.998	3104
931.103	3260
931.207	2960
931.311	2895
931.415	2922
931.519	2762
931.623	2807
