Data from test_V78500241_669.txt Node
Date: Fri Mar 25 16:19:50 CST 2022
User: usil
Spectrometer: V785-0024
Trigger mode: 0
Integration Time (sec): 4.000000E-1
Scans to average: 1
Nonlinearity correction enabled: false
Boxcar width: 0
Storing dark spectrum: false
XAxis mode: Wavelengths
Number of Pixels in Spectrum: 1024
>>>>>Begin Spectral Data<<<<<
801.071	2952
801.214	2941
801.356	2883
801.499	2918
801.641	2891
801.783	2914
801.926	3089
802.068	2982
802.211	3001
802.353	3058
802.496	2952
802.638	3036
802.78	3005
802.923	3112
803.065	3036
803.208	2895
803.35	2929
803.492	2971
803.635	2944
803.777	2766
803.919	2899
804.061	3241
804.204	2960
804.346	2929
804.488	2868
804.63	2998
804.773	2880
804.915	2933
805.057	3051
805.199	2902
805.341	2990
805.483	3047
805.626	2998
805.768	2963
805.91	3055
806.052	3119
806.194	3020
806.336	3218
806.478	3024
806.62	2933
806.762	2948
806.904	3051
807.046	3169
807.188	2990
807.33	2956
807.472	2998
807.614	2902
807.756	2990
807.898	2929
808.04	2899
808.182	2941
808.324	2956
808.465	2899
808.607	2842
808.749	2826
808.891	2861
809.033	2956
809.174	2986
809.316	2891
809.458	2883
809.6	2777
809.741	2746
809.883	2758
810.025	2838
810.166	2845
810.308	2849
810.45	2868
810.591	2769
810.733	2758
810.875	2857
811.016	2785
811.158	2758
811.299	2819
811.441	2914
811.582	2883
811.724	2842
811.865	2834
812.007	2906
812.148	2864
812.29	2861
812.431	2872
812.573	2941
812.714	2975
812.855	3020
812.997	3017
813.138	3108
813.279	3001
813.421	2956
813.562	2944
813.703	2853
813.845	2872
813.986	2754
814.127	2754
814.268	2838
814.41	2842
814.551	2826
814.692	2868
814.833	2826
814.974	2918
815.115	2948
815.256	2804
815.397	2796
815.539	2853
815.68	2769
815.821	2769
815.962	2922
816.103	2922
816.244	2895
816.385	2857
816.526	2956
816.666	2906
816.807	2743
816.948	2868
817.089	2922
817.23	2819
817.371	2781
817.512	2834
817.653	2834
817.793	2815
817.934	2868
818.075	2963
818.216	2979
818.356	2986
818.497	2857
818.638	2804
818.778	2842
818.919	2807
819.06	2731
819.2	2868
819.341	2796
819.481	2796
819.622	2906
819.762	3093
819.903	3089
820.043	2922
820.184	2864
820.324	2922
820.465	3058
820.605	3020
820.746	3051
820.886	2918
821.026	3093
821.167	3173
821.307	3233
821.447	3264
821.588	3256
821.728	3218
821.868	3199
822.008	3097
822.149	3203
822.289	3233
822.429	3123
822.569	3112
822.709	3211
822.849	3089
822.99	3108
823.13	3154
823.27	3211
823.41	3173
823.55	3157
823.69	3127
823.83	3233
823.97	3123
824.11	3028
824.25	3013
824.389	3100
824.529	3123
824.669	3097
824.809	3249
824.949	3306
825.089	3256
825.228	3146
825.368	3070
825.508	2998
825.648	3043
825.787	3032
825.927	3013
826.067	3001
826.206	2986
826.346	3085
826.485	3108
826.625	3173
826.765	3306
826.904	3245
827.044	3051
827.183	2963
827.323	2883
827.462	3047
827.601	2990
827.741	2963
827.88	2994
828.02	2864
828.159	3001
828.298	3066
828.437	3157
828.577	3074
828.716	3256
828.855	3089
828.994	2922
829.134	2918
829.273	2990
829.412	2914
829.551	2895
829.69	2925
829.829	3036
829.968	3176
830.107	3062
830.246	3066
830.385	2975
830.524	2914
830.663	2868
830.802	2785
830.941	2682
831.08	2682
831.219	2781
831.357	2785
831.496	2990
831.635	2746
831.774	2648
831.913	2724
832.051	2575
832.19	2598
832.329	2762
832.467	2575
832.606	2549
832.744	2579
832.883	2640
833.022	2636
833.16	2682
833.299	2750
833.437	2727
833.576	2724
833.714	2766
833.852	2773
833.991	2773
834.129	2868
834.267	2853
834.406	2872
834.544	2899
834.682	2891
834.821	2899
834.959	3081
835.097	2906
835.235	3074
835.373	3032
835.511	3089
835.65	2956
835.788	2979
835.926	2857
836.064	2857
836.202	2891
836.34	3089
836.478	3222
836.615	3100
836.753	3123
836.891	3203
837.029	3211
837.167	3135
837.305	3112
837.443	3066
837.58	2986
837.718	3195
837.856	3070
837.993	3032
838.131	3161
838.269	3123
838.406	3142
838.544	3127
838.681	2967
838.819	2941
838.956	2826
839.094	2902
839.231	2941
839.369	3070
839.506	3420
839.643	3230
839.781	3032
839.918	2994
840.055	3097
840.193	3062
840.33	3066
840.467	3097
840.604	3142
840.742	3382
840.879	3024
841.016	3077
841.153	3127
841.29	3370
841.427	3275
841.564	3302
841.701	3291
841.838	3249
841.975	3211
842.112	3233
842.249	3100
842.385	3062
842.522	3329
842.659	3150
842.796	3070
842.933	3089
843.069	3097
843.206	3066
843.343	3211
843.479	3123
843.616	3184
843.752	2910
843.889	2887
844.025	3066
844.162	2902
844.298	3119
844.435	3009
844.571	2948
844.708	3154
844.844	3249
844.98	3256
845.117	3226
845.253	3108
845.389	3020
845.525	3184
845.661	3138
845.798	3051
845.934	3154
846.07	3074
846.206	3241
846.342	3340
846.478	3256
846.614	3123
846.75	3085
846.886	3020
847.022	3256
847.158	3138
847.294	3230
847.429	3283
847.565	3241
847.701	3504
847.837	3013
847.972	3020
848.108	3184
848.244	3176
848.379	2994
848.515	2960
848.65	2944
848.786	2986
848.921	3055
849.057	3108
849.192	3203
849.328	3097
849.463	3180
849.598	3081
849.734	3074
849.869	2990
850.004	2960
850.14	2982
850.275	2902
850.41	2834
850.545	2918
850.68	3001
850.815	2963
850.95	2975
851.085	3233
851.22	3097
851.355	3047
851.49	2952
851.625	3055
851.76	3085
851.895	2975
852.03	2941
852.165	3058
852.299	3150
852.434	3199
852.569	3173
852.703	3211
852.838	3260
852.973	3374
853.107	3367
853.242	3157
853.376	3100
853.511	2956
853.645	3055
853.78	3218
853.914	3142
854.048	3089
854.183	3089
854.317	3123
854.451	3306
854.585	3154
854.72	3138
854.854	3241
854.988	3089
855.122	3131
855.256	2990
855.39	3108
855.524	3260
855.658	3184
855.792	3199
855.926	3222
856.06	3195
856.194	3275
856.327	3176
856.461	3070
856.595	3135
856.729	3112
856.862	3253
856.996	3161
857.13	3203
857.263	3245
857.397	3268
857.53	3112
857.664	3203
857.797	3237
857.931	3321
858.064	3165
858.197	3260
858.331	3142
858.464	3093
858.597	3017
858.731	3100
858.864	3146
858.997	3093
859.13	3203
859.263	3211
859.396	3211
859.529	3097
859.662	3077
859.795	3066
859.928	3127
860.061	3283
860.194	3272
860.327	3154
860.46	3146
860.592	3260
860.725	3287
860.858	3245
860.99	3112
861.123	3077
861.256	3070
861.388	3184
861.521	3884
861.653	3058
861.786	3017
861.918	2994
862.05	3058
862.183	3157
862.315	3154
862.447	3233
862.58	3135
862.712	2979
862.844	2895
862.976	3009
863.108	3028
863.24	3435
863.372	2902
863.504	3020
863.636	2948
863.768	3032
863.9	3013
864.032	2910
864.164	2937
864.296	3043
864.428	3116
864.559	3123
864.691	3100
864.823	3058
864.954	3097
865.086	3070
865.217	3009
865.349	2937
865.48	2994
865.612	3024
865.743	3169
865.875	3024
866.006	2960
866.137	2994
866.269	2990
866.4	2994
866.531	2960
866.662	2880
866.793	2910
866.924	2922
867.055	2990
867.186	2944
867.317	2891
867.448	2868
867.579	2864
867.71	2876
867.841	2823
867.972	2899
868.103	2914
868.233	2880
868.364	2880
868.495	2922
868.625	3085
868.756	3176
868.886	3024
869.017	3039
869.147	3154
869.278	3142
869.408	3085
869.539	3039
869.669	3104
869.799	3077
869.929	3150
870.06	3142
870.19	3355
870.32	3298
870.45	3325
870.58	3378
870.71	3481
870.84	3488
870.97	3313
871.1	3249
871.23	3485
871.36	3496
871.489	3389
871.619	3382
871.749	3401
871.879	3466
872.008	3485
872.138	3340
872.267	3302
872.397	3108
872.526	3131
872.656	3028
872.785	3127
872.915	3253
873.044	3302
873.173	3260
873.303	3298
873.432	3264
873.561	3272
873.69	3173
873.819	3131
873.948	3192
874.077	3135
874.206	3051
874.335	3127
874.464	3214
874.593	3344
874.722	3298
874.851	3397
874.979	3382
875.108	3325
875.237	3226
875.365	3165
875.494	3192
875.623	3241
875.751	3081
875.88	3104
876.008	3233
876.136	3192
876.265	3370
876.393	3481
876.521	3443
876.65	3382
876.778	3329
876.906	3233
877.034	3241
877.162	3237
877.29	3214
877.418	3264
877.546	3230
877.674	3253
877.802	3264
877.93	3226
878.058	3165
878.185	3104
878.313	3222
878.441	3192
878.568	3066
878.696	3157
878.824	3268
878.951	3298
879.079	3450
879.206	3625
879.333	3462
879.461	3382
879.588	3378
879.715	3488
879.842	3606
879.97	3367
880.097	3192
880.224	3176
880.351	3199
880.478	3222
880.605	3230
880.732	3218
880.859	3511
880.986	3294
881.112	3359
881.239	3214
881.366	3104
881.493	3077
881.619	2994
881.746	3131
881.872	3081
881.999	3127
882.125	3157
882.252	3260
882.378	3321
882.505	3428
882.631	3298
882.757	3161
882.883	3275
883.01	3214
883.136	3169
883.262	3104
883.388	3142
883.514	3344
883.64	3382
883.766	3355
883.892	3180
884.018	3279
884.143	3401
884.269	3549
884.395	3195
884.52	3135
884.646	3203
884.772	3165
884.897	3135
885.023	3173
885.148	3340
885.274	3431
885.399	3389
885.524	3287
885.65	3256
885.775	3351
885.9	3283
886.025	3447
886.15	3401
886.275	3317
886.4	3275
886.525	3291
886.65	3287
886.775	3256
886.9	3542
887.025	3644
887.149	3393
887.274	3256
887.399	3180
887.523	3207
887.648	3249
887.773	3199
887.897	3382
888.021	3405
888.146	3272
888.27	3443
888.395	3561
888.519	3454
888.643	3450
888.767	3443
888.891	3329
889.015	3275
889.139	3317
889.263	3211
889.387	3412
889.511	3549
889.635	3469
889.759	3302
889.883	3332
890.006	3382
890.13	3492
890.254	3287
890.377	3329
890.501	3249
890.624	3169
890.748	3302
890.871	3203
890.995	3108
891.118	3066
891.241	3222
891.364	3237
891.488	3313
891.611	3176
891.734	3218
891.857	3275
891.98	3260
892.103	3336
892.226	3302
892.349	3226
892.471	3119
892.594	3214
892.717	3298
892.839	3275
892.962	3291
893.085	3382
893.207	3310
893.33	3146
893.452	3207
893.575	3393
893.697	3230
893.819	3469
893.941	3466
894.064	3462
894.186	3260
894.308	3241
894.43	3450
894.552	3545
894.674	3488
894.796	3260
894.918	3340
895.04	3317
895.161	3439
895.283	3389
895.405	3310
895.526	3424
895.648	3447
895.769	3439
895.891	3424
896.012	3473
896.134	3485
896.255	3393
896.376	3435
896.498	3344
896.619	3431
896.74	3378
896.861	3397
896.982	3694
897.103	3850
897.224	3622
897.345	3572
897.466	3416
897.587	3500
897.708	3618
897.828	3561
897.949	3458
898.07	3336
898.19	3454
898.311	3629
898.431	3473
898.552	3542
898.672	3576
898.792	3622
898.913	3553
899.033	3393
899.153	3306
899.273	3211
899.393	3260
899.513	3306
899.633	3313
899.753	3363
899.873	3329
899.993	3382
900.113	3344
900.232	3389
900.352	3340
900.472	3275
900.591	3188
900.711	3313
900.83	3226
900.95	3374
901.069	3466
901.189	3340
901.308	3176
901.427	3123
901.546	3199
901.665	3306
901.784	3310
901.904	3222
902.023	3157
902.141	3047
902.26	2994
902.379	3100
902.498	3077
902.617	3051
902.735	3173
902.854	3222
902.973	3161
903.091	3093
903.21	3047
903.328	3142
903.446	3112
903.565	3074
903.683	3207
903.801	3135
903.919	3272
904.038	3287
904.156	3176
904.274	3272
904.392	3237
904.51	3329
904.627	3344
904.745	3443
904.863	3515
904.981	3279
905.098	3188
905.216	3222
905.334	3317
905.451	3291
905.569	3321
905.686	3443
905.803	3443
905.921	3291
906.038	3405
906.155	3370
906.272	3298
906.389	3325
906.506	3207
906.623	3275
906.74	3245
906.857	3184
906.974	3241
907.091	3393
907.208	3599
907.324	3492
907.441	3397
907.557	3199
907.674	3230
907.79	3203
907.907	3275
908.023	3359
908.139	3397
908.256	3344
908.372	3363
908.488	3325
908.604	3272
908.72	3245
908.836	3283
908.952	3275
909.068	3344
909.184	3466
909.3	3382
909.415	3500
909.531	3443
909.647	3272
909.762	3268
909.878	3313
909.993	3340
910.108	3321
910.224	3332
910.339	3458
910.454	3355
910.57	3287
910.685	3253
910.8	3576
910.915	3530
911.03	3420
911.145	3283
911.259	3275
911.374	3359
911.489	3264
911.604	3249
911.718	3119
911.833	3135
911.947	3009
912.062	2994
912.176	3123
912.291	3169
912.405	3211
912.519	3420
912.633	3439
912.748	3340
912.862	3306
912.976	3138
913.09	3066
913.204	3138
913.318	3180
913.431	3363
913.545	3344
913.659	3389
913.772	3298
913.886	3195
914	3176
914.113	3344
914.226	3393
914.34	3363
914.453	3230
914.566	3428
914.68	3310
914.793	3306
914.906	3154
915.019	3119
915.132	3085
915.245	3180
915.358	3218
915.47	3222
915.583	3287
915.696	3291
915.809	3420
915.921	3405
916.034	3226
916.146	3272
916.259	3241
916.371	3386
916.483	3386
916.595	3260
916.708	3332
916.82	3325
916.932	3351
917.044	3298
917.156	3306
917.268	3294
917.38	3298
917.491	3313
917.603	3397
917.715	3462
917.826	3481
917.938	3389
918.049	3279
918.161	3389
918.272	3599
918.384	3572
918.495	3466
918.606	3367
918.717	3272
918.828	3401
918.939	3378
919.05	3317
919.161	3363
919.272	3173
919.383	3310
919.494	3466
919.604	3637
919.715	3428
919.826	3370
919.936	3458
920.047	3553
920.157	3542
920.267	3736
920.378	3580
920.488	3599
920.598	3785
920.708	3956
920.818	3800
920.928	3869
921.038	4006
921.148	3964
921.258	3724
921.368	3606
921.477	3549
921.587	3564
921.697	3435
921.806	3584
921.916	3515
922.025	3351
922.134	3393
922.244	3329
922.353	3458
922.462	3306
922.571	3283
922.68	3112
922.789	3077
922.898	3161
923.007	3089
923.116	3161
923.224	3173
923.333	3154
923.442	3104
923.55	3127
923.659	3169
923.767	3203
923.876	3104
923.984	3249
924.092	3108
924.201	3222
924.309	3203
924.417	3268
924.525	3165
924.633	3214
924.741	4048
924.849	3058
924.956	3260
925.064	3097
925.172	3017
925.279	3100
925.387	3176
925.494	3184
925.602	3370
925.709	3355
925.816	3188
925.924	3291
926.031	3348
926.138	3351
926.245	3367
926.352	3260
926.459	3431
926.566	3500
926.673	3291
926.779	3279
926.886	3237
926.993	3131
927.099	3123
927.206	3089
927.312	3097
927.419	3253
927.525	3226
927.631	3237
927.737	3127
927.843	3119
927.95	3013
928.056	3135
928.162	3188
928.267	3256
928.373	3785
928.479	3317
928.585	3047
928.69	3237
928.796	3264
928.901	3142
929.007	3036
929.112	3199
929.218	3157
929.323	3157
929.428	3123
929.533	3298
929.638	3104
929.743	3154
929.848	3241
929.953	3207
930.058	3123
930.163	3024
930.267	3066
930.372	3203
930.477	3055
930.581	3336
930.685	3211
930.79	3036
930.894	3138
930.998	3093
931.103	3272
931.207	2952
931.311	2967
931.415	2899
931.519	2743
931.623	2819
