Data from test_V78500241_352.txt Node
Date: Fri Mar 25 16:17:38 CST 2022
User: usil
Spectrometer: V785-0024
Trigger mode: 0
Integration Time (sec): 4.000000E-1
Scans to average: 1
Nonlinearity correction enabled: false
Boxcar width: 0
Storing dark spectrum: false
XAxis mode: Wavelengths
Number of Pixels in Spectrum: 1024
>>>>>Begin Spectral Data<<<<<
801.071	2902
801.214	2922
801.356	2853
801.499	2868
801.641	2887
801.783	2902
801.926	3062
802.068	2990
802.211	2975
802.353	3062
802.496	2922
802.638	3001
802.78	3070
802.923	3066
803.065	2998
803.208	2902
803.35	2906
803.492	2887
803.635	2941
803.777	2762
803.919	2838
804.061	3214
804.204	2925
804.346	2899
804.488	2834
804.63	2971
804.773	2891
804.915	2883
805.057	3085
805.199	2914
805.341	2971
805.483	3058
805.626	2982
805.768	2948
805.91	3108
806.052	3058
806.194	3043
806.336	3230
806.478	3032
806.62	2952
806.762	3028
806.904	3043
807.046	3169
807.188	2982
807.33	2906
807.472	3013
807.614	2899
807.756	2971
807.898	2937
808.04	2914
808.182	2963
808.324	2933
808.465	2906
808.607	2876
808.749	2811
808.891	2849
809.033	2963
809.174	2910
809.316	2933
809.458	2876
809.6	2781
809.741	2746
809.883	2769
810.025	2853
810.166	2864
810.308	2849
810.45	2864
810.591	2739
810.733	2727
810.875	2853
811.016	2766
811.158	2731
811.299	2807
811.441	2925
811.582	2853
811.724	2830
811.865	2838
812.007	2925
812.148	2861
812.29	2861
812.431	2861
812.573	2922
812.714	2975
812.855	3036
812.997	3005
813.138	3116
813.279	3005
813.421	2963
813.562	2929
813.703	2880
813.845	2902
813.986	2769
814.127	2746
814.268	2838
814.41	2845
814.551	2830
814.692	2891
814.833	2800
814.974	2902
815.115	2960
815.256	2861
815.397	2823
815.539	2815
815.68	2769
815.821	2792
815.962	2948
816.103	2914
816.244	2876
816.385	2868
816.526	2979
816.666	2925
816.807	2762
816.948	2872
817.089	2925
817.23	2842
817.371	2800
817.512	2766
817.653	2842
817.793	2838
817.934	2895
818.075	2956
818.216	2979
818.356	3024
818.497	2891
818.638	2785
818.778	2849
818.919	2766
819.06	2743
819.2	2838
819.341	2823
819.481	2811
819.622	2910
819.762	3089
819.903	3051
820.043	2948
820.184	2864
820.324	2880
820.465	2979
820.605	3013
820.746	3062
820.886	2937
821.026	3077
821.167	3184
821.307	3249
821.447	3306
821.588	3192
821.728	3188
821.868	3150
822.008	3066
822.149	3165
822.289	3253
822.429	3108
822.569	3077
822.709	3180
822.849	3043
822.99	3066
823.13	3154
823.27	3203
823.41	3085
823.55	3127
823.69	3116
823.83	3199
823.97	3085
824.11	2986
824.25	2975
824.389	3055
824.529	3131
824.669	3077
824.809	3218
824.949	3253
825.089	3207
825.228	3138
825.368	2960
825.508	2960
825.648	2990
825.787	3028
825.927	3020
826.067	2960
826.206	2933
826.346	3055
826.485	3097
826.625	3077
826.765	3241
826.904	3214
827.044	2986
827.183	2944
827.323	2872
827.462	2944
827.601	2929
827.741	2948
827.88	2963
828.02	2868
828.159	2975
828.298	3039
828.437	3127
828.577	3043
828.716	3203
828.855	3097
828.994	2902
829.134	2910
829.273	2910
829.412	2849
829.551	2883
829.69	2880
829.829	2960
829.968	3135
830.107	3032
830.246	3013
830.385	2933
830.524	2895
830.663	2815
830.802	2727
830.941	2648
831.08	2640
831.219	2754
831.357	2773
831.496	2967
831.635	2720
831.774	2640
831.913	2648
832.051	2549
832.19	2568
832.329	2678
832.467	2511
832.606	2503
832.744	2598
832.883	2606
833.022	2621
833.16	2655
833.299	2712
833.437	2682
833.576	2693
833.714	2689
833.852	2724
833.991	2766
834.129	2853
834.267	2800
834.406	2845
834.544	2864
834.682	2868
834.821	2845
834.959	3058
835.097	2876
835.235	3047
835.373	2979
835.511	3020
835.65	2956
835.788	2948
835.926	2826
836.064	2811
836.202	2823
836.34	3066
836.478	3176
836.615	3039
836.753	3138
836.891	3176
837.029	3154
837.167	3131
837.305	3062
837.443	3009
837.58	2948
837.718	3119
837.856	3062
837.993	3043
838.131	3135
838.269	3100
838.406	3085
838.544	3112
838.681	2971
838.819	2895
838.956	2815
839.094	2804
839.231	2906
839.369	3001
839.506	3370
839.643	3249
839.781	2998
839.918	2963
840.055	3001
840.193	3028
840.33	3039
840.467	3074
840.604	3165
840.742	3386
840.879	3081
841.016	3036
841.153	3112
841.29	3313
841.427	3321
841.564	3256
841.701	3298
841.838	3218
841.975	3218
842.112	3218
842.249	3093
842.385	3017
842.522	3264
842.659	3089
842.796	3005
842.933	3093
843.069	3043
843.206	3066
843.343	3161
843.479	3138
843.616	3146
843.752	2823
843.889	2849
844.025	3036
844.162	2895
844.298	3093
844.435	2929
844.571	2849
844.708	3081
844.844	3176
844.98	3214
845.117	3180
845.253	3051
845.389	3013
845.525	3097
845.661	3081
845.798	2990
845.934	3112
846.07	3104
846.206	3214
846.342	3291
846.478	3253
846.614	3104
846.75	3039
846.886	2986
847.022	3272
847.158	3077
847.294	3226
847.429	3237
847.565	3173
847.701	3488
847.837	2998
847.972	3013
848.108	3157
848.244	3142
848.379	2986
848.515	2963
848.65	2941
848.786	2986
848.921	3001
849.057	3108
849.192	3142
849.328	3070
849.463	3097
849.598	3032
849.734	3051
849.869	2967
850.004	2925
850.14	2982
850.275	2925
850.41	2849
850.545	2902
850.68	2925
850.815	2963
850.95	2929
851.085	3165
851.22	3081
851.355	3032
851.49	2956
851.625	2986
851.76	3009
851.895	2941
852.03	2895
852.165	2990
852.299	3119
852.434	3165
852.569	3150
852.703	3165
852.838	3245
852.973	3325
853.107	3325
853.242	3127
853.376	3074
853.511	2952
853.645	3020
853.78	3195
853.914	3093
854.048	3123
854.183	3085
854.317	3161
854.451	3275
854.585	3104
854.72	3074
854.854	3253
854.988	3055
855.122	3070
855.256	3005
855.39	3165
855.524	3260
855.658	3157
855.792	3123
855.926	3230
856.06	3184
856.194	3298
856.327	3142
856.461	3074
856.595	3055
856.729	3051
856.862	3211
856.996	3150
857.13	3176
857.263	3203
857.397	3253
857.53	3142
857.664	3192
857.797	3203
857.931	3260
858.064	3123
858.197	3253
858.331	3184
858.464	3085
858.597	2998
858.731	3119
858.864	3123
858.997	3077
859.13	3097
859.263	3157
859.396	3169
859.529	3108
859.662	3051
859.795	3051
859.928	3135
860.061	3249
860.194	3275
860.327	3112
860.46	3085
860.592	3253
860.725	3237
860.858	3237
860.99	3070
861.123	3039
861.256	3017
861.388	3127
861.521	3759
861.653	2948
861.786	2994
861.918	2998
862.05	3070
862.183	3097
862.315	3123
862.447	3218
862.58	3058
862.712	2933
862.844	2872
862.976	2998
863.108	2963
863.24	3409
863.372	2887
863.504	2925
863.636	2948
863.768	3062
863.9	3013
864.032	2929
864.164	2952
864.296	3039
864.428	3089
864.559	3070
864.691	3074
864.823	3074
864.954	3005
865.086	3017
865.217	2979
865.349	2944
865.48	2986
865.612	3062
865.743	3157
865.875	2929
866.006	2929
866.137	2967
866.269	2960
866.4	2922
866.531	2918
866.662	2906
866.793	2872
866.924	2918
867.055	2960
867.186	2887
867.317	2891
867.448	2853
867.579	2849
867.71	2876
867.841	2826
867.972	2922
868.103	2899
868.233	2880
868.364	2864
868.495	2902
868.625	3070
868.756	3184
868.886	2982
869.017	3009
869.147	3142
869.278	3150
869.408	3043
869.539	3024
869.669	3112
869.799	3020
869.929	3127
870.06	3093
870.19	3321
870.32	3283
870.45	3279
870.58	3359
870.71	3466
870.84	3439
870.97	3275
871.1	3249
871.23	3477
871.36	3454
871.489	3336
871.619	3405
871.749	3382
871.879	3466
872.008	3447
872.138	3370
872.267	3249
872.397	3154
872.526	3119
872.656	2979
872.785	3085
872.915	3230
873.044	3321
873.173	3214
873.303	3272
873.432	3207
873.561	3237
873.69	3112
873.819	3176
873.948	3176
874.077	3100
874.206	3051
874.335	3077
874.464	3173
874.593	3317
874.722	3214
874.851	3389
874.979	3325
875.108	3325
875.237	3222
875.365	3188
875.494	3188
875.623	3253
875.751	3062
875.88	3104
876.008	3211
876.136	3138
876.265	3378
876.393	3504
876.521	3439
876.65	3378
876.778	3317
876.906	3241
877.034	3203
877.162	3237
877.29	3176
877.418	3230
877.546	3222
877.674	3199
877.802	3268
877.93	3233
878.058	3142
878.185	3085
878.313	3176
878.441	3195
878.568	3085
878.696	3138
878.824	3230
878.951	3302
879.079	3443
879.206	3610
879.333	3462
879.461	3313
879.588	3355
879.715	3492
879.842	3606
879.97	3420
880.097	3131
880.224	3116
880.351	3222
880.478	3230
880.605	3176
880.732	3203
880.859	3500
880.986	3294
881.112	3298
881.239	3192
881.366	3074
881.493	3001
881.619	3024
881.746	3070
881.872	3077
881.999	3142
882.125	3150
882.252	3253
882.378	3253
882.505	3439
882.631	3298
882.757	3154
882.883	3226
883.01	3192
883.136	3154
883.262	3100
883.388	3127
883.514	3302
883.64	3367
883.766	3283
883.892	3165
884.018	3218
884.143	3401
884.269	3534
884.395	3195
884.52	3169
884.646	3195
884.772	3127
884.897	3112
885.023	3188
885.148	3325
885.274	3409
885.399	3355
885.524	3264
885.65	3256
885.775	3351
885.9	3287
886.025	3435
886.15	3378
886.275	3340
886.4	3230
886.525	3298
886.65	3291
886.775	3268
886.9	3488
887.025	3637
887.149	3382
887.274	3230
887.399	3169
887.523	3192
887.648	3203
887.773	3192
887.897	3344
888.021	3382
888.146	3275
888.27	3466
888.395	3504
888.519	3450
888.643	3481
888.767	3492
888.891	3294
889.015	3230
889.139	3256
889.263	3233
889.387	3420
889.511	3485
889.635	3443
889.759	3310
889.883	3317
890.006	3389
890.13	3511
890.254	3264
890.377	3306
890.501	3214
890.624	3157
890.748	3279
890.871	3146
890.995	3135
891.118	3036
891.241	3211
891.364	3195
891.488	3332
891.611	3142
891.734	3233
891.857	3275
891.98	3237
892.103	3340
892.226	3287
892.349	3253
892.471	3097
892.594	3218
892.717	3298
892.839	3253
892.962	3287
893.085	3367
893.207	3298
893.33	3135
893.452	3230
893.575	3325
893.697	3264
893.819	3409
893.941	3466
894.064	3466
894.186	3256
894.308	3298
894.43	3405
894.552	3534
894.674	3485
894.796	3298
894.918	3272
895.04	3294
895.161	3412
895.283	3378
895.405	3291
895.526	3359
895.648	3450
895.769	3435
895.891	3504
896.012	3462
896.134	3500
896.255	3397
896.376	3359
896.498	3359
896.619	3439
896.74	3393
896.861	3416
896.982	3652
897.103	3869
897.224	3625
897.345	3538
897.466	3439
897.587	3496
897.708	3618
897.828	3530
897.949	3447
898.07	3321
898.19	3420
898.311	3637
898.431	3431
898.552	3523
898.672	3622
898.792	3553
898.913	3504
899.033	3401
899.153	3287
899.273	3195
899.393	3298
899.513	3291
899.633	3306
899.753	3317
899.873	3310
899.993	3374
900.113	3355
900.232	3405
900.352	3355
900.472	3268
900.591	3188
900.711	3279
900.83	3249
900.95	3393
901.069	3469
901.189	3359
901.308	3188
901.427	3100
901.546	3195
901.665	3287
901.784	3310
901.904	3222
902.023	3165
902.141	3013
902.26	2994
902.379	3108
902.498	3070
902.617	3062
902.735	3192
902.854	3260
902.973	3214
903.091	3047
903.21	3066
903.328	3154
903.446	3112
903.565	3066
903.683	3192
903.801	3089
903.919	3241
904.038	3291
904.156	3169
904.274	3275
904.392	3245
904.51	3249
904.627	3317
904.745	3439
904.863	3488
904.981	3272
905.098	3165
905.216	3222
905.334	3241
905.451	3317
905.569	3302
905.686	3447
905.803	3443
905.921	3272
906.038	3389
906.155	3355
906.272	3237
906.389	3359
906.506	3275
906.623	3298
906.74	3272
906.857	3165
906.974	3241
907.091	3420
907.208	3553
907.324	3469
907.441	3397
907.557	3199
907.674	3241
907.79	3195
907.907	3279
908.023	3397
908.139	3382
908.256	3302
908.372	3386
908.488	3374
908.604	3275
908.72	3233
908.836	3272
908.952	3287
909.068	3359
909.184	3469
909.3	3378
909.415	3500
909.531	3477
909.647	3268
909.762	3275
909.878	3253
909.993	3367
910.108	3325
910.224	3359
910.339	3412
910.454	3359
910.57	3298
910.685	3256
910.8	3618
910.915	3530
911.03	3488
911.145	3294
911.259	3218
911.374	3332
911.489	3245
911.604	3241
911.718	3093
911.833	3127
911.947	3028
912.062	3001
912.176	3127
912.291	3188
912.405	3192
912.519	3435
912.633	3462
912.748	3367
912.862	3256
912.976	3161
913.09	3077
913.204	3135
913.318	3203
913.431	3336
913.545	3321
913.659	3420
913.772	3344
913.886	3230
914	3192
914.113	3378
914.226	3431
914.34	3370
914.453	3233
914.566	3431
914.68	3310
914.793	3306
914.906	3157
915.019	3142
915.132	3043
915.245	3176
915.358	3211
915.47	3218
915.583	3268
915.696	3329
915.809	3420
915.921	3412
916.034	3233
916.146	3222
916.259	3184
916.371	3332
916.483	3386
916.595	3233
916.708	3306
916.82	3340
916.932	3329
917.044	3363
917.156	3397
917.268	3241
917.38	3306
917.491	3321
917.603	3348
917.715	3428
917.826	3447
917.938	3424
918.049	3291
918.161	3443
918.272	3587
918.384	3542
918.495	3473
918.606	3370
918.717	3321
918.828	3374
918.939	3416
919.05	3306
919.161	3344
919.272	3180
919.383	3260
919.494	3496
919.604	3641
919.715	3488
919.826	3409
919.936	3416
920.047	3587
920.157	3587
920.267	3743
920.378	3644
920.488	3580
920.598	3759
920.708	3941
920.818	3865
920.928	3819
921.038	4021
921.148	3972
921.258	3679
921.368	3614
921.477	3561
921.587	3545
921.697	3428
921.806	3637
921.916	3523
922.025	3351
922.134	3351
922.244	3306
922.353	3405
922.462	3287
922.571	3237
922.68	3154
922.789	3093
922.898	3104
923.007	3146
923.116	3165
923.224	3154
923.333	3184
923.442	3131
923.55	3093
923.659	3119
923.767	3268
923.876	3131
923.984	3233
924.092	3066
924.201	3192
924.309	3237
924.417	3256
924.525	3154
924.633	3199
924.741	4192
924.849	3039
924.956	3268
925.064	3089
925.172	3028
925.279	3100
925.387	3207
925.494	3192
925.602	3367
925.709	3344
925.816	3161
925.924	3272
926.031	3344
926.138	3279
926.245	3367
926.352	3237
926.459	3386
926.566	3447
926.673	3344
926.779	3207
926.886	3260
926.993	3131
927.099	3119
927.206	3100
927.312	3100
927.419	3211
927.525	3211
927.631	3275
927.737	3127
927.843	3104
927.95	3028
928.056	3112
928.162	3165
928.267	3237
928.373	3892
928.479	3336
928.585	3074
928.69	3199
928.796	3302
928.901	3192
929.007	3051
929.112	3268
929.218	3157
929.323	3116
929.428	3157
929.533	3351
929.638	3104
929.743	3150
929.848	3249
929.953	3195
930.058	3146
930.163	2998
930.267	3070
930.372	3188
930.477	3001
930.581	3351
930.685	3165
930.79	3028
930.894	3154
930.998	3108
931.103	3241
931.207	2963
931.311	2944
931.415	2937
931.519	2731
931.623	2800
