Data from test_V78500241_1969.txt Node
Date: Fri Mar 25 16:28:51 CST 2022
User: usil
Spectrometer: V785-0024
Trigger mode: 0
Integration Time (sec): 4.000000E-1
Scans to average: 1
Nonlinearity correction enabled: false
Boxcar width: 0
Storing dark spectrum: false
XAxis mode: Wavelengths
Number of Pixels in Spectrum: 1024
>>>>>Begin Spectral Data<<<<<
801.071	2948
801.214	2956
801.356	2883
801.499	2906
801.641	2895
801.783	2948
801.926	3055
802.068	2990
802.211	3001
802.353	3039
802.496	2975
802.638	3039
802.78	3055
802.923	3074
803.065	3013
803.208	2925
803.35	2922
803.492	2906
803.635	2899
803.777	2796
803.919	2857
804.061	3207
804.204	2952
804.346	2937
804.488	2845
804.63	3009
804.773	2891
804.915	2906
805.057	3081
805.199	2933
805.341	2994
805.483	3047
805.626	3005
805.768	2998
805.91	3131
806.052	3154
806.194	3036
806.336	3241
806.478	3032
806.62	2960
806.762	2960
806.904	3058
807.046	3169
807.188	2982
807.33	2899
807.472	2994
807.614	2929
807.756	2982
807.898	2937
808.04	2864
808.182	2975
808.324	2948
808.465	2842
808.607	2880
808.749	2758
808.891	2834
809.033	2933
809.174	2956
809.316	2872
809.458	2880
809.6	2781
809.741	2766
809.883	2777
810.025	2834
810.166	2864
810.308	2819
810.45	2880
810.591	2792
810.733	2769
810.875	2845
811.016	2788
811.158	2766
811.299	2773
811.441	2933
811.582	2891
811.724	2861
811.865	2842
812.007	2925
812.148	2868
812.29	2838
812.431	2914
812.573	2922
812.714	2979
812.855	3036
812.997	3058
813.138	3123
813.279	2986
813.421	3020
813.562	2948
813.703	2872
813.845	2891
813.986	2746
814.127	2743
814.268	2834
814.41	2834
814.551	2792
814.692	2857
814.833	2804
814.974	2857
815.115	2960
815.256	2819
815.397	2842
815.539	2861
815.68	2781
815.821	2781
815.962	2906
816.103	2937
816.244	2842
816.385	2838
816.526	2960
816.666	2914
816.807	2769
816.948	2899
817.089	2918
817.23	2838
817.371	2785
817.512	2826
817.653	2838
817.793	2804
817.934	2914
818.075	2956
818.216	2979
818.356	3017
818.497	2861
818.638	2834
818.778	2804
818.919	2792
819.06	2739
819.2	2880
819.341	2777
819.481	2819
819.622	2941
819.762	3112
819.903	3001
820.043	2929
820.184	2933
820.324	2876
820.465	3009
820.605	2994
820.746	3039
820.886	2922
821.026	3077
821.167	3199
821.307	3237
821.447	3245
821.588	3287
821.728	3218
821.868	3154
822.008	3074
822.149	3165
822.289	3203
822.429	3093
822.569	3100
822.709	3142
822.849	3001
822.99	3066
823.13	3135
823.27	3173
823.41	3104
823.55	3150
823.69	3165
823.83	3169
823.97	3108
824.11	3036
824.25	2971
824.389	3058
824.529	3097
824.669	3077
824.809	3192
824.949	3230
825.089	3195
825.228	3184
825.368	3051
825.508	2941
825.648	2967
825.787	3020
825.927	3028
826.067	2971
826.206	2956
826.346	3051
826.485	3036
826.625	3135
826.765	3298
826.904	3249
827.044	3005
827.183	2960
827.323	2906
827.462	3024
827.601	2918
827.741	2952
827.88	2990
828.02	2922
828.159	2975
828.298	3039
828.437	3123
828.577	3066
828.716	3310
828.855	3081
828.994	2948
829.134	2918
829.273	2971
829.412	2918
829.551	2880
829.69	2925
829.829	3009
829.968	3176
830.107	3028
830.246	3043
830.385	2994
830.524	2929
830.663	2887
830.802	2766
830.941	2716
831.08	2705
831.219	2796
831.357	2811
831.496	2994
831.635	2769
831.774	2663
831.913	2674
832.051	2590
832.19	2606
832.329	2720
832.467	2556
832.606	2507
832.744	2644
832.883	2632
833.022	2613
833.16	2674
833.299	2724
833.437	2712
833.576	2731
833.714	2746
833.852	2754
833.991	2811
834.129	2864
834.267	2838
834.406	2804
834.544	2876
834.682	2902
834.821	2902
834.959	3070
835.097	2914
835.235	3108
835.373	2998
835.511	3077
835.65	2990
835.788	2990
835.926	2872
836.064	2868
836.202	2883
836.34	3142
836.478	3176
836.615	3085
836.753	3154
836.891	3226
837.029	3203
837.167	3150
837.305	3131
837.443	3047
837.58	2986
837.718	3138
837.856	3089
837.993	3039
838.131	3180
838.269	3169
838.406	3131
838.544	3123
838.681	2963
838.819	2967
838.956	2834
839.094	2876
839.231	2922
839.369	3024
839.506	3393
839.643	3279
839.781	3032
839.918	3001
840.055	3093
840.193	3131
840.33	3093
840.467	3108
840.604	3211
840.742	3454
840.879	3066
841.016	3100
841.153	3184
841.29	3363
841.427	3313
841.564	3310
841.701	3382
841.838	3245
841.975	3207
842.112	3226
842.249	3097
842.385	3104
842.522	3332
842.659	3116
842.796	3081
842.933	3123
843.069	3081
843.206	3119
843.343	3218
843.479	3135
843.616	3146
843.752	2902
843.889	2918
844.025	3112
844.162	2902
844.298	3108
844.435	2971
844.571	2998
844.708	3085
844.844	3207
844.98	3298
845.117	3214
845.253	3066
845.389	3032
845.525	3108
845.661	3135
845.798	3009
845.934	3135
846.07	3097
846.206	3241
846.342	3344
846.478	3237
846.614	3127
846.75	3100
846.886	3058
847.022	3275
847.158	3142
847.294	3233
847.429	3268
847.565	3226
847.701	3492
847.837	3085
847.972	3043
848.108	3184
848.244	3154
848.379	2998
848.515	2986
848.65	2956
848.786	3005
848.921	3036
849.057	3142
849.192	3146
849.328	3058
849.463	3142
849.598	3085
849.734	3089
849.869	3009
850.004	2948
850.14	2979
850.275	2952
850.41	2842
850.545	2933
850.68	2933
850.815	3009
850.95	2971
851.085	3241
851.22	3119
851.355	3062
851.49	3001
851.625	3036
851.76	3062
851.895	2956
852.03	2971
852.165	3093
852.299	3127
852.434	3211
852.569	3161
852.703	3195
852.838	3245
852.973	3370
853.107	3340
853.242	3195
853.376	3116
853.511	2971
853.645	3055
853.78	3298
853.914	3138
854.048	3142
854.183	3116
854.317	3195
854.451	3351
854.585	3176
854.72	3077
854.854	3222
854.988	3070
855.122	3112
855.256	3005
855.39	3108
855.524	3230
855.658	3203
855.792	3188
855.926	3264
856.06	3241
856.194	3264
856.327	3192
856.461	3123
856.595	3146
856.729	3093
856.862	3260
856.996	3214
857.13	3233
857.263	3264
857.397	3283
857.53	3150
857.664	3226
857.797	3245
857.931	3306
858.064	3169
858.197	3256
858.331	3173
858.464	3131
858.597	3020
858.731	3135
858.864	3142
858.997	3123
859.13	3188
859.263	3192
859.396	3207
859.529	3116
859.662	3081
859.795	3055
859.928	3176
860.061	3272
860.194	3332
860.327	3165
860.46	3135
860.592	3264
860.725	3298
860.858	3279
860.99	3138
861.123	3055
861.256	3085
861.388	3203
861.521	3861
861.653	3047
861.786	3036
861.918	2998
862.05	3085
862.183	3127
862.315	3180
862.447	3203
862.58	3138
862.712	2990
862.844	2868
862.976	3036
863.108	3032
863.24	3428
863.372	2899
863.504	2994
863.636	2982
863.768	3051
863.9	3013
864.032	2918
864.164	2944
864.296	3036
864.428	3123
864.559	3135
864.691	3081
864.823	3097
864.954	3055
865.086	3097
865.217	3001
865.349	3001
865.48	3005
865.612	3005
865.743	3184
865.875	3001
866.006	2975
866.137	3001
866.269	2975
866.4	2914
866.531	2948
866.662	2902
866.793	2902
866.924	2918
867.055	2998
867.186	2922
867.317	2914
867.448	2868
867.579	2872
867.71	2868
867.841	2849
867.972	2925
868.103	2948
868.233	2883
868.364	2941
868.495	2906
868.625	3100
868.756	3211
868.886	3024
869.017	3024
869.147	3195
869.278	3161
869.408	3032
869.539	3074
869.669	3112
869.799	3081
869.929	3127
870.06	3104
870.19	3374
870.32	3344
870.45	3306
870.58	3374
870.71	3492
870.84	3473
870.97	3321
871.1	3233
871.23	3526
871.36	3473
871.489	3374
871.619	3416
871.749	3428
871.879	3450
872.008	3523
872.138	3351
872.267	3298
872.397	3188
872.526	3150
872.656	3043
872.785	3089
872.915	3245
873.044	3321
873.173	3256
873.303	3275
873.432	3268
873.561	3268
873.69	3154
873.819	3173
873.948	3188
874.077	3123
874.206	3055
874.335	3104
874.464	3241
874.593	3355
874.722	3249
874.851	3420
874.979	3359
875.108	3332
875.237	3203
875.365	3180
875.494	3176
875.623	3264
875.751	3100
875.88	3146
876.008	3180
876.136	3233
876.265	3355
876.393	3500
876.521	3416
876.65	3412
876.778	3393
876.906	3264
877.034	3253
877.162	3241
877.29	3188
877.418	3245
877.546	3245
877.674	3222
877.802	3233
877.93	3268
878.058	3169
878.185	3135
878.313	3237
878.441	3203
878.568	3093
878.696	3161
878.824	3245
878.951	3329
879.079	3492
879.206	3679
879.333	3428
879.461	3344
879.588	3363
879.715	3492
879.842	3603
879.97	3378
880.097	3195
880.224	3173
880.351	3203
880.478	3218
880.605	3188
880.732	3214
880.859	3526
880.986	3317
881.112	3325
881.239	3214
881.366	3119
881.493	3036
881.619	3085
881.746	3093
881.872	3108
881.999	3131
882.125	3157
882.252	3283
882.378	3310
882.505	3450
882.631	3310
882.757	3173
882.883	3264
883.01	3211
883.136	3157
883.262	3123
883.388	3154
883.514	3283
883.64	3367
883.766	3340
883.892	3233
884.018	3275
884.143	3428
884.269	3568
884.395	3218
884.52	3161
884.646	3203
884.772	3119
884.897	3112
885.023	3226
885.148	3382
885.274	3443
885.399	3386
885.524	3298
885.65	3275
885.775	3325
885.9	3298
886.025	3443
886.15	3348
886.275	3283
886.4	3241
886.525	3313
886.65	3283
886.775	3287
886.9	3500
887.025	3648
887.149	3397
887.274	3233
887.399	3195
887.523	3218
887.648	3203
887.773	3199
887.897	3367
888.021	3439
888.146	3325
888.27	3473
888.395	3557
888.519	3496
888.643	3462
888.767	3469
888.891	3336
889.015	3256
889.139	3306
889.263	3291
889.387	3447
889.511	3523
889.635	3458
889.759	3329
889.883	3294
890.006	3409
890.13	3549
890.254	3283
890.377	3336
890.501	3253
890.624	3233
890.748	3291
890.871	3180
890.995	3165
891.118	3081
891.241	3176
891.364	3199
891.488	3348
891.611	3207
891.734	3275
891.857	3298
891.98	3245
892.103	3329
892.226	3275
892.349	3256
892.471	3123
892.594	3218
892.717	3340
892.839	3317
892.962	3306
893.085	3386
893.207	3279
893.33	3192
893.452	3230
893.575	3397
893.697	3264
893.819	3496
893.941	3500
894.064	3477
894.186	3226
894.308	3253
894.43	3488
894.552	3530
894.674	3435
894.796	3245
894.918	3332
895.04	3291
895.161	3431
895.283	3386
895.405	3283
895.526	3382
895.648	3409
895.769	3477
895.891	3443
896.012	3496
896.134	3435
896.255	3447
896.376	3412
896.498	3389
896.619	3405
896.74	3370
896.861	3412
896.982	3713
897.103	3831
897.224	3584
897.345	3530
897.466	3443
897.587	3507
897.708	3614
897.828	3576
897.949	3454
898.07	3321
898.19	3454
898.311	3606
898.431	3435
898.552	3526
898.672	3618
898.792	3625
898.913	3504
899.033	3393
899.153	3275
899.273	3222
899.393	3325
899.513	3340
899.633	3310
899.753	3344
899.873	3321
899.993	3409
900.113	3325
900.232	3420
900.352	3329
900.472	3317
900.591	3195
900.711	3321
900.83	3256
900.95	3420
901.069	3473
901.189	3348
901.308	3203
901.427	3150
901.546	3165
901.665	3313
901.784	3340
901.904	3230
902.023	3161
902.141	3043
902.26	3013
902.379	3165
902.498	3100
902.617	3077
902.735	3207
902.854	3233
902.973	3199
903.091	3074
903.21	3097
903.328	3184
903.446	3112
903.565	3108
903.683	3188
903.801	3119
903.919	3275
904.038	3256
904.156	3173
904.274	3325
904.392	3268
904.51	3298
904.627	3317
904.745	3416
904.863	3466
904.981	3272
905.098	3192
905.216	3256
905.334	3310
905.451	3294
905.569	3348
905.686	3389
905.803	3416
905.921	3287
906.038	3450
906.155	3397
906.272	3230
906.389	3336
906.506	3245
906.623	3249
906.74	3249
906.857	3230
906.974	3279
907.091	3416
907.208	3507
907.324	3473
907.441	3393
907.557	3253
907.674	3237
907.79	3241
907.907	3329
908.023	3378
908.139	3389
908.256	3332
908.372	3363
908.488	3393
908.604	3275
908.72	3203
908.836	3275
908.952	3302
909.068	3344
909.184	3447
909.3	3382
909.415	3485
909.531	3492
909.647	3313
909.762	3279
909.878	3294
909.993	3336
910.108	3344
910.224	3332
910.339	3405
910.454	3363
910.57	3321
910.685	3237
910.8	3625
910.915	3542
911.03	3447
911.145	3279
911.259	3294
911.374	3325
911.489	3256
911.604	3241
911.718	3184
911.833	3161
911.947	3024
912.062	2986
912.176	3173
912.291	3188
912.405	3245
912.519	3420
912.633	3496
912.748	3294
912.862	3302
912.976	3165
913.09	3077
913.204	3161
913.318	3287
913.431	3359
913.545	3359
913.659	3447
913.772	3351
913.886	3180
914	3188
914.113	3367
914.226	3431
914.34	3348
914.453	3203
914.566	3435
914.68	3306
914.793	3344
914.906	3142
915.019	3108
915.132	3093
915.245	3184
915.358	3184
915.47	3241
915.583	3294
915.696	3332
915.809	3462
915.921	3416
916.034	3275
916.146	3230
916.259	3195
916.371	3397
916.483	3340
916.595	3283
916.708	3340
916.82	3344
916.932	3351
917.044	3374
917.156	3378
917.268	3256
917.38	3336
917.491	3275
917.603	3332
917.715	3443
917.826	3500
917.938	3378
918.049	3313
918.161	3454
918.272	3576
918.384	3580
918.495	3542
918.606	3336
918.717	3260
918.828	3367
918.939	3473
919.05	3321
919.161	3401
919.272	3184
919.383	3279
919.494	3500
919.604	3698
919.715	3488
919.826	3405
919.936	3492
920.047	3549
920.157	3519
920.267	3762
920.378	3622
920.488	3568
920.598	3808
920.708	3960
920.818	3804
920.928	3842
921.038	4010
921.148	3956
921.258	3698
921.368	3633
921.477	3576
921.587	3545
921.697	3466
921.806	3614
921.916	3523
922.025	3321
922.134	3344
922.244	3321
922.353	3409
922.462	3253
922.571	3226
922.68	3085
922.789	3066
922.898	3131
923.007	3093
923.116	3230
923.224	3169
923.333	3203
923.442	3131
923.55	3077
923.659	3142
923.767	3207
923.876	3112
923.984	3245
924.092	3108
924.201	3237
924.309	3222
924.417	3256
924.525	3207
924.633	3245
924.741	4162
924.849	3047
924.956	3279
925.064	3104
925.172	3058
925.279	3119
925.387	3192
925.494	3195
925.602	3355
925.709	3340
925.816	3211
925.924	3302
926.031	3389
926.138	3336
926.245	3378
926.352	3279
926.459	3420
926.566	3473
926.673	3283
926.779	3249
926.886	3222
926.993	3169
927.099	3108
927.206	3123
927.312	3142
927.419	3222
927.525	3211
927.631	3268
927.737	3138
927.843	3123
927.95	3032
928.056	3146
928.162	3203
928.267	3279
928.373	3896
928.479	3317
928.585	3093
928.69	3253
928.796	3298
928.901	3199
929.007	3077
929.112	3180
929.218	3165
929.323	3150
929.428	3142
929.533	3348
929.638	3104
929.743	3173
929.848	3226
929.953	3211
930.058	3116
930.163	3028
930.267	3028
930.372	3157
930.477	3017
930.581	3344
930.685	3154
930.79	3077
930.894	3142
930.998	3097
931.103	3256
931.207	2952
931.311	2941
931.415	2933
931.519	2807
931.623	2811
