Data from test_V78500241_2048.txt Node
Date: Fri Mar 25 16:29:23 CST 2022
User: usil
Spectrometer: V785-0024
Trigger mode: 0
Integration Time (sec): 4.000000E-1
Scans to average: 1
Nonlinearity correction enabled: false
Boxcar width: 0
Storing dark spectrum: false
XAxis mode: Wavelengths
Number of Pixels in Spectrum: 1024
>>>>>Begin Spectral Data<<<<<
801.071	2902
801.214	2902
801.356	2845
801.499	2891
801.641	2853
801.783	2929
801.926	3024
802.068	2967
802.211	2979
802.353	3020
802.496	2967
802.638	2986
802.78	3009
802.923	3039
803.065	2994
803.208	2910
803.35	2918
803.492	2925
803.635	2963
803.777	2724
803.919	2857
804.061	3222
804.204	2929
804.346	2880
804.488	2834
804.63	2963
804.773	2872
804.915	2929
805.057	3051
805.199	2944
805.341	2956
805.483	3013
805.626	2971
805.768	2937
805.91	3066
806.052	3085
806.194	3051
806.336	3199
806.478	2998
806.62	2933
806.762	2948
806.904	3047
807.046	3131
807.188	2982
807.33	2910
807.472	2956
807.614	2887
807.756	2952
807.898	2883
808.04	2906
808.182	2960
808.324	2933
808.465	2830
808.607	2880
808.749	2781
808.891	2826
809.033	2944
809.174	2952
809.316	2887
809.458	2872
809.6	2785
809.741	2777
809.883	2750
810.025	2838
810.166	2826
810.308	2819
810.45	2819
810.591	2762
810.733	2739
810.875	2880
811.016	2773
811.158	2724
811.299	2788
811.441	2925
811.582	2906
811.724	2800
811.865	2807
812.007	2922
812.148	2883
812.29	2845
812.431	2899
812.573	2918
812.714	2960
812.855	3005
812.997	3024
813.138	3108
813.279	3020
813.421	2990
813.562	2963
813.703	2868
813.845	2906
813.986	2777
814.127	2682
814.268	2785
814.41	2811
814.551	2800
814.692	2872
814.833	2819
814.974	2922
815.115	2956
815.256	2823
815.397	2804
815.539	2872
815.68	2807
815.821	2796
815.962	2948
816.103	2906
816.244	2891
816.385	2861
816.526	2929
816.666	2887
816.807	2731
816.948	2922
817.089	2929
817.23	2857
817.371	2788
817.512	2800
817.653	2834
817.793	2804
817.934	2891
818.075	2960
818.216	2982
818.356	3051
818.497	2872
818.638	2788
818.778	2842
818.919	2792
819.06	2746
819.2	2887
819.341	2807
819.481	2815
819.622	2918
819.762	3097
819.903	3043
820.043	2960
820.184	2883
820.324	2895
820.465	2994
820.605	3036
820.746	3013
820.886	2895
821.026	3093
821.167	3131
821.307	3253
821.447	3256
821.588	3222
821.728	3226
821.868	3214
822.008	3028
822.149	3184
822.289	3241
822.429	3093
822.569	3100
822.709	3169
822.849	3055
822.99	3074
823.13	3138
823.27	3195
823.41	3108
823.55	3161
823.69	3165
823.83	3180
823.97	3097
824.11	2979
824.25	3013
824.389	3055
824.529	3116
824.669	3058
824.809	3161
824.949	3253
825.089	3211
825.228	3157
825.368	3005
825.508	2937
825.648	2967
825.787	3009
825.927	3047
826.067	2960
826.206	2982
826.346	3032
826.485	3077
826.625	3116
826.765	3279
826.904	3180
827.044	2960
827.183	2891
827.323	2842
827.462	2963
827.601	2906
827.741	2918
827.88	2952
828.02	2895
828.159	2998
828.298	2994
828.437	3119
828.577	3047
828.716	3207
828.855	3108
828.994	2868
829.134	2895
829.273	2914
829.412	2899
829.551	2872
829.69	2906
829.829	2975
829.968	3104
830.107	3043
830.246	3032
830.385	2918
830.524	2868
830.663	2792
830.802	2712
830.941	2648
831.08	2629
831.219	2762
831.357	2773
831.496	2914
831.635	2693
831.774	2686
831.913	2663
832.051	2533
832.19	2560
832.329	2686
832.467	2514
832.606	2488
832.744	2602
832.883	2526
833.022	2560
833.16	2636
833.299	2693
833.437	2663
833.576	2701
833.714	2670
833.852	2716
833.991	2716
834.129	2826
834.267	2834
834.406	2781
834.544	2868
834.682	2842
834.821	2861
834.959	3043
835.097	2876
835.235	3077
835.373	3001
835.511	3013
835.65	2960
835.788	2975
835.926	2807
836.064	2815
836.202	2823
836.34	3077
836.478	3142
836.615	3062
836.753	3154
836.891	3207
837.029	3131
837.167	3097
837.305	3077
837.443	3051
837.58	2956
837.718	3123
837.856	3047
837.993	3039
838.131	3085
838.269	3100
838.406	3116
838.544	3062
838.681	2918
838.819	2914
838.956	2766
839.094	2845
839.231	2914
839.369	3020
839.506	3332
839.643	3203
839.781	3024
839.918	2975
840.055	3024
840.193	3043
840.33	3058
840.467	3112
840.604	3146
840.742	3382
840.879	3043
841.016	3047
841.153	3074
841.29	3306
841.427	3287
841.564	3279
841.701	3310
841.838	3195
841.975	3142
842.112	3184
842.249	3051
842.385	3032
842.522	3275
842.659	3089
842.796	3051
842.933	3108
843.069	3020
843.206	2998
843.343	3169
843.479	3097
843.616	3127
843.752	2902
843.889	2872
844.025	3104
844.162	2876
844.298	3066
844.435	2967
844.571	2887
844.708	3043
844.844	3180
844.98	3260
845.117	3173
845.253	3058
845.389	2990
845.525	3100
845.661	3074
845.798	2982
845.934	3138
846.07	3051
846.206	3184
846.342	3313
846.478	3253
846.614	3055
846.75	3077
846.886	3020
847.022	3226
847.158	3146
847.294	3188
847.429	3199
847.565	3188
847.701	3511
847.837	3036
847.972	3013
848.108	3192
848.244	3135
848.379	3005
848.515	2975
848.65	2944
848.786	2979
848.921	3001
849.057	3104
849.192	3135
849.328	3070
849.463	3093
849.598	3028
849.734	3051
849.869	2979
850.004	2933
850.14	2975
850.275	2914
850.41	2819
850.545	2826
850.68	2922
850.815	2956
850.95	2960
851.085	3195
851.22	3116
851.355	3028
851.49	2990
851.625	2967
851.76	3001
851.895	2952
852.03	2914
852.165	3005
852.299	3104
852.434	3173
852.569	3142
852.703	3161
852.838	3268
852.973	3359
853.107	3279
853.242	3131
853.376	3093
853.511	2998
853.645	3013
853.78	3253
853.914	3097
854.048	3131
854.183	3043
854.317	3150
854.451	3268
854.585	3127
854.72	3077
854.854	3173
854.988	3043
855.122	3104
855.256	2998
855.39	3077
855.524	3230
855.658	3173
855.792	3169
855.926	3188
856.06	3241
856.194	3279
856.327	3150
856.461	3055
856.595	3070
856.729	3047
856.862	3173
856.996	3135
857.13	3150
857.263	3245
857.397	3241
857.53	3081
857.664	3226
857.797	3226
857.931	3233
858.064	3157
858.197	3245
858.331	3142
858.464	3093
858.597	3039
858.731	3119
858.864	3142
858.997	3077
859.13	3169
859.263	3150
859.396	3188
859.529	3081
859.662	3020
859.795	3036
859.928	3119
860.061	3275
860.194	3275
860.327	3135
860.46	3081
860.592	3230
860.725	3245
860.858	3272
860.99	3085
861.123	3013
861.256	3017
861.388	3123
861.521	3846
861.653	3013
861.786	2925
861.918	2975
862.05	3024
862.183	3127
862.315	3104
862.447	3192
862.58	3074
862.712	2925
862.844	2842
862.976	3043
863.108	2971
863.24	3302
863.372	2872
863.504	2948
863.636	2929
863.768	3013
863.9	2967
864.032	2929
864.164	2910
864.296	3005
864.428	3074
864.559	3116
864.691	3081
864.823	3081
864.954	3013
865.086	3047
865.217	3005
865.349	2971
865.48	2956
865.612	3032
865.743	3127
865.875	2948
866.006	2990
866.137	2937
866.269	2948
866.4	2922
866.531	2914
866.662	2906
866.793	2823
866.924	2853
867.055	2994
867.186	2929
867.317	2868
867.448	2857
867.579	2857
867.71	2834
867.841	2823
867.972	2922
868.103	2872
868.233	2895
868.364	2899
868.495	2910
868.625	3066
868.756	3161
868.886	2925
869.017	3039
869.147	3150
869.278	3169
869.408	3036
869.539	3001
869.669	3112
869.799	3024
869.929	3085
870.06	3116
870.19	3279
870.32	3233
870.45	3298
870.58	3344
870.71	3405
870.84	3428
870.97	3260
871.1	3253
871.23	3466
871.36	3477
871.489	3329
871.619	3367
871.749	3363
871.879	3420
872.008	3481
872.138	3325
872.267	3256
872.397	3131
872.526	3093
872.656	3005
872.785	3093
872.915	3256
873.044	3256
873.173	3173
873.303	3241
873.432	3249
873.561	3237
873.69	3157
873.819	3138
873.948	3203
874.077	3116
874.206	3036
874.335	3062
874.464	3222
874.593	3321
874.722	3237
874.851	3412
874.979	3355
875.108	3348
875.237	3161
875.365	3176
875.494	3116
875.623	3241
875.751	3051
875.88	3127
876.008	3188
876.136	3214
876.265	3348
876.393	3507
876.521	3412
876.65	3409
876.778	3325
876.906	3245
877.034	3176
877.162	3222
877.29	3184
877.418	3230
877.546	3233
877.674	3268
877.802	3230
877.93	3241
878.058	3112
878.185	3085
878.313	3184
878.441	3188
878.568	3119
878.696	3138
878.824	3245
878.951	3272
879.079	3412
879.206	3633
879.333	3431
879.461	3302
879.588	3348
879.715	3454
879.842	3599
879.97	3367
880.097	3173
880.224	3104
880.351	3214
880.478	3203
880.605	3173
880.732	3195
880.859	3473
880.986	3298
881.112	3294
881.239	3173
881.366	3055
881.493	3039
881.619	3077
881.746	3062
881.872	3085
881.999	3100
882.125	3116
882.252	3249
882.378	3275
882.505	3416
882.631	3287
882.757	3146
882.883	3218
883.01	3222
883.136	3138
883.262	3123
883.388	3081
883.514	3310
883.64	3382
883.766	3321
883.892	3188
884.018	3253
884.143	3405
884.269	3504
884.395	3195
884.52	3157
884.646	3211
884.772	3100
884.897	3077
885.023	3214
885.148	3329
885.274	3416
885.399	3359
885.524	3279
885.65	3256
885.775	3313
885.9	3260
886.025	3454
886.15	3359
886.275	3283
886.4	3291
886.525	3287
886.65	3283
886.775	3283
886.9	3507
887.025	3599
887.149	3378
887.274	3241
887.399	3180
887.523	3192
887.648	3188
887.773	3188
887.897	3389
888.021	3401
888.146	3233
888.27	3393
888.395	3496
888.519	3412
888.643	3439
888.767	3412
888.891	3302
889.015	3249
889.139	3294
889.263	3275
889.387	3355
889.511	3450
889.635	3431
889.759	3291
889.883	3230
890.006	3382
890.13	3447
890.254	3287
890.377	3302
890.501	3214
890.624	3192
890.748	3310
890.871	3188
890.995	3097
891.118	3047
891.241	3192
891.364	3230
891.488	3332
891.611	3180
891.734	3253
891.857	3287
891.98	3226
892.103	3321
892.226	3260
892.349	3195
892.471	3150
892.594	3218
892.717	3291
892.839	3313
892.962	3291
893.085	3359
893.207	3321
893.33	3127
893.452	3218
893.575	3272
893.697	3287
893.819	3469
893.941	3515
894.064	3431
894.186	3279
894.308	3310
894.43	3477
894.552	3492
894.674	3443
894.796	3260
894.918	3302
895.04	3287
895.161	3405
895.283	3401
895.405	3348
895.526	3382
895.648	3397
895.769	3424
895.891	3443
896.012	3473
896.134	3443
896.255	3378
896.376	3386
896.498	3382
896.619	3412
896.74	3382
896.861	3416
896.982	3698
897.103	3850
897.224	3523
897.345	3538
897.466	3458
897.587	3485
897.708	3625
897.828	3538
897.949	3443
898.07	3329
898.19	3397
898.311	3564
898.431	3458
898.552	3511
898.672	3606
898.792	3606
898.913	3492
899.033	3374
899.153	3313
899.273	3211
899.393	3298
899.513	3294
899.633	3306
899.753	3348
899.873	3287
899.993	3386
900.113	3313
900.232	3397
900.352	3332
900.472	3256
900.591	3176
900.711	3340
900.83	3279
900.95	3412
901.069	3488
901.189	3317
901.308	3214
901.427	3119
901.546	3192
901.665	3272
901.784	3306
901.904	3195
902.023	3184
902.141	3017
902.26	3009
902.379	3135
902.498	3077
902.617	3028
902.735	3233
902.854	3249
902.973	3180
903.091	3070
903.21	3070
903.328	3127
903.446	3142
903.565	3104
903.683	3211
903.801	3142
903.919	3214
904.038	3253
904.156	3195
904.274	3287
904.392	3275
904.51	3294
904.627	3310
904.745	3424
904.863	3488
904.981	3260
905.098	3138
905.216	3272
905.334	3275
905.451	3264
905.569	3306
905.686	3397
905.803	3428
905.921	3272
906.038	3412
906.155	3378
906.272	3237
906.389	3336
906.506	3211
906.623	3291
906.74	3256
906.857	3169
906.974	3241
907.091	3409
907.208	3534
907.324	3462
907.441	3401
907.557	3230
907.674	3218
907.79	3211
907.907	3264
908.023	3374
908.139	3348
908.256	3329
908.372	3363
908.488	3336
908.604	3211
908.72	3222
908.836	3291
908.952	3249
909.068	3340
909.184	3504
909.3	3359
909.415	3496
909.531	3443
909.647	3272
909.762	3294
909.878	3237
909.993	3370
910.108	3329
910.224	3291
910.339	3382
910.454	3351
910.57	3264
910.685	3279
910.8	3576
910.915	3549
911.03	3393
911.145	3287
911.259	3272
911.374	3302
911.489	3256
911.604	3211
911.718	3135
911.833	3112
911.947	2982
912.062	2986
912.176	3157
912.291	3188
912.405	3165
912.519	3397
912.633	3454
912.748	3329
912.862	3275
912.976	3173
913.09	3051
913.204	3123
913.318	3230
913.431	3317
913.545	3321
913.659	3428
913.772	3359
913.886	3207
914	3180
914.113	3313
914.226	3447
914.34	3389
914.453	3214
914.566	3393
914.68	3291
914.793	3310
914.906	3169
915.019	3100
915.132	3074
915.245	3142
915.358	3207
915.47	3230
915.583	3264
915.696	3260
915.809	3439
915.921	3382
916.034	3241
916.146	3226
916.259	3230
916.371	3393
916.483	3363
916.595	3214
916.708	3374
916.82	3348
916.932	3336
917.044	3340
917.156	3359
917.268	3260
917.38	3310
917.491	3253
917.603	3370
917.715	3443
917.826	3454
917.938	3405
918.049	3256
918.161	3412
918.272	3545
918.384	3564
918.495	3435
918.606	3313
918.717	3298
918.828	3370
918.939	3382
919.05	3279
919.161	3359
919.272	3173
919.383	3283
919.494	3462
919.604	3686
919.715	3492
919.826	3386
919.936	3435
920.047	3595
920.157	3549
920.267	3789
920.378	3564
920.488	3526
920.598	3812
920.708	3968
920.818	3808
920.928	3793
921.038	4017
921.148	3983
921.258	3720
921.368	3614
921.477	3561
921.587	3542
921.697	3386
921.806	3629
921.916	3500
922.025	3336
922.134	3351
922.244	3306
922.353	3481
922.462	3291
922.571	3237
922.68	3138
922.789	3085
922.898	3150
923.007	3081
923.116	3199
923.224	3184
923.333	3165
923.442	3089
923.55	3104
923.659	3131
923.767	3226
923.876	3135
923.984	3230
924.092	3138
924.201	3233
924.309	3211
924.417	3253
924.525	3218
924.633	3214
924.741	4192
924.849	3047
924.956	3260
925.064	3108
925.172	3051
925.279	3093
925.387	3253
925.494	3230
925.602	3374
925.709	3332
925.816	3176
925.924	3253
926.031	3355
926.138	3348
926.245	3355
926.352	3233
926.459	3409
926.566	3466
926.673	3325
926.779	3253
926.886	3207
926.993	3169
927.099	3100
927.206	3081
927.312	3085
927.419	3199
927.525	3230
927.631	3268
927.737	3138
927.843	3123
927.95	3028
928.056	3138
928.162	3180
928.267	3237
928.373	3896
928.479	3302
928.585	3070
928.69	3207
928.796	3260
928.901	3169
929.007	3051
929.112	3199
929.218	3173
929.323	3116
929.428	3165
929.533	3283
929.638	3097
929.743	3188
929.848	3230
929.953	3237
930.058	3116
930.163	2986
930.267	3017
930.372	3199
930.477	3024
930.581	3313
930.685	3165
930.79	3058
930.894	3131
930.998	3085
931.103	3291
931.207	2944
931.311	2918
931.415	2902
931.519	2766
931.623	2804
