Data from test_V78500241_1935.txt Node
Date: Fri Mar 25 16:28:36 CST 2022
User: usil
Spectrometer: V785-0024
Trigger mode: 0
Integration Time (sec): 4.000000E-1
Scans to average: 1
Nonlinearity correction enabled: false
Boxcar width: 0
Storing dark spectrum: false
XAxis mode: Wavelengths
Number of Pixels in Spectrum: 1024
>>>>>Begin Spectral Data<<<<<
801.071	2906
801.214	2941
801.356	2842
801.499	2899
801.641	2853
801.783	2887
801.926	3074
802.068	2971
802.211	2967
802.353	3028
802.496	2956
802.638	3020
802.78	3047
802.923	3085
803.065	3005
803.208	2906
803.35	2910
803.492	2922
803.635	2937
803.777	2739
803.919	2861
804.061	3150
804.204	2933
804.346	2922
804.488	2864
804.63	2986
804.773	2830
804.915	2918
805.057	3089
805.199	2956
805.341	2963
805.483	3062
805.626	2994
805.768	2944
805.91	3058
806.052	3104
806.194	3005
806.336	3214
806.478	3043
806.62	2937
806.762	2956
806.904	3039
807.046	3161
807.188	2986
807.33	2910
807.472	2975
807.614	2857
807.756	2982
807.898	2937
808.04	2910
808.182	2994
808.324	2948
808.465	2887
808.607	2880
808.749	2807
808.891	2876
809.033	2967
809.174	2990
809.316	2891
809.458	2880
809.6	2773
809.741	2762
809.883	2777
810.025	2842
810.166	2834
810.308	2834
810.45	2872
810.591	2731
810.733	2758
810.875	2830
811.016	2773
811.158	2727
811.299	2788
811.441	2941
811.582	2891
811.724	2830
811.865	2864
812.007	2902
812.148	2868
812.29	2849
812.431	2861
812.573	2952
812.714	2990
812.855	3062
812.997	3047
813.138	3108
813.279	3013
813.421	2963
813.562	2967
813.703	2857
813.845	2880
813.986	2796
814.127	2731
814.268	2811
814.41	2834
814.551	2804
814.692	2891
814.833	2819
814.974	2899
815.115	2944
815.256	2807
815.397	2800
815.539	2849
815.68	2750
815.821	2766
815.962	2952
816.103	2914
816.244	2868
816.385	2853
816.526	2952
816.666	2880
816.807	2758
816.948	2899
817.089	2906
817.23	2811
817.371	2762
817.512	2823
817.653	2823
817.793	2826
817.934	2849
818.075	2979
818.216	2941
818.356	3020
818.497	2853
818.638	2792
818.778	2842
818.919	2758
819.06	2739
819.2	2861
819.341	2758
819.481	2788
819.622	2906
819.762	3055
819.903	3058
820.043	2941
820.184	2906
820.324	2864
820.465	2990
820.605	2963
820.746	3009
820.886	2975
821.026	3108
821.167	3119
821.307	3245
821.447	3272
821.588	3214
821.728	3230
821.868	3173
822.008	3081
822.149	3161
822.289	3222
822.429	3085
822.569	3081
822.709	3230
822.849	2982
822.99	3047
823.13	3161
823.27	3195
823.41	3116
823.55	3138
823.69	3146
823.83	3180
823.97	3104
824.11	2979
824.25	3001
824.389	3051
824.529	3100
824.669	3093
824.809	3188
824.949	3233
825.089	3233
825.228	3142
825.368	3020
825.508	2994
825.648	2967
825.787	3036
825.927	2990
826.067	2963
826.206	2933
826.346	3058
826.485	3013
826.625	3112
826.765	3287
826.904	3173
827.044	2979
827.183	2918
827.323	2857
827.462	2994
827.601	2910
827.741	2918
827.88	3005
828.02	2845
828.159	2963
828.298	3024
828.437	3093
828.577	3020
828.716	3249
828.855	3077
828.994	2861
829.134	2845
829.273	2899
829.412	2857
829.551	2872
829.69	2895
829.829	3005
829.968	3131
830.107	2990
830.246	3028
830.385	2902
830.524	2899
830.663	2830
830.802	2750
830.941	2621
831.08	2606
831.219	2731
831.357	2746
831.496	2933
831.635	2701
831.774	2629
831.913	2644
832.051	2530
832.19	2583
832.329	2689
832.467	2564
832.606	2450
832.744	2560
832.883	2583
833.022	2610
833.16	2629
833.299	2693
833.437	2701
833.576	2697
833.714	2720
833.852	2724
833.991	2762
834.129	2804
834.267	2811
834.406	2773
834.544	2849
834.682	2868
834.821	2891
834.959	3024
835.097	2906
835.235	3062
835.373	3001
835.511	3020
835.65	2933
835.788	2956
835.926	2830
836.064	2781
836.202	2823
836.34	3104
836.478	3154
836.615	3047
836.753	3123
836.891	3207
837.029	3150
837.167	3100
837.305	3055
837.443	3066
837.58	2967
837.718	3127
837.856	3013
837.993	3017
838.131	3161
838.269	3077
838.406	3112
838.544	3104
838.681	2952
838.819	2906
838.956	2819
839.094	2804
839.231	2872
839.369	3009
839.506	3348
839.643	3207
839.781	2990
839.918	2971
840.055	3051
840.193	2994
840.33	3058
840.467	3077
840.604	3142
840.742	3393
840.879	3043
841.016	3058
841.153	3127
841.29	3313
841.427	3298
841.564	3230
841.701	3302
841.838	3207
841.975	3211
842.112	3184
842.249	3032
842.385	3070
842.522	3260
842.659	3085
842.796	3062
842.933	3089
843.069	3032
843.206	3058
843.343	3184
843.479	3066
843.616	3112
843.752	2899
843.889	2849
844.025	3085
844.162	2876
844.298	3085
844.435	2925
844.571	2910
844.708	3058
844.844	3176
844.98	3218
845.117	3199
845.253	3043
845.389	2982
845.525	3119
845.661	3127
845.798	3001
845.934	3119
846.07	3013
846.206	3161
846.342	3329
846.478	3272
846.614	3055
846.75	3074
846.886	3024
847.022	3260
847.158	3127
847.294	3211
847.429	3268
847.565	3188
847.701	3477
847.837	3062
847.972	2986
848.108	3176
848.244	3161
848.379	2963
848.515	2918
848.65	2967
848.786	2902
848.921	2994
849.057	3047
849.192	3135
849.328	3089
849.463	3100
849.598	3032
849.734	3047
849.869	2982
850.004	2906
850.14	2948
850.275	2952
850.41	2823
850.545	2845
850.68	2922
850.815	2948
850.95	2941
851.085	3188
851.22	3104
851.355	3032
851.49	2986
851.625	2986
851.76	3005
851.895	2910
852.03	2895
852.165	3005
852.299	3066
852.434	3173
852.569	3108
852.703	3173
852.838	3253
852.973	3283
853.107	3332
853.242	3131
853.376	3081
853.511	2952
853.645	3039
853.78	3237
853.914	3116
854.048	3062
854.183	3062
854.317	3146
854.451	3275
854.585	3108
854.72	3097
854.854	3237
854.988	3028
855.122	3089
855.256	2998
855.39	3093
855.524	3230
855.658	3165
855.792	3127
855.926	3157
856.06	3233
856.194	3249
856.327	3119
856.461	3077
856.595	3070
856.729	3077
856.862	3214
856.996	3169
857.13	3184
857.263	3199
857.397	3294
857.53	3100
857.664	3203
857.797	3256
857.931	3237
858.064	3142
858.197	3184
858.331	3150
858.464	3100
858.597	2982
858.731	3116
858.864	3150
858.997	3089
859.13	3131
859.263	3188
859.396	3233
859.529	3127
859.662	3032
859.795	3047
859.928	3161
860.061	3268
860.194	3294
860.327	3112
860.46	3070
860.592	3214
860.725	3249
860.858	3245
860.99	3104
861.123	3070
861.256	3039
861.388	3100
861.521	3880
861.653	2979
861.786	2982
861.918	2994
862.05	3058
862.183	3081
862.315	3119
862.447	3173
862.58	3058
862.712	2895
862.844	2864
862.976	3005
863.108	2971
863.24	3336
863.372	2838
863.504	2944
863.636	2910
863.768	3005
863.9	3009
864.032	2899
864.164	2944
864.296	3001
864.428	3058
864.559	3100
864.691	3074
864.823	3070
864.954	3020
865.086	2998
865.217	2960
865.349	2963
865.48	2982
865.612	3005
865.743	3116
865.875	2994
866.006	2922
866.137	2975
866.269	2941
866.4	2906
866.531	2914
866.662	2895
866.793	2906
866.924	2937
867.055	2948
867.186	2910
867.317	2868
867.448	2830
867.579	2838
867.71	2845
867.841	2769
867.972	2899
868.103	2922
868.233	2861
868.364	2853
868.495	2895
868.625	3013
868.756	3199
868.886	3009
869.017	2982
869.147	3157
869.278	3135
869.408	3062
869.539	2982
869.669	3100
869.799	3039
869.929	3150
870.06	3051
870.19	3302
870.32	3245
870.45	3256
870.58	3359
870.71	3488
870.84	3477
870.97	3287
871.1	3245
871.23	3496
871.36	3420
871.489	3325
871.619	3386
871.749	3363
871.879	3450
872.008	3492
872.138	3359
872.267	3291
872.397	3157
872.526	3104
872.656	3017
872.785	3055
872.915	3207
873.044	3321
873.173	3218
873.303	3264
873.432	3241
873.561	3268
873.69	3146
873.819	3165
873.948	3188
874.077	3112
874.206	3036
874.335	3093
874.464	3188
874.593	3344
874.722	3214
874.851	3378
874.979	3355
875.108	3283
875.237	3154
875.365	3116
875.494	3157
875.623	3272
875.751	3097
875.88	3119
876.008	3192
876.136	3218
876.265	3344
876.393	3469
876.521	3367
876.65	3359
876.778	3329
876.906	3226
877.034	3195
877.162	3207
877.29	3131
877.418	3237
877.546	3207
877.674	3230
877.802	3192
877.93	3203
878.058	3150
878.185	3062
878.313	3184
878.441	3207
878.568	3074
878.696	3104
878.824	3245
878.951	3268
879.079	3435
879.206	3599
879.333	3424
879.461	3348
879.588	3325
879.715	3473
879.842	3610
879.97	3348
880.097	3142
880.224	3135
880.351	3176
880.478	3199
880.605	3169
880.732	3157
880.859	3469
880.986	3272
881.112	3336
881.239	3195
881.366	3077
881.493	3047
881.619	3028
881.746	3055
881.872	3070
881.999	3097
882.125	3161
882.252	3222
882.378	3260
882.505	3409
882.631	3264
882.757	3161
882.883	3188
883.01	3195
883.136	3097
883.262	3116
883.388	3108
883.514	3344
883.64	3397
883.766	3340
883.892	3157
884.018	3256
884.143	3450
884.269	3538
884.395	3203
884.52	3207
884.646	3203
884.772	3123
884.897	3138
885.023	3233
885.148	3397
885.274	3428
885.399	3397
885.524	3283
885.65	3272
885.775	3317
885.9	3294
886.025	3488
886.15	3397
886.275	3317
886.4	3272
886.525	3348
886.65	3306
886.775	3321
886.9	3572
887.025	3671
887.149	3409
887.274	3317
887.399	3218
887.523	3283
887.648	3226
887.773	3207
887.897	3386
888.021	3428
888.146	3321
888.27	3462
888.395	3576
888.519	3447
888.643	3504
888.767	3504
888.891	3367
889.015	3306
889.139	3348
889.263	3275
889.387	3405
889.511	3572
889.635	3477
889.759	3283
889.883	3287
890.006	3435
890.13	3561
890.254	3325
890.377	3397
890.501	3237
890.624	3241
890.748	3355
890.871	3214
890.995	3169
891.118	3089
891.241	3214
891.364	3268
891.488	3321
891.611	3214
891.734	3260
891.857	3336
891.98	3260
892.103	3416
892.226	3268
892.349	3260
892.471	3157
892.594	3279
892.717	3294
892.839	3272
892.962	3298
893.085	3389
893.207	3340
893.33	3195
893.452	3222
893.575	3344
893.697	3283
893.819	3492
893.941	3511
894.064	3473
894.186	3317
894.308	3298
894.43	3443
894.552	3576
894.674	3511
894.796	3291
894.918	3374
895.04	3325
895.161	3488
895.283	3420
895.405	3355
895.526	3363
895.648	3466
895.769	3450
895.891	3462
896.012	3530
896.134	3485
896.255	3454
896.376	3431
896.498	3370
896.619	3439
896.74	3428
896.861	3405
896.982	3698
897.103	3903
897.224	3648
897.345	3538
897.466	3485
897.587	3545
897.708	3694
897.828	3595
897.949	3488
898.07	3317
898.19	3424
898.311	3671
898.431	3473
898.552	3542
898.672	3580
898.792	3599
898.913	3542
899.033	3412
899.153	3313
899.273	3253
899.393	3310
899.513	3321
899.633	3351
899.753	3355
899.873	3359
899.993	3428
900.113	3370
900.232	3450
900.352	3325
900.472	3351
900.591	3233
900.711	3306
900.83	3287
900.95	3450
901.069	3526
901.189	3370
901.308	3188
901.427	3157
901.546	3199
901.665	3340
901.784	3348
901.904	3268
902.023	3165
902.141	3055
902.26	3043
902.379	3169
902.498	3119
902.617	3074
902.735	3207
902.854	3283
902.973	3237
903.091	3070
903.21	3112
903.328	3180
903.446	3116
903.565	3127
903.683	3222
903.801	3150
903.919	3249
904.038	3310
904.156	3188
904.274	3302
904.392	3279
904.51	3351
904.627	3374
904.745	3458
904.863	3538
904.981	3245
905.098	3195
905.216	3268
905.334	3325
905.451	3367
905.569	3359
905.686	3447
905.803	3420
905.921	3313
906.038	3428
906.155	3401
906.272	3291
906.389	3344
906.506	3226
906.623	3291
906.74	3298
906.857	3222
906.974	3298
907.091	3473
907.208	3587
907.324	3466
907.441	3393
907.557	3260
907.674	3298
907.79	3230
907.907	3264
908.023	3397
908.139	3428
908.256	3378
908.372	3435
908.488	3355
908.604	3298
908.72	3222
908.836	3348
908.952	3291
909.068	3393
909.184	3519
909.3	3428
909.415	3568
909.531	3507
909.647	3302
909.762	3302
909.878	3313
909.993	3374
910.108	3389
910.224	3386
910.339	3454
910.454	3363
910.57	3332
910.685	3275
910.8	3629
910.915	3561
911.03	3462
911.145	3287
911.259	3287
911.374	3340
911.489	3264
911.604	3253
911.718	3154
911.833	3161
911.947	3077
912.062	2990
912.176	3214
912.291	3230
912.405	3241
912.519	3454
912.633	3481
912.748	3367
912.862	3283
912.976	3207
913.09	3070
913.204	3176
913.318	3230
913.431	3355
913.545	3370
913.659	3431
913.772	3370
913.886	3268
914	3188
914.113	3363
914.226	3473
914.34	3435
914.453	3222
914.566	3450
914.68	3325
914.793	3275
914.906	3180
915.019	3142
915.132	3093
915.245	3165
915.358	3226
915.47	3283
915.583	3291
915.696	3283
915.809	3424
915.921	3382
916.034	3264
916.146	3279
916.259	3264
916.371	3435
916.483	3378
916.595	3287
916.708	3344
916.82	3363
916.932	3386
917.044	3378
917.156	3340
917.268	3294
917.38	3298
917.491	3321
917.603	3367
917.715	3504
917.826	3485
917.938	3397
918.049	3275
918.161	3485
918.272	3622
918.384	3587
918.495	3561
918.606	3367
918.717	3340
918.828	3370
918.939	3443
919.05	3332
919.161	3389
919.272	3230
919.383	3313
919.494	3557
919.604	3671
919.715	3519
919.826	3416
919.936	3466
920.047	3603
920.157	3584
920.267	3835
920.378	3660
920.488	3568
920.598	3819
920.708	3983
920.818	3827
920.928	3888
921.038	4040
921.148	4029
921.258	3717
921.368	3663
921.477	3599
921.587	3606
921.697	3496
921.806	3656
921.916	3538
922.025	3386
922.134	3393
922.244	3351
922.353	3397
922.462	3264
922.571	3283
922.68	3112
922.789	3085
922.898	3176
923.007	3104
923.116	3233
923.224	3207
923.333	3192
923.442	3150
923.55	3116
923.659	3173
923.767	3256
923.876	3161
923.984	3275
924.092	3142
924.201	3207
924.309	3222
924.417	3237
924.525	3218
924.633	3241
924.741	4200
924.849	3058
924.956	3279
925.064	3150
925.172	3077
925.279	3119
925.387	3218
925.494	3214
925.602	3374
925.709	3340
925.816	3180
925.924	3344
926.031	3370
926.138	3344
926.245	3378
926.352	3294
926.459	3439
926.566	3504
926.673	3355
926.779	3268
926.886	3279
926.993	3161
927.099	3180
927.206	3112
927.312	3127
927.419	3294
927.525	3241
927.631	3298
927.737	3165
927.843	3157
927.95	3032
928.056	3146
928.162	3203
928.267	3241
928.373	3850
928.479	3344
928.585	3100
928.69	3237
928.796	3268
928.901	3218
929.007	3047
929.112	3233
929.218	3199
929.323	3131
929.428	3154
929.533	3298
929.638	3112
929.743	3180
929.848	3287
929.953	3253
930.058	3154
930.163	3020
930.267	3070
930.372	3195
930.477	3081
930.581	3363
930.685	3203
930.79	3112
930.894	3157
930.998	3074
931.103	3302
931.207	3013
931.311	2998
931.415	2948
931.519	2807
931.623	2823
