Data from test_V78500241_1519.txt Node
Date: Fri Mar 25 16:25:43 CST 2022
User: usil
Spectrometer: V785-0024
Trigger mode: 0
Integration Time (sec): 4.000000E-1
Scans to average: 1
Nonlinearity correction enabled: false
Boxcar width: 0
Storing dark spectrum: false
XAxis mode: Wavelengths
Number of Pixels in Spectrum: 1024
>>>>>Begin Spectral Data<<<<<
801.071	2948
801.214	2952
801.356	2861
801.499	2906
801.641	2891
801.783	2952
801.926	3062
802.068	3001
802.211	3009
802.353	3043
802.496	2971
802.638	2994
802.78	3055
802.923	3074
803.065	3013
803.208	2887
803.35	2937
803.492	2956
803.635	2956
803.777	2739
803.919	2857
804.061	3184
804.204	2952
804.346	2914
804.488	2857
804.63	2971
804.773	2891
804.915	2975
805.057	3127
805.199	2925
805.341	3017
805.483	3077
805.626	3017
805.768	2994
805.91	3112
806.052	3112
806.194	3032
806.336	3264
806.478	3066
806.62	2952
806.762	3001
806.904	3062
807.046	3131
807.188	2960
807.33	2876
807.472	2975
807.614	2902
807.756	2960
807.898	2941
808.04	2902
808.182	3017
808.324	2944
808.465	2868
808.607	2883
808.749	2819
808.891	2872
809.033	2975
809.174	2998
809.316	2864
809.458	2883
809.6	2746
809.741	2785
809.883	2762
810.025	2834
810.166	2819
810.308	2872
810.45	2872
810.591	2758
810.733	2769
810.875	2830
811.016	2766
811.158	2769
811.299	2811
811.441	2899
811.582	2868
811.724	2819
811.865	2826
812.007	2902
812.148	2868
812.29	2830
812.431	2864
812.573	2910
812.714	2956
812.855	3024
812.997	3055
813.138	3104
813.279	2994
813.421	3001
813.562	2982
813.703	2883
813.845	2857
813.986	2766
814.127	2708
814.268	2815
814.41	2826
814.551	2811
814.692	2883
814.833	2819
814.974	2906
815.115	2948
815.256	2819
815.397	2819
815.539	2823
815.68	2796
815.821	2781
815.962	2929
816.103	2922
816.244	2861
816.385	2849
816.526	3013
816.666	2933
816.807	2716
816.948	2842
817.089	2868
817.23	2876
817.371	2785
817.512	2766
817.653	2826
817.793	2823
817.934	2872
818.075	2952
818.216	2998
818.356	3005
818.497	2880
818.638	2800
818.778	2819
818.919	2815
819.06	2773
819.2	2891
819.341	2815
819.481	2785
819.622	2914
819.762	3104
819.903	3028
820.043	2929
820.184	2914
820.324	2910
820.465	3032
820.605	3020
820.746	3039
820.886	2960
821.026	3089
821.167	3188
821.307	3279
821.447	3302
821.588	3230
821.728	3203
821.868	3203
822.008	3127
822.149	3214
822.289	3279
822.429	3112
822.569	3093
822.709	3192
822.849	3093
822.99	3047
823.13	3180
823.27	3237
823.41	3135
823.55	3176
823.69	3165
823.83	3226
823.97	3165
824.11	3001
824.25	3036
824.389	3062
824.529	3169
824.669	3074
824.809	3218
824.949	3272
825.089	3249
825.228	3214
825.368	3039
825.508	3001
825.648	2975
825.787	3028
825.927	3043
826.067	3013
826.206	3001
826.346	3112
826.485	3135
826.625	3165
826.765	3268
826.904	3218
827.044	2986
827.183	2967
827.323	2906
827.462	2998
827.601	2971
827.741	2986
827.88	2971
828.02	2910
828.159	3009
828.298	3055
828.437	3142
828.577	3070
828.716	3279
828.855	3127
828.994	2948
829.134	2929
829.273	2941
829.412	2910
829.551	2910
829.69	2906
829.829	3020
829.968	3138
830.107	3047
830.246	3077
830.385	2948
830.524	2906
830.663	2868
830.802	2750
830.941	2678
831.08	2701
831.219	2823
831.357	2792
831.496	2960
831.635	2754
831.774	2724
831.913	2693
832.051	2621
832.19	2602
832.329	2724
832.467	2583
832.606	2522
832.744	2621
832.883	2621
833.022	2644
833.16	2705
833.299	2731
833.437	2720
833.576	2758
833.714	2762
833.852	2746
833.991	2796
834.129	2861
834.267	2872
834.406	2804
834.544	2895
834.682	2937
834.821	2880
834.959	3077
835.097	2925
835.235	3036
835.373	3036
835.511	3097
835.65	3020
835.788	2960
835.926	2887
836.064	2823
836.202	2864
836.34	3176
836.478	3157
836.615	3108
836.753	3195
836.891	3249
837.029	3214
837.167	3146
837.305	3093
837.443	3093
837.58	3009
837.718	3184
837.856	3131
837.993	3039
838.131	3173
838.269	3157
838.406	3127
838.544	3116
838.681	2975
838.819	2944
838.956	2880
839.094	2834
839.231	2982
839.369	3074
839.506	3393
839.643	3218
839.781	3051
839.918	3009
840.055	3070
840.193	3093
840.33	3097
840.467	3150
840.604	3165
840.742	3431
840.879	3093
841.016	3100
841.153	3142
841.29	3363
841.427	3279
841.564	3291
841.701	3351
841.838	3253
841.975	3195
842.112	3268
842.249	3138
842.385	3051
842.522	3275
842.659	3138
842.796	3070
842.933	3127
843.069	3066
843.206	3070
843.343	3218
843.479	3142
843.616	3173
843.752	2960
843.889	2849
844.025	3055
844.162	2910
844.298	3081
844.435	3043
844.571	2948
844.708	3085
844.844	3222
844.98	3291
845.117	3214
845.253	3089
845.389	3058
845.525	3123
845.661	3119
845.798	3017
845.934	3146
846.07	3108
846.206	3249
846.342	3291
846.478	3272
846.614	3097
846.75	3081
846.886	3051
847.022	3272
847.158	3165
847.294	3222
847.429	3291
847.565	3249
847.701	3523
847.837	3070
847.972	3032
848.108	3165
848.244	3154
848.379	2998
848.515	2998
848.65	2941
848.786	3005
848.921	3043
849.057	3100
849.192	3142
849.328	3108
849.463	3131
849.598	3081
849.734	3047
849.869	3009
850.004	2937
850.14	3020
850.275	2960
850.41	2872
850.545	2899
850.68	2982
850.815	2982
850.95	2952
851.085	3218
851.22	3154
851.355	3058
851.49	3020
851.625	3039
851.76	3039
851.895	2971
852.03	2925
852.165	3104
852.299	3135
852.434	3218
852.569	3218
852.703	3176
852.838	3264
852.973	3359
853.107	3340
853.242	3184
853.376	3077
853.511	2994
853.645	3047
853.78	3275
853.914	3112
854.048	3127
854.183	3093
854.317	3157
854.451	3325
854.585	3142
854.72	3100
854.854	3226
854.988	3100
855.122	3116
855.256	3001
855.39	3146
855.524	3279
855.658	3218
855.792	3169
855.926	3176
856.06	3233
856.194	3268
856.327	3165
856.461	3138
856.595	3108
856.729	3062
856.862	3226
856.996	3207
857.13	3195
857.263	3233
857.397	3306
857.53	3165
857.664	3222
857.797	3241
857.931	3256
858.064	3188
858.197	3237
858.331	3188
858.464	3104
858.597	3036
858.731	3176
858.864	3165
858.997	3100
859.13	3211
859.263	3192
859.396	3199
859.529	3116
859.662	3074
859.795	3070
859.928	3108
860.061	3321
860.194	3291
860.327	3116
860.46	3100
860.592	3272
860.725	3275
860.858	3279
860.99	3138
861.123	3074
861.256	3051
861.388	3157
861.521	3896
861.653	3028
861.786	3024
861.918	3055
862.05	3093
862.183	3146
862.315	3169
862.447	3218
862.58	3100
862.712	2971
862.844	2902
862.976	3070
863.108	3024
863.24	3359
863.372	2872
863.504	2979
863.636	2998
863.768	3055
863.9	2979
864.032	2887
864.164	3009
864.296	3032
864.428	3097
864.559	3131
864.691	3097
864.823	3055
864.954	3051
865.086	3089
865.217	2998
865.349	2960
865.48	2998
865.612	3051
865.743	3165
865.875	3066
866.006	3017
866.137	3009
866.269	2982
866.4	2975
866.531	2975
866.662	2929
866.793	2933
866.924	2922
867.055	2982
867.186	2952
867.317	2918
867.448	2864
867.579	2880
867.71	2861
867.841	2842
867.972	2929
868.103	2925
868.233	2910
868.364	2880
868.495	2944
868.625	3066
868.756	3218
868.886	3005
869.017	3039
869.147	3195
869.278	3116
869.408	3066
869.539	3058
869.669	3142
869.799	3062
869.929	3154
870.06	3123
870.19	3317
870.32	3321
870.45	3306
870.58	3386
870.71	3469
870.84	3466
870.97	3302
871.1	3256
871.23	3530
871.36	3523
871.489	3370
871.619	3443
871.749	3420
871.879	3504
872.008	3485
872.138	3370
872.267	3283
872.397	3176
872.526	3127
872.656	3039
872.785	3097
872.915	3291
873.044	3340
873.173	3249
873.303	3272
873.432	3233
873.561	3233
873.69	3161
873.819	3199
873.948	3230
874.077	3108
874.206	3085
874.335	3138
874.464	3207
874.593	3389
874.722	3214
874.851	3378
874.979	3370
875.108	3317
875.237	3211
875.365	3222
875.494	3165
875.623	3211
875.751	3157
875.88	3146
876.008	3253
876.136	3264
876.265	3405
876.393	3530
876.521	3447
876.65	3435
876.778	3348
876.906	3264
877.034	3226
877.162	3260
877.29	3188
877.418	3272
877.546	3260
877.674	3294
877.802	3245
877.93	3272
878.058	3157
878.185	3135
878.313	3260
878.441	3272
878.568	3085
878.696	3161
878.824	3287
878.951	3348
879.079	3439
879.206	3656
879.333	3496
879.461	3355
879.588	3424
879.715	3507
879.842	3580
879.97	3367
880.097	3192
880.224	3142
880.351	3214
880.478	3211
880.605	3184
880.732	3188
880.859	3519
880.986	3336
881.112	3325
881.239	3260
881.366	3127
881.493	3058
881.619	3055
881.746	3116
881.872	3131
881.999	3116
882.125	3169
882.252	3279
882.378	3294
882.505	3420
882.631	3321
882.757	3154
882.883	3230
883.01	3218
883.136	3165
883.262	3097
883.388	3138
883.514	3310
883.64	3393
883.766	3344
883.892	3157
884.018	3256
884.143	3424
884.269	3564
884.395	3188
884.52	3207
884.646	3169
884.772	3104
884.897	3081
885.023	3195
885.148	3332
885.274	3397
885.399	3405
885.524	3317
885.65	3264
885.775	3283
885.9	3264
886.025	3435
886.15	3378
886.275	3336
886.4	3264
886.525	3306
886.65	3317
886.775	3272
886.9	3515
887.025	3698
887.149	3401
887.274	3298
887.399	3180
887.523	3195
887.648	3199
887.773	3211
887.897	3393
888.021	3382
888.146	3294
888.27	3481
888.395	3504
888.519	3431
888.643	3462
888.767	3447
888.891	3336
889.015	3241
889.139	3351
889.263	3230
889.387	3424
889.511	3545
889.635	3477
889.759	3275
889.883	3317
890.006	3382
890.13	3454
890.254	3287
890.377	3359
890.501	3230
890.624	3207
890.748	3302
890.871	3199
890.995	3127
891.118	3085
891.241	3222
891.364	3237
891.488	3317
891.611	3207
891.734	3249
891.857	3340
891.98	3233
892.103	3363
892.226	3283
892.349	3226
892.471	3135
892.594	3226
892.717	3306
892.839	3272
892.962	3275
893.085	3386
893.207	3294
893.33	3173
893.452	3207
893.575	3367
893.697	3264
893.819	3507
893.941	3523
894.064	3450
894.186	3275
894.308	3294
894.43	3412
894.552	3553
894.674	3488
894.796	3264
894.918	3336
895.04	3291
895.161	3450
895.283	3401
895.405	3332
895.526	3344
895.648	3454
895.769	3420
895.891	3504
896.012	3481
896.134	3530
896.255	3416
896.376	3393
896.498	3378
896.619	3428
896.74	3378
896.861	3439
896.982	3698
897.103	3831
897.224	3618
897.345	3492
897.466	3454
897.587	3488
897.708	3595
897.828	3568
897.949	3534
898.07	3332
898.19	3435
898.311	3561
898.431	3443
898.552	3500
898.672	3603
898.792	3595
898.913	3519
899.033	3431
899.153	3321
899.273	3222
899.393	3298
899.513	3294
899.633	3321
899.753	3359
899.873	3344
899.993	3397
900.113	3359
900.232	3401
900.352	3370
900.472	3321
900.591	3260
900.711	3313
900.83	3264
900.95	3450
901.069	3526
901.189	3351
901.308	3218
901.427	3119
901.546	3245
901.665	3260
901.784	3348
901.904	3195
902.023	3157
902.141	3047
902.26	3024
902.379	3142
902.498	3081
902.617	3074
902.735	3188
902.854	3241
902.973	3218
903.091	3077
903.21	3066
903.328	3150
903.446	3127
903.565	3074
903.683	3226
903.801	3154
903.919	3260
904.038	3287
904.156	3211
904.274	3313
904.392	3287
904.51	3317
904.627	3332
904.745	3469
904.863	3507
904.981	3272
905.098	3211
905.216	3237
905.334	3279
905.451	3329
905.569	3298
905.686	3458
905.803	3477
905.921	3275
906.038	3428
906.155	3355
906.272	3256
906.389	3359
906.506	3230
906.623	3237
906.74	3294
906.857	3195
906.974	3207
907.091	3477
907.208	3564
907.324	3511
907.441	3367
907.557	3272
907.674	3203
907.79	3211
907.907	3325
908.023	3378
908.139	3359
908.256	3317
908.372	3397
908.488	3359
908.604	3268
908.72	3222
908.836	3294
908.952	3279
909.068	3363
909.184	3454
909.3	3397
909.415	3515
909.531	3466
909.647	3279
909.762	3298
909.878	3275
909.993	3393
910.108	3348
910.224	3348
910.339	3435
910.454	3306
910.57	3302
910.685	3256
910.8	3610
910.915	3538
911.03	3466
911.145	3264
911.259	3260
911.374	3294
911.489	3230
911.604	3249
911.718	3135
911.833	3173
911.947	3039
912.062	3005
912.176	3165
912.291	3192
912.405	3222
912.519	3454
912.633	3485
912.748	3340
912.862	3306
912.976	3203
913.09	3055
913.204	3176
913.318	3230
913.431	3317
913.545	3321
913.659	3424
913.772	3378
913.886	3230
914	3203
914.113	3355
914.226	3374
914.34	3374
914.453	3188
914.566	3405
914.68	3287
914.793	3313
914.906	3138
915.019	3089
915.132	3081
915.245	3169
915.358	3188
915.47	3218
915.583	3260
915.696	3325
915.809	3397
915.921	3428
916.034	3302
916.146	3317
916.259	3222
916.371	3382
916.483	3370
916.595	3294
916.708	3332
916.82	3340
916.932	3313
917.044	3313
917.156	3348
917.268	3222
917.38	3317
917.491	3298
917.603	3386
917.715	3469
917.826	3500
917.938	3409
918.049	3268
918.161	3424
918.272	3564
918.384	3625
918.495	3473
918.606	3313
918.717	3268
918.828	3393
918.939	3393
919.05	3268
919.161	3378
919.272	3237
919.383	3348
919.494	3526
919.604	3667
919.715	3557
919.826	3397
919.936	3435
920.047	3564
920.157	3557
920.267	3770
920.378	3538
920.488	3561
920.598	3789
920.708	3972
920.818	3869
920.928	3827
921.038	3960
921.148	3987
921.258	3690
921.368	3610
921.477	3572
921.587	3511
921.697	3447
921.806	3648
921.916	3492
922.025	3321
922.134	3367
922.244	3298
922.353	3454
922.462	3283
922.571	3256
922.68	3108
922.789	3119
922.898	3112
923.007	3062
923.116	3211
923.224	3169
923.333	3222
923.442	3093
923.55	3127
923.659	3108
923.767	3214
923.876	3108
923.984	3249
924.092	3112
924.201	3226
924.309	3222
924.417	3245
924.525	3230
924.633	3264
924.741	4177
924.849	3074
924.956	3249
925.064	3116
925.172	3009
925.279	3123
925.387	3192
925.494	3169
925.602	3378
925.709	3340
925.816	3214
925.924	3272
926.031	3393
926.138	3332
926.245	3378
926.352	3272
926.459	3401
926.566	3450
926.673	3279
926.779	3268
926.886	3218
926.993	3176
927.099	3108
927.206	3123
927.312	3123
927.419	3222
927.525	3180
927.631	3321
927.737	3165
927.843	3119
927.95	3032
928.056	3119
928.162	3188
928.267	3241
928.373	3770
928.479	3268
928.585	3032
928.69	3199
928.796	3287
928.901	3180
929.007	3039
929.112	3256
929.218	3127
929.323	3173
929.428	3127
929.533	3329
929.638	3097
929.743	3188
929.848	3283
929.953	3192
930.058	3116
930.163	2979
930.267	3051
930.372	3165
930.477	2967
930.581	3332
930.685	3169
930.79	3097
930.894	3116
930.998	3112
931.103	3321
931.207	2990
931.311	2906
931.415	2925
931.519	2804
931.623	2838
