Data from test_V78500241_858.txt Node
Date: Fri Mar 25 16:21:08 CST 2022
User: usil
Spectrometer: V785-0024
Trigger mode: 0
Integration Time (sec): 4.000000E-1
Scans to average: 1
Nonlinearity correction enabled: false
Boxcar width: 0
Storing dark spectrum: false
XAxis mode: Wavelengths
Number of Pixels in Spectrum: 1024
>>>>>Begin Spectral Data<<<<<
801.071	2925
801.214	2967
801.356	2887
801.499	2918
801.641	2899
801.783	2933
801.926	3058
802.068	2986
802.211	3039
802.353	3020
802.496	2963
802.638	3036
802.78	3039
802.923	3066
803.065	2998
803.208	2918
803.35	2963
803.492	2948
803.635	2929
803.777	2762
803.919	2864
804.061	3222
804.204	2937
804.346	2922
804.488	2842
804.63	3001
804.773	2891
804.915	2929
805.057	3074
805.199	2944
805.341	2975
805.483	3036
805.626	3047
805.768	2986
805.91	3089
806.052	3119
806.194	3020
806.336	3245
806.478	3005
806.62	2944
806.762	2975
806.904	3058
807.046	3169
807.188	2952
807.33	2918
807.472	3043
807.614	2906
807.756	2986
807.898	2929
808.04	2876
808.182	2948
808.324	2941
808.465	2902
808.607	2868
808.749	2796
808.891	2845
809.033	3017
809.174	2982
809.316	2872
809.458	2910
809.6	2785
809.741	2769
809.883	2796
810.025	2823
810.166	2868
810.308	2853
810.45	2872
810.591	2777
810.733	2781
810.875	2815
811.016	2788
811.158	2746
811.299	2823
811.441	2922
811.582	2933
811.724	2819
811.865	2842
812.007	2883
812.148	2857
812.29	2872
812.431	2899
812.573	2941
812.714	2979
812.855	3051
812.997	3047
813.138	3112
813.279	3001
813.421	3001
813.562	2895
813.703	2880
813.845	2914
813.986	2769
814.127	2727
814.268	2819
814.41	2838
814.551	2800
814.692	2883
814.833	2834
814.974	2895
815.115	2963
815.256	2842
815.397	2811
815.539	2838
815.68	2758
815.821	2804
815.962	2948
816.103	2910
816.244	2895
816.385	2861
816.526	3009
816.666	2918
816.807	2754
816.948	2895
817.089	2948
817.23	2853
817.371	2792
817.512	2785
817.653	2853
817.793	2807
817.934	2887
818.075	2941
818.216	2963
818.356	3043
818.497	2952
818.638	2766
818.778	2834
818.919	2777
819.06	2762
819.2	2880
819.341	2785
819.481	2804
819.622	2910
819.762	3116
819.903	3020
820.043	2899
820.184	2906
820.324	2902
820.465	3013
820.605	3009
820.746	3036
820.886	2933
821.026	3123
821.167	3142
821.307	3226
821.447	3310
821.588	3207
821.728	3184
821.868	3116
822.008	3089
822.149	3165
822.289	3173
822.429	3077
822.569	3051
822.709	3180
822.849	2998
822.99	3077
823.13	3157
823.27	3188
823.41	3081
823.55	3119
823.69	3127
823.83	3199
823.97	3093
824.11	2994
824.25	2994
824.389	3051
824.529	3104
824.669	3066
824.809	3150
824.949	3245
825.089	3188
825.228	3142
825.368	3009
825.508	2933
825.648	2929
825.787	3001
825.927	2994
826.067	2963
826.206	2960
826.346	3043
826.485	3058
826.625	3097
826.765	3233
826.904	3203
827.044	3005
827.183	2941
827.323	2849
827.462	3036
827.601	2880
827.741	2925
827.88	2956
828.02	2826
828.159	2986
828.298	3051
828.437	3135
828.577	3032
828.716	3241
828.855	3097
828.994	2906
829.134	2895
829.273	2944
829.412	2864
829.551	2902
829.69	2902
829.829	2986
829.968	3127
830.107	3043
830.246	3032
830.385	2937
830.524	2895
830.663	2807
830.802	2758
830.941	2648
831.08	2674
831.219	2788
831.357	2762
831.496	2986
831.635	2754
831.774	2682
831.913	2716
832.051	2560
832.19	2617
832.329	2727
832.467	2560
832.606	2511
832.744	2629
832.883	2629
833.022	2640
833.16	2682
833.299	2674
833.437	2743
833.576	2769
833.714	2781
833.852	2758
833.991	2781
834.129	2853
834.267	2872
834.406	2823
834.544	2887
834.682	2895
834.821	2906
834.959	3127
835.097	2952
835.235	3104
835.373	3062
835.511	3047
835.65	3020
835.788	2975
835.926	2842
836.064	2883
836.202	2918
836.34	3123
836.478	3173
836.615	3051
836.753	3180
836.891	3249
837.029	3203
837.167	3142
837.305	3135
837.443	3055
837.58	3001
837.718	3180
837.856	3108
837.993	3093
838.131	3127
838.269	3123
838.406	3108
838.544	3142
838.681	2967
838.819	2933
838.956	2861
839.094	2906
839.231	2937
839.369	3032
839.506	3389
839.643	3253
839.781	3100
839.918	3024
840.055	3093
840.193	3089
840.33	3089
840.467	3112
840.604	3173
840.742	3367
840.879	3055
841.016	3062
841.153	3192
841.29	3355
841.427	3272
841.564	3306
841.701	3332
841.838	3264
841.975	3230
842.112	3260
842.249	3100
842.385	3093
842.522	3298
842.659	3104
842.796	3116
842.933	3127
843.069	3055
843.206	3093
843.343	3195
843.479	3116
843.616	3169
843.752	2868
843.889	2883
844.025	3112
844.162	2941
844.298	3142
844.435	2990
844.571	2933
844.708	3127
844.844	3199
844.98	3264
845.117	3237
845.253	3116
845.389	3051
845.525	3112
845.661	3150
845.798	3058
845.934	3138
846.07	3062
846.206	3237
846.342	3348
846.478	3268
846.614	3104
846.75	3051
846.886	3062
847.022	3294
847.158	3203
847.294	3237
847.429	3256
847.565	3256
847.701	3523
847.837	3085
847.972	3005
848.108	3222
848.244	3218
848.379	3024
848.515	2998
848.65	2941
848.786	3017
848.921	3036
849.057	3161
849.192	3150
849.328	3062
849.463	3116
849.598	3055
849.734	3077
849.869	3009
850.004	2929
850.14	2990
850.275	2944
850.41	2849
850.545	2918
850.68	2941
850.815	2933
850.95	3020
851.085	3241
851.22	3131
851.355	3047
851.49	3013
851.625	2998
851.76	3028
851.895	2982
852.03	2910
852.165	3077
852.299	3138
852.434	3233
852.569	3169
852.703	3176
852.838	3268
852.973	3348
853.107	3321
853.242	3157
853.376	3070
853.511	2975
853.645	3081
853.78	3264
853.914	3165
854.048	3150
854.183	3127
854.317	3180
854.451	3321
854.585	3169
854.72	3154
854.854	3199
854.988	3058
855.122	3097
855.256	2971
855.39	3123
855.524	3233
855.658	3188
855.792	3203
855.926	3203
856.06	3237
856.194	3283
856.327	3203
856.461	3135
856.595	3066
856.729	3119
856.862	3245
856.996	3176
857.13	3241
857.263	3283
857.397	3287
857.53	3138
857.664	3226
857.797	3256
857.931	3302
858.064	3184
858.197	3279
858.331	3169
858.464	3116
858.597	3020
858.731	3135
858.864	3157
858.997	3085
859.13	3176
859.263	3195
859.396	3226
859.529	3093
859.662	3100
859.795	3043
859.928	3195
860.061	3287
860.194	3279
860.327	3135
860.46	3093
860.592	3268
860.725	3264
860.858	3306
860.99	3135
861.123	3100
861.256	3093
861.388	3165
861.521	3876
861.653	3013
861.786	2998
861.918	3005
862.05	3100
862.183	3104
862.315	3173
862.447	3218
862.58	3100
862.712	2979
862.844	2876
862.976	3074
863.108	3074
863.24	3359
863.372	2925
863.504	2990
863.636	2967
863.768	3032
863.9	3013
864.032	2937
864.164	2979
864.296	3043
864.428	3131
864.559	3135
864.691	3093
864.823	3135
864.954	3039
865.086	3055
865.217	2986
865.349	2944
865.48	3001
865.612	3043
865.743	3188
865.875	3020
866.006	2956
866.137	3005
866.269	3009
866.4	2967
866.531	2967
866.662	2914
866.793	2971
866.924	2941
867.055	3017
867.186	2975
867.317	2914
867.448	2853
867.579	2895
867.71	2864
867.841	2826
867.972	2948
868.103	2914
868.233	2918
868.364	2902
868.495	2910
868.625	3104
868.756	3218
868.886	3005
869.017	3013
869.147	3157
869.278	3188
869.408	3097
869.539	3047
869.669	3089
869.799	3104
869.929	3154
870.06	3116
870.19	3340
870.32	3313
870.45	3329
870.58	3397
870.71	3431
870.84	3500
870.97	3344
871.1	3272
871.23	3515
871.36	3477
871.489	3428
871.619	3424
871.749	3416
871.879	3466
872.008	3511
872.138	3378
872.267	3325
872.397	3165
872.526	3135
872.656	3024
872.785	3081
872.915	3241
873.044	3363
873.173	3253
873.303	3268
873.432	3310
873.561	3306
873.69	3180
873.819	3184
873.948	3233
874.077	3131
874.206	3066
874.335	3074
874.464	3237
874.593	3355
874.722	3275
874.851	3405
874.979	3389
875.108	3378
875.237	3241
875.365	3165
875.494	3157
875.623	3275
875.751	3081
875.88	3127
876.008	3169
876.136	3233
876.265	3397
876.393	3504
876.521	3466
876.65	3386
876.778	3340
876.906	3256
877.034	3207
877.162	3230
877.29	3233
877.418	3283
877.546	3268
877.674	3249
877.802	3249
877.93	3245
878.058	3192
878.185	3097
878.313	3154
878.441	3233
878.568	3085
878.696	3176
878.824	3264
878.951	3344
879.079	3462
879.206	3671
879.333	3469
879.461	3374
879.588	3370
879.715	3507
879.842	3629
879.97	3378
880.097	3203
880.224	3161
880.351	3180
880.478	3253
880.605	3203
880.732	3203
880.859	3504
880.986	3332
881.112	3348
881.239	3230
881.366	3097
881.493	3036
881.619	3020
881.746	3043
881.872	3127
881.999	3108
882.125	3180
882.252	3279
882.378	3359
882.505	3416
882.631	3310
882.757	3157
882.883	3226
883.01	3233
883.136	3146
883.262	3119
883.388	3150
883.514	3329
883.64	3386
883.766	3321
883.892	3169
884.018	3253
884.143	3435
884.269	3538
884.395	3222
884.52	3150
884.646	3180
884.772	3150
884.897	3131
885.023	3203
885.148	3344
885.274	3458
885.399	3348
885.524	3294
885.65	3313
885.775	3340
885.9	3256
886.025	3454
886.15	3389
886.275	3306
886.4	3260
886.525	3310
886.65	3329
886.775	3302
886.9	3507
887.025	3698
887.149	3405
887.274	3279
887.399	3195
887.523	3237
887.648	3222
887.773	3199
887.897	3397
888.021	3450
888.146	3329
888.27	3534
888.395	3515
888.519	3424
888.643	3488
888.767	3477
888.891	3332
889.015	3268
889.139	3321
889.263	3249
889.387	3420
889.511	3477
889.635	3500
889.759	3313
889.883	3298
890.006	3401
890.13	3485
890.254	3264
890.377	3393
890.501	3195
890.624	3218
890.748	3302
890.871	3199
890.995	3119
891.118	3081
891.241	3245
891.364	3264
891.488	3317
891.611	3214
891.734	3241
891.857	3287
891.98	3283
892.103	3363
892.226	3329
892.349	3226
892.471	3138
892.594	3222
892.717	3283
892.839	3272
892.962	3283
893.085	3389
893.207	3313
893.33	3180
893.452	3233
893.575	3363
893.697	3241
893.819	3466
893.941	3515
894.064	3469
894.186	3260
894.308	3302
894.43	3428
894.552	3587
894.674	3447
894.796	3302
894.918	3336
895.04	3302
895.161	3447
895.283	3435
895.405	3310
895.526	3370
895.648	3450
895.769	3435
895.891	3481
896.012	3462
896.134	3492
896.255	3409
896.376	3367
896.498	3378
896.619	3447
896.74	3393
896.861	3435
896.982	3690
897.103	3854
897.224	3572
897.345	3515
897.466	3443
897.587	3557
897.708	3633
897.828	3572
897.949	3420
898.07	3344
898.19	3393
898.311	3610
898.431	3450
898.552	3530
898.672	3610
898.792	3580
898.913	3553
899.033	3409
899.153	3336
899.273	3222
899.393	3313
899.513	3340
899.633	3317
899.753	3336
899.873	3332
899.993	3393
900.113	3336
900.232	3412
900.352	3355
900.472	3310
900.591	3207
900.711	3310
900.83	3256
900.95	3409
901.069	3500
901.189	3382
901.308	3188
901.427	3135
901.546	3211
901.665	3317
901.784	3363
901.904	3188
902.023	3146
902.141	3009
902.26	2998
902.379	3100
902.498	3104
902.617	3070
902.735	3253
902.854	3249
902.973	3214
903.091	3093
903.21	3039
903.328	3161
903.446	3119
903.565	3097
903.683	3184
903.801	3142
903.919	3211
904.038	3310
904.156	3176
904.274	3291
904.392	3283
904.51	3306
904.627	3348
904.745	3481
904.863	3500
904.981	3260
905.098	3195
905.216	3249
905.334	3317
905.451	3325
905.569	3313
905.686	3473
905.803	3481
905.921	3329
906.038	3409
906.155	3359
906.272	3279
906.389	3332
906.506	3249
906.623	3249
906.74	3260
906.857	3180
906.974	3283
907.091	3454
907.208	3595
907.324	3462
907.441	3397
907.557	3237
907.674	3253
907.79	3230
907.907	3294
908.023	3370
908.139	3409
908.256	3351
908.372	3348
908.488	3382
908.604	3260
908.72	3241
908.836	3332
908.952	3283
909.068	3325
909.184	3473
909.3	3363
909.415	3538
909.531	3496
909.647	3230
909.762	3302
909.878	3218
909.993	3374
910.108	3386
910.224	3336
910.339	3435
910.454	3321
910.57	3264
910.685	3253
910.8	3564
910.915	3549
911.03	3458
911.145	3287
911.259	3298
911.374	3332
911.489	3245
911.604	3233
911.718	3119
911.833	3131
911.947	3081
912.062	2979
912.176	3150
912.291	3226
912.405	3214
912.519	3435
912.633	3515
912.748	3382
912.862	3298
912.976	3203
913.09	3108
913.204	3150
913.318	3218
913.431	3317
913.545	3348
913.659	3431
913.772	3321
913.886	3241
914	3230
914.113	3374
914.226	3420
914.34	3409
914.453	3203
914.566	3397
914.68	3306
914.793	3332
914.906	3135
915.019	3161
915.132	3093
915.245	3154
915.358	3237
915.47	3184
915.583	3306
915.696	3306
915.809	3409
915.921	3409
916.034	3245
916.146	3291
916.259	3253
916.371	3348
916.483	3397
916.595	3283
916.708	3344
916.82	3306
916.932	3344
917.044	3355
917.156	3393
917.268	3287
917.38	3321
917.491	3291
917.603	3424
917.715	3424
917.826	3519
917.938	3428
918.049	3294
918.161	3466
918.272	3538
918.384	3591
918.495	3485
918.606	3348
918.717	3294
918.828	3370
918.939	3416
919.05	3298
919.161	3378
919.272	3192
919.383	3313
919.494	3485
919.604	3713
919.715	3515
919.826	3412
919.936	3485
920.047	3603
920.157	3561
920.267	3816
920.378	3633
920.488	3584
920.598	3823
920.708	3979
920.818	3831
920.928	3800
921.038	4044
921.148	4017
921.258	3720
921.368	3625
921.477	3641
921.587	3591
921.697	3450
921.806	3625
921.916	3504
922.025	3332
922.134	3370
922.244	3348
922.353	3416
922.462	3283
922.571	3226
922.68	3104
922.789	3108
922.898	3157
923.007	3116
923.116	3233
923.224	3184
923.333	3180
923.442	3127
923.55	3100
923.659	3165
923.767	3218
923.876	3131
923.984	3279
924.092	3112
924.201	3184
924.309	3203
924.417	3237
924.525	3161
924.633	3195
924.741	4154
924.849	3024
924.956	3272
925.064	3104
925.172	2990
925.279	3135
925.387	3203
925.494	3180
925.602	3389
925.709	3306
925.816	3154
925.924	3237
926.031	3401
926.138	3294
926.245	3374
926.352	3256
926.459	3378
926.566	3458
926.673	3336
926.779	3237
926.886	3260
926.993	3150
927.099	3154
927.206	3104
927.312	3097
927.419	3226
927.525	3184
927.631	3260
927.737	3161
927.843	3154
927.95	3077
928.056	3146
928.162	3150
928.267	3268
928.373	3755
928.479	3363
928.585	3085
928.69	3214
928.796	3279
928.901	3146
929.007	3051
929.112	3169
929.218	3154
929.323	3161
929.428	3138
929.533	3317
929.638	3119
929.743	3195
929.848	3268
929.953	3218
930.058	3184
930.163	3024
930.267	3043
930.372	3211
930.477	3032
930.581	3310
930.685	3157
930.79	3081
930.894	3127
930.998	3138
931.103	3275
931.207	2956
931.311	2948
931.415	2922
931.519	2750
931.623	2823
