Data from test_V78500241_1881.txt Node
Date: Fri Mar 25 16:28:14 CST 2022
User: usil
Spectrometer: V785-0024
Trigger mode: 0
Integration Time (sec): 4.000000E-1
Scans to average: 1
Nonlinearity correction enabled: false
Boxcar width: 0
Storing dark spectrum: false
XAxis mode: Wavelengths
Number of Pixels in Spectrum: 1024
>>>>>Begin Spectral Data<<<<<
801.071	2899
801.214	2941
801.356	2899
801.499	2887
801.641	2902
801.783	2914
801.926	3020
802.068	2998
802.211	3001
802.353	3032
802.496	2960
802.638	3005
802.78	3047
802.923	3039
803.065	3009
803.208	2918
803.35	2902
803.492	2918
803.635	2910
803.777	2758
803.919	2868
804.061	3195
804.204	2971
804.346	2925
804.488	2845
804.63	3028
804.773	2895
804.915	2941
805.057	3097
805.199	2899
805.341	2982
805.483	3032
805.626	2971
805.768	2960
805.91	3123
806.052	3112
806.194	3051
806.336	3230
806.478	3020
806.62	2944
806.762	2941
806.904	3039
807.046	3199
807.188	3017
807.33	2914
807.472	3024
807.614	2925
807.756	2998
807.898	2925
808.04	2918
808.182	2971
808.324	2971
808.465	2895
808.607	2868
808.749	2804
808.891	2872
809.033	2979
809.174	2963
809.316	2880
809.458	2910
809.6	2785
809.741	2754
809.883	2750
810.025	2804
810.166	2853
810.308	2849
810.45	2830
810.591	2819
810.733	2777
810.875	2834
811.016	2796
811.158	2766
811.299	2826
811.441	2902
811.582	2887
811.724	2800
811.865	2838
812.007	2925
812.148	2902
812.29	2876
812.431	2864
812.573	2956
812.714	3009
812.855	3047
812.997	3051
813.138	3116
813.279	3017
813.421	2979
813.562	2990
813.703	2864
813.845	2899
813.986	2777
814.127	2735
814.268	2830
814.41	2845
814.551	2807
814.692	2880
814.833	2823
814.974	2891
815.115	2986
815.256	2819
815.397	2838
815.539	2883
815.68	2766
815.821	2777
815.962	2941
816.103	2914
816.244	2872
816.385	2838
816.526	2967
816.666	2937
816.807	2739
816.948	2925
817.089	2906
817.23	2826
817.371	2788
817.512	2804
817.653	2823
817.793	2834
817.934	2872
818.075	2994
818.216	3020
818.356	3020
818.497	2929
818.638	2804
818.778	2781
818.919	2823
819.06	2746
819.2	2857
819.341	2823
819.481	2800
819.622	2941
819.762	3085
819.903	3043
820.043	2929
820.184	2918
820.324	2937
820.465	3001
820.605	3051
820.746	3036
820.886	2906
821.026	3112
821.167	3161
821.307	3260
821.447	3272
821.588	3260
821.728	3207
821.868	3195
822.008	3093
822.149	3207
822.289	3195
822.429	3097
822.569	3104
822.709	3169
822.849	3058
822.99	3051
823.13	3195
823.27	3173
823.41	3119
823.55	3176
823.69	3123
823.83	3199
823.97	3089
824.11	3028
824.25	2971
824.389	3062
824.529	3085
824.669	3112
824.809	3245
824.949	3264
825.089	3222
825.228	3138
825.368	3001
825.508	2933
825.648	2975
825.787	3028
825.927	3009
826.067	2952
826.206	2963
826.346	3062
826.485	3085
826.625	3116
826.765	3249
826.904	3184
827.044	2963
827.183	2952
827.323	2815
827.462	3005
827.601	2918
827.741	2956
827.88	2960
828.02	2842
828.159	2941
828.298	3020
828.437	3119
828.577	2982
828.716	3222
828.855	3081
828.994	2922
829.134	2914
829.273	2922
829.412	2853
829.551	2838
829.69	2929
829.829	2979
829.968	3127
830.107	3017
830.246	3051
830.385	2914
830.524	2876
830.663	2823
830.802	2708
830.941	2640
831.08	2610
831.219	2750
831.357	2758
831.496	2941
831.635	2708
831.774	2651
831.913	2644
832.051	2564
832.19	2575
832.329	2670
832.467	2549
832.606	2484
832.744	2560
832.883	2579
833.022	2537
833.16	2644
833.299	2686
833.437	2705
833.576	2674
833.714	2708
833.852	2743
833.991	2739
834.129	2838
834.267	2826
834.406	2807
834.544	2842
834.682	2895
834.821	2834
834.959	3093
835.097	2895
835.235	3055
835.373	3005
835.511	2994
835.65	2956
835.788	2971
835.926	2838
836.064	2811
836.202	2823
836.34	3085
836.478	3154
836.615	3001
836.753	3127
836.891	3211
837.029	3127
837.167	3104
837.305	3062
837.443	3039
837.58	2975
837.718	3123
837.856	3070
837.993	3043
838.131	3074
838.269	3089
838.406	3039
838.544	3119
838.681	2929
838.819	2941
838.956	2807
839.094	2838
839.231	2910
839.369	3013
839.506	3348
839.643	3195
839.781	3009
839.918	2937
840.055	3028
840.193	3028
840.33	3055
840.467	3100
840.604	3142
840.742	3397
840.879	3013
841.016	3020
841.153	3093
841.29	3332
841.427	3256
841.564	3241
841.701	3310
841.838	3230
841.975	3195
842.112	3249
842.249	3074
842.385	3013
842.522	3249
842.659	3081
842.796	3043
842.933	3093
843.069	3047
843.206	3032
843.343	3176
843.479	3070
843.616	3127
843.752	2925
843.889	2823
844.025	3074
844.162	2861
844.298	3055
844.435	2933
844.571	2895
844.708	3066
844.844	3150
844.98	3211
845.117	3207
845.253	3005
845.389	3001
845.525	3093
845.661	3112
845.798	2994
845.934	3089
846.07	3058
846.206	3207
846.342	3317
846.478	3211
846.614	3097
846.75	3058
846.886	3005
847.022	3211
847.158	3138
847.294	3176
847.429	3256
847.565	3207
847.701	3439
847.837	3032
847.972	2982
848.108	3116
848.244	3108
848.379	3005
848.515	2899
848.65	2941
848.786	2925
848.921	3020
849.057	3085
849.192	3112
849.328	3032
849.463	3066
849.598	3039
849.734	3028
849.869	2979
850.004	2918
850.14	2998
850.275	2918
850.41	2823
850.545	2845
850.68	2941
850.815	2986
850.95	2952
851.085	3180
851.22	3108
851.355	2986
851.49	2998
851.625	2975
851.76	2998
851.895	2941
852.03	2899
852.165	3047
852.299	3119
852.434	3184
852.569	3146
852.703	3161
852.838	3253
852.973	3348
853.107	3321
853.242	3135
853.376	3127
853.511	2979
853.645	3070
853.78	3222
853.914	3112
854.048	3123
854.183	3089
854.317	3127
854.451	3287
854.585	3093
854.72	3097
854.854	3230
854.988	3017
855.122	3085
855.256	2975
855.39	3112
855.524	3230
855.658	3165
855.792	3146
855.926	3203
856.06	3218
856.194	3237
856.327	3146
856.461	3077
856.595	3058
856.729	3097
856.862	3222
856.996	3188
857.13	3192
857.263	3207
857.397	3291
857.53	3135
857.664	3184
857.797	3222
857.931	3241
858.064	3135
858.197	3241
858.331	3100
858.464	3081
858.597	3024
858.731	3116
858.864	3142
858.997	3055
859.13	3169
859.263	3188
859.396	3157
859.529	3081
859.662	3066
859.795	3077
859.928	3127
860.061	3268
860.194	3272
860.327	3112
860.46	3093
860.592	3253
860.725	3230
860.858	3268
860.99	3119
861.123	3074
861.256	3043
861.388	3154
861.521	3823
861.653	3036
861.786	2960
861.918	2948
862.05	3039
862.183	3043
862.315	3135
862.447	3180
862.58	3074
862.712	2941
862.844	2845
862.976	3005
863.108	3005
863.24	3317
863.372	2883
863.504	2933
863.636	2937
863.768	3009
863.9	2960
864.032	2914
864.164	2922
864.296	3043
864.428	3100
864.559	3070
864.691	3085
864.823	3089
864.954	3047
865.086	3009
865.217	2998
865.349	2960
865.48	3013
865.612	3017
865.743	3157
865.875	2963
866.006	2967
866.137	2944
866.269	2937
866.4	2922
866.531	2910
866.662	2910
866.793	2891
866.924	2883
867.055	3005
867.186	2937
867.317	2815
867.448	2823
867.579	2857
867.71	2842
867.841	2796
867.972	2861
868.103	2876
868.233	2887
868.364	2899
868.495	2902
868.625	3066
868.756	3165
868.886	2963
869.017	2956
869.147	3157
869.278	3161
869.408	3055
869.539	2994
869.669	3089
869.799	3039
869.929	3142
870.06	3108
870.19	3302
870.32	3287
870.45	3279
870.58	3374
870.71	3485
870.84	3416
870.97	3275
871.1	3260
871.23	3507
871.36	3462
871.489	3310
871.619	3412
871.749	3409
871.879	3431
872.008	3496
872.138	3329
872.267	3260
872.397	3119
872.526	3127
872.656	3043
872.785	3077
872.915	3214
873.044	3310
873.173	3203
873.303	3249
873.432	3260
873.561	3226
873.69	3157
873.819	3108
873.948	3211
874.077	3058
874.206	3028
874.335	3093
874.464	3188
874.593	3355
874.722	3214
874.851	3386
874.979	3355
875.108	3329
875.237	3169
875.365	3192
875.494	3180
875.623	3249
875.751	3070
875.88	3127
876.008	3150
876.136	3195
876.265	3367
876.393	3504
876.521	3401
876.65	3367
876.778	3313
876.906	3226
877.034	3188
877.162	3218
877.29	3169
877.418	3272
877.546	3245
877.674	3264
877.802	3241
877.93	3211
878.058	3154
878.185	3093
878.313	3207
878.441	3218
878.568	3066
878.696	3154
878.824	3237
878.951	3302
879.079	3504
879.206	3614
879.333	3443
879.461	3348
879.588	3310
879.715	3519
879.842	3637
879.97	3378
880.097	3161
880.224	3138
880.351	3203
880.478	3253
880.605	3222
880.732	3184
880.859	3519
880.986	3325
881.112	3336
881.239	3192
881.366	3100
881.493	2998
881.619	3024
881.746	3089
881.872	3074
881.999	3142
882.125	3108
882.252	3253
882.378	3226
882.505	3431
882.631	3302
882.757	3135
882.883	3241
883.01	3230
883.136	3173
883.262	3104
883.388	3154
883.514	3336
883.64	3412
883.766	3313
883.892	3218
884.018	3256
884.143	3443
884.269	3538
884.395	3169
884.52	3157
884.646	3188
884.772	3138
884.897	3142
885.023	3218
885.148	3306
885.274	3401
885.399	3336
885.524	3317
885.65	3245
885.775	3317
885.9	3237
886.025	3447
886.15	3283
886.275	3344
886.4	3241
886.525	3321
886.65	3233
886.775	3279
886.9	3443
887.025	3606
887.149	3389
887.274	3249
887.399	3142
887.523	3195
887.648	3192
887.773	3192
887.897	3351
888.021	3416
888.146	3317
888.27	3416
888.395	3523
888.519	3443
888.643	3424
888.767	3420
888.891	3321
889.015	3253
889.139	3272
889.263	3264
889.387	3393
889.511	3507
889.635	3424
889.759	3306
889.883	3298
890.006	3393
890.13	3519
890.254	3272
890.377	3321
890.501	3173
890.624	3157
890.748	3279
890.871	3161
890.995	3093
891.118	3047
891.241	3161
891.364	3207
891.488	3313
891.611	3199
891.734	3241
891.857	3329
891.98	3237
892.103	3306
892.226	3268
892.349	3226
892.471	3104
892.594	3241
892.717	3287
892.839	3249
892.962	3287
893.085	3351
893.207	3253
893.33	3142
893.452	3207
893.575	3332
893.697	3256
893.819	3450
893.941	3507
894.064	3443
894.186	3294
894.308	3287
894.43	3447
894.552	3523
894.674	3450
894.796	3237
894.918	3317
895.04	3256
895.161	3401
895.283	3401
895.405	3340
895.526	3378
895.648	3393
895.769	3447
895.891	3424
896.012	3469
896.134	3458
896.255	3389
896.376	3363
896.498	3370
896.619	3386
896.74	3355
896.861	3386
896.982	3686
897.103	3823
897.224	3542
897.345	3500
897.466	3409
897.587	3523
897.708	3614
897.828	3557
897.949	3424
898.07	3325
898.19	3409
898.311	3625
898.431	3450
898.552	3496
898.672	3545
898.792	3584
898.913	3515
899.033	3359
899.153	3287
899.273	3237
899.393	3283
899.513	3283
899.633	3291
899.753	3351
899.873	3325
899.993	3389
900.113	3336
900.232	3359
900.352	3332
900.472	3260
900.591	3188
900.711	3310
900.83	3241
900.95	3401
901.069	3477
901.189	3313
901.308	3199
901.427	3108
901.546	3184
901.665	3332
901.784	3317
901.904	3207
902.023	3150
902.141	3024
902.26	2963
902.379	3154
902.498	3055
902.617	3062
902.735	3188
902.854	3226
902.973	3188
903.091	3001
903.21	3089
903.328	3146
903.446	3108
903.565	3077
903.683	3199
903.801	3131
903.919	3256
904.038	3291
904.156	3157
904.274	3291
904.392	3256
904.51	3279
904.627	3313
904.745	3481
904.863	3481
904.981	3287
905.098	3161
905.216	3188
905.334	3313
905.451	3302
905.569	3306
905.686	3458
905.803	3401
905.921	3325
906.038	3393
906.155	3363
906.272	3310
906.389	3275
906.506	3195
906.623	3272
906.74	3279
906.857	3199
906.974	3241
907.091	3389
907.208	3530
907.324	3405
907.441	3367
907.557	3218
907.674	3203
907.79	3199
907.907	3268
908.023	3370
908.139	3378
908.256	3336
908.372	3363
908.488	3393
908.604	3268
908.72	3214
908.836	3298
908.952	3279
909.068	3317
909.184	3485
909.3	3363
909.415	3511
909.531	3469
909.647	3256
909.762	3302
909.878	3272
909.993	3363
910.108	3321
910.224	3332
910.339	3412
910.454	3355
910.57	3310
910.685	3245
910.8	3599
910.915	3557
911.03	3458
911.145	3302
911.259	3268
911.374	3332
911.489	3298
911.604	3268
911.718	3135
911.833	3176
911.947	3043
912.062	2967
912.176	3131
912.291	3180
912.405	3199
912.519	3443
912.633	3477
912.748	3287
912.862	3264
912.976	3157
913.09	3032
913.204	3131
913.318	3226
913.431	3313
913.545	3332
913.659	3401
913.772	3348
913.886	3233
914	3214
914.113	3370
914.226	3405
914.34	3351
914.453	3188
914.566	3389
914.68	3256
914.793	3317
914.906	3146
915.019	3100
915.132	3047
915.245	3180
915.358	3188
915.47	3237
915.583	3226
915.696	3272
915.809	3378
915.921	3420
916.034	3272
916.146	3253
916.259	3222
916.371	3348
916.483	3336
916.595	3256
916.708	3344
916.82	3325
916.932	3348
917.044	3355
917.156	3348
917.268	3226
917.38	3294
917.491	3313
917.603	3386
917.715	3462
917.826	3466
917.938	3424
918.049	3256
918.161	3431
918.272	3572
918.384	3557
918.495	3500
918.606	3317
918.717	3264
918.828	3363
918.939	3370
919.05	3302
919.161	3382
919.272	3135
919.383	3260
919.494	3511
919.604	3656
919.715	3466
919.826	3439
919.936	3431
920.047	3599
920.157	3587
920.267	3747
920.378	3580
920.488	3549
920.598	3812
920.708	3941
920.818	3778
920.928	3823
921.038	4021
921.148	3934
921.258	3682
921.368	3633
921.477	3584
921.587	3523
921.697	3492
921.806	3610
921.916	3542
922.025	3332
922.134	3340
922.244	3317
922.353	3397
922.462	3275
922.571	3207
922.68	3135
922.789	3081
922.898	3104
923.007	3112
923.116	3214
923.224	3157
923.333	3157
923.442	3112
923.55	3058
923.659	3119
923.767	3237
923.876	3138
923.984	3279
924.092	3089
924.201	3256
924.309	3184
924.417	3260
924.525	3169
924.633	3233
924.741	4013
924.849	3062
924.956	3279
925.064	3077
925.172	3047
925.279	3077
925.387	3218
925.494	3203
925.602	3351
925.709	3359
925.816	3184
925.924	3260
926.031	3389
926.138	3279
926.245	3351
926.352	3249
926.459	3401
926.566	3458
926.673	3310
926.779	3253
926.886	3241
926.993	3176
927.099	3112
927.206	3146
927.312	3131
927.419	3237
927.525	3214
927.631	3275
927.737	3119
927.843	3100
927.95	3043
928.056	3123
928.162	3180
928.267	3237
928.373	3812
928.479	3325
928.585	3058
928.69	3211
928.796	3279
928.901	3184
929.007	3051
929.112	3199
929.218	3173
929.323	3123
929.428	3184
929.533	3298
929.638	3123
929.743	3157
929.848	3249
929.953	3199
930.058	3123
930.163	2975
930.267	3013
930.372	3218
930.477	3039
930.581	3325
930.685	3180
930.79	3066
930.894	3119
930.998	3119
931.103	3268
931.207	2963
931.311	2963
931.415	2941
931.519	2769
931.623	2796
