Data from test_V78500241_486.txt Node
Date: Fri Mar 25 16:18:34 CST 2022
User: usil
Spectrometer: V785-0024
Trigger mode: 0
Integration Time (sec): 4.000000E-1
Scans to average: 1
Nonlinearity correction enabled: false
Boxcar width: 0
Storing dark spectrum: false
XAxis mode: Wavelengths
Number of Pixels in Spectrum: 1024
>>>>>Begin Spectral Data<<<<<
801.071	2891
801.214	2918
801.356	2853
801.499	2895
801.641	2849
801.783	2971
801.926	3062
802.068	2990
802.211	2979
802.353	3047
802.496	2956
802.638	3028
802.78	3058
802.923	3051
803.065	3039
803.208	2895
803.35	2918
803.492	2895
803.635	2933
803.777	2746
803.919	2842
804.061	3199
804.204	2929
804.346	2918
804.488	2830
804.63	2994
804.773	2887
804.915	2891
805.057	3081
805.199	2929
805.341	2971
805.483	2986
805.626	3017
805.768	2960
805.91	3055
806.052	3119
806.194	3051
806.336	3237
806.478	3039
806.62	2937
806.762	2948
806.904	3051
807.046	3150
807.188	2948
807.33	2922
807.472	2975
807.614	2902
807.756	2967
807.898	2929
808.04	2922
808.182	2998
808.324	2933
808.465	2872
808.607	2899
808.749	2796
808.891	2857
809.033	2975
809.174	2941
809.316	2868
809.458	2895
809.6	2769
809.741	2754
809.883	2773
810.025	2853
810.166	2842
810.308	2864
810.45	2834
810.591	2773
810.733	2769
810.875	2849
811.016	2777
811.158	2735
811.299	2826
811.441	2910
811.582	2902
811.724	2811
811.865	2834
812.007	2910
812.148	2876
812.29	2834
812.431	2895
812.573	2944
812.714	2952
812.855	3070
812.997	3055
813.138	3116
813.279	2971
813.421	2979
813.562	2979
813.703	2876
813.845	2922
813.986	2766
814.127	2743
814.268	2796
814.41	2807
814.551	2849
814.692	2902
814.833	2842
814.974	2941
815.115	2967
815.256	2861
815.397	2811
815.539	2902
815.68	2773
815.821	2785
815.962	2952
816.103	2937
816.244	2872
816.385	2880
816.526	2975
816.666	2925
816.807	2773
816.948	2899
817.089	2880
817.23	2826
817.371	2804
817.512	2773
817.653	2842
817.793	2845
817.934	2887
818.075	2948
818.216	2990
818.356	3024
818.497	2876
818.638	2807
818.778	2796
818.919	2788
819.06	2743
819.2	2845
819.341	2830
819.481	2800
819.622	2914
819.762	3085
819.903	3066
820.043	2975
820.184	2864
820.324	2876
820.465	2986
820.605	3005
820.746	2994
820.886	2910
821.026	3070
821.167	3165
821.307	3256
821.447	3241
821.588	3241
821.728	3203
821.868	3180
822.008	3074
822.149	3173
822.289	3230
822.429	3104
822.569	3047
822.709	3218
822.849	3039
822.99	3028
823.13	3154
823.27	3184
823.41	3119
823.55	3135
823.69	3150
823.83	3241
823.97	3154
824.11	2986
824.25	3005
824.389	3043
824.529	3104
824.669	3047
824.809	3195
824.949	3260
825.089	3233
825.228	3161
825.368	2971
825.508	2952
825.648	2952
825.787	3020
825.927	3043
826.067	3017
826.206	2944
826.346	3024
826.485	3058
826.625	3085
826.765	3264
826.904	3199
827.044	2994
827.183	2929
827.323	2880
827.462	2971
827.601	2914
827.741	2937
827.88	2929
828.02	2864
828.159	2937
828.298	3070
828.437	3112
828.577	3074
828.716	3253
828.855	3085
828.994	2925
829.134	2872
829.273	2872
829.412	2857
829.551	2830
829.69	2910
829.829	2982
829.968	3146
830.107	3009
830.246	3017
830.385	2910
830.524	2883
830.663	2811
830.802	2750
830.941	2651
831.08	2640
831.219	2739
831.357	2758
831.496	2960
831.635	2708
831.774	2636
831.913	2636
832.051	2541
832.19	2579
832.329	2655
832.467	2495
832.606	2507
832.744	2556
832.883	2571
833.022	2587
833.16	2670
833.299	2697
833.437	2655
833.576	2686
833.714	2712
833.852	2758
833.991	2758
834.129	2807
834.267	2849
834.406	2788
834.544	2819
834.682	2910
834.821	2842
834.959	3085
835.097	2895
835.235	3062
835.373	2990
835.511	3013
835.65	2918
835.788	2952
835.926	2830
836.064	2811
836.202	2838
836.34	3043
836.478	3165
836.615	3039
836.753	3116
836.891	3180
837.029	3127
837.167	3135
837.305	3036
837.443	3039
837.58	2929
837.718	3112
837.856	3062
837.993	3032
838.131	3127
838.269	3112
838.406	3097
838.544	3051
838.681	2948
838.819	2922
838.956	2823
839.094	2807
839.231	2922
839.369	3013
839.506	3340
839.643	3233
839.781	2998
839.918	2933
840.055	3058
840.193	3055
840.33	3009
840.467	3127
840.604	3131
840.742	3382
840.879	3062
841.016	3062
841.153	3131
841.29	3317
841.427	3291
841.564	3192
841.701	3279
841.838	3233
841.975	3157
842.112	3169
842.249	3043
842.385	3032
842.522	3222
842.659	3100
842.796	3036
842.933	3081
843.069	3013
843.206	3062
843.343	3192
843.479	3104
843.616	3135
843.752	2891
843.889	2819
844.025	3066
844.162	2872
844.298	3077
844.435	2937
844.571	2899
844.708	3081
844.844	3214
844.98	3218
845.117	3192
845.253	3047
845.389	3017
845.525	3119
845.661	3104
845.798	2979
845.934	3100
846.07	3043
846.206	3222
846.342	3321
846.478	3195
846.614	3123
846.75	3055
846.886	2975
847.022	3245
847.158	3127
847.294	3184
847.429	3230
847.565	3188
847.701	3462
847.837	3020
847.972	2979
848.108	3165
848.244	3161
848.379	2986
848.515	2956
848.65	2933
848.786	2971
848.921	3017
849.057	3119
849.192	3150
849.328	3039
849.463	3135
849.598	3070
849.734	3039
849.869	2975
850.004	2918
850.14	2952
850.275	2876
850.41	2838
850.545	2872
850.68	2914
850.815	2925
850.95	2944
851.085	3195
851.22	3089
851.355	2990
851.49	2994
851.625	2990
851.76	3020
851.895	2956
852.03	2929
852.165	3005
852.299	3077
852.434	3154
852.569	3154
852.703	3154
852.838	3233
852.973	3367
853.107	3321
853.242	3157
853.376	3051
853.511	2963
853.645	3028
853.78	3256
853.914	3150
854.048	3112
854.183	3028
854.317	3146
854.451	3275
854.585	3123
854.72	3097
854.854	3211
854.988	3055
855.122	3074
855.256	2982
855.39	3081
855.524	3256
855.658	3146
855.792	3154
855.926	3184
856.06	3226
856.194	3275
856.327	3135
856.461	3077
856.595	3070
856.729	3089
856.862	3230
856.996	3192
857.13	3199
857.263	3230
857.397	3272
857.53	3127
857.664	3207
857.797	3233
857.931	3241
858.064	3157
858.197	3233
858.331	3077
858.464	3123
858.597	2990
858.731	3104
858.864	3138
858.997	3077
859.13	3165
859.263	3169
859.396	3199
859.529	3055
859.662	3074
859.795	3062
859.928	3131
860.061	3306
860.194	3245
860.327	3154
860.46	3097
860.592	3199
860.725	3268
860.858	3230
860.99	3116
861.123	3043
861.256	3085
861.388	3165
861.521	3869
861.653	3017
861.786	3028
861.918	3013
862.05	3036
862.183	3058
862.315	3188
862.447	3188
862.58	3077
862.712	2952
862.844	2883
862.976	3062
863.108	2990
863.24	3332
863.372	2891
863.504	2937
863.636	2952
863.768	3009
863.9	2960
864.032	2914
864.164	2933
864.296	2982
864.428	3043
864.559	3089
864.691	3100
864.823	3043
864.954	3062
865.086	3024
865.217	2982
865.349	2967
865.48	2971
865.612	2986
865.743	3097
865.875	2960
866.006	2948
866.137	3005
866.269	2918
866.4	2941
866.531	2902
866.662	2887
866.793	2887
866.924	2853
867.055	2967
867.186	2918
867.317	2868
867.448	2842
867.579	2868
867.71	2826
867.841	2861
867.972	2899
868.103	2902
868.233	2891
868.364	2895
868.495	2876
868.625	3093
868.756	3154
868.886	2922
869.017	3005
869.147	3169
869.278	3169
869.408	3009
869.539	3039
869.669	3066
869.799	3020
869.929	3154
870.06	3062
870.19	3325
870.32	3260
870.45	3302
870.58	3355
870.71	3412
870.84	3424
870.97	3306
871.1	3188
871.23	3450
871.36	3416
871.489	3378
871.619	3409
871.749	3386
871.879	3428
872.008	3473
872.138	3374
872.267	3264
872.397	3173
872.526	3108
872.656	2979
872.785	3089
872.915	3241
873.044	3291
873.173	3241
873.303	3260
873.432	3249
873.561	3237
873.69	3138
873.819	3119
873.948	3176
874.077	3081
874.206	3051
874.335	3081
874.464	3211
874.593	3355
874.722	3222
874.851	3355
874.979	3370
875.108	3310
875.237	3184
875.365	3146
875.494	3169
875.623	3207
875.751	3081
875.88	3146
876.008	3188
876.136	3226
876.265	3397
876.393	3485
876.521	3397
876.65	3386
876.778	3332
876.906	3222
877.034	3218
877.162	3199
877.29	3165
877.418	3245
877.546	3245
877.674	3241
877.802	3237
877.93	3233
878.058	3142
878.185	3062
878.313	3192
878.441	3230
878.568	3093
878.696	3157
878.824	3237
878.951	3310
879.079	3428
879.206	3633
879.333	3420
879.461	3348
879.588	3344
879.715	3473
879.842	3599
879.97	3321
880.097	3161
880.224	3146
880.351	3203
880.478	3222
880.605	3169
880.732	3119
880.859	3526
880.986	3298
881.112	3287
881.239	3195
881.366	3047
881.493	3058
881.619	3024
881.746	3058
881.872	3081
881.999	3104
882.125	3123
882.252	3237
882.378	3275
882.505	3462
882.631	3287
882.757	3142
882.883	3241
883.01	3207
883.136	3180
883.262	3058
883.388	3142
883.514	3332
883.64	3401
883.766	3275
883.892	3154
884.018	3268
884.143	3409
884.269	3511
884.395	3188
884.52	3154
884.646	3176
884.772	3135
884.897	3085
885.023	3218
885.148	3329
885.274	3389
885.399	3321
885.524	3241
885.65	3233
885.775	3291
885.9	3264
886.025	3447
886.15	3317
886.275	3272
886.4	3233
886.525	3294
886.65	3264
886.775	3268
886.9	3485
887.025	3614
887.149	3367
887.274	3218
887.399	3188
887.523	3195
887.648	3165
887.773	3211
887.897	3359
888.021	3409
888.146	3310
888.27	3431
888.395	3519
888.519	3424
888.643	3435
888.767	3450
888.891	3302
889.015	3226
889.139	3260
889.263	3211
889.387	3409
889.511	3511
889.635	3450
889.759	3275
889.883	3294
890.006	3359
890.13	3439
890.254	3302
890.377	3367
890.501	3195
890.624	3165
890.748	3302
890.871	3169
890.995	3093
891.118	3070
891.241	3207
891.364	3188
891.488	3264
891.611	3173
891.734	3222
891.857	3268
891.98	3249
892.103	3344
892.226	3275
892.349	3218
892.471	3097
892.594	3253
892.717	3283
892.839	3245
892.962	3253
893.085	3359
893.207	3294
893.33	3131
893.452	3195
893.575	3310
893.697	3264
893.819	3420
893.941	3511
894.064	3412
894.186	3233
894.308	3264
894.43	3466
894.552	3507
894.674	3447
894.796	3302
894.918	3291
895.04	3317
895.161	3397
895.283	3378
895.405	3291
895.526	3382
895.648	3409
895.769	3416
895.891	3447
896.012	3485
896.134	3462
896.255	3462
896.376	3351
896.498	3420
896.619	3424
896.74	3351
896.861	3393
896.982	3686
897.103	3808
897.224	3564
897.345	3500
897.466	3412
897.587	3469
897.708	3622
897.828	3572
897.949	3458
898.07	3321
898.19	3370
898.311	3557
898.431	3462
898.552	3545
898.672	3648
898.792	3591
898.913	3496
899.033	3374
899.153	3298
899.273	3214
899.393	3298
899.513	3306
899.633	3317
899.753	3332
899.873	3294
899.993	3355
900.113	3344
900.232	3374
900.352	3325
900.472	3294
900.591	3165
900.711	3268
900.83	3207
900.95	3416
901.069	3511
901.189	3313
901.308	3188
901.427	3161
901.546	3188
901.665	3302
901.784	3325
901.904	3218
902.023	3123
902.141	3009
902.26	3013
902.379	3119
902.498	3070
902.617	3077
902.735	3192
902.854	3188
902.973	3203
903.091	2990
903.21	3062
903.328	3135
903.446	3062
903.565	3108
903.683	3157
903.801	3093
903.919	3226
904.038	3321
904.156	3165
904.274	3291
904.392	3268
904.51	3275
904.627	3317
904.745	3416
904.863	3504
904.981	3264
905.098	3142
905.216	3222
905.334	3298
905.451	3325
905.569	3302
905.686	3389
905.803	3447
905.921	3260
906.038	3409
906.155	3344
906.272	3279
906.389	3348
906.506	3161
906.623	3245
906.74	3245
906.857	3188
906.974	3253
907.091	3439
907.208	3545
907.324	3443
907.441	3389
907.557	3241
907.674	3184
907.79	3203
907.907	3268
908.023	3401
908.139	3332
908.256	3359
908.372	3355
908.488	3313
908.604	3275
908.72	3211
908.836	3291
908.952	3275
909.068	3348
909.184	3454
909.3	3386
909.415	3462
909.531	3477
909.647	3287
909.762	3264
909.878	3264
909.993	3389
910.108	3325
910.224	3317
910.339	3416
910.454	3325
910.57	3302
910.685	3287
910.8	3599
910.915	3519
911.03	3431
911.145	3245
911.259	3230
911.374	3344
911.489	3249
911.604	3249
911.718	3142
911.833	3154
911.947	3005
912.062	2967
912.176	3135
912.291	3157
912.405	3218
912.519	3447
912.633	3507
912.748	3313
912.862	3268
912.976	3226
913.09	3047
913.204	3135
913.318	3218
913.431	3348
913.545	3321
913.659	3393
913.772	3313
913.886	3233
914	3211
914.113	3317
914.226	3431
914.34	3355
914.453	3169
914.566	3393
914.68	3291
914.793	3329
914.906	3154
915.019	3127
915.132	3081
915.245	3169
915.358	3230
915.47	3241
915.583	3218
915.696	3302
915.809	3397
915.921	3409
916.034	3268
916.146	3272
916.259	3192
916.371	3401
916.483	3370
916.595	3275
916.708	3363
916.82	3317
916.932	3351
917.044	3336
917.156	3348
917.268	3287
917.38	3321
917.491	3291
917.603	3359
917.715	3466
917.826	3447
917.938	3397
918.049	3291
918.161	3424
918.272	3568
918.384	3526
918.495	3488
918.606	3386
918.717	3298
918.828	3370
918.939	3393
919.05	3302
919.161	3351
919.272	3146
919.383	3302
919.494	3504
919.604	3682
919.715	3492
919.826	3386
919.936	3462
920.047	3584
920.157	3576
920.267	3781
920.378	3629
920.488	3595
920.598	3781
920.708	3915
920.818	3827
920.928	3838
921.038	4002
921.148	3983
921.258	3705
921.368	3618
921.477	3587
921.587	3564
921.697	3431
921.806	3663
921.916	3511
922.025	3367
922.134	3370
922.244	3321
922.353	3420
922.462	3245
922.571	3203
922.68	3077
922.789	3085
922.898	3123
923.007	3089
923.116	3188
923.224	3173
923.333	3180
923.442	3085
923.55	3131
923.659	3119
923.767	3233
923.876	3093
923.984	3222
924.092	3062
924.201	3199
924.309	3184
924.417	3249
924.525	3173
924.633	3226
924.741	4029
924.849	3036
924.956	3256
925.064	3100
925.172	3066
925.279	3142
925.387	3161
925.494	3226
925.602	3374
925.709	3355
925.816	3214
925.924	3298
926.031	3329
926.138	3313
926.245	3370
926.352	3218
926.459	3393
926.566	3481
926.673	3313
926.779	3279
926.886	3264
926.993	3150
927.099	3154
927.206	3108
927.312	3108
927.419	3218
927.525	3241
927.631	3253
927.737	3131
927.843	3123
927.95	3017
928.056	3123
928.162	3165
928.267	3245
928.373	3762
928.479	3306
928.585	3032
928.69	3199
928.796	3256
928.901	3161
929.007	3020
929.112	3188
929.218	3176
929.323	3184
929.428	3138
929.533	3306
929.638	3112
929.743	3176
929.848	3256
929.953	3207
930.058	3157
930.163	2994
930.267	3013
930.372	3203
930.477	3047
930.581	3294
930.685	3173
930.79	3005
930.894	3150
930.998	3097
931.103	3264
931.207	2967
931.311	2914
931.415	2906
931.519	2762
931.623	2773
