Data from test_V78500241_203.txt Node
Date: Fri Mar 25 16:16:36 CST 2022
User: usil
Spectrometer: V785-0024
Trigger mode: 0
Integration Time (sec): 4.000000E-1
Scans to average: 1
Nonlinearity correction enabled: false
Boxcar width: 0
Storing dark spectrum: false
XAxis mode: Wavelengths
Number of Pixels in Spectrum: 1024
>>>>>Begin Spectral Data<<<<<
801.071	2937
801.214	2895
801.356	2883
801.499	2887
801.641	2864
801.783	2895
801.926	3028
802.068	3005
802.211	3001
802.353	3051
802.496	2963
802.638	3017
802.78	3039
802.923	3070
803.065	3009
803.208	2906
803.35	2902
803.492	2910
803.635	2941
803.777	2758
803.919	2887
804.061	3192
804.204	2952
804.346	2952
804.488	2861
804.63	2990
804.773	2849
804.915	2918
805.057	3119
805.199	2937
805.341	2967
805.483	3039
805.626	2998
805.768	2948
805.91	3116
806.052	3135
806.194	3036
806.336	3241
806.478	3039
806.62	2956
806.762	2975
806.904	3066
807.046	3195
807.188	2982
807.33	2899
807.472	2994
807.614	2941
807.756	2986
807.898	2933
808.04	2899
808.182	2986
808.324	2948
808.465	2891
808.607	2883
808.749	2796
808.891	2853
809.033	2998
809.174	2982
809.316	2925
809.458	2880
809.6	2777
809.741	2769
809.883	2792
810.025	2823
810.166	2849
810.308	2849
810.45	2880
810.591	2785
810.733	2777
810.875	2838
811.016	2796
811.158	2785
811.299	2781
811.441	2941
811.582	2868
811.724	2826
811.865	2861
812.007	2902
812.148	2857
812.29	2849
812.431	2880
812.573	2948
812.714	3024
812.855	3070
812.997	3043
813.138	3127
813.279	3017
813.421	2971
813.562	2975
813.703	2922
813.845	2895
813.986	2773
814.127	2735
814.268	2838
814.41	2876
814.551	2815
814.692	2910
814.833	2872
814.974	2895
815.115	2979
815.256	2853
815.397	2849
815.539	2876
815.68	2766
815.821	2826
815.962	2937
816.103	2925
816.244	2876
816.385	2872
816.526	2990
816.666	2887
816.807	2720
816.948	2929
817.089	2902
817.23	2853
817.371	2743
817.512	2819
817.653	2864
817.793	2807
817.934	2906
818.075	2979
818.216	3009
818.356	3024
818.497	2849
818.638	2807
818.778	2830
818.919	2792
819.06	2773
819.2	2883
819.341	2823
819.481	2804
819.622	2918
819.762	3104
819.903	3074
820.043	2929
820.184	2895
820.324	2895
820.465	3017
820.605	3013
820.746	3066
820.886	2944
821.026	3074
821.167	3173
821.307	3275
821.447	3287
821.588	3233
821.728	3188
821.868	3199
822.008	3100
822.149	3245
822.289	3226
822.429	3097
822.569	3112
822.709	3195
822.849	3058
822.99	3047
823.13	3176
823.27	3237
823.41	3131
823.55	3112
823.69	3173
823.83	3195
823.97	3077
824.11	2994
824.25	3013
824.389	3070
824.529	3131
824.669	3123
824.809	3180
824.949	3249
825.089	3222
825.228	3142
825.368	2998
825.508	2967
825.648	2975
825.787	3013
825.927	3013
826.067	2963
826.206	2944
826.346	3066
826.485	3032
826.625	3119
826.765	3245
826.904	3226
827.044	2986
827.183	2925
827.323	2899
827.462	2941
827.601	2929
827.741	2918
827.88	2967
828.02	2830
828.159	3005
828.298	3017
828.437	3131
828.577	3028
828.716	3218
828.855	3074
828.994	2952
829.134	2868
829.273	2937
829.412	2891
829.551	2849
829.69	2883
829.829	2986
829.968	3108
830.107	2998
830.246	3039
830.385	2941
830.524	2925
830.663	2804
830.802	2758
830.941	2670
831.08	2659
831.219	2758
831.357	2746
831.496	2956
831.635	2743
831.774	2644
831.913	2636
832.051	2549
832.19	2579
832.329	2686
832.467	2556
832.606	2492
832.744	2583
832.883	2579
833.022	2625
833.16	2689
833.299	2716
833.437	2705
833.576	2712
833.714	2697
833.852	2731
833.991	2746
834.129	2807
834.267	2838
834.406	2800
834.544	2895
834.682	2887
834.821	2857
834.959	3085
835.097	2910
835.235	3070
835.373	3013
835.511	2979
835.65	2982
835.788	2990
835.926	2830
836.064	2834
836.202	2834
836.34	3077
836.478	3127
836.615	3085
836.753	3127
836.891	3203
837.029	3169
837.167	3070
837.305	3047
837.443	3036
837.58	2967
837.718	3157
837.856	3112
837.993	2998
838.131	3123
838.269	3093
838.406	3093
838.544	3066
838.681	2952
838.819	2914
838.956	2804
839.094	2876
839.231	2933
839.369	3005
839.506	3355
839.643	3256
839.781	3017
839.918	3001
840.055	3051
840.193	3058
840.33	3116
840.467	3142
840.604	3150
840.742	3378
840.879	3062
841.016	3047
841.153	3150
841.29	3363
841.427	3287
841.564	3298
841.701	3336
841.838	3233
841.975	3199
842.112	3260
842.249	3081
842.385	3051
842.522	3264
842.659	3097
842.796	3070
842.933	3100
843.069	3024
843.206	3009
843.343	3207
843.479	3138
843.616	3119
843.752	2906
843.889	2838
844.025	3074
844.162	2883
844.298	3070
844.435	2960
844.571	2933
844.708	3074
844.844	3211
844.98	3237
845.117	3188
845.253	3017
845.389	3009
845.525	3100
845.661	3100
845.798	2979
845.934	3108
846.07	3055
846.206	3241
846.342	3313
846.478	3294
846.614	3055
846.75	3077
846.886	3024
847.022	3222
847.158	3142
847.294	3195
847.429	3253
847.565	3214
847.701	3500
847.837	3055
847.972	3009
848.108	3154
848.244	3138
848.379	2982
848.515	2975
848.65	2941
848.786	2929
848.921	3032
849.057	3142
849.192	3127
849.328	3081
849.463	3116
849.598	3077
849.734	3039
849.869	2975
850.004	2918
850.14	2941
850.275	2948
850.41	2834
850.545	2887
850.68	2960
850.815	2963
850.95	2941
851.085	3199
851.22	3108
851.355	3070
851.49	3017
851.625	3017
851.76	3077
851.895	2941
852.03	2918
852.165	3032
852.299	3116
852.434	3203
852.569	3131
852.703	3199
852.838	3287
852.973	3367
853.107	3325
853.242	3135
853.376	3077
853.511	2975
853.645	3024
853.78	3214
853.914	3135
854.048	3138
854.183	3085
854.317	3154
854.451	3310
854.585	3142
854.72	3108
854.854	3207
854.988	3055
855.122	3131
855.256	2975
855.39	3116
855.524	3260
855.658	3165
855.792	3157
855.926	3157
856.06	3253
856.194	3253
856.327	3169
856.461	3074
856.595	3161
856.729	3089
856.862	3173
856.996	3157
857.13	3211
857.263	3230
857.397	3302
857.53	3165
857.664	3214
857.797	3218
857.931	3253
858.064	3150
858.197	3211
858.331	3119
858.464	3097
858.597	3028
858.731	3123
858.864	3142
858.997	3123
859.13	3188
859.263	3176
859.396	3226
859.529	3097
859.662	3043
859.795	3043
859.928	3154
860.061	3260
860.194	3291
860.327	3173
860.46	3089
860.592	3226
860.725	3260
860.858	3211
860.99	3112
861.123	3097
861.256	3074
861.388	3123
861.521	3876
861.653	3013
861.786	2998
861.918	3013
862.05	3077
862.183	3093
862.315	3169
862.447	3195
862.58	3066
862.712	2971
862.844	2857
862.976	3009
863.108	3020
863.24	3321
863.372	2857
863.504	2982
863.636	2937
863.768	2998
863.9	2990
864.032	2922
864.164	2944
864.296	3032
864.428	3104
864.559	3138
864.691	3077
864.823	3062
864.954	3047
865.086	3039
865.217	2990
865.349	2952
865.48	3001
865.612	3032
865.743	3154
865.875	2998
866.006	2925
866.137	2975
866.269	2918
866.4	2941
866.531	2952
866.662	2899
866.793	2910
866.924	2895
867.055	2975
867.186	2922
867.317	2902
867.448	2815
867.579	2891
867.71	2857
867.841	2815
867.972	2883
868.103	2899
868.233	2910
868.364	2864
868.495	2883
868.625	3081
868.756	3169
868.886	2994
869.017	3024
869.147	3176
869.278	3157
869.408	3077
869.539	3005
869.669	3123
869.799	3043
869.929	3119
870.06	3146
870.19	3317
870.32	3310
870.45	3279
870.58	3370
870.71	3439
870.84	3439
870.97	3321
871.1	3233
871.23	3469
871.36	3519
871.489	3393
871.619	3405
871.749	3409
871.879	3473
872.008	3496
872.138	3370
872.267	3302
872.397	3154
872.526	3119
872.656	2994
872.785	3127
872.915	3264
873.044	3367
873.173	3222
873.303	3249
873.432	3256
873.561	3253
873.69	3157
873.819	3195
873.948	3180
874.077	3116
874.206	3028
874.335	3097
874.464	3230
874.593	3355
874.722	3268
874.851	3393
874.979	3386
875.108	3294
875.237	3138
875.365	3157
875.494	3169
875.623	3268
875.751	3089
875.88	3100
876.008	3218
876.136	3253
876.265	3332
876.393	3519
876.521	3416
876.65	3412
876.778	3317
876.906	3241
877.034	3199
877.162	3222
877.29	3180
877.418	3237
877.546	3233
877.674	3260
877.802	3218
877.93	3211
878.058	3188
878.185	3127
878.313	3222
878.441	3211
878.568	3100
878.696	3150
878.824	3256
878.951	3272
879.079	3473
879.206	3584
879.333	3424
879.461	3332
879.588	3359
879.715	3504
879.842	3610
879.97	3389
880.097	3176
880.224	3142
880.351	3184
880.478	3218
880.605	3222
880.732	3207
880.859	3523
880.986	3275
881.112	3287
881.239	3218
881.366	3108
881.493	3062
881.619	3062
881.746	3085
881.872	3127
881.999	3104
882.125	3169
882.252	3218
882.378	3313
882.505	3450
882.631	3272
882.757	3165
882.883	3249
883.01	3218
883.136	3157
883.262	3127
883.388	3131
883.514	3325
883.64	3374
883.766	3313
883.892	3173
884.018	3268
884.143	3412
884.269	3561
884.395	3203
884.52	3146
884.646	3203
884.772	3119
884.897	3104
885.023	3195
885.148	3348
885.274	3447
885.399	3348
885.524	3313
885.65	3317
885.775	3378
885.9	3272
886.025	3447
886.15	3351
886.275	3313
886.4	3211
886.525	3313
886.65	3298
886.775	3287
886.9	3481
887.025	3644
887.149	3409
887.274	3260
887.399	3214
887.523	3214
887.648	3192
887.773	3192
887.897	3382
888.021	3409
888.146	3275
888.27	3469
888.395	3549
888.519	3386
888.643	3462
888.767	3431
888.891	3268
889.015	3253
889.139	3241
889.263	3260
889.387	3405
889.511	3492
889.635	3496
889.759	3283
889.883	3279
890.006	3393
890.13	3473
890.254	3268
890.377	3283
890.501	3203
890.624	3214
890.748	3317
890.871	3184
890.995	3112
891.118	3028
891.241	3218
891.364	3249
891.488	3329
891.611	3173
891.734	3241
891.857	3253
891.98	3214
892.103	3363
892.226	3291
892.349	3161
892.471	3150
892.594	3230
892.717	3256
892.839	3256
892.962	3306
893.085	3340
893.207	3317
893.33	3180
893.452	3233
893.575	3386
893.697	3249
893.819	3450
893.941	3485
894.064	3435
894.186	3275
894.308	3241
894.43	3458
894.552	3564
894.674	3477
894.796	3268
894.918	3336
895.04	3268
895.161	3412
895.283	3370
895.405	3313
895.526	3348
895.648	3409
895.769	3428
895.891	3428
896.012	3454
896.134	3466
896.255	3405
896.376	3370
896.498	3336
896.619	3447
896.74	3348
896.861	3420
896.982	3686
897.103	3823
897.224	3644
897.345	3496
897.466	3431
897.587	3507
897.708	3622
897.828	3530
897.949	3435
898.07	3317
898.19	3409
898.311	3633
898.431	3431
898.552	3511
898.672	3549
898.792	3580
898.913	3523
899.033	3389
899.153	3291
899.273	3199
899.393	3291
899.513	3287
899.633	3329
899.753	3313
899.873	3275
899.993	3367
900.113	3291
900.232	3450
900.352	3332
900.472	3279
900.591	3222
900.711	3321
900.83	3249
900.95	3481
901.069	3511
901.189	3393
901.308	3203
901.427	3165
901.546	3207
901.665	3359
901.784	3382
901.904	3241
902.023	3203
902.141	3028
902.26	3051
902.379	3161
902.498	3123
902.617	3055
902.735	3253
902.854	3249
902.973	3222
903.091	3108
903.21	3127
903.328	3173
903.446	3180
903.565	3116
903.683	3245
903.801	3192
903.919	3291
904.038	3344
904.156	3195
904.274	3374
904.392	3275
904.51	3329
904.627	3401
904.745	3481
904.863	3538
904.981	3306
905.098	3214
905.216	3283
905.334	3389
905.451	3363
905.569	3389
905.686	3492
905.803	3511
905.921	3348
906.038	3492
906.155	3393
906.272	3321
906.389	3424
906.506	3287
906.623	3329
906.74	3313
906.857	3226
906.974	3268
907.091	3515
907.208	3622
907.324	3542
907.441	3439
907.557	3275
907.674	3279
907.79	3237
907.907	3332
908.023	3428
908.139	3405
908.256	3401
908.372	3420
908.488	3401
908.604	3310
908.72	3291
908.836	3332
908.952	3321
909.068	3386
909.184	3515
909.3	3439
909.415	3526
909.531	3519
909.647	3332
909.762	3317
909.878	3298
909.993	3416
910.108	3393
910.224	3359
910.339	3443
910.454	3382
910.57	3336
910.685	3317
910.8	3622
910.915	3584
911.03	3473
911.145	3340
911.259	3298
911.374	3409
911.489	3279
911.604	3291
911.718	3165
911.833	3211
911.947	3074
912.062	3043
912.176	3260
912.291	3260
912.405	3264
912.519	3462
912.633	3545
912.748	3370
912.862	3359
912.976	3192
913.09	3081
913.204	3165
913.318	3283
913.431	3386
913.545	3409
913.659	3435
913.772	3374
913.886	3279
914	3233
914.113	3393
914.226	3435
914.34	3378
914.453	3264
914.566	3447
914.68	3367
914.793	3351
914.906	3241
915.019	3180
915.132	3085
915.245	3203
915.358	3253
915.47	3245
915.583	3313
915.696	3344
915.809	3416
915.921	3443
916.034	3279
916.146	3283
916.259	3294
916.371	3420
916.483	3374
916.595	3283
916.708	3393
916.82	3405
916.932	3386
917.044	3405
917.156	3409
917.268	3332
917.38	3325
917.491	3344
917.603	3424
917.715	3485
917.826	3504
917.938	3443
918.049	3302
918.161	3466
918.272	3606
918.384	3603
918.495	3530
918.606	3389
918.717	3294
918.828	3412
918.939	3450
919.05	3340
919.161	3405
919.272	3218
919.383	3298
919.494	3561
919.604	3740
919.715	3492
919.826	3435
919.936	3492
920.047	3637
920.157	3622
920.267	3789
920.378	3652
920.488	3603
920.598	3823
920.708	4025
920.818	3896
920.928	3911
921.038	4055
921.148	4071
921.258	3762
921.368	3686
921.477	3606
921.587	3595
921.697	3549
921.806	3652
921.916	3526
922.025	3409
922.134	3393
922.244	3348
922.353	3450
922.462	3321
922.571	3272
922.68	3154
922.789	3135
922.898	3180
923.007	3131
923.116	3253
923.224	3180
923.333	3233
923.442	3192
923.55	3104
923.659	3169
923.767	3283
923.876	3138
923.984	3279
924.092	3180
924.201	3233
924.309	3264
924.417	3325
924.525	3211
924.633	3275
924.741	4192
924.849	3093
924.956	3291
925.064	3119
925.172	3119
925.279	3146
925.387	3253
925.494	3207
925.602	3416
925.709	3397
925.816	3245
925.924	3306
926.031	3450
926.138	3382
926.245	3374
926.352	3241
926.459	3431
926.566	3485
926.673	3409
926.779	3294
926.886	3310
926.993	3199
927.099	3135
927.206	3142
927.312	3165
927.419	3272
927.525	3279
927.631	3317
927.737	3154
927.843	3169
927.95	3043
928.056	3184
928.162	3260
928.267	3256
928.373	3915
928.479	3351
928.585	3085
928.69	3245
928.796	3310
928.901	3169
929.007	3062
929.112	3275
929.218	3218
929.323	3199
929.428	3188
929.533	3367
929.638	3157
929.743	3195
929.848	3325
929.953	3245
930.058	3211
930.163	3062
930.267	3062
930.372	3237
930.477	3077
930.581	3348
930.685	3241
930.79	3108
930.894	3169
930.998	3108
931.103	3336
931.207	2986
931.311	2971
931.415	2975
931.519	2842
931.623	2864
