Data from test_V78500241_859.txt Node
Date: Fri Mar 25 16:21:09 CST 2022
User: usil
Spectrometer: V785-0024
Trigger mode: 0
Integration Time (sec): 4.000000E-1
Scans to average: 1
Nonlinearity correction enabled: false
Boxcar width: 0
Storing dark spectrum: false
XAxis mode: Wavelengths
Number of Pixels in Spectrum: 1024
>>>>>Begin Spectral Data<<<<<
801.071	2895
801.214	2971
801.356	2849
801.499	2899
801.641	2861
801.783	2944
801.926	3036
802.068	2937
802.211	3001
802.353	3036
802.496	2975
802.638	2986
802.78	3051
802.923	3074
803.065	2998
803.208	2918
803.35	2910
803.492	2933
803.635	2952
803.777	2750
803.919	2857
804.061	3176
804.204	2952
804.346	2922
804.488	2811
804.63	2990
804.773	2868
804.915	2910
805.057	3085
805.199	2925
805.341	2948
805.483	3028
805.626	2963
805.768	2960
805.91	3081
806.052	3104
806.194	3032
806.336	3268
806.478	3058
806.62	2963
806.762	2960
806.904	3039
807.046	3203
807.188	2979
807.33	2868
807.472	3001
807.614	2922
807.756	3005
807.898	2925
808.04	2876
808.182	2956
808.324	2975
808.465	2887
808.607	2868
808.749	2781
808.891	2811
809.033	2937
809.174	2933
809.316	2883
809.458	2891
809.6	2754
809.741	2746
809.883	2754
810.025	2838
810.166	2826
810.308	2819
810.45	2842
810.591	2773
810.733	2769
810.875	2826
811.016	2762
811.158	2735
811.299	2781
811.441	2933
811.582	2876
811.724	2819
811.865	2807
812.007	2880
812.148	2868
812.29	2830
812.431	2853
812.573	2929
812.714	2944
812.855	3039
812.997	3028
813.138	3119
813.279	3020
813.421	2998
813.562	2990
813.703	2819
813.845	2861
813.986	2743
814.127	2750
814.268	2811
814.41	2842
814.551	2792
814.692	2880
814.833	2880
814.974	2861
815.115	2948
815.256	2838
815.397	2788
815.539	2891
815.68	2815
815.821	2796
815.962	2891
816.103	2948
816.244	2830
816.385	2868
816.526	2975
816.666	2918
816.807	2712
816.948	2845
817.089	2891
817.23	2819
817.371	2807
817.512	2823
817.653	2823
817.793	2842
817.934	2861
818.075	2960
818.216	2982
818.356	3005
818.497	2891
818.638	2781
818.778	2830
818.919	2785
819.06	2758
819.2	2868
819.341	2807
819.481	2785
819.622	2929
819.762	3097
819.903	3036
820.043	2864
820.184	2861
820.324	2864
820.465	2967
820.605	2960
820.746	3013
820.886	2872
821.026	3074
821.167	3135
821.307	3211
821.447	3272
821.588	3237
821.728	3195
821.868	3161
822.008	3081
822.149	3199
822.289	3199
822.429	3081
822.569	3081
822.709	3150
822.849	3013
822.99	3055
823.13	3142
823.27	3199
823.41	3077
823.55	3116
823.69	3108
823.83	3207
823.97	3119
824.11	2986
824.25	2971
824.389	3020
824.529	3043
824.669	3032
824.809	3211
824.949	3233
825.089	3230
825.228	3173
825.368	2998
825.508	2963
825.648	2971
825.787	2990
825.927	3039
826.067	2960
826.206	2933
826.346	3039
826.485	3077
826.625	3116
826.765	3256
826.904	3184
827.044	2990
827.183	2967
827.323	2823
827.462	2967
827.601	2895
827.741	2899
827.88	2963
828.02	2861
828.159	2982
828.298	3039
828.437	3089
828.577	2998
828.716	3214
828.855	3081
828.994	2914
829.134	2876
829.273	2910
829.412	2845
829.551	2868
829.69	2902
829.829	2982
829.968	3123
830.107	3013
830.246	2990
830.385	2933
830.524	2853
830.663	2781
830.802	2693
830.941	2640
831.08	2613
831.219	2750
831.357	2750
831.496	2975
831.635	2735
831.774	2663
831.913	2629
832.051	2518
832.19	2560
832.329	2693
832.467	2511
832.606	2495
832.744	2590
832.883	2590
833.022	2590
833.16	2629
833.299	2670
833.437	2655
833.576	2674
833.714	2670
833.852	2705
833.991	2750
834.129	2788
834.267	2781
834.406	2769
834.544	2864
834.682	2868
834.821	2880
834.959	3066
835.097	2887
835.235	3043
835.373	2982
835.511	2963
835.65	2933
835.788	2948
835.926	2842
836.064	2781
836.202	2830
836.34	3093
836.478	3123
836.615	3062
836.753	3135
836.891	3218
837.029	3150
837.167	3116
837.305	3055
837.443	3093
837.58	2994
837.718	3127
837.856	3070
837.993	3039
838.131	3077
838.269	3127
838.406	3127
838.544	3070
838.681	2952
838.819	2967
838.956	2853
839.094	2864
839.231	2906
839.369	3077
839.506	3454
839.643	3260
839.781	3043
839.918	3017
840.055	3055
840.193	3085
840.33	3062
840.467	3119
840.604	3165
840.742	3397
840.879	3093
841.016	3070
841.153	3135
841.29	3416
841.427	3351
841.564	3275
841.701	3355
841.838	3283
841.975	3230
842.112	3249
842.249	3116
842.385	3062
842.522	3294
842.659	3131
842.796	3123
842.933	3123
843.069	3119
843.206	3055
843.343	3199
843.479	3131
843.616	3131
843.752	2937
843.889	2914
844.025	3127
844.162	2941
844.298	3138
844.435	2971
844.571	2960
844.708	3104
844.844	3214
844.98	3230
845.117	3222
845.253	3097
845.389	3039
845.525	3146
845.661	3142
845.798	3066
845.934	3176
846.07	3070
846.206	3275
846.342	3340
846.478	3283
846.614	3176
846.75	3077
846.886	3043
847.022	3275
847.158	3165
847.294	3214
847.429	3264
847.565	3256
847.701	3485
847.837	3081
847.972	3028
848.108	3188
848.244	3169
848.379	3062
848.515	2960
848.65	2975
848.786	2975
848.921	3017
849.057	3119
849.192	3184
849.328	3135
849.463	3138
849.598	3100
849.734	3055
849.869	3013
850.004	2925
850.14	3032
850.275	2944
850.41	2906
850.545	2933
850.68	2967
850.815	3013
850.95	2986
851.085	3199
851.22	3081
851.355	3070
851.49	2960
851.625	2986
851.76	3043
851.895	3005
852.03	2937
852.165	3081
852.299	3146
852.434	3218
852.569	3161
852.703	3199
852.838	3268
852.973	3313
853.107	3382
853.242	3157
853.376	3093
853.511	2994
853.645	3062
853.78	3287
853.914	3165
854.048	3116
854.183	3108
854.317	3192
854.451	3325
854.585	3146
854.72	3119
854.854	3264
854.988	3100
855.122	3119
855.256	3001
855.39	3192
855.524	3256
855.658	3218
855.792	3237
855.926	3237
856.06	3226
856.194	3264
856.327	3176
856.461	3100
856.595	3104
856.729	3089
856.862	3237
856.996	3176
857.13	3218
857.263	3275
857.397	3313
857.53	3138
857.664	3214
857.797	3260
857.931	3253
858.064	3192
858.197	3249
858.331	3180
858.464	3169
858.597	3047
858.731	3150
858.864	3199
858.997	3116
859.13	3161
859.263	3165
859.396	3214
859.529	3116
859.662	3135
859.795	3081
859.928	3192
860.061	3351
860.194	3287
860.327	3188
860.46	3146
860.592	3287
860.725	3287
860.858	3279
860.99	3119
861.123	3077
861.256	3077
861.388	3161
861.521	3842
861.653	3047
861.786	3039
861.918	3058
862.05	3081
862.183	3081
862.315	3195
862.447	3199
862.58	3123
862.712	2986
862.844	2906
862.976	3043
863.108	3058
863.24	3332
863.372	2922
863.504	2979
863.636	2971
863.768	3097
863.9	2994
864.032	2941
864.164	3013
864.296	3093
864.428	3116
864.559	3157
864.691	3108
864.823	3100
864.954	3074
865.086	3081
865.217	2998
865.349	2971
865.48	3005
865.612	3028
865.743	3150
865.875	3017
866.006	2971
866.137	3036
866.269	2956
866.4	2979
866.531	2960
866.662	2914
866.793	2933
866.924	2895
867.055	3032
867.186	2956
867.317	2899
867.448	2914
867.579	2895
867.71	2849
867.841	2826
867.972	2937
868.103	2910
868.233	2922
868.364	2925
868.495	2899
868.625	3100
868.756	3203
868.886	2979
869.017	3013
869.147	3218
869.278	3188
869.408	3051
869.539	3089
869.669	3142
869.799	3093
869.929	3150
870.06	3138
870.19	3344
870.32	3283
870.45	3302
870.58	3405
870.71	3454
870.84	3469
870.97	3306
871.1	3272
871.23	3526
871.36	3519
871.489	3370
871.619	3450
871.749	3462
871.879	3492
872.008	3534
872.138	3389
872.267	3275
872.397	3146
872.526	3135
872.656	3055
872.785	3142
872.915	3230
873.044	3332
873.173	3260
873.303	3291
873.432	3249
873.561	3275
873.69	3161
873.819	3180
873.948	3211
874.077	3119
874.206	3081
874.335	3119
874.464	3233
874.593	3378
874.722	3310
874.851	3378
874.979	3378
875.108	3344
875.237	3226
875.365	3230
875.494	3131
875.623	3275
875.751	3123
875.88	3142
876.008	3214
876.136	3214
876.265	3393
876.393	3492
876.521	3435
876.65	3416
876.778	3332
876.906	3317
877.034	3233
877.162	3256
877.29	3226
877.418	3279
877.546	3272
877.674	3264
877.802	3275
877.93	3233
878.058	3131
878.185	3142
878.313	3241
878.441	3230
878.568	3104
878.696	3173
878.824	3291
878.951	3310
879.079	3488
879.206	3610
879.333	3428
879.461	3359
879.588	3374
879.715	3534
879.842	3606
879.97	3386
880.097	3184
880.224	3169
880.351	3249
880.478	3256
880.605	3214
880.732	3203
880.859	3500
880.986	3302
881.112	3355
881.239	3218
881.366	3142
881.493	3051
881.619	3028
881.746	3123
881.872	3119
881.999	3123
882.125	3184
882.252	3256
882.378	3321
882.505	3424
882.631	3302
882.757	3146
882.883	3218
883.01	3260
883.136	3161
883.262	3131
883.388	3138
883.514	3321
883.64	3359
883.766	3310
883.892	3249
884.018	3241
884.143	3409
884.269	3561
884.395	3222
884.52	3184
884.646	3218
884.772	3131
884.897	3119
885.023	3260
885.148	3344
885.274	3401
885.399	3382
885.524	3279
885.65	3253
885.775	3310
885.9	3313
886.025	3473
886.15	3382
886.275	3310
886.4	3256
886.525	3325
886.65	3260
886.775	3291
886.9	3485
887.025	3633
887.149	3431
887.274	3287
887.399	3214
887.523	3237
887.648	3245
887.773	3203
887.897	3409
888.021	3389
888.146	3321
888.27	3397
888.395	3576
888.519	3447
888.643	3454
888.767	3481
888.891	3332
889.015	3241
889.139	3336
889.263	3272
889.387	3443
889.511	3553
889.635	3420
889.759	3302
889.883	3321
890.006	3393
890.13	3534
890.254	3302
890.377	3351
890.501	3279
890.624	3199
890.748	3317
890.871	3188
890.995	3157
891.118	3077
891.241	3233
891.364	3211
891.488	3340
891.611	3203
891.734	3237
891.857	3272
891.98	3275
892.103	3367
892.226	3279
892.349	3237
892.471	3135
892.594	3268
892.717	3325
892.839	3241
892.962	3298
893.085	3367
893.207	3287
893.33	3150
893.452	3211
893.575	3386
893.697	3218
893.819	3504
893.941	3473
894.064	3473
894.186	3294
894.308	3283
894.43	3466
894.552	3538
894.674	3492
894.796	3291
894.918	3313
895.04	3298
895.161	3443
895.283	3370
895.405	3378
895.526	3393
895.648	3439
895.769	3439
895.891	3515
896.012	3515
896.134	3504
896.255	3424
896.376	3370
896.498	3409
896.619	3420
896.74	3401
896.861	3397
896.982	3690
897.103	3873
897.224	3629
897.345	3526
897.466	3477
897.587	3526
897.708	3633
897.828	3553
897.949	3462
898.07	3325
898.19	3439
898.311	3599
898.431	3431
898.552	3523
898.672	3587
898.792	3587
898.913	3549
899.033	3462
899.153	3275
899.273	3218
899.393	3294
899.513	3321
899.633	3291
899.753	3344
899.873	3332
899.993	3393
900.113	3329
900.232	3378
900.352	3355
900.472	3260
900.591	3203
900.711	3294
900.83	3233
900.95	3393
901.069	3504
901.189	3374
901.308	3184
901.427	3150
901.546	3203
901.665	3298
901.784	3386
901.904	3211
902.023	3150
902.141	2994
902.26	3058
902.379	3169
902.498	3097
902.617	3032
902.735	3214
902.854	3233
902.973	3203
903.091	3074
903.21	3051
903.328	3127
903.446	3138
903.565	3104
903.683	3199
903.801	3131
903.919	3253
904.038	3298
904.156	3192
904.274	3291
904.392	3256
904.51	3348
904.627	3359
904.745	3473
904.863	3500
904.981	3264
905.098	3188
905.216	3237
905.334	3310
905.451	3294
905.569	3321
905.686	3428
905.803	3447
905.921	3310
906.038	3386
906.155	3367
906.272	3253
906.389	3336
906.506	3226
906.623	3207
906.74	3291
906.857	3199
906.974	3336
907.091	3477
907.208	3584
907.324	3447
907.441	3374
907.557	3245
907.674	3256
907.79	3226
907.907	3291
908.023	3405
908.139	3431
908.256	3325
908.372	3382
908.488	3329
908.604	3302
908.72	3230
908.836	3317
908.952	3317
909.068	3344
909.184	3485
909.3	3405
909.415	3530
909.531	3492
909.647	3268
909.762	3283
909.878	3256
909.993	3386
910.108	3367
910.224	3317
910.339	3424
910.454	3317
910.57	3283
910.685	3283
910.8	3557
910.915	3523
911.03	3439
911.145	3275
911.259	3268
911.374	3325
911.489	3241
911.604	3245
911.718	3135
911.833	3150
911.947	3051
912.062	2994
912.176	3192
912.291	3188
912.405	3249
912.519	3424
912.633	3515
912.748	3306
912.862	3321
912.976	3146
913.09	3081
913.204	3131
913.318	3222
913.431	3336
913.545	3306
913.659	3397
913.772	3329
913.886	3214
914	3230
914.113	3370
914.226	3435
914.34	3325
914.453	3192
914.566	3393
914.68	3260
914.793	3332
914.906	3157
915.019	3123
915.132	3055
915.245	3207
915.358	3165
915.47	3241
915.583	3298
915.696	3287
915.809	3424
915.921	3401
916.034	3245
916.146	3249
916.259	3233
916.371	3378
916.483	3351
916.595	3294
916.708	3340
916.82	3359
916.932	3321
917.044	3355
917.156	3310
917.268	3230
917.38	3332
917.491	3302
917.603	3367
917.715	3454
917.826	3511
917.938	3378
918.049	3245
918.161	3424
918.272	3595
918.384	3557
918.495	3473
918.606	3374
918.717	3268
918.828	3363
918.939	3374
919.05	3359
919.161	3363
919.272	3195
919.383	3279
919.494	3523
919.604	3667
919.715	3492
919.826	3389
919.936	3469
920.047	3641
920.157	3553
920.267	3785
920.378	3599
920.488	3564
920.598	3778
920.708	3975
920.818	3850
920.928	3842
921.038	4010
921.148	4010
921.258	3679
921.368	3648
921.477	3622
921.587	3530
921.697	3469
921.806	3629
921.916	3519
922.025	3405
922.134	3359
922.244	3294
922.353	3397
922.462	3272
922.571	3195
922.68	3138
922.789	3085
922.898	3138
923.007	3093
923.116	3218
923.224	3173
923.333	3207
923.442	3104
923.55	3100
923.659	3135
923.767	3249
923.876	3100
923.984	3226
924.092	3085
924.201	3169
924.309	3207
924.417	3253
924.525	3222
924.633	3233
924.741	4215
924.849	3043
924.956	3256
925.064	3108
925.172	3028
925.279	3104
925.387	3199
925.494	3184
925.602	3363
925.709	3336
925.816	3203
925.924	3287
926.031	3359
926.138	3351
926.245	3374
926.352	3260
926.459	3416
926.566	3473
926.673	3291
926.779	3275
926.886	3218
926.993	3157
927.099	3150
927.206	3154
927.312	3074
927.419	3222
927.525	3287
927.631	3268
927.737	3138
927.843	3135
927.95	3043
928.056	3135
928.162	3146
928.267	3249
928.373	3751
928.479	3310
928.585	3100
928.69	3222
928.796	3268
928.901	3157
929.007	3070
929.112	3241
929.218	3203
929.323	3119
929.428	3150
929.533	3272
929.638	3100
929.743	3146
929.848	3291
929.953	3245
930.058	3119
930.163	2994
930.267	3085
930.372	3218
930.477	3066
930.581	3310
930.685	3237
930.79	3070
930.894	3100
930.998	3104
931.103	3287
931.207	2971
931.311	2979
931.415	2899
931.519	2788
931.623	2842
