Data from test_V78500241_884.txt Node
Date: Fri Mar 25 16:21:19 CST 2022
User: usil
Spectrometer: V785-0024
Trigger mode: 0
Integration Time (sec): 4.000000E-1
Scans to average: 1
Nonlinearity correction enabled: false
Boxcar width: 0
Storing dark spectrum: false
XAxis mode: Wavelengths
Number of Pixels in Spectrum: 1024
>>>>>Begin Spectral Data<<<<<
801.071	2906
801.214	2937
801.356	2891
801.499	2883
801.641	2838
801.783	2899
801.926	3024
802.068	2960
802.211	2963
802.353	2998
802.496	2937
802.638	3032
802.78	3051
802.923	3043
803.065	2986
803.208	2872
803.35	2895
803.492	2918
803.635	2895
803.777	2773
803.919	2853
804.061	3199
804.204	2963
804.346	2906
804.488	2823
804.63	2982
804.773	2857
804.915	2872
805.057	3074
805.199	2937
805.341	2956
805.483	3020
805.626	2994
805.768	2948
805.91	3081
806.052	3123
806.194	3020
806.336	3241
806.478	3020
806.62	2967
806.762	2986
806.904	3093
807.046	3154
807.188	2994
807.33	2956
807.472	2994
807.614	2929
807.756	3024
807.898	2902
808.04	2895
808.182	3001
808.324	2956
808.465	2914
808.607	2887
808.749	2807
808.891	2876
809.033	3009
809.174	2986
809.316	2918
809.458	2857
809.6	2807
809.741	2800
809.883	2788
810.025	2906
810.166	2876
810.308	2887
810.45	2872
810.591	2830
810.733	2792
810.875	2853
811.016	2819
811.158	2807
811.299	2857
811.441	2967
811.582	2937
811.724	2834
811.865	2868
812.007	2922
812.148	2929
812.29	2906
812.431	2933
812.573	2994
812.714	2990
812.855	3062
812.997	3081
813.138	3142
813.279	3058
813.421	3028
813.562	3009
813.703	2891
813.845	2902
813.986	2796
814.127	2769
814.268	2861
814.41	2891
814.551	2849
814.692	2910
814.833	2864
814.974	2929
815.115	3009
815.256	2849
815.397	2849
815.539	2861
815.68	2834
815.821	2804
815.962	2975
816.103	2933
816.244	2902
816.385	2902
816.526	2960
816.666	2914
816.807	2811
816.948	2895
817.089	2922
817.23	2887
817.371	2773
817.512	2819
817.653	2845
817.793	2887
817.934	2902
818.075	3005
818.216	3032
818.356	3032
818.497	2925
818.638	2849
818.778	2830
818.919	2796
819.06	2807
819.2	2910
819.341	2838
819.481	2788
819.622	2956
819.762	3100
819.903	3089
820.043	2971
820.184	2929
820.324	2887
820.465	3013
820.605	3051
820.746	3043
820.886	2933
821.026	3138
821.167	3173
821.307	3321
821.447	3275
821.588	3302
821.728	3256
821.868	3161
822.008	3112
822.149	3241
822.289	3256
822.429	3142
822.569	3138
822.709	3222
822.849	3070
822.99	3097
823.13	3184
823.27	3230
823.41	3165
823.55	3161
823.69	3169
823.83	3230
823.97	3108
824.11	3058
824.25	3017
824.389	3077
824.529	3127
824.669	3089
824.809	3199
824.949	3256
825.089	3245
825.228	3169
825.368	2998
825.508	2990
825.648	2990
825.787	3036
825.927	3055
826.067	2990
826.206	2982
826.346	3051
826.485	3142
826.625	3100
826.765	3283
826.904	3214
827.044	3032
827.183	2941
827.323	2902
827.462	2998
827.601	2948
827.741	2944
827.88	2982
828.02	2887
828.159	2990
828.298	3074
828.437	3112
828.577	3074
828.716	3272
828.855	3119
828.994	2948
829.134	2883
829.273	2944
829.412	2887
829.551	2922
829.69	2933
829.829	2979
829.968	3135
830.107	3055
830.246	3036
830.385	2963
830.524	2891
830.663	2868
830.802	2773
830.941	2659
831.08	2678
831.219	2773
831.357	2762
831.496	2994
831.635	2754
831.774	2678
831.913	2693
832.051	2571
832.19	2590
832.329	2686
832.467	2579
832.606	2526
832.744	2571
832.883	2602
833.022	2640
833.16	2678
833.299	2678
833.437	2724
833.576	2693
833.714	2739
833.852	2792
833.991	2773
834.129	2857
834.267	2864
834.406	2815
834.544	2937
834.682	2868
834.821	2849
834.959	3074
835.097	2929
835.235	3085
835.373	3043
835.511	3039
835.65	2948
835.788	2975
835.926	2861
836.064	2815
836.202	2872
836.34	3112
836.478	3192
836.615	3055
836.753	3207
836.891	3230
837.029	3176
837.167	3138
837.305	3081
837.443	3055
837.58	3005
837.718	3184
837.856	3047
837.993	3036
838.131	3138
838.269	3097
838.406	3127
838.544	3135
838.681	2971
838.819	2982
838.956	2853
839.094	2853
839.231	2956
839.369	3028
839.506	3382
839.643	3249
839.781	3032
839.918	2994
840.055	3066
840.193	3085
840.33	3093
840.467	3093
840.604	3188
840.742	3416
840.879	3081
841.016	3066
841.153	3173
841.29	3344
841.427	3329
841.564	3291
841.701	3351
841.838	3256
841.975	3199
842.112	3226
842.249	3093
842.385	3074
842.522	3237
842.659	3123
842.796	3058
842.933	3108
843.069	3089
843.206	3047
843.343	3165
843.479	3146
843.616	3188
843.752	2948
843.889	2906
844.025	3074
844.162	2906
844.298	3070
844.435	2956
844.571	2922
844.708	3097
844.844	3173
844.98	3249
845.117	3188
845.253	3077
845.389	3013
845.525	3089
845.661	3161
845.798	3028
845.934	3157
846.07	3093
846.206	3222
846.342	3336
846.478	3245
846.614	3116
846.75	3055
846.886	3043
847.022	3253
847.158	3184
847.294	3218
847.429	3272
847.565	3233
847.701	3519
847.837	3066
847.972	3070
848.108	3188
848.244	3146
848.379	3032
848.515	2975
848.65	2918
848.786	2975
848.921	3009
849.057	3138
849.192	3150
849.328	3112
849.463	3119
849.598	3070
849.734	3028
849.869	3036
850.004	2937
850.14	2982
850.275	2956
850.41	2834
850.545	2891
850.68	2922
850.815	2963
850.95	2998
851.085	3203
851.22	3146
851.355	3062
851.49	3009
851.625	3047
851.76	3032
851.895	2929
852.03	2941
852.165	3043
852.299	3104
852.434	3241
852.569	3154
852.703	3203
852.838	3256
852.973	3359
853.107	3355
853.242	3173
853.376	3081
853.511	2982
853.645	3047
853.78	3245
853.914	3135
854.048	3127
854.183	3062
854.317	3154
854.451	3329
854.585	3123
854.72	3150
854.854	3226
854.988	3070
855.122	3081
855.256	2982
855.39	3138
855.524	3279
855.658	3184
855.792	3176
855.926	3233
856.06	3237
856.194	3264
856.327	3169
856.461	3108
856.595	3089
856.729	3127
856.862	3214
856.996	3180
857.13	3218
857.263	3253
857.397	3264
857.53	3142
857.664	3211
857.797	3249
857.931	3237
858.064	3195
858.197	3283
858.331	3161
858.464	3131
858.597	3055
858.731	3116
858.864	3180
858.997	3112
859.13	3207
859.263	3188
859.396	3222
859.529	3093
859.662	3108
859.795	3055
859.928	3180
860.061	3302
860.194	3317
860.327	3142
860.46	3116
860.592	3268
860.725	3256
860.858	3272
860.99	3142
861.123	3070
861.256	3077
861.388	3161
861.521	3823
861.653	3017
861.786	2986
861.918	2998
862.05	3036
862.183	3104
862.315	3135
862.447	3211
862.58	3150
862.712	2967
862.844	2868
862.976	3028
863.108	3017
863.24	3310
863.372	2891
863.504	3009
863.636	2994
863.768	3081
863.9	2967
864.032	2914
864.164	2956
864.296	3017
864.428	3047
864.559	3131
864.691	3104
864.823	3058
864.954	3055
865.086	3039
865.217	2986
865.349	2952
865.48	2994
865.612	3001
865.743	3157
865.875	3001
866.006	2979
866.137	2963
866.269	2971
866.4	2982
866.531	2960
866.662	2910
866.793	2895
866.924	2910
867.055	2952
867.186	2925
867.317	2883
867.448	2845
867.579	2861
867.71	2864
867.841	2845
867.972	2925
868.103	2906
868.233	2887
868.364	2876
868.495	2906
868.625	3104
868.756	3161
868.886	3001
869.017	3051
869.147	3176
869.278	3180
869.408	3032
869.539	3055
869.669	3104
869.799	3077
869.929	3127
870.06	3127
870.19	3340
870.32	3279
870.45	3344
870.58	3370
870.71	3458
870.84	3466
870.97	3313
871.1	3275
871.23	3485
871.36	3458
871.489	3340
871.619	3435
871.749	3443
871.879	3416
872.008	3462
872.138	3332
872.267	3302
872.397	3104
872.526	3089
872.656	3036
872.785	3112
872.915	3245
873.044	3310
873.173	3249
873.303	3245
873.432	3214
873.561	3264
873.69	3131
873.819	3169
873.948	3222
874.077	3119
874.206	3066
874.335	3047
874.464	3211
874.593	3344
874.722	3264
874.851	3412
874.979	3344
875.108	3355
875.237	3211
875.365	3138
875.494	3176
875.623	3260
875.751	3070
875.88	3123
876.008	3230
876.136	3195
876.265	3344
876.393	3561
876.521	3393
876.65	3416
876.778	3317
876.906	3249
877.034	3207
877.162	3249
877.29	3180
877.418	3260
877.546	3272
877.674	3218
877.802	3275
877.93	3222
878.058	3150
878.185	3154
878.313	3195
878.441	3199
878.568	3097
878.696	3176
878.824	3249
878.951	3275
879.079	3469
879.206	3644
879.333	3458
879.461	3405
879.588	3401
879.715	3485
879.842	3572
879.97	3443
880.097	3218
880.224	3165
880.351	3222
880.478	3226
880.605	3256
880.732	3249
880.859	3500
880.986	3332
881.112	3359
881.239	3207
881.366	3138
881.493	3085
881.619	3100
881.746	3093
881.872	3104
881.999	3142
882.125	3203
882.252	3272
882.378	3313
882.505	3481
882.631	3329
882.757	3214
882.883	3218
883.01	3287
883.136	3180
883.262	3154
883.388	3165
883.514	3351
883.64	3370
883.766	3363
883.892	3226
884.018	3291
884.143	3473
884.269	3530
884.395	3249
884.52	3233
884.646	3180
884.772	3154
884.897	3146
885.023	3264
885.148	3382
885.274	3420
885.399	3401
885.524	3302
885.65	3329
885.775	3348
885.9	3325
886.025	3511
886.15	3397
886.275	3355
886.4	3233
886.525	3367
886.65	3340
886.775	3329
886.9	3561
887.025	3690
887.149	3458
887.274	3313
887.399	3203
887.523	3226
887.648	3203
887.773	3207
887.897	3405
888.021	3477
888.146	3374
888.27	3488
888.395	3564
888.519	3485
888.643	3523
888.767	3530
888.891	3348
889.015	3298
889.139	3363
889.263	3291
889.387	3393
889.511	3576
889.635	3488
889.759	3329
889.883	3310
890.006	3443
890.13	3545
890.254	3310
890.377	3329
890.501	3275
890.624	3222
890.748	3370
890.871	3222
890.995	3154
891.118	3104
891.241	3230
891.364	3298
891.488	3389
891.611	3237
891.734	3264
891.857	3321
891.98	3233
892.103	3389
892.226	3306
892.349	3256
892.471	3154
892.594	3256
892.717	3340
892.839	3306
892.962	3336
893.085	3420
893.207	3374
893.33	3180
893.452	3275
893.575	3313
893.697	3287
893.819	3481
893.941	3561
894.064	3492
894.186	3321
894.308	3287
894.43	3454
894.552	3584
894.674	3523
894.796	3302
894.918	3359
895.04	3325
895.161	3492
895.283	3412
895.405	3367
895.526	3389
895.648	3447
895.769	3454
895.891	3454
896.012	3511
896.134	3488
896.255	3428
896.376	3485
896.498	3409
896.619	3458
896.74	3447
896.861	3431
896.982	3732
897.103	3884
897.224	3652
897.345	3545
897.466	3435
897.587	3492
897.708	3652
897.828	3591
897.949	3526
898.07	3355
898.19	3454
898.311	3618
898.431	3473
898.552	3568
898.672	3648
898.792	3644
898.913	3580
899.033	3412
899.153	3348
899.273	3268
899.393	3317
899.513	3374
899.633	3355
899.753	3344
899.873	3340
899.993	3386
900.113	3378
900.232	3447
900.352	3351
900.472	3336
900.591	3241
900.711	3294
900.83	3264
900.95	3405
901.069	3485
901.189	3374
901.308	3180
901.427	3165
901.546	3253
901.665	3302
901.784	3363
901.904	3256
902.023	3157
902.141	3020
902.26	3051
902.379	3184
902.498	3116
902.617	3093
902.735	3237
902.854	3275
902.973	3249
903.091	3077
903.21	3081
903.328	3157
903.446	3135
903.565	3150
903.683	3188
903.801	3176
903.919	3306
904.038	3298
904.156	3192
904.274	3332
904.392	3294
904.51	3355
904.627	3340
904.745	3469
904.863	3561
904.981	3275
905.098	3188
905.216	3283
905.334	3287
905.451	3302
905.569	3363
905.686	3466
905.803	3485
905.921	3291
906.038	3424
906.155	3397
906.272	3332
906.389	3325
906.506	3302
906.623	3272
906.74	3279
906.857	3214
906.974	3279
907.091	3481
907.208	3572
907.324	3511
907.441	3401
907.557	3233
907.674	3317
907.79	3207
907.907	3306
908.023	3401
908.139	3386
908.256	3378
908.372	3420
908.488	3370
908.604	3279
908.72	3230
908.836	3302
908.952	3310
909.068	3393
909.184	3542
909.3	3397
909.415	3542
909.531	3526
909.647	3294
909.762	3291
909.878	3268
909.993	3409
910.108	3336
910.224	3401
910.339	3447
910.454	3367
910.57	3313
910.685	3226
910.8	3641
910.915	3549
911.03	3443
911.145	3321
911.259	3310
911.374	3363
911.489	3272
911.604	3260
911.718	3123
911.833	3165
911.947	3039
912.062	2998
912.176	3192
912.291	3245
912.405	3230
912.519	3443
912.633	3530
912.748	3336
912.862	3294
912.976	3207
913.09	3074
913.204	3199
913.318	3237
913.431	3355
913.545	3340
913.659	3424
913.772	3336
913.886	3245
914	3214
914.113	3405
914.226	3416
914.34	3386
914.453	3237
914.566	3447
914.68	3291
914.793	3348
914.906	3207
915.019	3150
915.132	3097
915.245	3184
915.358	3222
915.47	3264
915.583	3241
915.696	3298
915.809	3439
915.921	3466
916.034	3272
916.146	3298
916.259	3226
916.371	3420
916.483	3393
916.595	3298
916.708	3378
916.82	3313
916.932	3374
917.044	3382
917.156	3370
917.268	3283
917.38	3298
917.491	3336
917.603	3389
917.715	3481
917.826	3492
917.938	3382
918.049	3313
918.161	3496
918.272	3599
918.384	3614
918.495	3519
918.606	3336
918.717	3279
918.828	3412
918.939	3466
919.05	3332
919.161	3405
919.272	3180
919.383	3302
919.494	3500
919.604	3751
919.715	3553
919.826	3416
919.936	3473
920.047	3595
920.157	3587
920.267	3808
920.378	3679
920.488	3584
920.598	3774
920.708	3983
920.818	3831
920.928	3831
921.038	4051
921.148	4021
921.258	3701
921.368	3675
921.477	3587
921.587	3564
921.697	3439
921.806	3641
921.916	3576
922.025	3370
922.134	3397
922.244	3355
922.353	3466
922.462	3275
922.571	3237
922.68	3142
922.789	3081
922.898	3146
923.007	3123
923.116	3241
923.224	3180
923.333	3218
923.442	3119
923.55	3074
923.659	3169
923.767	3226
923.876	3127
923.984	3313
924.092	3131
924.201	3260
924.309	3241
924.417	3291
924.525	3207
924.633	3260
924.741	4230
924.849	3119
924.956	3272
925.064	3138
925.172	3077
925.279	3089
925.387	3211
925.494	3222
925.602	3374
925.709	3329
925.816	3207
925.924	3332
926.031	3431
926.138	3386
926.245	3378
926.352	3253
926.459	3428
926.566	3507
926.673	3340
926.779	3249
926.886	3294
926.993	3188
927.099	3192
927.206	3138
927.312	3154
927.419	3272
927.525	3233
927.631	3294
927.737	3192
927.843	3108
927.95	3047
928.056	3131
928.162	3199
928.267	3279
928.373	3884
928.479	3317
928.585	3055
928.69	3199
928.796	3287
928.901	3214
929.007	3112
929.112	3226
929.218	3226
929.323	3165
929.428	3173
929.533	3367
929.638	3131
929.743	3184
929.848	3294
929.953	3207
930.058	3135
930.163	3039
930.267	3017
930.372	3195
930.477	3005
930.581	3397
930.685	3226
930.79	3058
930.894	3146
930.998	3131
931.103	3275
931.207	2967
931.311	2952
931.415	2918
931.519	2769
931.623	2819
