Data from test_V78500241_259.txt Node
Date: Fri Mar 25 16:16:59 CST 2022
User: usil
Spectrometer: V785-0024
Trigger mode: 0
Integration Time (sec): 4.000000E-1
Scans to average: 1
Nonlinearity correction enabled: false
Boxcar width: 0
Storing dark spectrum: false
XAxis mode: Wavelengths
Number of Pixels in Spectrum: 1024
>>>>>Begin Spectral Data<<<<<
801.071	2929
801.214	2986
801.356	2910
801.499	2902
801.641	2883
801.783	2937
801.926	3089
802.068	3001
802.211	3028
802.353	3062
802.496	2998
802.638	3028
802.78	3070
802.923	3097
803.065	3020
803.208	2922
803.35	2952
803.492	2975
803.635	2975
803.777	2762
803.919	2868
804.061	3233
804.204	2975
804.346	2929
804.488	2868
804.63	3024
804.773	2933
804.915	2925
805.057	3077
805.199	2948
805.341	2960
805.483	3077
805.626	3055
805.768	2990
805.91	3093
806.052	3104
806.194	3062
806.336	3237
806.478	3055
806.62	2963
806.762	2994
806.904	3066
807.046	3214
807.188	3001
807.33	2967
807.472	3032
807.614	2975
807.756	3013
807.898	2967
808.04	2929
808.182	2971
808.324	2986
808.465	2902
808.607	2868
808.749	2830
808.891	2857
809.033	2979
809.174	2982
809.316	2914
809.458	2899
809.6	2781
809.741	2796
809.883	2811
810.025	2861
810.166	2857
810.308	2861
810.45	2887
810.591	2781
810.733	2766
810.875	2842
811.016	2777
811.158	2746
811.299	2819
811.441	2944
811.582	2868
811.724	2872
811.865	2864
812.007	2941
812.148	2887
812.29	2853
812.431	2891
812.573	2944
812.714	2990
812.855	3032
812.997	3055
813.138	3119
813.279	3024
813.421	3013
813.562	2994
813.703	2887
813.845	2910
813.986	2811
814.127	2727
814.268	2819
814.41	2861
814.551	2815
814.692	2902
814.833	2830
814.974	2899
815.115	2979
815.256	2800
815.397	2838
815.539	2845
815.68	2819
815.821	2826
815.962	2941
816.103	2910
816.244	2902
816.385	2887
816.526	2979
816.666	2944
816.807	2773
816.948	2876
817.089	2902
817.23	2864
817.371	2788
817.512	2826
817.653	2906
817.793	2834
817.934	2883
818.075	2963
818.216	3020
818.356	3028
818.497	2902
818.638	2788
818.778	2807
818.919	2800
819.06	2769
819.2	2937
819.341	2823
819.481	2807
819.622	2922
819.762	3135
819.903	3051
820.043	2910
820.184	2929
820.324	2902
820.465	3020
820.605	3062
820.746	3058
820.886	2941
821.026	3097
821.167	3180
821.307	3298
821.447	3298
821.588	3237
821.728	3218
821.868	3241
822.008	3093
822.149	3203
822.289	3245
822.429	3085
822.569	3112
822.709	3203
822.849	3020
822.99	3097
823.13	3192
823.27	3195
823.41	3135
823.55	3195
823.69	3150
823.83	3192
823.97	3135
824.11	3020
824.25	3001
824.389	3100
824.529	3127
824.669	3039
824.809	3218
824.949	3321
825.089	3207
825.228	3195
825.368	2994
825.508	2960
825.648	2963
825.787	3005
825.927	3047
826.067	2967
826.206	2944
826.346	3051
826.485	3081
826.625	3093
826.765	3279
826.904	3218
827.044	3009
827.183	2952
827.323	2883
827.462	3005
827.601	2929
827.741	2933
827.88	2979
828.02	2872
828.159	3024
828.298	3032
828.437	3138
828.577	3047
828.716	3241
828.855	3081
828.994	2941
829.134	2868
829.273	2906
829.412	2880
829.551	2834
829.69	2868
829.829	2975
829.968	3131
830.107	2998
830.246	3036
830.385	2952
830.524	2906
830.663	2838
830.802	2708
830.941	2651
831.08	2663
831.219	2773
831.357	2796
831.496	2952
831.635	2727
831.774	2636
831.913	2689
832.051	2541
832.19	2556
832.329	2697
832.467	2518
832.606	2518
832.744	2644
832.883	2606
833.022	2602
833.16	2682
833.299	2712
833.437	2678
833.576	2716
833.714	2720
833.852	2739
833.991	2769
834.129	2849
834.267	2861
834.406	2769
834.544	2891
834.682	2899
834.821	2876
834.959	3097
835.097	2902
835.235	3043
835.373	3013
835.511	3017
835.65	2986
835.788	2952
835.926	2845
836.064	2815
836.202	2872
836.34	3108
836.478	3199
836.615	3093
836.753	3146
836.891	3199
837.029	3157
837.167	3116
837.305	3039
837.443	3085
837.58	2952
837.718	3150
837.856	3089
837.993	3058
838.131	3176
838.269	3108
838.406	3074
838.544	3112
838.681	2925
838.819	2902
838.956	2796
839.094	2811
839.231	2918
839.369	3024
839.506	3389
839.643	3214
839.781	3036
839.918	3009
840.055	3070
840.193	3058
840.33	3093
840.467	3116
840.604	3138
840.742	3405
840.879	3070
841.016	3055
841.153	3138
841.29	3329
841.427	3291
841.564	3264
841.701	3329
841.838	3207
841.975	3173
842.112	3207
842.249	3093
842.385	3039
842.522	3241
842.659	3089
842.796	3085
842.933	3119
843.069	3039
843.206	3043
843.343	3199
843.479	3138
843.616	3142
843.752	2899
843.889	2887
844.025	3097
844.162	2880
844.298	3085
844.435	2941
844.571	2910
844.708	3112
844.844	3233
844.98	3230
845.117	3211
845.253	3058
845.389	2990
845.525	3116
845.661	3108
845.798	3024
845.934	3119
846.07	3024
846.206	3256
846.342	3351
846.478	3237
846.614	3127
846.75	3047
846.886	3013
847.022	3268
847.158	3161
847.294	3211
847.429	3218
847.565	3165
847.701	3462
847.837	3058
847.972	2994
848.108	3180
848.244	3150
848.379	2990
848.515	2948
848.65	2914
848.786	2979
848.921	3013
849.057	3119
849.192	3195
849.328	3062
849.463	3131
849.598	3077
849.734	3039
849.869	2971
850.004	2914
850.14	2956
850.275	2922
850.41	2857
850.545	2899
850.68	2914
850.815	2960
850.95	3020
851.085	3203
851.22	3058
851.355	3058
851.49	3009
851.625	3009
851.76	3005
851.895	2910
852.03	2937
852.165	3036
852.299	3085
852.434	3199
852.569	3146
852.703	3169
852.838	3268
852.973	3367
853.107	3355
853.242	3169
853.376	3085
853.511	3009
853.645	3066
853.78	3253
853.914	3119
854.048	3127
854.183	3043
854.317	3116
854.451	3298
854.585	3112
854.72	3066
854.854	3218
854.988	3036
855.122	3085
855.256	2971
855.39	3127
855.524	3256
855.658	3180
855.792	3138
855.926	3184
856.06	3230
856.194	3287
856.327	3150
856.461	3070
856.595	3097
856.729	3093
856.862	3218
856.996	3199
857.13	3184
857.263	3249
857.397	3283
857.53	3142
857.664	3157
857.797	3230
857.931	3226
858.064	3192
858.197	3207
858.331	3169
858.464	3089
858.597	2998
858.731	3138
858.864	3138
858.997	3104
859.13	3142
859.263	3131
859.396	3180
859.529	3077
859.662	3066
859.795	3066
859.928	3150
860.061	3264
860.194	3287
860.327	3138
860.46	3112
860.592	3237
860.725	3272
860.858	3260
860.99	3074
861.123	3089
861.256	3039
861.388	3131
861.521	3892
861.653	3005
861.786	3005
861.918	2979
862.05	3066
862.183	3112
862.315	3176
862.447	3199
862.58	3093
862.712	2944
862.844	2864
862.976	3036
863.108	3036
863.24	3321
863.372	2868
863.504	2960
863.636	2918
863.768	3024
863.9	2967
864.032	2902
864.164	2967
864.296	3017
864.428	3093
864.559	3116
864.691	3043
864.823	3104
864.954	3020
865.086	3062
865.217	3001
865.349	2956
865.48	2998
865.612	3009
865.743	3173
865.875	2990
866.006	2960
866.137	2960
866.269	2990
866.4	2952
866.531	2910
866.662	2880
866.793	2914
866.924	2880
867.055	2979
867.186	2960
867.317	2910
867.448	2819
867.579	2849
867.71	2864
867.841	2811
867.972	2880
868.103	2941
868.233	2899
868.364	2864
868.495	2899
868.625	3070
868.756	3218
868.886	2971
869.017	3013
869.147	3199
869.278	3180
869.408	3032
869.539	3017
869.669	3108
869.799	3043
869.929	3146
870.06	3077
870.19	3317
870.32	3310
870.45	3329
870.58	3363
870.71	3469
870.84	3473
870.97	3317
871.1	3237
871.23	3534
871.36	3481
871.489	3359
871.619	3412
871.749	3386
871.879	3386
872.008	3454
872.138	3378
872.267	3241
872.397	3157
872.526	3100
872.656	3013
872.785	3097
872.915	3249
873.044	3313
873.173	3195
873.303	3249
873.432	3230
873.561	3264
873.69	3138
873.819	3135
873.948	3226
874.077	3138
874.206	3039
874.335	3093
874.464	3214
874.593	3374
874.722	3268
874.851	3382
874.979	3321
875.108	3336
875.237	3176
875.365	3119
875.494	3207
875.623	3207
875.751	3100
875.88	3081
876.008	3203
876.136	3245
876.265	3370
876.393	3511
876.521	3469
876.65	3401
876.778	3336
876.906	3211
877.034	3192
877.162	3249
877.29	3184
877.418	3241
877.546	3226
877.674	3230
877.802	3226
877.93	3222
878.058	3184
878.185	3074
878.313	3195
878.441	3203
878.568	3062
878.696	3180
878.824	3226
878.951	3310
879.079	3481
879.206	3637
879.333	3466
879.461	3336
879.588	3367
879.715	3481
879.842	3564
879.97	3397
880.097	3154
880.224	3116
880.351	3195
880.478	3256
880.605	3233
880.732	3184
880.859	3469
880.986	3306
881.112	3294
881.239	3214
881.366	3131
881.493	3055
881.619	2982
881.746	3070
881.872	3131
881.999	3089
882.125	3184
882.252	3272
882.378	3317
882.505	3424
882.631	3272
882.757	3154
882.883	3222
883.01	3233
883.136	3154
883.262	3081
883.388	3100
883.514	3355
883.64	3359
883.766	3313
883.892	3176
884.018	3264
884.143	3397
884.269	3580
884.395	3211
884.52	3157
884.646	3165
884.772	3146
884.897	3108
885.023	3199
885.148	3340
885.274	3420
885.399	3393
885.524	3283
885.65	3275
885.775	3298
885.9	3313
886.025	3450
886.15	3363
886.275	3325
886.4	3241
886.525	3264
886.65	3302
886.775	3279
886.9	3500
887.025	3618
887.149	3412
887.274	3272
887.399	3161
887.523	3173
887.648	3154
887.773	3157
887.897	3363
888.021	3428
888.146	3275
888.27	3443
888.395	3561
888.519	3420
888.643	3435
888.767	3488
888.891	3310
889.015	3241
889.139	3332
889.263	3207
889.387	3378
889.511	3488
889.635	3431
889.759	3302
889.883	3279
890.006	3374
890.13	3477
890.254	3256
890.377	3382
890.501	3176
890.624	3157
890.748	3306
890.871	3188
890.995	3089
891.118	3062
891.241	3218
891.364	3226
891.488	3363
891.611	3211
891.734	3237
891.857	3268
891.98	3245
892.103	3332
892.226	3283
892.349	3237
892.471	3142
892.594	3230
892.717	3310
892.839	3279
892.962	3306
893.085	3363
893.207	3306
893.33	3176
893.452	3230
893.575	3344
893.697	3218
893.819	3488
893.941	3504
894.064	3462
894.186	3253
894.308	3279
894.43	3469
894.552	3538
894.674	3477
894.796	3253
894.918	3294
895.04	3268
895.161	3412
895.283	3382
895.405	3283
895.526	3332
895.648	3447
895.769	3420
895.891	3454
896.012	3473
896.134	3500
896.255	3416
896.376	3412
896.498	3348
896.619	3424
896.74	3374
896.861	3431
896.982	3701
897.103	3812
897.224	3584
897.345	3526
897.466	3393
897.587	3523
897.708	3622
897.828	3568
897.949	3443
898.07	3321
898.19	3409
898.311	3618
898.431	3450
898.552	3515
898.672	3591
898.792	3576
898.913	3473
899.033	3424
899.153	3275
899.273	3222
899.393	3283
899.513	3325
899.633	3321
899.753	3325
899.873	3329
899.993	3370
900.113	3344
900.232	3435
900.352	3336
900.472	3310
900.591	3230
900.711	3287
900.83	3241
900.95	3428
901.069	3511
901.189	3374
901.308	3184
901.427	3150
901.546	3207
901.665	3283
901.784	3317
901.904	3211
902.023	3154
902.141	3017
902.26	2990
902.379	3165
902.498	3032
902.617	3085
902.735	3211
902.854	3241
902.973	3195
903.091	3043
903.21	3032
903.328	3146
903.446	3116
903.565	3104
903.683	3203
903.801	3104
903.919	3256
904.038	3313
904.156	3188
904.274	3294
904.392	3283
904.51	3329
904.627	3310
904.745	3450
904.863	3485
904.981	3214
905.098	3199
905.216	3268
905.334	3306
905.451	3306
905.569	3264
905.686	3454
905.803	3469
905.921	3272
906.038	3420
906.155	3348
906.272	3272
906.389	3336
906.506	3245
906.623	3230
906.74	3291
906.857	3211
906.974	3272
907.091	3450
907.208	3568
907.324	3515
907.441	3416
907.557	3222
907.674	3211
907.79	3211
907.907	3302
908.023	3393
908.139	3409
908.256	3321
908.372	3378
908.488	3348
908.604	3268
908.72	3253
908.836	3287
908.952	3272
909.068	3344
909.184	3450
909.3	3401
909.415	3454
909.531	3488
909.647	3313
909.762	3336
909.878	3275
909.993	3359
910.108	3355
910.224	3351
910.339	3412
910.454	3359
910.57	3291
910.685	3230
910.8	3568
910.915	3545
911.03	3462
911.145	3287
911.259	3272
911.374	3321
911.489	3245
911.604	3222
911.718	3127
911.833	3161
911.947	3051
912.062	2986
912.176	3188
912.291	3192
912.405	3264
912.519	3412
912.633	3450
912.748	3355
912.862	3264
912.976	3203
913.09	3047
913.204	3131
913.318	3226
913.431	3317
913.545	3344
913.659	3401
913.772	3325
913.886	3226
914	3199
914.113	3370
914.226	3420
914.34	3374
914.453	3214
914.566	3447
914.68	3306
914.793	3302
914.906	3165
915.019	3138
915.132	3055
915.245	3131
915.358	3192
915.47	3222
915.583	3230
915.696	3279
915.809	3431
915.921	3420
916.034	3268
916.146	3264
916.259	3188
916.371	3397
916.483	3397
916.595	3279
916.708	3332
916.82	3336
916.932	3363
917.044	3355
917.156	3332
917.268	3253
917.38	3329
917.491	3313
917.603	3355
917.715	3443
917.826	3458
917.938	3397
918.049	3272
918.161	3401
918.272	3568
918.384	3603
918.495	3534
918.606	3336
918.717	3268
918.828	3393
918.939	3439
919.05	3294
919.161	3382
919.272	3157
919.383	3275
919.494	3500
919.604	3720
919.715	3496
919.826	3416
919.936	3439
920.047	3568
920.157	3526
920.267	3774
920.378	3614
920.488	3591
920.598	3770
920.708	3968
920.818	3819
920.928	3892
921.038	4013
921.148	3998
921.258	3740
921.368	3675
921.477	3618
921.587	3561
921.697	3481
921.806	3625
921.916	3500
922.025	3340
922.134	3367
922.244	3348
922.353	3447
922.462	3237
922.571	3249
922.68	3138
922.789	3081
922.898	3135
923.007	3138
923.116	3207
923.224	3150
923.333	3173
923.442	3089
923.55	3074
923.659	3142
923.767	3218
923.876	3146
923.984	3256
924.092	3116
924.201	3241
924.309	3237
924.417	3249
924.525	3165
924.633	3287
924.741	4192
924.849	3036
924.956	3256
925.064	3097
925.172	3051
925.279	3112
925.387	3211
925.494	3207
925.602	3336
925.709	3363
925.816	3192
925.924	3268
926.031	3378
926.138	3332
926.245	3363
926.352	3264
926.459	3428
926.566	3462
926.673	3336
926.779	3237
926.886	3279
926.993	3138
927.099	3116
927.206	3154
927.312	3146
927.419	3268
927.525	3253
927.631	3302
927.737	3127
927.843	3146
927.95	3039
928.056	3146
928.162	3157
928.267	3233
928.373	3876
928.479	3279
928.585	3062
928.69	3272
928.796	3241
928.901	3180
929.007	3039
929.112	3203
929.218	3184
929.323	3188
929.428	3169
929.533	3291
929.638	3138
929.743	3142
929.848	3272
929.953	3253
930.058	3176
930.163	2990
930.267	3055
930.372	3192
930.477	3047
930.581	3359
930.685	3188
930.79	3058
930.894	3138
930.998	3051
931.103	3294
931.207	2963
931.311	2922
931.415	2887
931.519	2777
931.623	2838
