Data from test_V78500241_1852.txt Node
Date: Fri Mar 25 16:28:01 CST 2022
User: usil
Spectrometer: V785-0024
Trigger mode: 0
Integration Time (sec): 4.000000E-1
Scans to average: 1
Nonlinearity correction enabled: false
Boxcar width: 0
Storing dark spectrum: false
XAxis mode: Wavelengths
Number of Pixels in Spectrum: 1024
>>>>>Begin Spectral Data<<<<<
801.071	2929
801.214	2937
801.356	2861
801.499	2960
801.641	2902
801.783	2960
801.926	3066
802.068	3009
802.211	3009
802.353	3081
802.496	2990
802.638	3070
802.78	3055
802.923	3081
803.065	3032
803.208	2914
803.35	2929
803.492	2956
803.635	2925
803.777	2773
803.919	2891
804.061	3211
804.204	2948
804.346	2937
804.488	2887
804.63	2979
804.773	2902
804.915	2948
805.057	3119
805.199	2944
805.341	3005
805.483	3062
805.626	2979
805.768	2967
805.91	3108
806.052	3161
806.194	2990
806.336	3253
806.478	3055
806.62	2990
806.762	2971
806.904	3081
807.046	3184
807.188	3036
807.33	2933
807.472	3017
807.614	2918
807.756	3017
807.898	2967
808.04	2929
808.182	2990
808.324	2956
808.465	2906
808.607	2933
808.749	2826
808.891	2872
809.033	2982
809.174	3001
809.316	2910
809.458	2899
809.6	2826
809.741	2811
809.883	2811
810.025	2861
810.166	2887
810.308	2876
810.45	2910
810.591	2796
810.733	2762
810.875	2872
811.016	2823
811.158	2746
811.299	2830
811.441	2948
811.582	2914
811.724	2857
811.865	2857
812.007	2887
812.148	2910
812.29	2868
812.431	2895
812.573	2941
812.714	2979
812.855	3077
812.997	3081
813.138	3150
813.279	3001
813.421	2990
813.562	2925
813.703	2895
813.845	2902
813.986	2838
814.127	2735
814.268	2823
814.41	2849
814.551	2857
814.692	2861
814.833	2864
814.974	2925
815.115	2990
815.256	2853
815.397	2845
815.539	2906
815.68	2838
815.821	2826
815.962	2922
816.103	2963
816.244	2868
816.385	2922
816.526	2990
816.666	2971
816.807	2773
816.948	2910
817.089	2914
817.23	2861
817.371	2792
817.512	2815
817.653	2857
817.793	2830
817.934	2906
818.075	2998
818.216	3032
818.356	3001
818.497	2914
818.638	2788
818.778	2861
818.919	2792
819.06	2773
819.2	2880
819.341	2823
819.481	2826
819.622	2948
819.762	3093
819.903	3058
820.043	2933
820.184	2929
820.324	2887
820.465	3039
820.605	3013
820.746	3047
820.886	2937
821.026	3127
821.167	3157
821.307	3260
821.447	3302
821.588	3253
821.728	3207
821.868	3180
822.008	3058
822.149	3203
822.289	3233
822.429	3089
822.569	3093
822.709	3180
822.849	3051
822.99	3081
823.13	3203
823.27	3211
823.41	3127
823.55	3176
823.69	3169
823.83	3237
823.97	3116
824.11	3024
824.25	3009
824.389	3074
824.529	3100
824.669	3047
824.809	3214
824.949	3268
825.089	3245
825.228	3161
825.368	3024
825.508	2952
825.648	2994
825.787	3009
825.927	3043
826.067	3043
826.206	2975
826.346	3028
826.485	3089
826.625	3112
826.765	3260
826.904	3199
827.044	3001
827.183	2944
827.323	2883
827.462	3017
827.601	2925
827.741	2952
827.88	2944
828.02	2864
828.159	3001
828.298	3062
828.437	3142
828.577	3051
828.716	3230
828.855	3085
828.994	2906
829.134	2944
829.273	2899
829.412	2891
829.551	2891
829.69	2872
829.829	3039
829.968	3108
830.107	3062
830.246	3013
830.385	2925
830.524	2845
830.663	2872
830.802	2750
830.941	2644
831.08	2648
831.219	2781
831.357	2758
831.496	2956
831.635	2758
831.774	2670
831.913	2648
832.051	2537
832.19	2594
832.329	2720
832.467	2568
832.606	2507
832.744	2583
832.883	2610
833.022	2613
833.16	2667
833.299	2705
833.437	2701
833.576	2689
833.714	2758
833.852	2735
833.991	2750
834.129	2823
834.267	2842
834.406	2823
834.544	2883
834.682	2853
834.821	2914
834.959	3066
835.097	2914
835.235	3062
835.373	2960
835.511	3013
835.65	2941
835.788	2960
835.926	2830
836.064	2819
836.202	2853
836.34	3081
836.478	3116
836.615	3036
836.753	3131
836.891	3184
837.029	3169
837.167	3116
837.305	3066
837.443	3039
837.58	2960
837.718	3131
837.856	3062
837.993	3077
838.131	3176
838.269	3104
838.406	3112
838.544	3077
838.681	2982
838.819	2944
838.956	2788
839.094	2853
839.231	2895
839.369	3051
839.506	3393
839.643	3226
839.781	3036
839.918	2986
840.055	3055
840.193	3039
840.33	3077
840.467	3066
840.604	3161
840.742	3393
840.879	3043
841.016	3039
841.153	3085
841.29	3344
841.427	3298
841.564	3275
841.701	3287
841.838	3222
841.975	3169
842.112	3214
842.249	3077
842.385	3039
842.522	3275
842.659	3070
842.796	3055
842.933	3081
843.069	3009
843.206	3032
843.343	3154
843.479	3066
843.616	3154
843.752	2857
843.889	2876
844.025	3108
844.162	2906
844.298	3093
844.435	2975
844.571	2895
844.708	3093
844.844	3173
844.98	3230
845.117	3214
845.253	3036
845.389	3005
845.525	3097
845.661	3081
845.798	3062
845.934	3104
846.07	3047
846.206	3226
846.342	3344
846.478	3230
846.614	3089
846.75	3074
846.886	3058
847.022	3218
847.158	3112
847.294	3233
847.429	3226
847.565	3226
847.701	3435
847.837	3017
847.972	2994
848.108	3161
848.244	3154
848.379	2990
848.515	2906
848.65	2941
848.786	2979
848.921	2994
849.057	3066
849.192	3199
849.328	3066
849.463	3100
849.598	3070
849.734	3093
849.869	2998
850.004	2891
850.14	2975
850.275	2944
850.41	2853
850.545	2895
850.68	2941
850.815	2960
850.95	3013
851.085	3199
851.22	3116
851.355	3077
851.49	2994
851.625	3028
851.76	3055
851.895	2963
852.03	2902
852.165	3066
852.299	3119
852.434	3199
852.569	3173
852.703	3176
852.838	3264
852.973	3355
853.107	3363
853.242	3195
853.376	3131
853.511	3009
853.645	3066
853.78	3245
853.914	3142
854.048	3184
854.183	3127
854.317	3173
854.451	3344
854.585	3142
854.72	3116
854.854	3291
854.988	3093
855.122	3127
855.256	2998
855.39	3131
855.524	3306
855.658	3176
855.792	3195
855.926	3230
856.06	3275
856.194	3283
856.327	3203
856.461	3146
856.595	3116
856.729	3100
856.862	3226
856.996	3214
857.13	3237
857.263	3249
857.397	3340
857.53	3135
857.664	3287
857.797	3260
857.931	3302
858.064	3222
858.197	3245
858.331	3154
858.464	3093
858.597	3043
858.731	3119
858.864	3169
858.997	3116
859.13	3192
859.263	3233
859.396	3226
859.529	3116
859.662	3104
859.795	3093
859.928	3176
860.061	3317
860.194	3287
860.327	3195
860.46	3116
860.592	3272
860.725	3275
860.858	3260
860.99	3112
861.123	3104
861.256	3077
861.388	3169
861.521	3827
861.653	3043
861.786	3028
861.918	3028
862.05	3100
862.183	3119
862.315	3173
862.447	3218
862.58	3131
862.712	2986
862.844	2895
862.976	3093
863.108	3047
863.24	3469
863.372	2933
863.504	3039
863.636	2982
863.768	3074
863.9	3032
864.032	2971
864.164	2982
864.296	3051
864.428	3138
864.559	3127
864.691	3081
864.823	3116
864.954	3085
865.086	3100
865.217	3058
865.349	2990
865.48	3017
865.612	3062
865.743	3154
865.875	3005
866.006	2971
866.137	3013
866.269	2998
866.4	2971
866.531	2960
866.662	2922
866.793	2937
866.924	2887
867.055	3055
867.186	2937
867.317	2914
867.448	2853
867.579	2849
867.71	2914
867.841	2864
867.972	2937
868.103	2914
868.233	2933
868.364	2906
868.495	2948
868.625	3108
868.756	3195
868.886	3009
869.017	3039
869.147	3207
869.278	3203
869.408	3093
869.539	3066
869.669	3116
869.799	3024
869.929	3203
870.06	3123
870.19	3355
870.32	3321
870.45	3325
870.58	3405
870.71	3458
870.84	3443
870.97	3367
871.1	3294
871.23	3504
871.36	3492
871.489	3397
871.619	3397
871.749	3431
871.879	3481
872.008	3523
872.138	3351
872.267	3325
872.397	3188
872.526	3131
872.656	3077
872.785	3154
872.915	3256
873.044	3382
873.173	3233
873.303	3302
873.432	3218
873.561	3264
873.69	3203
873.819	3184
873.948	3230
874.077	3131
874.206	3085
874.335	3131
874.464	3226
874.593	3332
874.722	3268
874.851	3416
874.979	3370
875.108	3355
875.237	3230
875.365	3211
875.494	3230
875.623	3302
875.751	3119
875.88	3138
876.008	3203
876.136	3264
876.265	3397
876.393	3534
876.521	3473
876.65	3397
876.778	3355
876.906	3283
877.034	3199
877.162	3294
877.29	3192
877.418	3317
877.546	3283
877.674	3249
877.802	3192
877.93	3249
878.058	3222
878.185	3154
878.313	3192
878.441	3230
878.568	3077
878.696	3154
878.824	3279
878.951	3363
879.079	3473
879.206	3629
879.333	3458
879.461	3367
879.588	3397
879.715	3534
879.842	3629
879.97	3416
880.097	3207
880.224	3169
880.351	3245
880.478	3245
880.605	3233
880.732	3218
880.859	3561
880.986	3310
881.112	3321
881.239	3279
881.366	3176
881.493	3043
881.619	3055
881.746	3077
881.872	3135
881.999	3135
882.125	3135
882.252	3287
882.378	3313
882.505	3477
882.631	3317
882.757	3165
882.883	3192
883.01	3237
883.136	3180
883.262	3097
883.388	3188
883.514	3370
883.64	3412
883.766	3348
883.892	3218
884.018	3283
884.143	3447
884.269	3542
884.395	3203
884.52	3207
884.646	3207
884.772	3150
884.897	3138
885.023	3256
885.148	3401
885.274	3443
885.399	3382
885.524	3245
885.65	3283
885.775	3363
885.9	3283
886.025	3420
886.15	3344
886.275	3317
886.4	3264
886.525	3302
886.65	3291
886.775	3275
886.9	3477
887.025	3633
887.149	3428
887.274	3275
887.399	3222
887.523	3245
887.648	3203
887.773	3256
887.897	3431
888.021	3420
888.146	3363
888.27	3462
888.395	3542
888.519	3428
888.643	3507
888.767	3458
888.891	3340
889.015	3264
889.139	3310
889.263	3241
889.387	3431
889.511	3496
889.635	3496
889.759	3294
889.883	3329
890.006	3389
890.13	3534
890.254	3306
890.377	3355
890.501	3226
890.624	3233
890.748	3310
890.871	3173
890.995	3157
891.118	3089
891.241	3233
891.364	3245
891.488	3313
891.611	3157
891.734	3264
891.857	3310
891.98	3237
892.103	3359
892.226	3272
892.349	3226
892.471	3116
892.594	3272
892.717	3340
892.839	3279
892.962	3344
893.085	3348
893.207	3317
893.33	3127
893.452	3214
893.575	3386
893.697	3260
893.819	3481
893.941	3538
894.064	3492
894.186	3275
894.308	3279
894.43	3435
894.552	3576
894.674	3515
894.796	3310
894.918	3298
895.04	3279
895.161	3435
895.283	3389
895.405	3351
895.526	3389
895.648	3458
895.769	3504
895.891	3443
896.012	3477
896.134	3496
896.255	3439
896.376	3401
896.498	3374
896.619	3401
896.74	3367
896.861	3431
896.982	3713
897.103	3835
897.224	3614
897.345	3523
897.466	3473
897.587	3515
897.708	3690
897.828	3587
897.949	3458
898.07	3332
898.19	3424
898.311	3606
898.431	3473
898.552	3515
898.672	3595
898.792	3564
898.913	3538
899.033	3416
899.153	3329
899.273	3230
899.393	3344
899.513	3325
899.633	3260
899.753	3351
899.873	3291
899.993	3409
900.113	3401
900.232	3412
900.352	3393
900.472	3279
900.591	3203
900.711	3336
900.83	3306
900.95	3416
901.069	3469
901.189	3378
901.308	3188
901.427	3165
901.546	3260
901.665	3268
901.784	3310
901.904	3245
902.023	3184
902.141	3039
902.26	2990
902.379	3188
902.498	3127
902.617	3093
902.735	3230
902.854	3256
902.973	3195
903.091	3081
903.21	3123
903.328	3154
903.446	3138
903.565	3123
903.683	3207
903.801	3119
903.919	3264
904.038	3291
904.156	3154
904.274	3317
904.392	3249
904.51	3287
904.627	3336
904.745	3462
904.863	3568
904.981	3275
905.098	3150
905.216	3226
905.334	3298
905.451	3317
905.569	3298
905.686	3393
905.803	3428
905.921	3306
906.038	3412
906.155	3393
906.272	3272
906.389	3306
906.506	3260
906.623	3272
906.74	3306
906.857	3214
906.974	3237
907.091	3412
907.208	3568
907.324	3496
907.441	3420
907.557	3256
907.674	3211
907.79	3233
907.907	3313
908.023	3405
908.139	3397
908.256	3336
908.372	3386
908.488	3336
908.604	3287
908.72	3260
908.836	3321
908.952	3291
909.068	3355
909.184	3526
909.3	3386
909.415	3568
909.531	3435
909.647	3294
909.762	3287
909.878	3317
909.993	3401
910.108	3367
910.224	3329
910.339	3431
910.454	3378
910.57	3306
910.685	3291
910.8	3584
910.915	3576
911.03	3420
911.145	3291
911.259	3287
911.374	3310
911.489	3230
911.604	3222
911.718	3097
911.833	3173
911.947	3055
912.062	3005
912.176	3195
912.291	3237
912.405	3256
912.519	3454
912.633	3492
912.748	3351
912.862	3272
912.976	3169
913.09	3085
913.204	3146
913.318	3218
913.431	3321
913.545	3363
913.659	3447
913.772	3340
913.886	3256
914	3226
914.113	3397
914.226	3450
914.34	3370
914.453	3264
914.566	3397
914.68	3291
914.793	3329
914.906	3150
915.019	3108
915.132	3089
915.245	3192
915.358	3199
915.47	3207
915.583	3249
915.696	3291
915.809	3405
915.921	3454
916.034	3291
916.146	3264
916.259	3222
916.371	3420
916.483	3363
916.595	3336
916.708	3351
916.82	3332
916.932	3386
917.044	3374
917.156	3359
917.268	3268
917.38	3306
917.491	3268
917.603	3382
917.715	3458
917.826	3473
917.938	3409
918.049	3264
918.161	3428
918.272	3542
918.384	3572
918.495	3553
918.606	3351
918.717	3306
918.828	3382
918.939	3393
919.05	3310
919.161	3401
919.272	3192
919.383	3291
919.494	3496
919.604	3663
919.715	3488
919.826	3443
919.936	3504
920.047	3572
920.157	3584
920.267	3785
920.378	3637
920.488	3591
920.598	3819
920.708	3956
920.818	3823
920.928	3823
921.038	4044
921.148	3991
921.258	3724
921.368	3637
921.477	3580
921.587	3595
921.697	3447
921.806	3660
921.916	3526
922.025	3382
922.134	3412
922.244	3348
922.353	3409
922.462	3294
922.571	3230
922.68	3180
922.789	3100
922.898	3154
923.007	3081
923.116	3184
923.224	3165
923.333	3176
923.442	3108
923.55	3100
923.659	3157
923.767	3214
923.876	3089
923.984	3298
924.092	3119
924.201	3226
924.309	3264
924.417	3260
924.525	3180
924.633	3230
924.741	3991
924.849	3074
924.956	3268
925.064	3062
925.172	3051
925.279	3081
925.387	3203
925.494	3226
925.602	3340
925.709	3351
925.816	3211
925.924	3268
926.031	3416
926.138	3313
926.245	3359
926.352	3233
926.459	3409
926.566	3473
926.673	3340
926.779	3287
926.886	3245
926.993	3169
927.099	3135
927.206	3081
927.312	3100
927.419	3230
927.525	3203
927.631	3230
927.737	3150
927.843	3108
927.95	3055
928.056	3116
928.162	3184
928.267	3249
928.373	3808
928.479	3313
928.585	3070
928.69	3192
928.796	3279
928.901	3199
929.007	3081
929.112	3188
929.218	3188
929.323	3138
929.428	3154
929.533	3329
929.638	3146
929.743	3176
929.848	3268
929.953	3211
930.058	3131
930.163	2998
930.267	3032
930.372	3195
930.477	3051
930.581	3332
930.685	3195
930.79	3028
930.894	3138
930.998	3138
931.103	3264
931.207	2967
931.311	2952
931.415	2918
931.519	2807
931.623	2826
