Data from test_V78500241_1079.txt Node
Date: Fri Mar 25 16:22:40 CST 2022
User: usil
Spectrometer: V785-0024
Trigger mode: 0
Integration Time (sec): 4.000000E-1
Scans to average: 1
Nonlinearity correction enabled: false
Boxcar width: 0
Storing dark spectrum: false
XAxis mode: Wavelengths
Number of Pixels in Spectrum: 1024
>>>>>Begin Spectral Data<<<<<
801.071	2922
801.214	2944
801.356	2880
801.499	2849
801.641	2872
801.783	2918
801.926	3036
802.068	2963
802.211	2994
802.353	3032
802.496	2960
802.638	3017
802.78	3024
802.923	3074
803.065	2986
803.208	2887
803.35	2914
803.492	2910
803.635	2906
803.777	2743
803.919	2845
804.061	3195
804.204	2960
804.346	2910
804.488	2811
804.63	2979
804.773	2880
804.915	2899
805.057	3081
805.199	2914
805.341	2948
805.483	3001
805.626	2986
805.768	2967
805.91	3066
806.052	3104
806.194	3039
806.336	3230
806.478	3020
806.62	2925
806.762	3009
806.904	3066
807.046	3154
807.188	2948
807.33	2902
807.472	2982
807.614	2914
807.756	2982
807.898	2937
808.04	2918
808.182	2979
808.324	2948
808.465	2864
808.607	2876
808.749	2811
808.891	2868
809.033	2982
809.174	2929
809.316	2906
809.458	2891
809.6	2754
809.741	2804
809.883	2796
810.025	2853
810.166	2861
810.308	2823
810.45	2849
810.591	2796
810.733	2739
810.875	2834
811.016	2826
811.158	2758
811.299	2838
811.441	2895
811.582	2891
811.724	2819
811.865	2811
812.007	2910
812.148	2842
812.29	2849
812.431	2899
812.573	2914
812.714	2971
812.855	3039
812.997	3032
813.138	3116
813.279	3005
813.421	2960
813.562	2952
813.703	2902
813.845	2868
813.986	2777
814.127	2712
814.268	2788
814.41	2838
814.551	2807
814.692	2902
814.833	2842
814.974	2842
815.115	2933
815.256	2834
815.397	2811
815.539	2834
815.68	2792
815.821	2792
815.962	2948
816.103	2910
816.244	2876
816.385	2883
816.526	2975
816.666	2899
816.807	2750
816.948	2891
817.089	2925
817.23	2876
817.371	2796
817.512	2769
817.653	2823
817.793	2845
817.934	2880
818.075	2967
818.216	2982
818.356	3024
818.497	2910
818.638	2777
818.778	2811
818.919	2785
819.06	2781
819.2	2883
819.341	2819
819.481	2804
819.622	2937
819.762	3119
819.903	3028
820.043	2956
820.184	2910
820.324	2849
820.465	3020
820.605	3028
820.746	3047
820.886	2918
821.026	3108
821.167	3123
821.307	3233
821.447	3272
821.588	3241
821.728	3192
821.868	3211
822.008	3036
822.149	3218
822.289	3211
822.429	3093
822.569	3074
822.709	3180
822.849	3028
822.99	3043
823.13	3184
823.27	3180
823.41	3085
823.55	3146
823.69	3142
823.83	3188
823.97	3104
824.11	3013
824.25	2971
824.389	3066
824.529	3119
824.669	3036
824.809	3188
824.949	3260
825.089	3237
825.228	3157
825.368	2979
825.508	2967
825.648	2952
825.787	2990
825.927	3001
826.067	2941
826.206	2956
826.346	3047
826.485	3028
826.625	3104
826.765	3226
826.904	3211
827.044	2979
827.183	2918
827.323	2853
827.462	2937
827.601	2895
827.741	2925
827.88	2960
828.02	2838
828.159	2933
828.298	3020
828.437	3089
828.577	3028
828.716	3226
828.855	3093
828.994	2929
829.134	2887
829.273	2891
829.412	2883
829.551	2864
829.69	2880
829.829	2967
829.968	3116
830.107	3017
830.246	3005
830.385	2902
830.524	2864
830.663	2842
830.802	2705
830.941	2640
831.08	2610
831.219	2758
831.357	2769
831.496	2933
831.635	2724
831.774	2651
831.913	2632
832.051	2541
832.19	2545
832.329	2686
832.467	2518
832.606	2492
832.744	2590
832.883	2571
833.022	2568
833.16	2655
833.299	2682
833.437	2701
833.576	2712
833.714	2701
833.852	2766
833.991	2750
834.129	2842
834.267	2819
834.406	2758
834.544	2868
834.682	2849
834.821	2864
834.959	3081
835.097	2899
835.235	2998
835.373	3009
835.511	3058
835.65	2960
835.788	2906
835.926	2815
836.064	2766
836.202	2861
836.34	3093
836.478	3112
836.615	3039
836.753	3131
836.891	3199
837.029	3161
837.167	3074
837.305	3062
837.443	3024
837.58	2948
837.718	3150
837.856	3081
837.993	3058
838.131	3074
838.269	3062
838.406	3074
838.544	3077
838.681	2895
838.819	2929
838.956	2826
839.094	2826
839.231	2899
839.369	3005
839.506	3378
839.643	3199
839.781	3005
839.918	2956
840.055	3077
840.193	3039
840.33	3093
840.467	3104
840.604	3135
840.742	3367
840.879	3020
841.016	3058
841.153	3089
841.29	3325
841.427	3310
841.564	3264
841.701	3291
841.838	3184
841.975	3161
842.112	3195
842.249	3077
842.385	3051
842.522	3287
842.659	3062
842.796	3055
842.933	3138
843.069	3066
843.206	3043
843.343	3157
843.479	3097
843.616	3131
843.752	2918
843.889	2891
844.025	3085
844.162	2857
844.298	3077
844.435	2941
844.571	2933
844.708	3100
844.844	3173
844.98	3256
845.117	3203
845.253	3100
845.389	2994
845.525	3097
845.661	3112
845.798	3017
845.934	3127
846.07	3055
846.206	3241
846.342	3298
846.478	3264
846.614	3032
846.75	3070
846.886	3028
847.022	3245
847.158	3119
847.294	3195
847.429	3237
847.565	3218
847.701	3477
847.837	3028
847.972	2982
848.108	3173
848.244	3108
848.379	2982
848.515	2963
848.65	2906
848.786	2960
848.921	3013
849.057	3077
849.192	3131
849.328	3112
849.463	3097
849.598	3047
849.734	3032
849.869	2952
850.004	2880
850.14	2986
850.275	2925
850.41	2845
850.545	2895
850.68	2937
850.815	2963
850.95	2979
851.085	3195
851.22	3104
851.355	3009
851.49	2948
851.625	2998
851.76	2994
851.895	2941
852.03	2929
852.165	2990
852.299	3108
852.434	3195
852.569	3135
852.703	3184
852.838	3226
852.973	3359
853.107	3336
853.242	3135
853.376	3070
853.511	2956
853.645	2990
853.78	3245
853.914	3104
854.048	3081
854.183	3093
854.317	3154
854.451	3294
854.585	3116
854.72	3093
854.854	3218
854.988	3051
855.122	3089
855.256	2963
855.39	3089
855.524	3256
855.658	3165
855.792	3123
855.926	3188
856.06	3169
856.194	3199
856.327	3161
856.461	3062
856.595	3097
856.729	3062
856.862	3180
856.996	3165
857.13	3203
857.263	3214
857.397	3233
857.53	3093
857.664	3165
857.797	3260
857.931	3237
858.064	3146
858.197	3199
858.331	3089
858.464	3055
858.597	2979
858.731	3135
858.864	3100
858.997	3081
859.13	3154
859.263	3161
859.396	3169
859.529	3062
859.662	3009
859.795	3070
859.928	3108
860.061	3230
860.194	3317
860.327	3169
860.46	3081
860.592	3237
860.725	3199
860.858	3279
860.99	3077
861.123	3081
861.256	3043
861.388	3112
861.521	3762
861.653	2986
861.786	3001
861.918	3001
862.05	3093
862.183	3058
862.315	3131
862.447	3180
862.58	3100
862.712	2941
862.844	2861
862.976	2994
863.108	3017
863.24	3344
863.372	2861
863.504	2963
863.636	2929
863.768	3028
863.9	3013
864.032	2891
864.164	2967
864.296	2986
864.428	3066
864.559	3074
864.691	3051
864.823	3020
864.954	3032
865.086	3043
865.217	2990
865.349	2948
865.48	3009
865.612	3020
865.743	3173
865.875	2963
866.006	2914
866.137	2929
866.269	2937
866.4	2925
866.531	2891
866.662	2906
866.793	2929
866.924	2864
867.055	2982
867.186	2910
867.317	2887
867.448	2819
867.579	2861
867.71	2811
867.841	2830
867.972	2902
868.103	2910
868.233	2899
868.364	2883
868.495	2861
868.625	3085
868.756	3154
868.886	2952
869.017	3013
869.147	3169
869.278	3169
869.408	2990
869.539	3036
869.669	3100
869.799	3028
869.929	3104
870.06	3093
870.19	3340
870.32	3287
870.45	3321
870.58	3382
870.71	3435
870.84	3450
870.97	3283
871.1	3222
871.23	3504
871.36	3500
871.489	3363
871.619	3412
871.749	3412
871.879	3397
872.008	3488
872.138	3389
872.267	3279
872.397	3154
872.526	3093
872.656	2994
872.785	3123
872.915	3222
873.044	3291
873.173	3218
873.303	3287
873.432	3222
873.561	3218
873.69	3161
873.819	3150
873.948	3207
874.077	3100
874.206	3020
874.335	3058
874.464	3214
874.593	3332
874.722	3249
874.851	3420
874.979	3389
875.108	3253
875.237	3211
875.365	3127
875.494	3195
875.623	3230
875.751	3062
875.88	3123
876.008	3176
876.136	3222
876.265	3378
876.393	3473
876.521	3454
876.65	3401
876.778	3336
876.906	3233
877.034	3218
877.162	3230
877.29	3157
877.418	3237
877.546	3222
877.674	3241
877.802	3237
877.93	3222
878.058	3150
878.185	3074
878.313	3184
878.441	3214
878.568	3070
878.696	3150
878.824	3291
878.951	3317
879.079	3473
879.206	3625
879.333	3447
879.461	3272
879.588	3317
879.715	3466
879.842	3572
879.97	3382
880.097	3135
880.224	3131
880.351	3161
880.478	3180
880.605	3222
880.732	3214
880.859	3500
880.986	3256
881.112	3332
881.239	3199
881.366	3074
881.493	3032
881.619	3009
881.746	3051
881.872	3112
881.999	3116
882.125	3138
882.252	3203
882.378	3302
882.505	3397
882.631	3272
882.757	3104
882.883	3230
883.01	3253
883.136	3157
883.262	3074
883.388	3142
883.514	3306
883.64	3283
883.766	3325
883.892	3165
884.018	3230
884.143	3374
884.269	3530
884.395	3211
884.52	3138
884.646	3138
884.772	3119
884.897	3089
885.023	3237
885.148	3329
885.274	3389
885.399	3363
885.524	3268
885.65	3237
885.775	3291
885.9	3260
886.025	3424
886.15	3351
886.275	3272
886.4	3222
886.525	3313
886.65	3245
886.775	3260
886.9	3523
887.025	3690
887.149	3431
887.274	3249
887.399	3199
887.523	3218
887.648	3150
887.773	3226
887.897	3374
888.021	3389
888.146	3264
888.27	3431
888.395	3530
888.519	3439
888.643	3454
888.767	3397
888.891	3310
889.015	3264
889.139	3256
889.263	3249
889.387	3370
889.511	3511
889.635	3416
889.759	3306
889.883	3313
890.006	3378
890.13	3416
890.254	3253
890.377	3329
890.501	3195
890.624	3169
890.748	3294
890.871	3180
890.995	3097
891.118	3036
891.241	3199
891.364	3207
891.488	3317
891.611	3199
891.734	3203
891.857	3237
891.98	3192
892.103	3374
892.226	3264
892.349	3233
892.471	3104
892.594	3237
892.717	3306
892.839	3325
892.962	3291
893.085	3363
893.207	3287
893.33	3142
893.452	3226
893.575	3321
893.697	3211
893.819	3492
893.941	3477
894.064	3428
894.186	3275
894.308	3268
894.43	3367
894.552	3553
894.674	3511
894.796	3272
894.918	3306
895.04	3256
895.161	3454
895.283	3412
895.405	3302
895.526	3370
895.648	3424
895.769	3412
895.891	3439
896.012	3469
896.134	3469
896.255	3409
896.376	3397
896.498	3306
896.619	3439
896.74	3382
896.861	3363
896.982	3641
897.103	3846
897.224	3568
897.345	3511
897.466	3412
897.587	3477
897.708	3629
897.828	3564
897.949	3462
898.07	3321
898.19	3412
898.311	3637
898.431	3462
898.552	3504
898.672	3625
898.792	3584
898.913	3538
899.033	3409
899.153	3294
899.273	3195
899.393	3264
899.513	3344
899.633	3336
899.753	3344
899.873	3302
899.993	3428
900.113	3317
900.232	3409
900.352	3325
900.472	3268
900.591	3192
900.711	3321
900.83	3226
900.95	3431
901.069	3485
901.189	3363
901.308	3157
901.427	3154
901.546	3195
901.665	3325
901.784	3336
901.904	3199
902.023	3131
902.141	3005
902.26	3005
902.379	3146
902.498	3051
902.617	3066
902.735	3211
902.854	3237
902.973	3203
903.091	3055
903.21	3138
903.328	3169
903.446	3077
903.565	3108
903.683	3218
903.801	3123
903.919	3275
904.038	3275
904.156	3184
904.274	3310
904.392	3249
904.51	3298
904.627	3340
904.745	3447
904.863	3511
904.981	3298
905.098	3176
905.216	3256
905.334	3291
905.451	3264
905.569	3306
905.686	3420
905.803	3405
905.921	3310
906.038	3424
906.155	3298
906.272	3249
906.389	3340
906.506	3233
906.623	3245
906.74	3298
906.857	3176
906.974	3283
907.091	3481
907.208	3564
907.324	3496
907.441	3359
907.557	3211
907.674	3275
907.79	3192
907.907	3272
908.023	3409
908.139	3374
908.256	3272
908.372	3382
908.488	3340
908.604	3256
908.72	3237
908.836	3256
908.952	3279
909.068	3370
909.184	3496
909.3	3382
909.415	3469
909.531	3500
909.647	3302
909.762	3283
909.878	3241
909.993	3317
910.108	3344
910.224	3325
910.339	3393
910.454	3378
910.57	3336
910.685	3283
910.8	3580
910.915	3515
911.03	3416
911.145	3291
911.259	3287
911.374	3287
911.489	3230
911.604	3195
911.718	3123
911.833	3116
911.947	3047
912.062	3039
912.176	3135
912.291	3211
912.405	3146
912.519	3424
912.633	3416
912.748	3332
912.862	3264
912.976	3161
913.09	3047
913.204	3176
913.318	3218
913.431	3367
913.545	3348
913.659	3409
913.772	3298
913.886	3256
914	3192
914.113	3329
914.226	3401
914.34	3332
914.453	3218
914.566	3401
914.68	3325
914.793	3310
914.906	3169
915.019	3077
915.132	3070
915.245	3180
915.358	3203
915.47	3222
915.583	3279
915.696	3291
915.809	3412
915.921	3397
916.034	3256
916.146	3260
916.259	3241
916.371	3397
916.483	3378
916.595	3264
916.708	3340
916.82	3329
916.932	3302
917.044	3374
917.156	3367
917.268	3245
917.38	3294
917.491	3317
917.603	3389
917.715	3416
917.826	3424
917.938	3382
918.049	3272
918.161	3447
918.272	3557
918.384	3564
918.495	3496
918.606	3317
918.717	3230
918.828	3389
918.939	3454
919.05	3268
919.161	3370
919.272	3131
919.383	3268
919.494	3488
919.604	3667
919.715	3534
919.826	3412
919.936	3420
920.047	3595
920.157	3538
920.267	3781
920.378	3576
920.488	3545
920.598	3740
920.708	3949
920.818	3819
920.928	3812
921.038	4021
921.148	4006
921.258	3690
921.368	3580
921.477	3584
921.587	3553
921.697	3466
921.806	3633
921.916	3507
922.025	3332
922.134	3332
922.244	3332
922.353	3386
922.462	3268
922.571	3249
922.68	3112
922.789	3108
922.898	3165
923.007	3085
923.116	3195
923.224	3157
923.333	3138
923.442	3066
923.55	3085
923.659	3123
923.767	3237
923.876	3146
923.984	3245
924.092	3081
924.201	3176
924.309	3199
924.417	3222
924.525	3161
924.633	3230
924.741	3987
924.849	3074
924.956	3283
925.064	3089
925.172	3032
925.279	3104
925.387	3173
925.494	3207
925.602	3367
925.709	3351
925.816	3169
925.924	3283
926.031	3348
926.138	3302
926.245	3344
926.352	3241
926.459	3454
926.566	3454
926.673	3348
926.779	3249
926.886	3245
926.993	3150
927.099	3104
927.206	3123
927.312	3112
927.419	3203
927.525	3195
927.631	3264
927.737	3157
927.843	3116
927.95	3024
928.056	3150
928.162	3188
928.267	3245
928.373	3880
928.479	3344
928.585	3074
928.69	3233
928.796	3306
928.901	3195
929.007	3066
929.112	3188
929.218	3195
929.323	3123
929.428	3157
929.533	3291
929.638	3127
929.743	3173
929.848	3241
929.953	3176
930.058	3180
930.163	2990
930.267	3066
930.372	3237
930.477	3028
930.581	3325
930.685	3176
930.79	3051
930.894	3119
930.998	3097
931.103	3264
931.207	2956
931.311	2941
931.415	2948
931.519	2800
931.623	2819
