Data from test_V78500241_148.txt Node
Date: Fri Mar 25 16:16:13 CST 2022
User: usil
Spectrometer: V785-0024
Trigger mode: 0
Integration Time (sec): 4.000000E-1
Scans to average: 1
Nonlinearity correction enabled: false
Boxcar width: 0
Storing dark spectrum: false
XAxis mode: Wavelengths
Number of Pixels in Spectrum: 1024
>>>>>Begin Spectral Data<<<<<
801.071	2952
801.214	2948
801.356	2906
801.499	2899
801.641	2895
801.783	2952
801.926	3077
802.068	2986
802.211	3055
802.353	3028
802.496	2948
802.638	3047
802.78	3070
802.923	3097
803.065	3013
803.208	2880
803.35	2941
803.492	2944
803.635	2944
803.777	2788
803.919	2872
804.061	3207
804.204	2960
804.346	2906
804.488	2864
804.63	2994
804.773	2914
804.915	2914
805.057	3070
805.199	2929
805.341	3001
805.483	3051
805.626	2994
805.768	2967
805.91	3089
806.052	3104
806.194	3070
806.336	3222
806.478	3085
806.62	2990
806.762	2990
806.904	3097
807.046	3184
807.188	3005
807.33	2929
807.472	3005
807.614	2902
807.756	3009
807.898	2948
808.04	2857
808.182	3036
808.324	2967
808.465	2937
808.607	2918
808.749	2796
808.891	2845
809.033	2990
809.174	2994
809.316	2937
809.458	2933
809.6	2792
809.741	2807
809.883	2769
810.025	2849
810.166	2872
810.308	2876
810.45	2845
810.591	2762
810.733	2792
810.875	2853
811.016	2785
811.158	2773
811.299	2830
811.441	2952
811.582	2902
811.724	2849
811.865	2853
812.007	2910
812.148	2895
812.29	2876
812.431	2922
812.573	2967
812.714	2982
812.855	3032
812.997	3066
813.138	3112
813.279	3077
813.421	3013
813.562	2948
813.703	2891
813.845	2902
813.986	2781
814.127	2735
814.268	2838
814.41	2891
814.551	2876
814.692	2925
814.833	2811
814.974	2918
815.115	2986
815.256	2864
815.397	2845
815.539	2914
815.68	2792
815.821	2830
815.962	2941
816.103	2944
816.244	2899
816.385	2914
816.526	2975
816.666	2918
816.807	2746
816.948	2906
817.089	2918
817.23	2838
817.371	2815
817.512	2796
817.653	2830
817.793	2807
817.934	2876
818.075	2994
818.216	2990
818.356	3093
818.497	2918
818.638	2834
818.778	2838
818.919	2811
819.06	2773
819.2	2876
819.341	2815
819.481	2830
819.622	2963
819.762	3093
819.903	3070
820.043	2922
820.184	2967
820.324	2853
820.465	3039
820.605	3005
820.746	3062
820.886	2948
821.026	3108
821.167	3207
821.307	3291
821.447	3306
821.588	3237
821.728	3207
821.868	3211
822.008	3089
822.149	3199
822.289	3233
822.429	3131
822.569	3097
822.709	3165
822.849	3043
822.99	3070
823.13	3157
823.27	3180
823.41	3142
823.55	3161
823.69	3146
823.83	3214
823.97	3108
824.11	3020
824.25	2971
824.389	3074
824.529	3146
824.669	3039
824.809	3230
824.949	3260
825.089	3207
825.228	3188
825.368	2982
825.508	2979
825.648	3024
825.787	3036
825.927	3024
826.067	2967
826.206	3001
826.346	3047
826.485	3058
826.625	3116
826.765	3306
826.904	3226
827.044	3017
827.183	2948
827.323	2815
827.462	2994
827.601	2960
827.741	2891
827.88	2975
828.02	2883
828.159	2982
828.298	3024
828.437	3108
828.577	3085
828.716	3272
828.855	3081
828.994	2914
829.134	2922
829.273	2914
829.412	2902
829.551	2880
829.69	2922
829.829	3001
829.968	3165
830.107	3043
830.246	3013
830.385	2956
830.524	2948
830.663	2838
830.802	2754
830.941	2659
831.08	2667
831.219	2785
831.357	2762
831.496	2982
831.635	2731
831.774	2640
831.913	2686
832.051	2560
832.19	2564
832.329	2693
832.467	2537
832.606	2488
832.744	2613
832.883	2629
833.022	2598
833.16	2655
833.299	2705
833.437	2724
833.576	2750
833.714	2739
833.852	2758
833.991	2773
834.129	2800
834.267	2853
834.406	2796
834.544	2880
834.682	2899
834.821	2868
834.959	3055
835.097	2883
835.235	3039
835.373	3020
835.511	3024
835.65	2956
835.788	2960
835.926	2853
836.064	2796
836.202	2845
836.34	3123
836.478	3142
836.615	3047
836.753	3161
836.891	3230
837.029	3142
837.167	3135
837.305	3077
837.443	3104
837.58	2963
837.718	3131
837.856	3108
837.993	3062
838.131	3116
838.269	3127
838.406	3085
838.544	3119
838.681	2967
838.819	2948
838.956	2815
839.094	2849
839.231	2895
839.369	3020
839.506	3367
839.643	3218
839.781	3051
839.918	2941
840.055	3062
840.193	3077
840.33	3100
840.467	3123
840.604	3161
840.742	3428
840.879	3077
841.016	3058
841.153	3146
841.29	3344
841.427	3294
841.564	3283
841.701	3340
841.838	3245
841.975	3211
842.112	3214
842.249	3116
842.385	3074
842.522	3279
842.659	3138
842.796	3058
842.933	3150
843.069	3055
843.206	3085
843.343	3218
843.479	3119
843.616	3176
843.752	2902
843.889	2880
844.025	3112
844.162	2887
844.298	3108
844.435	2986
844.571	2925
844.708	3116
844.844	3184
844.98	3218
845.117	3237
845.253	3085
845.389	3024
845.525	3135
845.661	3123
845.798	3020
845.934	3157
846.07	3062
846.206	3249
846.342	3325
846.478	3260
846.614	3157
846.75	3085
846.886	3036
847.022	3230
847.158	3146
847.294	3226
847.429	3260
847.565	3272
847.701	3496
847.837	3051
847.972	3020
848.108	3184
848.244	3180
848.379	2998
848.515	2967
848.65	2895
848.786	2963
848.921	2998
849.057	3112
849.192	3188
849.328	3055
849.463	3085
849.598	3097
849.734	3055
849.869	2986
850.004	2937
850.14	3039
850.275	2925
850.41	2826
850.545	2937
850.68	2933
850.815	2998
850.95	2994
851.085	3192
851.22	3154
851.355	3020
851.49	2986
851.625	3017
851.76	3013
851.895	2952
852.03	2975
852.165	3043
852.299	3097
852.434	3203
852.569	3165
852.703	3218
852.838	3230
852.973	3412
853.107	3359
853.242	3180
853.376	3093
853.511	2952
853.645	3043
853.78	3272
853.914	3123
854.048	3131
854.183	3108
854.317	3188
854.451	3317
854.585	3161
854.72	3112
854.854	3241
854.988	3097
855.122	3108
855.256	2998
855.39	3089
855.524	3272
855.658	3184
855.792	3195
855.926	3230
856.06	3214
856.194	3256
856.327	3161
856.461	3100
856.595	3104
856.729	3097
856.862	3256
856.996	3184
857.13	3211
857.263	3195
857.397	3245
857.53	3127
857.664	3188
857.797	3264
857.931	3260
858.064	3199
858.197	3253
858.331	3165
858.464	3112
858.597	3005
858.731	3108
858.864	3157
858.997	3089
859.13	3157
859.263	3180
859.396	3199
859.529	3074
859.662	3066
859.795	3028
859.928	3169
860.061	3294
860.194	3272
860.327	3184
860.46	3135
860.592	3226
860.725	3283
860.858	3241
860.99	3131
861.123	3058
861.256	3077
861.388	3161
861.521	3686
861.653	3020
861.786	3028
861.918	2982
862.05	3058
862.183	3119
862.315	3165
862.447	3173
862.58	3077
862.712	2963
862.844	2902
862.976	3051
863.108	3055
863.24	3435
863.372	2864
863.504	2960
863.636	2998
863.768	3039
863.9	3001
864.032	2944
864.164	2937
864.296	3005
864.428	3119
864.559	3146
864.691	3074
864.823	3089
864.954	3047
865.086	3085
865.217	2975
865.349	2963
865.48	3032
865.612	3058
865.743	3176
865.875	3001
866.006	2906
866.137	2998
866.269	2975
866.4	2918
866.531	2925
866.662	2914
866.793	2880
866.924	2880
867.055	2982
867.186	2967
867.317	2895
867.448	2872
867.579	2880
867.71	2880
867.841	2819
867.972	2944
868.103	2891
868.233	2872
868.364	2887
868.495	2918
868.625	3062
868.756	3184
868.886	2979
869.017	3070
869.147	3154
869.278	3188
869.408	3043
869.539	3051
869.669	3131
869.799	3058
869.929	3116
870.06	3081
870.19	3321
870.32	3302
870.45	3264
870.58	3405
870.71	3481
870.84	3431
870.97	3283
871.1	3279
871.23	3496
871.36	3481
871.489	3370
871.619	3412
871.749	3447
871.879	3473
872.008	3504
872.138	3363
872.267	3340
872.397	3131
872.526	3062
872.656	3020
872.785	3112
872.915	3226
873.044	3321
873.173	3203
873.303	3230
873.432	3264
873.561	3230
873.69	3173
873.819	3154
873.948	3245
874.077	3173
874.206	3074
874.335	3112
874.464	3241
874.593	3321
874.722	3283
874.851	3424
874.979	3405
875.108	3313
875.237	3218
875.365	3207
875.494	3222
875.623	3253
875.751	3100
875.88	3097
876.008	3203
876.136	3237
876.265	3355
876.393	3488
876.521	3420
876.65	3386
876.778	3348
876.906	3287
877.034	3249
877.162	3260
877.29	3165
877.418	3256
877.546	3256
877.674	3222
877.802	3237
877.93	3230
878.058	3173
878.185	3154
878.313	3218
878.441	3245
878.568	3089
878.696	3138
878.824	3241
878.951	3313
879.079	3492
879.206	3641
879.333	3466
879.461	3367
879.588	3374
879.715	3507
879.842	3644
879.97	3389
880.097	3173
880.224	3138
880.351	3203
880.478	3253
880.605	3211
880.732	3203
880.859	3515
880.986	3351
881.112	3370
881.239	3211
881.366	3085
881.493	3055
881.619	3051
881.746	3089
881.872	3085
881.999	3127
882.125	3188
882.252	3256
882.378	3302
882.505	3450
882.631	3306
882.757	3165
882.883	3195
883.01	3253
883.136	3195
883.262	3138
883.388	3100
883.514	3355
883.64	3416
883.766	3348
883.892	3214
884.018	3256
884.143	3416
884.269	3549
884.395	3233
884.52	3195
884.646	3237
884.772	3150
884.897	3116
885.023	3233
885.148	3382
885.274	3424
885.399	3378
885.524	3298
885.65	3245
885.775	3332
885.9	3332
886.025	3454
886.15	3355
886.275	3340
886.4	3222
886.525	3336
886.65	3313
886.775	3298
886.9	3530
887.025	3633
887.149	3405
887.274	3268
887.399	3211
887.523	3253
887.648	3207
887.773	3192
887.897	3355
888.021	3424
888.146	3302
888.27	3485
888.395	3549
888.519	3469
888.643	3473
888.767	3458
888.891	3325
889.015	3275
889.139	3298
889.263	3287
889.387	3420
889.511	3568
889.635	3447
889.759	3298
889.883	3348
890.006	3412
890.13	3526
890.254	3302
890.377	3344
890.501	3233
890.624	3211
890.748	3355
890.871	3233
890.995	3093
891.118	3131
891.241	3218
891.364	3230
891.488	3294
891.611	3192
891.734	3253
891.857	3291
891.98	3260
892.103	3340
892.226	3291
892.349	3230
892.471	3138
892.594	3253
892.717	3332
892.839	3256
892.962	3313
893.085	3367
893.207	3306
893.33	3150
893.452	3199
893.575	3382
893.697	3249
893.819	3500
893.941	3530
894.064	3488
894.186	3325
894.308	3279
894.43	3485
894.552	3523
894.674	3507
894.796	3325
894.918	3325
895.04	3351
895.161	3431
895.283	3405
895.405	3340
895.526	3370
895.648	3450
895.769	3439
895.891	3496
896.012	3492
896.134	3469
896.255	3435
896.376	3386
896.498	3370
896.619	3420
896.74	3359
896.861	3469
896.982	3690
897.103	3854
897.224	3622
897.345	3542
897.466	3439
897.587	3488
897.708	3682
897.828	3530
897.949	3435
898.07	3321
898.19	3500
898.311	3618
898.431	3473
898.552	3530
898.672	3599
898.792	3599
898.913	3519
899.033	3450
899.153	3302
899.273	3226
899.393	3287
899.513	3336
899.633	3321
899.753	3348
899.873	3294
899.993	3424
900.113	3412
900.232	3401
900.352	3363
900.472	3268
900.591	3211
900.711	3344
900.83	3256
900.95	3393
901.069	3500
901.189	3409
901.308	3188
901.427	3146
901.546	3203
901.665	3336
901.784	3340
901.904	3253
902.023	3161
902.141	3081
902.26	3005
902.379	3184
902.498	3093
902.617	3028
902.735	3195
902.854	3264
902.973	3195
903.091	3070
903.21	3051
903.328	3161
903.446	3142
903.565	3085
903.683	3203
903.801	3154
903.919	3264
904.038	3317
904.156	3176
904.274	3291
904.392	3283
904.51	3310
904.627	3332
904.745	3485
904.863	3469
904.981	3321
905.098	3173
905.216	3241
905.334	3310
905.451	3317
905.569	3359
905.686	3458
905.803	3443
905.921	3321
906.038	3409
906.155	3416
906.272	3279
906.389	3351
906.506	3256
906.623	3260
906.74	3272
906.857	3207
906.974	3253
907.091	3424
907.208	3568
907.324	3496
907.441	3393
907.557	3279
907.674	3237
907.79	3218
907.907	3351
908.023	3351
908.139	3412
908.256	3348
908.372	3397
908.488	3363
908.604	3253
908.72	3218
908.836	3317
908.952	3294
909.068	3378
909.184	3504
909.3	3409
909.415	3500
909.531	3477
909.647	3302
909.762	3317
909.878	3294
909.993	3416
910.108	3348
910.224	3344
910.339	3416
910.454	3344
910.57	3325
910.685	3268
910.8	3572
910.915	3545
911.03	3485
911.145	3279
911.259	3306
911.374	3332
911.489	3253
911.604	3256
911.718	3104
911.833	3173
911.947	3047
912.062	2998
912.176	3184
912.291	3211
912.405	3283
912.519	3416
912.633	3511
912.748	3367
912.862	3283
912.976	3169
913.09	3108
913.204	3154
913.318	3249
913.431	3374
913.545	3355
913.659	3454
913.772	3317
913.886	3230
914	3214
914.113	3409
914.226	3473
914.34	3416
914.453	3230
914.566	3428
914.68	3298
914.793	3344
914.906	3173
915.019	3108
915.132	3100
915.245	3199
915.358	3245
915.47	3237
915.583	3294
915.696	3340
915.809	3477
915.921	3447
916.034	3287
916.146	3302
916.259	3237
916.371	3382
916.483	3409
916.595	3313
916.708	3389
916.82	3340
916.932	3344
917.044	3355
917.156	3370
917.268	3256
917.38	3325
917.491	3306
917.603	3412
917.715	3477
917.826	3466
917.938	3435
918.049	3310
918.161	3511
918.272	3610
918.384	3576
918.495	3526
918.606	3336
918.717	3332
918.828	3416
918.939	3424
919.05	3294
919.161	3412
919.272	3253
919.383	3294
919.494	3519
919.604	3690
919.715	3519
919.826	3428
919.936	3500
920.047	3591
920.157	3610
920.267	3831
920.378	3644
920.488	3591
920.598	3789
920.708	3960
920.818	3846
920.928	3861
921.038	4086
921.148	4021
921.258	3732
921.368	3610
921.477	3561
921.587	3584
921.697	3450
921.806	3679
921.916	3557
922.025	3363
922.134	3393
922.244	3340
922.353	3435
922.462	3279
922.571	3268
922.68	3104
922.789	3081
922.898	3184
923.007	3108
923.116	3199
923.224	3214
923.333	3195
923.442	3116
923.55	3142
923.659	3157
923.767	3230
923.876	3138
923.984	3302
924.092	3146
924.201	3237
924.309	3218
924.417	3298
924.525	3195
924.633	3291
924.741	4200
924.849	3062
924.956	3298
925.064	3100
925.172	3081
925.279	3104
925.387	3230
925.494	3230
925.602	3431
925.709	3359
925.816	3203
925.924	3294
926.031	3393
926.138	3325
926.245	3420
926.352	3237
926.459	3469
926.566	3507
926.673	3359
926.779	3245
926.886	3283
926.993	3131
927.099	3131
927.206	3154
927.312	3131
927.419	3272
927.525	3245
927.631	3325
927.737	3157
927.843	3104
927.95	3066
928.056	3173
928.162	3218
928.267	3260
928.373	3960
928.479	3359
928.585	3051
928.69	3253
928.796	3294
928.901	3184
929.007	3085
929.112	3211
929.218	3214
929.323	3195
929.428	3203
929.533	3325
929.638	3131
929.743	3176
929.848	3279
929.953	3218
930.058	3199
930.163	3058
930.267	3028
930.372	3222
930.477	3039
930.581	3329
930.685	3188
930.79	3085
930.894	3176
930.998	3116
931.103	3325
931.207	2994
931.311	2937
931.415	2979
931.519	2796
931.623	2853
