Data from test_V78500241_970.txt Node
Date: Fri Mar 25 16:21:55 CST 2022
User: usil
Spectrometer: V785-0024
Trigger mode: 0
Integration Time (sec): 4.000000E-1
Scans to average: 1
Nonlinearity correction enabled: false
Boxcar width: 0
Storing dark spectrum: false
XAxis mode: Wavelengths
Number of Pixels in Spectrum: 1024
>>>>>Begin Spectral Data<<<<<
801.071	2899
801.214	2941
801.356	2868
801.499	2887
801.641	2857
801.783	2933
801.926	3043
802.068	2990
802.211	2994
802.353	3020
802.496	2979
802.638	3020
802.78	3032
802.923	3077
803.065	2982
803.208	2891
803.35	2922
803.492	2956
803.635	2937
803.777	2739
803.919	2857
804.061	3192
804.204	2956
804.346	2929
804.488	2845
804.63	3001
804.773	2876
804.915	2922
805.057	3074
805.199	2922
805.341	2975
805.483	3032
805.626	2986
805.768	2982
805.91	3066
806.052	3100
806.194	3036
806.336	3230
806.478	3024
806.62	2952
806.762	2925
806.904	3070
807.046	3165
807.188	2967
807.33	2914
807.472	2971
807.614	2944
807.756	2963
807.898	2937
808.04	2922
808.182	2941
808.324	2937
808.465	2876
808.607	2891
808.749	2754
808.891	2891
809.033	2948
809.174	2956
809.316	2880
809.458	2880
809.6	2766
809.741	2781
809.883	2769
810.025	2868
810.166	2868
810.308	2849
810.45	2845
810.591	2750
810.733	2788
810.875	2853
811.016	2769
811.158	2781
811.299	2830
811.441	2922
811.582	2883
811.724	2807
811.865	2826
812.007	2891
812.148	2910
812.29	2842
812.431	2914
812.573	2933
812.714	2975
812.855	3039
812.997	3070
813.138	3123
813.279	3001
813.421	2986
813.562	2910
813.703	2868
813.845	2880
813.986	2781
814.127	2720
814.268	2826
814.41	2830
814.551	2815
814.692	2883
814.833	2815
814.974	2868
815.115	2948
815.256	2842
815.397	2834
815.539	2857
815.68	2766
815.821	2777
815.962	2944
816.103	2914
816.244	2868
816.385	2891
816.526	2990
816.666	2910
816.807	2754
816.948	2922
817.089	2922
817.23	2845
817.371	2785
817.512	2788
817.653	2849
817.793	2834
817.934	2857
818.075	2967
818.216	2990
818.356	3020
818.497	2853
818.638	2796
818.778	2826
818.919	2773
819.06	2754
819.2	2891
819.341	2777
819.481	2788
819.622	2925
819.762	3123
819.903	3028
820.043	2914
820.184	2887
820.324	2887
820.465	3028
820.605	3036
820.746	3017
820.886	2922
821.026	3097
821.167	3123
821.307	3253
821.447	3279
821.588	3203
821.728	3199
821.868	3207
822.008	3055
822.149	3176
822.289	3203
822.429	3077
822.569	3077
822.709	3184
822.849	3047
822.99	3081
823.13	3097
823.27	3218
823.41	3074
823.55	3154
823.69	3127
823.83	3214
823.97	3108
824.11	3024
824.25	3013
824.389	3085
824.529	3081
824.669	3104
824.809	3184
824.949	3241
825.089	3211
825.228	3161
825.368	3009
825.508	2944
825.648	2960
825.787	3001
825.927	2982
826.067	2990
826.206	2952
826.346	3039
826.485	3074
826.625	3097
826.765	3253
826.904	3233
827.044	2994
827.183	2948
827.323	2880
827.462	2986
827.601	2857
827.741	2883
827.88	2956
828.02	2849
828.159	2994
828.298	3017
828.437	3123
828.577	3032
828.716	3237
828.855	3077
828.994	2906
829.134	2876
829.273	2925
829.412	2883
829.551	2880
829.69	2906
829.829	3001
829.968	3127
830.107	3009
830.246	2979
830.385	2902
830.524	2861
830.663	2815
830.802	2731
830.941	2682
831.08	2644
831.219	2731
831.357	2750
831.496	2948
831.635	2724
831.774	2644
831.913	2674
832.051	2518
832.19	2571
832.329	2678
832.467	2530
832.606	2469
832.744	2590
832.883	2575
833.022	2636
833.16	2621
833.299	2670
833.437	2693
833.576	2712
833.714	2705
833.852	2739
833.991	2773
834.129	2819
834.267	2819
834.406	2792
834.544	2902
834.682	2872
834.821	2876
834.959	3047
835.097	2880
835.235	3062
835.373	2963
835.511	2998
835.65	2937
835.788	2960
835.926	2853
836.064	2815
836.202	2819
836.34	3070
836.478	3123
836.615	3055
836.753	3097
836.891	3218
837.029	3188
837.167	3077
837.305	3051
837.443	3036
837.58	2948
837.718	3097
837.856	3051
837.993	2994
838.131	3097
838.269	3100
838.406	3112
838.544	3085
838.681	2925
838.819	2910
838.956	2815
839.094	2868
839.231	2914
839.369	2994
839.506	3370
839.643	3192
839.781	3043
839.918	2960
840.055	3005
840.193	3043
840.33	3089
840.467	3062
840.604	3135
840.742	3370
840.879	3032
841.016	3043
841.153	3081
841.29	3329
841.427	3332
841.564	3249
841.701	3294
841.838	3214
841.975	3173
842.112	3199
842.249	3039
842.385	3036
842.522	3233
842.659	3089
842.796	3093
842.933	3066
843.069	3024
843.206	3047
843.343	3135
843.479	3081
843.616	3089
843.752	2880
843.889	2857
844.025	3032
844.162	2883
844.298	3085
844.435	2944
844.571	2937
844.708	3070
844.844	3146
844.98	3230
845.117	3180
845.253	3036
845.389	3005
845.525	3104
845.661	3081
845.798	3047
845.934	3097
846.07	3017
846.206	3218
846.342	3332
846.478	3203
846.614	3062
846.75	3024
846.886	3005
847.022	3211
847.158	3138
847.294	3214
847.429	3218
847.565	3184
847.701	3477
847.837	3036
847.972	2998
848.108	3176
848.244	3104
848.379	2994
848.515	2941
848.65	2933
848.786	2986
848.921	2986
849.057	3112
849.192	3157
849.328	3051
849.463	3135
849.598	3058
849.734	3009
849.869	2986
850.004	2876
850.14	2937
850.275	2902
850.41	2834
850.545	2883
850.68	2914
850.815	2922
850.95	2925
851.085	3214
851.22	3074
851.355	3028
851.49	2982
851.625	2994
851.76	3028
851.895	2918
852.03	2910
852.165	3028
852.299	3119
852.434	3188
852.569	3176
852.703	3180
852.838	3268
852.973	3359
853.107	3359
853.242	3161
853.376	3074
853.511	2994
853.645	3032
853.78	3218
853.914	3119
854.048	3085
854.183	3116
854.317	3100
854.451	3264
854.585	3100
854.72	3070
854.854	3222
854.988	3058
855.122	3077
855.256	2990
855.39	3142
855.524	3245
855.658	3154
855.792	3161
855.926	3203
856.06	3214
856.194	3260
856.327	3157
856.461	3013
856.595	3051
856.729	3112
856.862	3226
856.996	3138
857.13	3180
857.263	3214
857.397	3291
857.53	3142
857.664	3169
857.797	3237
857.931	3268
858.064	3154
858.197	3203
858.331	3131
858.464	3081
858.597	3005
858.731	3066
858.864	3131
858.997	3074
859.13	3176
859.263	3180
859.396	3233
859.529	3104
859.662	3055
859.795	3077
859.928	3135
860.061	3268
860.194	3253
860.327	3150
860.46	3081
860.592	3199
860.725	3226
860.858	3256
860.99	3077
861.123	3043
861.256	3020
861.388	3150
861.521	3850
861.653	3005
861.786	2971
861.918	2986
862.05	3066
862.183	3062
862.315	3108
862.447	3173
862.58	3085
862.712	2952
862.844	2887
862.976	3013
863.108	2960
863.24	3454
863.372	2902
863.504	2982
863.636	2925
863.768	3024
863.9	2986
864.032	2876
864.164	2944
864.296	3001
864.428	3085
864.559	3093
864.691	3085
864.823	3039
864.954	3001
865.086	3028
865.217	2975
865.349	2925
865.48	2929
865.612	2994
865.743	3135
865.875	2986
866.006	2887
866.137	2971
866.269	2918
866.4	2941
866.531	2918
866.662	2880
866.793	2902
866.924	2895
867.055	2963
867.186	2922
867.317	2887
867.448	2834
867.579	2826
867.71	2845
867.841	2830
867.972	2864
868.103	2899
868.233	2895
868.364	2823
868.495	2880
868.625	3066
868.756	3157
868.886	2941
869.017	3039
869.147	3180
869.278	3188
869.408	3055
869.539	3024
869.669	3093
869.799	3043
869.929	3154
870.06	3119
870.19	3332
870.32	3256
870.45	3245
870.58	3348
870.71	3416
870.84	3447
870.97	3291
871.1	3237
871.23	3496
871.36	3462
871.489	3367
871.619	3374
871.749	3382
871.879	3416
872.008	3477
872.138	3340
872.267	3249
872.397	3116
872.526	3097
872.656	2986
872.785	3108
872.915	3214
873.044	3310
873.173	3218
873.303	3203
873.432	3218
873.561	3241
873.69	3165
873.819	3123
873.948	3207
874.077	3074
874.206	3055
874.335	3074
874.464	3199
874.593	3310
874.722	3237
874.851	3344
874.979	3344
875.108	3313
875.237	3207
875.365	3161
875.494	3150
875.623	3214
875.751	3051
875.88	3131
876.008	3180
876.136	3249
876.265	3332
876.393	3519
876.521	3420
876.65	3382
876.778	3321
876.906	3222
877.034	3214
877.162	3230
877.29	3161
877.418	3245
877.546	3218
877.674	3268
877.802	3218
877.93	3203
878.058	3119
878.185	3081
878.313	3249
878.441	3157
878.568	3043
878.696	3157
878.824	3237
878.951	3294
879.079	3447
879.206	3606
879.333	3405
879.461	3294
879.588	3382
879.715	3462
879.842	3572
879.97	3363
880.097	3169
880.224	3150
880.351	3195
880.478	3222
880.605	3203
880.732	3169
880.859	3466
880.986	3283
881.112	3344
881.239	3241
881.366	3104
881.493	3028
881.619	2982
881.746	3036
881.872	3074
881.999	3093
882.125	3112
882.252	3272
882.378	3306
882.505	3428
882.631	3287
882.757	3150
882.883	3161
883.01	3230
883.136	3119
883.262	3104
883.388	3104
883.514	3351
883.64	3367
883.766	3298
883.892	3180
884.018	3218
884.143	3382
884.269	3572
884.395	3207
884.52	3116
884.646	3188
884.772	3089
884.897	3142
885.023	3203
885.148	3302
885.274	3405
885.399	3336
885.524	3256
885.65	3249
885.775	3329
885.9	3283
886.025	3420
886.15	3344
886.275	3260
886.4	3237
886.525	3325
886.65	3256
886.775	3264
886.9	3473
887.025	3618
887.149	3424
887.274	3230
887.399	3188
887.523	3192
887.648	3222
887.773	3188
887.897	3382
888.021	3370
888.146	3275
888.27	3389
888.395	3534
888.519	3412
888.643	3454
888.767	3454
888.891	3260
889.015	3226
889.139	3249
889.263	3199
889.387	3420
889.511	3507
889.635	3454
889.759	3268
889.883	3294
890.006	3329
890.13	3469
890.254	3264
890.377	3397
890.501	3184
890.624	3180
890.748	3306
890.871	3184
890.995	3131
891.118	3077
891.241	3188
891.364	3241
891.488	3321
891.611	3188
891.734	3237
891.857	3260
891.98	3211
892.103	3329
892.226	3302
892.349	3214
892.471	3116
892.594	3233
892.717	3272
892.839	3275
892.962	3313
893.085	3374
893.207	3306
893.33	3146
893.452	3214
893.575	3355
893.697	3226
893.819	3462
893.941	3481
894.064	3443
894.186	3283
894.308	3253
894.43	3466
894.552	3553
894.674	3458
894.796	3245
894.918	3332
895.04	3264
895.161	3469
895.283	3367
895.405	3279
895.526	3355
895.648	3370
895.769	3397
895.891	3431
896.012	3477
896.134	3473
896.255	3409
896.376	3386
896.498	3367
896.619	3420
896.74	3378
896.861	3370
896.982	3698
897.103	3835
897.224	3599
897.345	3534
897.466	3416
897.587	3504
897.708	3625
897.828	3511
897.949	3447
898.07	3336
898.19	3405
898.311	3584
898.431	3477
898.552	3454
898.672	3557
898.792	3561
898.913	3545
899.033	3405
899.153	3268
899.273	3207
899.393	3264
899.513	3279
899.633	3317
899.753	3329
899.873	3302
899.993	3424
900.113	3336
900.232	3389
900.352	3348
900.472	3272
900.591	3233
900.711	3332
900.83	3241
900.95	3420
901.069	3454
901.189	3340
901.308	3199
901.427	3127
901.546	3211
901.665	3321
901.784	3317
901.904	3184
902.023	3176
902.141	3036
902.26	2963
902.379	3142
902.498	3100
902.617	3039
902.735	3226
902.854	3260
902.973	3192
903.091	3020
903.21	3062
903.328	3154
903.446	3074
903.565	3100
903.683	3207
903.801	3135
903.919	3241
904.038	3306
904.156	3203
904.274	3287
904.392	3256
904.51	3329
904.627	3367
904.745	3435
904.863	3507
904.981	3268
905.098	3176
905.216	3214
905.334	3310
905.451	3283
905.569	3310
905.686	3439
905.803	3424
905.921	3329
906.038	3397
906.155	3344
906.272	3298
906.389	3348
906.506	3184
906.623	3283
906.74	3287
906.857	3157
906.974	3260
907.091	3450
907.208	3526
907.324	3477
907.441	3378
907.557	3199
907.674	3226
907.79	3203
907.907	3283
908.023	3405
908.139	3344
908.256	3321
908.372	3332
908.488	3340
908.604	3249
908.72	3222
908.836	3298
908.952	3272
909.068	3310
909.184	3439
909.3	3386
909.415	3492
909.531	3481
909.647	3302
909.762	3310
909.878	3245
909.993	3355
910.108	3317
910.224	3336
910.339	3401
910.454	3340
910.57	3344
910.685	3241
910.8	3618
910.915	3553
911.03	3389
911.145	3260
911.259	3230
911.374	3306
911.489	3226
911.604	3203
911.718	3108
911.833	3146
911.947	3032
912.062	2948
912.176	3157
912.291	3180
912.405	3226
912.519	3435
912.633	3492
912.748	3325
912.862	3275
912.976	3184
913.09	3051
913.204	3127
913.318	3192
913.431	3348
913.545	3332
913.659	3405
913.772	3317
913.886	3203
914	3180
914.113	3382
914.226	3378
914.34	3329
914.453	3199
914.566	3374
914.68	3291
914.793	3313
914.906	3138
915.019	3089
915.132	3062
915.245	3154
915.358	3207
915.47	3214
915.583	3253
915.696	3275
915.809	3389
915.921	3420
916.034	3230
916.146	3241
916.259	3184
916.371	3363
916.483	3344
916.595	3279
916.708	3344
916.82	3332
916.932	3325
917.044	3348
917.156	3317
917.268	3218
917.38	3325
917.491	3325
917.603	3336
917.715	3439
917.826	3458
917.938	3348
918.049	3287
918.161	3435
918.272	3584
918.384	3557
918.495	3473
918.606	3317
918.717	3302
918.828	3363
918.939	3401
919.05	3260
919.161	3348
919.272	3195
919.383	3279
919.494	3515
919.604	3675
919.715	3485
919.826	3401
919.936	3443
920.047	3614
920.157	3568
920.267	3759
920.378	3580
920.488	3534
920.598	3793
920.708	3960
920.818	3846
920.928	3831
921.038	4017
921.148	3953
921.258	3686
921.368	3603
921.477	3584
921.587	3534
921.697	3454
921.806	3671
921.916	3496
922.025	3382
922.134	3344
922.244	3332
922.353	3412
922.462	3283
922.571	3241
922.68	3081
922.789	3066
922.898	3161
923.007	3119
923.116	3222
923.224	3173
923.333	3180
923.442	3051
923.55	3097
923.659	3112
923.767	3241
923.876	3119
923.984	3306
924.092	3135
924.201	3146
924.309	3218
924.417	3264
924.525	3188
924.633	3249
924.741	4173
924.849	3070
924.956	3241
925.064	3081
925.172	3051
925.279	3142
925.387	3230
925.494	3207
925.602	3313
925.709	3329
925.816	3203
925.924	3279
926.031	3367
926.138	3344
926.245	3359
926.352	3279
926.459	3424
926.566	3424
926.673	3325
926.779	3226
926.886	3237
926.993	3135
927.099	3119
927.206	3104
927.312	3108
927.419	3222
927.525	3203
927.631	3253
927.737	3123
927.843	3142
927.95	3032
928.056	3154
928.162	3180
928.267	3237
928.373	3857
928.479	3313
928.585	3009
928.69	3165
928.796	3230
928.901	3173
929.007	3043
929.112	3222
929.218	3165
929.323	3123
929.428	3123
929.533	3313
929.638	3131
929.743	3146
929.848	3260
929.953	3199
930.058	3119
930.163	2979
930.267	3017
930.372	3211
930.477	3055
930.581	3294
930.685	3180
930.79	3036
930.894	3142
930.998	3093
931.103	3272
931.207	2960
931.311	2929
931.415	2929
931.519	2762
931.623	2788
