Data from test_V78500241_1247.txt Node
Date: Fri Mar 25 16:23:50 CST 2022
User: usil
Spectrometer: V785-0024
Trigger mode: 0
Integration Time (sec): 4.000000E-1
Scans to average: 1
Nonlinearity correction enabled: false
Boxcar width: 0
Storing dark spectrum: false
XAxis mode: Wavelengths
Number of Pixels in Spectrum: 1024
>>>>>Begin Spectral Data<<<<<
801.071	2944
801.214	2975
801.356	2914
801.499	2910
801.641	2918
801.783	2963
801.926	3070
802.068	3043
802.211	3028
802.353	3097
802.496	3005
802.638	3047
802.78	3097
802.923	3077
803.065	3051
803.208	2933
803.35	2960
803.492	3005
803.635	2979
803.777	2781
803.919	2906
804.061	3264
804.204	2967
804.346	2918
804.488	2845
804.63	3032
804.773	2902
804.915	2979
805.057	3138
805.199	2967
805.341	3036
805.483	3055
805.626	3032
805.768	3005
805.91	3131
806.052	3142
806.194	3100
806.336	3237
806.478	3047
806.62	3024
806.762	3032
806.904	3081
807.046	3195
807.188	3009
807.33	2910
807.472	3024
807.614	2922
807.756	2967
807.898	2956
808.04	2887
808.182	3024
808.324	3001
808.465	2925
808.607	2906
808.749	2807
808.891	2868
809.033	3013
809.174	3017
809.316	2895
809.458	2883
809.6	2792
809.741	2826
809.883	2796
810.025	2872
810.166	2906
810.308	2861
810.45	2872
810.591	2819
810.733	2823
810.875	2864
811.016	2785
811.158	2796
811.299	2815
811.441	2982
811.582	2922
811.724	2872
811.865	2880
812.007	2937
812.148	2906
812.29	2891
812.431	2956
812.573	2960
812.714	3009
812.855	3070
812.997	3077
813.138	3127
813.279	3028
813.421	3013
813.562	3005
813.703	2883
813.845	2937
813.986	2834
814.127	2739
814.268	2853
814.41	2857
814.551	2838
814.692	2922
814.833	2845
814.974	2937
815.115	2948
815.256	2845
815.397	2842
815.539	2918
815.68	2800
815.821	2838
815.962	3001
816.103	2937
816.244	2876
816.385	2922
816.526	2975
816.666	2982
816.807	2758
816.948	2906
817.089	2925
817.23	2880
817.371	2792
817.512	2838
817.653	2887
817.793	2891
817.934	2910
818.075	3036
818.216	3020
818.356	3036
818.497	2872
818.638	2773
818.778	2845
818.919	2826
819.06	2807
819.2	2922
819.341	2834
819.481	2823
819.622	2944
819.762	3180
819.903	3058
820.043	2963
820.184	2925
820.324	2929
820.465	3077
820.605	3013
820.746	3043
820.886	2982
821.026	3116
821.167	3176
821.307	3283
821.447	3310
821.588	3317
821.728	3245
821.868	3184
822.008	3100
822.149	3192
822.289	3226
822.429	3119
822.569	3051
822.709	3245
822.849	3020
822.99	3097
823.13	3199
823.27	3241
823.41	3150
823.55	3142
823.69	3150
823.83	3230
823.97	3089
824.11	3005
824.25	3020
824.389	3074
824.529	3157
824.669	3089
824.809	3233
824.949	3268
825.089	3264
825.228	3161
825.368	3039
825.508	2986
825.648	2990
825.787	3020
825.927	3047
826.067	2967
826.206	3005
826.346	3062
826.485	3055
826.625	3157
826.765	3313
826.904	3237
827.044	2975
827.183	2971
827.323	2891
827.462	2990
827.601	2918
827.741	2948
827.88	2982
828.02	2880
828.159	2994
828.298	3062
828.437	3188
828.577	3036
828.716	3249
828.855	3081
828.994	2944
829.134	2910
829.273	2910
829.412	2895
829.551	2895
829.69	2902
829.829	3032
829.968	3165
830.107	3039
830.246	3047
830.385	2941
830.524	2918
830.663	2861
830.802	2766
830.941	2667
831.08	2705
831.219	2766
831.357	2788
831.496	2982
831.635	2716
831.774	2663
831.913	2678
832.051	2590
832.19	2594
832.329	2701
832.467	2583
832.606	2507
832.744	2617
832.883	2617
833.022	2625
833.16	2682
833.299	2716
833.437	2720
833.576	2712
833.714	2750
833.852	2758
833.991	2754
834.129	2830
834.267	2807
834.406	2804
834.544	2902
834.682	2906
834.821	2872
834.959	3127
835.097	2918
835.235	3055
835.373	3020
835.511	3074
835.65	2944
835.788	2960
835.926	2845
836.064	2842
836.202	2864
836.34	3100
836.478	3195
836.615	3089
836.753	3157
836.891	3214
837.029	3184
837.167	3142
837.305	3070
837.443	3093
837.58	2982
837.718	3138
837.856	3081
837.993	3055
838.131	3112
838.269	3116
838.406	3123
838.544	3066
838.681	2986
838.819	2952
838.956	2826
839.094	2857
839.231	2914
839.369	3039
839.506	3374
839.643	3199
839.781	3032
839.918	3028
840.055	3036
840.193	3081
840.33	3077
840.467	3066
840.604	3165
840.742	3386
840.879	3074
841.016	3100
841.153	3154
841.29	3340
841.427	3329
841.564	3298
841.701	3294
841.838	3237
841.975	3218
842.112	3195
842.249	3093
842.385	3077
842.522	3253
842.659	3077
842.796	3112
842.933	3108
843.069	3077
843.206	3062
843.343	3188
843.479	3112
843.616	3176
843.752	2895
843.889	2864
844.025	3097
844.162	2910
844.298	3127
844.435	2967
844.571	2933
844.708	3058
844.844	3226
844.98	3241
845.117	3192
845.253	3036
845.389	3001
845.525	3127
845.661	3135
845.798	3005
845.934	3154
846.07	3077
846.206	3199
846.342	3306
846.478	3245
846.614	3100
846.75	3051
846.886	3062
847.022	3237
847.158	3169
847.294	3154
847.429	3230
847.565	3233
847.701	3515
847.837	3036
847.972	3005
848.108	3184
848.244	3180
848.379	3009
848.515	2941
848.65	2963
848.786	3013
848.921	3051
849.057	3173
849.192	3146
849.328	3077
849.463	3142
849.598	3055
849.734	3066
849.869	3009
850.004	2925
850.14	2986
850.275	2937
850.41	2838
850.545	2891
850.68	2979
850.815	2979
850.95	2990
851.085	3184
851.22	3108
851.355	3005
851.49	3005
851.625	2998
851.76	3024
851.895	2963
852.03	2902
852.165	3043
852.299	3135
852.434	3184
852.569	3180
852.703	3203
852.838	3260
852.973	3363
853.107	3389
853.242	3150
853.376	3104
853.511	3001
853.645	3047
853.78	3233
853.914	3138
854.048	3112
854.183	3058
854.317	3169
854.451	3317
854.585	3116
854.72	3074
854.854	3253
854.988	3051
855.122	3135
855.256	2975
855.39	3135
855.524	3241
855.658	3169
855.792	3192
855.926	3195
856.06	3245
856.194	3310
856.327	3192
856.461	3047
856.595	3085
856.729	3116
856.862	3214
856.996	3161
857.13	3218
857.263	3230
857.397	3298
857.53	3135
857.664	3237
857.797	3249
857.931	3264
858.064	3173
858.197	3237
858.331	3169
858.464	3104
858.597	3009
858.731	3131
858.864	3142
858.997	3138
859.13	3154
859.263	3142
859.396	3199
859.529	3104
859.662	3097
859.795	3017
859.928	3173
860.061	3275
860.194	3241
860.327	3112
860.46	3104
860.592	3245
860.725	3253
860.858	3260
860.99	3127
861.123	3085
861.256	3043
861.388	3157
861.521	3728
861.653	3070
861.786	3013
861.918	3009
862.05	3043
862.183	3104
862.315	3176
862.447	3173
862.58	3093
862.712	2952
862.844	2891
862.976	3062
863.108	2960
863.24	3310
863.372	2887
863.504	3001
863.636	2960
863.768	3047
863.9	2994
864.032	2887
864.164	2933
864.296	2990
864.428	3116
864.559	3150
864.691	3123
864.823	3089
864.954	3005
865.086	3020
865.217	2986
865.349	2982
865.48	2979
865.612	3009
865.743	3154
865.875	2990
866.006	2963
866.137	3028
866.269	2948
866.4	2941
866.531	2929
866.662	2906
866.793	2918
866.924	2864
867.055	2982
867.186	2960
867.317	2887
867.448	2872
867.579	2861
867.71	2853
867.841	2872
867.972	2918
868.103	2880
868.233	2895
868.364	2891
868.495	2891
868.625	3089
868.756	3154
868.886	2982
869.017	3009
869.147	3180
869.278	3169
869.408	3028
869.539	3036
869.669	3077
869.799	3055
869.929	3142
870.06	3108
870.19	3313
870.32	3329
870.45	3298
870.58	3389
870.71	3416
870.84	3466
870.97	3268
871.1	3207
871.23	3496
871.36	3466
871.489	3370
871.619	3431
871.749	3382
871.879	3447
872.008	3462
872.138	3321
872.267	3283
872.397	3138
872.526	3066
872.656	2990
872.785	3119
872.915	3264
873.044	3317
873.173	3230
873.303	3264
873.432	3279
873.561	3226
873.69	3131
873.819	3173
873.948	3233
874.077	3097
874.206	3055
874.335	3116
874.464	3207
874.593	3348
874.722	3268
874.851	3405
874.979	3344
875.108	3283
875.237	3195
875.365	3165
875.494	3173
875.623	3302
875.751	3005
875.88	3104
876.008	3222
876.136	3226
876.265	3355
876.393	3523
876.521	3416
876.65	3329
876.778	3340
876.906	3237
877.034	3237
877.162	3233
877.29	3192
877.418	3253
877.546	3275
877.674	3233
877.802	3226
877.93	3192
878.058	3131
878.185	3085
878.313	3184
878.441	3180
878.568	3104
878.696	3161
878.824	3291
878.951	3313
879.079	3435
879.206	3618
879.333	3439
879.461	3348
879.588	3355
879.715	3530
879.842	3587
879.97	3409
880.097	3169
880.224	3135
880.351	3195
880.478	3260
880.605	3222
880.732	3176
880.859	3492
880.986	3287
881.112	3294
881.239	3157
881.366	3108
881.493	3020
881.619	3013
881.746	3036
881.872	3108
881.999	3093
882.125	3131
882.252	3249
882.378	3302
882.505	3431
882.631	3264
882.757	3135
882.883	3211
883.01	3249
883.136	3154
883.262	3104
883.388	3154
883.514	3310
883.64	3363
883.766	3272
883.892	3214
884.018	3287
884.143	3412
884.269	3557
884.395	3214
884.52	3146
884.646	3180
884.772	3127
884.897	3077
885.023	3222
885.148	3302
885.274	3443
885.399	3370
885.524	3253
885.65	3260
885.775	3291
885.9	3348
886.025	3420
886.15	3374
886.275	3268
886.4	3230
886.525	3310
886.65	3294
886.775	3287
886.9	3447
887.025	3606
887.149	3447
887.274	3291
887.399	3195
887.523	3199
887.648	3142
887.773	3188
887.897	3386
888.021	3412
888.146	3272
888.27	3428
888.395	3542
888.519	3405
888.643	3397
888.767	3454
888.891	3306
889.015	3249
889.139	3302
889.263	3245
889.387	3382
889.511	3519
889.635	3450
889.759	3294
889.883	3321
890.006	3405
890.13	3496
890.254	3302
890.377	3313
890.501	3173
890.624	3188
890.748	3291
890.871	3180
890.995	3093
891.118	3028
891.241	3211
891.364	3203
891.488	3329
891.611	3154
891.734	3218
891.857	3325
891.98	3253
892.103	3386
892.226	3264
892.349	3188
892.471	3081
892.594	3226
892.717	3287
892.839	3294
892.962	3253
893.085	3344
893.207	3310
893.33	3138
893.452	3195
893.575	3344
893.697	3272
893.819	3462
893.941	3466
894.064	3397
894.186	3245
894.308	3268
894.43	3431
894.552	3542
894.674	3450
894.796	3245
894.918	3294
895.04	3321
895.161	3439
895.283	3409
895.405	3302
895.526	3344
895.648	3435
895.769	3409
895.891	3481
896.012	3447
896.134	3447
896.255	3416
896.376	3397
896.498	3325
896.619	3389
896.74	3336
896.861	3409
896.982	3656
897.103	3827
897.224	3561
897.345	3492
897.466	3431
897.587	3496
897.708	3663
897.828	3511
897.949	3420
898.07	3310
898.19	3405
898.311	3564
898.431	3435
898.552	3481
898.672	3603
898.792	3545
898.913	3534
899.033	3424
899.153	3294
899.273	3199
899.393	3256
899.513	3325
899.633	3332
899.753	3348
899.873	3313
899.993	3329
900.113	3325
900.232	3386
900.352	3329
900.472	3241
900.591	3222
900.711	3287
900.83	3245
900.95	3416
901.069	3481
901.189	3329
901.308	3173
901.427	3104
901.546	3211
901.665	3302
901.784	3351
901.904	3192
902.023	3123
902.141	2998
902.26	3009
902.379	3112
902.498	3070
902.617	3074
902.735	3211
902.854	3253
902.973	3195
903.091	3032
903.21	3070
903.328	3135
903.446	3089
903.565	3108
903.683	3176
903.801	3119
903.919	3245
904.038	3275
904.156	3154
904.274	3264
904.392	3230
904.51	3287
904.627	3321
904.745	3435
904.863	3485
904.981	3264
905.098	3161
905.216	3268
905.334	3283
905.451	3283
905.569	3279
905.686	3374
905.803	3435
905.921	3256
906.038	3389
906.155	3370
906.272	3245
906.389	3355
906.506	3256
906.623	3233
906.74	3272
906.857	3214
906.974	3233
907.091	3424
907.208	3553
907.324	3473
907.441	3363
907.557	3222
907.674	3253
907.79	3157
907.907	3302
908.023	3397
908.139	3405
908.256	3298
908.372	3374
908.488	3344
908.604	3283
908.72	3222
908.836	3256
908.952	3306
909.068	3325
909.184	3488
909.3	3359
909.415	3492
909.531	3450
909.647	3272
909.762	3321
909.878	3249
909.993	3409
910.108	3321
910.224	3374
910.339	3367
910.454	3336
910.57	3298
910.685	3214
910.8	3538
910.915	3496
911.03	3397
911.145	3279
911.259	3214
911.374	3310
911.489	3253
911.604	3241
911.718	3131
911.833	3135
911.947	3055
912.062	2979
912.176	3146
912.291	3211
912.405	3199
912.519	3393
912.633	3466
912.748	3340
912.862	3233
912.976	3119
913.09	3085
913.204	3135
913.318	3222
913.431	3344
913.545	3374
913.659	3412
913.772	3359
913.886	3230
914	3211
914.113	3386
914.226	3447
914.34	3367
914.453	3180
914.566	3378
914.68	3279
914.793	3287
914.906	3165
915.019	3097
915.132	3070
915.245	3161
915.358	3203
915.47	3218
915.583	3264
915.696	3325
915.809	3370
915.921	3405
916.034	3249
916.146	3264
916.259	3268
916.371	3359
916.483	3332
916.595	3237
916.708	3348
916.82	3313
916.932	3325
917.044	3340
917.156	3279
917.268	3260
917.38	3317
917.491	3310
917.603	3382
917.715	3435
917.826	3454
917.938	3351
918.049	3226
918.161	3378
918.272	3553
918.384	3576
918.495	3454
918.606	3359
918.717	3264
918.828	3359
918.939	3435
919.05	3283
919.161	3359
919.272	3218
919.383	3291
919.494	3488
919.604	3705
919.715	3473
919.826	3389
919.936	3466
920.047	3580
920.157	3523
920.267	3812
920.378	3584
920.488	3553
920.598	3743
920.708	3979
920.818	3816
920.928	3816
921.038	3983
921.148	3991
921.258	3679
921.368	3644
921.477	3572
921.587	3538
921.697	3447
921.806	3637
921.916	3519
922.025	3348
922.134	3321
922.244	3321
922.353	3431
922.462	3233
922.571	3230
922.68	3108
922.789	3077
922.898	3089
923.007	3108
923.116	3188
923.224	3150
923.333	3203
923.442	3123
923.55	3093
923.659	3119
923.767	3226
923.876	3104
923.984	3230
924.092	3146
924.201	3157
924.309	3188
924.417	3283
924.525	3188
924.633	3230
924.741	4006
924.849	3020
924.956	3245
925.064	3108
925.172	3039
925.279	3089
925.387	3218
925.494	3222
925.602	3374
925.709	3329
925.816	3199
925.924	3283
926.031	3374
926.138	3298
926.245	3332
926.352	3260
926.459	3359
926.566	3454
926.673	3306
926.779	3268
926.886	3207
926.993	3127
927.099	3146
927.206	3097
927.312	3108
927.419	3249
927.525	3241
927.631	3249
927.737	3138
927.843	3100
927.95	3032
928.056	3108
928.162	3173
928.267	3253
928.373	3857
928.479	3294
928.585	3058
928.69	3192
928.796	3245
928.901	3157
929.007	3062
929.112	3176
929.218	3199
929.323	3138
929.428	3154
929.533	3283
929.638	3100
929.743	3184
929.848	3233
929.953	3199
930.058	3157
930.163	2994
930.267	3062
930.372	3199
930.477	3013
930.581	3310
930.685	3165
930.79	3055
930.894	3127
930.998	3097
931.103	3287
931.207	2952
931.311	2933
931.415	2861
931.519	2796
931.623	2834
