Data from test_V78500241_1812.txt Node
Date: Fri Mar 25 16:27:45 CST 2022
User: usil
Spectrometer: V785-0024
Trigger mode: 0
Integration Time (sec): 4.000000E-1
Scans to average: 1
Nonlinearity correction enabled: false
Boxcar width: 0
Storing dark spectrum: false
XAxis mode: Wavelengths
Number of Pixels in Spectrum: 1024
>>>>>Begin Spectral Data<<<<<
801.071	2902
801.214	2914
801.356	2811
801.499	2899
801.641	2834
801.783	2914
801.926	3051
802.068	2944
802.211	2971
802.353	3032
802.496	2948
802.638	2952
802.78	3032
802.923	3104
803.065	2986
803.208	2910
803.35	2887
803.492	2922
803.635	2925
803.777	2731
803.919	2868
804.061	3184
804.204	2906
804.346	2891
804.488	2834
804.63	2979
804.773	2891
804.915	2902
805.057	3066
805.199	2914
805.341	2963
805.483	3013
805.626	2986
805.768	2948
805.91	3093
806.052	3093
806.194	2998
806.336	3195
806.478	3020
806.62	2925
806.762	2998
806.904	3047
807.046	3138
807.188	2967
807.33	2864
807.472	2990
807.614	2906
807.756	2986
807.898	2914
808.04	2872
808.182	2956
808.324	2929
808.465	2845
808.607	2849
808.749	2804
808.891	2857
809.033	2979
809.174	2963
809.316	2914
809.458	2880
809.6	2758
809.741	2758
809.883	2766
810.025	2826
810.166	2830
810.308	2823
810.45	2853
810.591	2773
810.733	2773
810.875	2830
811.016	2754
811.158	2724
811.299	2815
811.441	2899
811.582	2849
811.724	2819
811.865	2819
812.007	2922
812.148	2876
812.29	2834
812.431	2861
812.573	2910
812.714	2956
812.855	3028
812.997	3024
813.138	3116
813.279	3005
813.421	2975
813.562	2922
813.703	2906
813.845	2891
813.986	2758
814.127	2697
814.268	2796
814.41	2826
814.551	2800
814.692	2800
814.833	2796
814.974	2887
815.115	2925
815.256	2830
815.397	2792
815.539	2868
815.68	2746
815.821	2754
815.962	2914
816.103	2891
816.244	2849
816.385	2838
816.526	2944
816.666	2910
816.807	2739
816.948	2883
817.089	2876
817.23	2823
817.371	2792
817.512	2762
817.653	2830
817.793	2815
817.934	2887
818.075	2933
818.216	2982
818.356	3013
818.497	2857
818.638	2769
818.778	2807
818.919	2750
819.06	2766
819.2	2868
819.341	2788
819.481	2823
819.622	2933
819.762	3077
819.903	3001
820.043	2899
820.184	2887
820.324	2872
820.465	2986
820.605	2994
820.746	3009
820.886	2914
821.026	3066
821.167	3104
821.307	3256
821.447	3237
821.588	3241
821.728	3195
821.868	3184
822.008	3085
822.149	3192
822.289	3222
822.429	3074
822.569	3074
822.709	3127
822.849	3017
822.99	3119
823.13	3146
823.27	3222
823.41	3127
823.55	3131
823.69	3161
823.83	3188
823.97	3039
824.11	3005
824.25	2998
824.389	3058
824.529	3127
824.669	3066
824.809	3195
824.949	3253
825.089	3199
825.228	3135
825.368	3001
825.508	2994
825.648	2975
825.787	3043
825.927	3039
826.067	2975
826.206	2963
826.346	3077
826.485	3089
826.625	3131
826.765	3272
826.904	3241
827.044	2986
827.183	2960
827.323	2880
827.462	3020
827.601	2910
827.741	2960
827.88	2982
828.02	2861
828.159	2967
828.298	3058
828.437	3180
828.577	3089
828.716	3230
828.855	3112
828.994	2937
829.134	2952
829.273	2937
829.412	2910
829.551	2918
829.69	2937
829.829	3036
829.968	3154
830.107	3001
830.246	3032
830.385	2956
830.524	2895
830.663	2845
830.802	2777
830.941	2727
831.08	2693
831.219	2830
831.357	2823
831.496	2990
831.635	2739
831.774	2682
831.913	2701
832.051	2606
832.19	2636
832.329	2697
832.467	2568
832.606	2503
832.744	2629
832.883	2644
833.022	2636
833.16	2693
833.299	2727
833.437	2750
833.576	2750
833.714	2708
833.852	2773
833.991	2781
834.129	2857
834.267	2883
834.406	2834
834.544	2914
834.682	2902
834.821	2929
834.959	3119
835.097	2960
835.235	3043
835.373	3077
835.511	3055
835.65	2994
835.788	2990
835.926	2838
836.064	2815
836.202	2861
836.34	3127
836.478	3192
836.615	3070
836.753	3119
836.891	3218
837.029	3173
837.167	3154
837.305	3097
837.443	3062
837.58	2994
837.718	3169
837.856	3112
837.993	3055
838.131	3138
838.269	3154
838.406	3123
838.544	3100
838.681	2971
838.819	2979
838.956	2845
839.094	2853
839.231	2929
839.369	3043
839.506	3416
839.643	3249
839.781	3055
839.918	2979
840.055	3081
840.193	3070
840.33	3097
840.467	3131
840.604	3203
840.742	3401
840.879	3043
841.016	3100
841.153	3199
841.29	3393
841.427	3329
841.564	3275
841.701	3336
841.838	3245
841.975	3199
842.112	3226
842.249	3089
842.385	3036
842.522	3249
842.659	3116
842.796	3055
842.933	3127
843.069	3100
843.206	3043
843.343	3214
843.479	3146
843.616	3138
843.752	2918
843.889	2929
844.025	3100
844.162	2891
844.298	3108
844.435	2998
844.571	2986
844.708	3081
844.844	3226
844.98	3237
845.117	3146
845.253	3081
845.389	2986
845.525	3127
845.661	3112
845.798	3036
845.934	3157
846.07	3062
846.206	3249
846.342	3336
846.478	3253
846.614	3108
846.75	3077
846.886	3032
847.022	3218
847.158	3165
847.294	3203
847.429	3287
847.565	3249
847.701	3500
847.837	3108
847.972	3024
848.108	3176
848.244	3176
848.379	3039
848.515	2929
848.65	2963
848.786	2986
848.921	3028
849.057	3142
849.192	3161
849.328	3097
849.463	3131
849.598	3093
849.734	3070
849.869	2990
850.004	2963
850.14	2990
850.275	2944
850.41	2872
850.545	2891
850.68	2975
850.815	3013
850.95	2982
851.085	3207
851.22	3131
851.355	3017
851.49	3020
851.625	3009
851.76	3009
851.895	2960
852.03	2922
852.165	3062
852.299	3154
852.434	3192
852.569	3142
852.703	3222
852.838	3256
852.973	3374
853.107	3348
853.242	3154
853.376	3146
853.511	3039
853.645	3047
853.78	3260
853.914	3127
854.048	3112
854.183	3127
854.317	3192
854.451	3313
854.585	3184
854.72	3131
854.854	3256
854.988	3077
855.122	3135
855.256	2990
855.39	3138
855.524	3279
855.658	3203
855.792	3199
855.926	3222
856.06	3218
856.194	3260
856.327	3176
856.461	3089
856.595	3097
856.729	3074
856.862	3222
856.996	3199
857.13	3253
857.263	3253
857.397	3332
857.53	3161
857.664	3192
857.797	3241
857.931	3275
858.064	3161
858.197	3241
858.331	3199
858.464	3100
858.597	3047
858.731	3173
858.864	3157
858.997	3077
859.13	3188
859.263	3203
859.396	3218
859.529	3123
859.662	3097
859.795	3070
859.928	3112
860.061	3306
860.194	3264
860.327	3150
860.46	3070
860.592	3237
860.725	3264
860.858	3268
860.99	3100
861.123	3070
861.256	3085
861.388	3184
861.521	3941
861.653	3081
861.786	2990
861.918	3017
862.05	3093
862.183	3127
862.315	3169
862.447	3233
862.58	3112
862.712	2956
862.844	2906
862.976	3024
863.108	3020
863.24	3447
863.372	2929
863.504	3001
863.636	2971
863.768	3062
863.9	3024
864.032	2963
864.164	2960
864.296	3039
864.428	3123
864.559	3108
864.691	3131
864.823	3077
864.954	3047
865.086	3043
865.217	3028
865.349	2967
865.48	2982
865.612	3036
865.743	3173
865.875	3024
866.006	2990
866.137	2975
866.269	2971
866.4	2963
866.531	2937
866.662	2933
866.793	2925
866.924	2925
867.055	2986
867.186	2937
867.317	2891
867.448	2868
867.579	2910
867.71	2883
867.841	2845
867.972	2937
868.103	2914
868.233	2906
868.364	2883
868.495	2910
868.625	3100
868.756	3195
868.886	2979
869.017	3005
869.147	3192
869.278	3184
869.408	3077
869.539	3074
869.669	3108
869.799	3100
869.929	3150
870.06	3150
870.19	3340
870.32	3306
870.45	3344
870.58	3412
870.71	3477
870.84	3473
870.97	3332
871.1	3283
871.23	3477
871.36	3488
871.489	3389
871.619	3420
871.749	3435
871.879	3481
872.008	3534
872.138	3351
872.267	3275
872.397	3161
872.526	3104
872.656	3020
872.785	3089
872.915	3268
873.044	3344
873.173	3245
873.303	3275
873.432	3298
873.561	3264
873.69	3176
873.819	3127
873.948	3207
874.077	3100
874.206	3100
874.335	3123
874.464	3214
874.593	3370
874.722	3264
874.851	3431
874.979	3344
875.108	3351
875.237	3249
875.365	3195
875.494	3211
875.623	3268
875.751	3104
875.88	3112
876.008	3173
876.136	3241
876.265	3450
876.393	3507
876.521	3435
876.65	3382
876.778	3348
876.906	3283
877.034	3249
877.162	3237
877.29	3203
877.418	3233
877.546	3272
877.674	3294
877.802	3237
877.93	3241
878.058	3135
878.185	3142
878.313	3180
878.441	3226
878.568	3104
878.696	3138
878.824	3256
878.951	3310
879.079	3485
879.206	3614
879.333	3447
879.461	3359
879.588	3382
879.715	3507
879.842	3557
879.97	3374
880.097	3176
880.224	3127
880.351	3214
880.478	3226
880.605	3192
880.732	3214
880.859	3481
880.986	3302
881.112	3313
881.239	3192
881.366	3108
881.493	3043
881.619	3070
881.746	3070
881.872	3135
881.999	3097
882.125	3188
882.252	3329
882.378	3355
882.505	3454
882.631	3310
882.757	3165
882.883	3253
883.01	3214
883.136	3195
883.262	3127
883.388	3081
883.514	3313
883.64	3359
883.766	3298
883.892	3173
884.018	3253
884.143	3401
884.269	3545
884.395	3211
884.52	3165
884.646	3173
884.772	3146
884.897	3135
885.023	3222
885.148	3348
885.274	3469
885.399	3382
885.524	3298
885.65	3287
885.775	3340
885.9	3264
886.025	3454
886.15	3428
886.275	3329
886.4	3260
886.525	3355
886.65	3249
886.775	3256
886.9	3473
887.025	3656
887.149	3416
887.274	3264
887.399	3188
887.523	3207
887.648	3161
887.773	3226
887.897	3382
888.021	3435
888.146	3313
888.27	3420
888.395	3526
888.519	3389
888.643	3435
888.767	3504
888.891	3321
889.015	3272
889.139	3302
889.263	3218
889.387	3378
889.511	3507
889.635	3450
889.759	3302
889.883	3321
890.006	3382
890.13	3496
890.254	3245
890.377	3401
890.501	3237
890.624	3230
890.748	3336
890.871	3169
890.995	3097
891.118	3074
891.241	3218
891.364	3249
891.488	3306
891.611	3180
891.734	3195
891.857	3298
891.98	3268
892.103	3332
892.226	3291
892.349	3211
892.471	3108
892.594	3253
892.717	3310
892.839	3306
892.962	3294
893.085	3359
893.207	3310
893.33	3173
893.452	3218
893.575	3359
893.697	3272
893.819	3492
893.941	3515
894.064	3443
894.186	3253
894.308	3302
894.43	3409
894.552	3542
894.674	3500
894.796	3241
894.918	3325
895.04	3287
895.161	3454
895.283	3397
895.405	3329
895.526	3359
895.648	3450
895.769	3409
895.891	3473
896.012	3492
896.134	3439
896.255	3393
896.376	3370
896.498	3389
896.619	3439
896.74	3386
896.861	3389
896.982	3671
897.103	3865
897.224	3599
897.345	3530
897.466	3439
897.587	3488
897.708	3614
897.828	3534
897.949	3477
898.07	3351
898.19	3428
898.311	3614
898.431	3466
898.552	3507
898.672	3606
898.792	3580
898.913	3515
899.033	3420
899.153	3298
899.273	3253
899.393	3283
899.513	3264
899.633	3313
899.753	3313
899.873	3306
899.993	3424
900.113	3336
900.232	3401
900.352	3325
900.472	3287
900.591	3233
900.711	3332
900.83	3245
900.95	3454
901.069	3515
901.189	3340
901.308	3203
901.427	3157
901.546	3188
901.665	3275
901.784	3317
901.904	3222
902.023	3188
902.141	2998
902.26	2998
902.379	3154
902.498	3066
902.617	3051
902.735	3211
902.854	3264
902.973	3195
903.091	3036
903.21	3081
903.328	3146
903.446	3169
903.565	3127
903.683	3245
903.801	3165
903.919	3256
904.038	3310
904.156	3180
904.274	3321
904.392	3233
904.51	3382
904.627	3367
904.745	3443
904.863	3481
904.981	3294
905.098	3195
905.216	3272
905.334	3283
905.451	3325
905.569	3321
905.686	3420
905.803	3454
905.921	3355
906.038	3466
906.155	3378
906.272	3336
906.389	3363
906.506	3287
906.623	3287
906.74	3302
906.857	3241
906.974	3298
907.091	3542
907.208	3603
907.324	3496
907.441	3473
907.557	3260
907.674	3283
907.79	3233
907.907	3313
908.023	3416
908.139	3378
908.256	3363
908.372	3412
908.488	3412
908.604	3313
908.72	3260
908.836	3344
908.952	3306
909.068	3389
909.184	3557
909.3	3428
909.415	3568
909.531	3519
909.647	3344
909.762	3359
909.878	3294
909.993	3378
910.108	3389
910.224	3393
910.339	3424
910.454	3393
910.57	3321
910.685	3310
910.8	3629
910.915	3557
911.03	3488
911.145	3329
911.259	3336
911.374	3317
911.489	3298
911.604	3237
911.718	3161
911.833	3199
911.947	3039
912.062	3051
912.176	3199
912.291	3218
912.405	3260
912.519	3507
912.633	3485
912.748	3382
912.862	3268
912.976	3237
913.09	3108
913.204	3199
913.318	3218
913.431	3397
913.545	3386
913.659	3439
913.772	3363
913.886	3275
914	3237
914.113	3428
914.226	3485
914.34	3393
914.453	3279
914.566	3458
914.68	3348
914.793	3332
914.906	3150
915.019	3146
915.132	3112
915.245	3199
915.358	3272
915.47	3291
915.583	3344
915.696	3359
915.809	3435
915.921	3462
916.034	3272
916.146	3260
916.259	3283
916.371	3454
916.483	3416
916.595	3313
916.708	3401
916.82	3374
916.932	3363
917.044	3397
917.156	3393
917.268	3264
917.38	3340
917.491	3389
917.603	3386
917.715	3507
917.826	3511
917.938	3405
918.049	3310
918.161	3439
918.272	3591
918.384	3603
918.495	3568
918.606	3351
918.717	3325
918.828	3424
918.939	3462
919.05	3317
919.161	3397
919.272	3203
919.383	3302
919.494	3545
919.604	3694
919.715	3511
919.826	3443
919.936	3481
920.047	3652
920.157	3553
920.267	3804
920.378	3637
920.488	3656
920.598	3800
920.708	4006
920.818	3903
920.928	3873
921.038	4055
921.148	4051
921.258	3747
921.368	3675
921.477	3625
921.587	3606
921.697	3466
921.806	3656
921.916	3603
922.025	3405
922.134	3469
922.244	3340
922.353	3519
922.462	3279
922.571	3260
922.68	3192
922.789	3085
922.898	3154
923.007	3135
923.116	3249
923.224	3222
923.333	3222
923.442	3135
923.55	3093
923.659	3176
923.767	3249
923.876	3180
923.984	3310
924.092	3138
924.201	3192
924.309	3249
924.417	3275
924.525	3245
924.633	3279
924.741	4051
924.849	3093
924.956	3321
925.064	3131
925.172	3081
925.279	3097
925.387	3214
925.494	3249
925.602	3409
925.709	3329
925.816	3199
925.924	3332
926.031	3431
926.138	3348
926.245	3344
926.352	3287
926.459	3431
926.566	3481
926.673	3359
926.779	3302
926.886	3321
926.993	3176
927.099	3150
927.206	3123
927.312	3150
927.419	3226
927.525	3253
927.631	3294
927.737	3180
927.843	3138
927.95	3047
928.056	3127
928.162	3180
928.267	3287
928.373	3842
928.479	3336
928.585	3112
928.69	3241
928.796	3317
928.901	3203
929.007	3047
929.112	3241
929.218	3195
929.323	3176
929.428	3165
929.533	3393
929.638	3119
929.743	3211
929.848	3283
929.953	3226
930.058	3214
930.163	3062
930.267	3074
930.372	3230
930.477	3066
930.581	3378
930.685	3233
930.79	3089
930.894	3142
930.998	3123
931.103	3317
931.207	3032
931.311	2979
931.415	2941
931.519	2800
931.623	2804
