Data from test_V78500241_808.txt Node
Date: Fri Mar 25 16:20:48 CST 2022
User: usil
Spectrometer: V785-0024
Trigger mode: 0
Integration Time (sec): 4.000000E-1
Scans to average: 1
Nonlinearity correction enabled: false
Boxcar width: 0
Storing dark spectrum: false
XAxis mode: Wavelengths
Number of Pixels in Spectrum: 1024
>>>>>Begin Spectral Data<<<<<
801.071	2937
801.214	2948
801.356	2864
801.499	2845
801.641	2845
801.783	2922
801.926	3009
802.068	2990
802.211	2963
802.353	3039
802.496	2948
802.638	3020
802.78	3062
802.923	3089
803.065	2979
803.208	2914
803.35	2899
803.492	2944
803.635	2929
803.777	2758
803.919	2853
804.061	3157
804.204	2933
804.346	2918
804.488	2838
804.63	3005
804.773	2880
804.915	2906
805.057	3093
805.199	2952
805.341	2963
805.483	3066
805.626	3028
805.768	2963
805.91	3100
806.052	3112
806.194	3047
806.336	3211
806.478	3032
806.62	2948
806.762	2990
806.904	3070
807.046	3154
807.188	3001
807.33	2880
807.472	2986
807.614	2929
807.756	2979
807.898	2933
808.04	2880
808.182	2979
808.324	2948
808.465	2899
808.607	2857
808.749	2842
808.891	2891
809.033	2979
809.174	2986
809.316	2868
809.458	2891
809.6	2762
809.741	2739
809.883	2754
810.025	2861
810.166	2868
810.308	2857
810.45	2872
810.591	2743
810.733	2739
810.875	2823
811.016	2750
811.158	2731
811.299	2815
811.441	2895
811.582	2895
811.724	2830
811.865	2864
812.007	2910
812.148	2872
812.29	2853
812.431	2891
812.573	2941
812.714	2963
812.855	3017
812.997	3074
813.138	3138
813.279	3005
813.421	3001
813.562	2922
813.703	2899
813.845	2925
813.986	2807
814.127	2727
814.268	2811
814.41	2781
814.551	2830
814.692	2864
814.833	2815
814.974	2891
815.115	2922
815.256	2845
815.397	2796
815.539	2891
815.68	2750
815.821	2781
815.962	2956
816.103	2902
816.244	2857
816.385	2876
816.526	2971
816.666	2891
816.807	2739
816.948	2872
817.089	2876
817.23	2864
817.371	2762
817.512	2819
817.653	2815
817.793	2807
817.934	2872
818.075	2975
818.216	2979
818.356	3024
818.497	2906
818.638	2800
818.778	2785
818.919	2804
819.06	2796
819.2	2880
819.341	2838
819.481	2815
819.622	2880
819.762	3104
819.903	3055
820.043	2906
820.184	2922
820.324	2853
820.465	3013
820.605	3020
820.746	2979
820.886	2929
821.026	3062
821.167	3169
821.307	3241
821.447	3272
821.588	3253
821.728	3222
821.868	3176
822.008	3100
822.149	3142
822.289	3237
822.429	3112
822.569	3089
822.709	3157
822.849	3036
822.99	3070
823.13	3173
823.27	3195
823.41	3138
823.55	3108
823.69	3188
823.83	3199
823.97	3089
824.11	3024
824.25	2986
824.389	3028
824.529	3089
824.669	3032
824.809	3203
824.949	3241
825.089	3188
825.228	3146
825.368	3024
825.508	2952
825.648	2956
825.787	2975
825.927	3020
826.067	2960
826.206	3001
826.346	3070
826.485	3062
826.625	3108
826.765	3249
826.904	3180
827.044	2986
827.183	2914
827.323	2834
827.462	2982
827.601	2906
827.741	2929
827.88	2952
828.02	2872
828.159	2963
828.298	3024
828.437	3085
828.577	3032
828.716	3226
828.855	3074
828.994	2925
829.134	2883
829.273	2937
829.412	2902
829.551	2864
829.69	2906
829.829	2986
829.968	3154
830.107	3024
830.246	3017
830.385	2963
830.524	2872
830.663	2845
830.802	2735
830.941	2629
831.08	2659
831.219	2743
831.357	2766
831.496	2941
831.635	2705
831.774	2644
831.913	2613
832.051	2522
832.19	2545
832.329	2689
832.467	2518
832.606	2473
832.744	2575
832.883	2583
833.022	2598
833.16	2670
833.299	2697
833.437	2686
833.576	2701
833.714	2727
833.852	2724
833.991	2735
834.129	2834
834.267	2815
834.406	2800
834.544	2861
834.682	2853
834.821	2868
834.959	3066
835.097	2887
835.235	3077
835.373	2979
835.511	2986
835.65	2952
835.788	2948
835.926	2830
836.064	2785
836.202	2864
836.34	3062
836.478	3146
836.615	3043
836.753	3100
836.891	3199
837.029	3127
837.167	3100
837.305	3051
837.443	3032
837.58	2960
837.718	3150
837.856	3100
837.993	3005
838.131	3085
838.269	3100
838.406	3146
838.544	3032
838.681	2914
838.819	2918
838.956	2819
839.094	2823
839.231	2933
839.369	3017
839.506	3378
839.643	3230
839.781	3013
839.918	2982
840.055	3066
840.193	3039
840.33	3058
840.467	3081
840.604	3131
840.742	3405
840.879	3024
841.016	3051
841.153	3077
841.29	3355
841.427	3294
841.564	3264
841.701	3302
841.838	3199
841.975	3135
842.112	3199
842.249	3062
842.385	3032
842.522	3253
842.659	3081
842.796	3028
842.933	3097
843.069	3009
843.206	3024
843.343	3154
843.479	3119
843.616	3131
843.752	2918
843.889	2872
844.025	3085
844.162	2868
844.298	3066
844.435	2986
844.571	2929
844.708	3051
844.844	3192
844.98	3264
845.117	3180
845.253	3055
845.389	3047
845.525	3081
845.661	3081
845.798	3017
845.934	3093
846.07	3013
846.206	3199
846.342	3321
846.478	3222
846.614	3112
846.75	3024
846.886	3020
847.022	3245
847.158	3108
847.294	3226
847.429	3279
847.565	3195
847.701	3450
847.837	3020
847.972	3028
848.108	3161
848.244	3173
848.379	3001
848.515	2925
848.65	2979
848.786	2941
848.921	2998
849.057	3081
849.192	3165
849.328	3066
849.463	3131
849.598	3070
849.734	3013
849.869	2937
850.004	2933
850.14	2979
850.275	2868
850.41	2861
850.545	2895
850.68	2929
850.815	2967
850.95	2952
851.085	3192
851.22	3089
851.355	3005
851.49	3001
851.625	3013
851.76	2998
851.895	2902
852.03	2929
852.165	3036
852.299	3104
852.434	3161
852.569	3150
852.703	3135
852.838	3226
852.973	3355
853.107	3329
853.242	3165
853.376	3089
853.511	2948
853.645	3028
853.78	3249
853.914	3123
854.048	3123
854.183	3112
854.317	3108
854.451	3294
854.585	3123
854.72	3097
854.854	3207
854.988	3074
855.122	3043
855.256	2944
855.39	3085
855.524	3237
855.658	3161
855.792	3135
855.926	3176
856.06	3249
856.194	3275
856.327	3176
856.461	3066
856.595	3066
856.729	3062
856.862	3169
856.996	3161
857.13	3241
857.263	3245
857.397	3256
857.53	3093
857.664	3199
857.797	3256
857.931	3272
858.064	3192
858.197	3214
858.331	3116
858.464	3093
858.597	2982
858.731	3119
858.864	3135
858.997	3093
859.13	3154
859.263	3218
859.396	3184
859.529	3062
859.662	3039
859.795	3032
859.928	3108
860.061	3287
860.194	3272
860.327	3138
860.46	3119
860.592	3211
860.725	3249
860.858	3264
860.99	3093
861.123	3017
861.256	3039
861.388	3135
861.521	3918
861.653	3017
861.786	2982
861.918	2979
862.05	3032
862.183	3097
862.315	3154
862.447	3192
862.58	3089
862.712	2929
862.844	2853
862.976	3055
863.108	3020
863.24	3291
863.372	2902
863.504	2967
863.636	2933
863.768	3017
863.9	2944
864.032	2918
864.164	2902
864.296	3013
864.428	3119
864.559	3085
864.691	3047
864.823	3058
864.954	3036
865.086	3070
865.217	2956
865.349	2933
865.48	3009
865.612	2998
865.743	3150
865.875	3001
866.006	2937
866.137	2967
866.269	2967
866.4	2895
866.531	2899
866.662	2918
866.793	2864
866.924	2902
867.055	2952
867.186	2902
867.317	2910
867.448	2796
867.579	2902
867.71	2853
867.841	2838
867.972	2933
868.103	2922
868.233	2872
868.364	2883
868.495	2914
868.625	3070
868.756	3154
868.886	2982
869.017	3036
869.147	3184
869.278	3150
869.408	3058
869.539	2994
869.669	3119
869.799	3039
869.929	3116
870.06	3112
870.19	3344
870.32	3287
870.45	3275
870.58	3386
870.71	3466
870.84	3409
870.97	3302
871.1	3207
871.23	3496
871.36	3397
871.489	3378
871.619	3424
871.749	3378
871.879	3420
872.008	3443
872.138	3382
872.267	3256
872.397	3150
872.526	3100
872.656	2979
872.785	3097
872.915	3245
873.044	3291
873.173	3199
873.303	3245
873.432	3249
873.561	3214
873.69	3157
873.819	3135
873.948	3207
874.077	3055
874.206	3043
874.335	3062
874.464	3207
874.593	3355
874.722	3214
874.851	3355
874.979	3389
875.108	3329
875.237	3176
875.365	3192
875.494	3165
875.623	3207
875.751	3089
875.88	3089
876.008	3211
876.136	3230
876.265	3367
876.393	3511
876.521	3416
876.65	3374
876.778	3302
876.906	3268
877.034	3188
877.162	3245
877.29	3169
877.418	3256
877.546	3249
877.674	3268
877.802	3218
877.93	3218
878.058	3150
878.185	3081
878.313	3226
878.441	3222
878.568	3043
878.696	3180
878.824	3249
878.951	3298
879.079	3420
879.206	3637
879.333	3409
879.461	3332
879.588	3363
879.715	3477
879.842	3557
879.97	3382
880.097	3123
880.224	3119
880.351	3207
880.478	3233
880.605	3195
880.732	3180
880.859	3454
880.986	3298
881.112	3302
881.239	3192
881.366	3070
881.493	3020
881.619	2990
881.746	3074
881.872	3093
881.999	3077
882.125	3154
882.252	3214
882.378	3249
882.505	3447
882.631	3317
882.757	3146
882.883	3230
883.01	3199
883.136	3138
883.262	3081
883.388	3146
883.514	3329
883.64	3393
883.766	3302
883.892	3157
884.018	3218
884.143	3397
884.269	3523
884.395	3226
884.52	3188
884.646	3169
884.772	3131
884.897	3108
885.023	3226
885.148	3329
885.274	3405
885.399	3344
885.524	3253
885.65	3249
885.775	3302
885.9	3298
886.025	3412
886.15	3378
886.275	3317
886.4	3233
886.525	3283
886.65	3294
886.775	3302
886.9	3496
887.025	3572
887.149	3310
887.274	3256
887.399	3192
887.523	3230
887.648	3180
887.773	3211
887.897	3355
888.021	3405
888.146	3294
888.27	3412
888.395	3511
888.519	3401
888.643	3435
888.767	3443
888.891	3313
889.015	3222
889.139	3268
889.263	3233
889.387	3424
889.511	3473
889.635	3424
889.759	3264
889.883	3283
890.006	3344
890.13	3450
890.254	3264
890.377	3317
890.501	3218
890.624	3180
890.748	3279
890.871	3173
890.995	3119
891.118	3070
891.241	3165
891.364	3237
891.488	3306
891.611	3142
891.734	3241
891.857	3260
891.98	3199
892.103	3386
892.226	3253
892.349	3222
892.471	3119
892.594	3291
892.717	3298
892.839	3264
892.962	3260
893.085	3370
893.207	3272
893.33	3173
893.452	3192
893.575	3351
893.697	3260
893.819	3424
893.941	3481
894.064	3416
894.186	3264
894.308	3256
894.43	3454
894.552	3515
894.674	3447
894.796	3298
894.918	3302
895.04	3253
895.161	3389
895.283	3344
895.405	3302
895.526	3348
895.648	3409
895.769	3431
895.891	3462
896.012	3435
896.134	3492
896.255	3367
896.376	3378
896.498	3355
896.619	3393
896.74	3355
896.861	3393
896.982	3724
897.103	3816
897.224	3572
897.345	3477
897.466	3393
897.587	3504
897.708	3591
897.828	3545
897.949	3405
898.07	3355
898.19	3405
898.311	3606
898.431	3450
898.552	3496
898.672	3545
898.792	3610
898.913	3519
899.033	3401
899.153	3275
899.273	3226
899.393	3302
899.513	3279
899.633	3336
899.753	3313
899.873	3298
899.993	3393
900.113	3336
900.232	3416
900.352	3306
900.472	3302
900.591	3192
900.711	3291
900.83	3214
900.95	3401
901.069	3553
901.189	3348
901.308	3154
901.427	3150
901.546	3188
901.665	3302
901.784	3302
901.904	3222
902.023	3146
902.141	3024
902.26	2994
902.379	3146
902.498	3058
902.617	3036
902.735	3192
902.854	3222
902.973	3176
903.091	3066
903.21	3074
903.328	3157
903.446	3097
903.565	3093
903.683	3165
903.801	3093
903.919	3226
904.038	3287
904.156	3127
904.274	3283
904.392	3233
904.51	3298
904.627	3302
904.745	3454
904.863	3515
904.981	3264
905.098	3169
905.216	3203
905.334	3275
905.451	3302
905.569	3317
905.686	3435
905.803	3412
905.921	3275
906.038	3405
906.155	3332
906.272	3264
906.389	3386
906.506	3245
906.623	3207
906.74	3313
906.857	3207
906.974	3226
907.091	3466
907.208	3545
907.324	3488
907.441	3386
907.557	3222
907.674	3237
907.79	3211
907.907	3279
908.023	3397
908.139	3367
908.256	3313
908.372	3382
908.488	3420
908.604	3260
908.72	3245
908.836	3287
908.952	3287
909.068	3325
909.184	3462
909.3	3382
909.415	3519
909.531	3469
909.647	3233
909.762	3264
909.878	3241
909.993	3367
910.108	3340
910.224	3294
910.339	3416
910.454	3317
910.57	3302
910.685	3279
910.8	3584
910.915	3549
911.03	3435
911.145	3268
911.259	3256
911.374	3306
911.489	3241
911.604	3253
911.718	3123
911.833	3157
911.947	3039
912.062	2990
912.176	3146
912.291	3192
912.405	3230
912.519	3420
912.633	3466
912.748	3332
912.862	3249
912.976	3165
913.09	3051
913.204	3131
913.318	3180
913.431	3317
913.545	3310
913.659	3443
913.772	3317
913.886	3218
914	3226
914.113	3332
914.226	3424
914.34	3344
914.453	3207
914.566	3401
914.68	3245
914.793	3294
914.906	3127
915.019	3135
915.132	3036
915.245	3188
915.358	3241
915.47	3226
915.583	3264
915.696	3332
915.809	3428
915.921	3428
916.034	3291
916.146	3275
916.259	3211
916.371	3367
916.483	3344
916.595	3264
916.708	3313
916.82	3329
916.932	3317
917.044	3317
917.156	3367
917.268	3253
917.38	3291
917.491	3287
917.603	3317
917.715	3454
917.826	3466
917.938	3401
918.049	3260
918.161	3485
918.272	3610
918.384	3549
918.495	3534
918.606	3336
918.717	3302
918.828	3367
918.939	3382
919.05	3313
919.161	3363
919.272	3180
919.383	3237
919.494	3488
919.604	3675
919.715	3488
919.826	3363
919.936	3435
920.047	3595
920.157	3568
920.267	3747
920.378	3625
920.488	3564
920.598	3789
920.708	3926
920.818	3873
920.928	3823
921.038	4063
921.148	4029
921.258	3724
921.368	3644
921.477	3526
921.587	3557
921.697	3462
921.806	3679
921.916	3538
922.025	3397
922.134	3363
922.244	3317
922.353	3409
922.462	3302
922.571	3268
922.68	3058
922.789	3074
922.898	3119
923.007	3074
923.116	3249
923.224	3157
923.333	3176
923.442	3138
923.55	3116
923.659	3093
923.767	3264
923.876	3100
923.984	3233
924.092	3085
924.201	3237
924.309	3218
924.417	3237
924.525	3188
924.633	3260
924.741	4185
924.849	3013
924.956	3241
925.064	3116
925.172	3028
925.279	3100
925.387	3176
925.494	3188
925.602	3374
925.709	3321
925.816	3253
925.924	3272
926.031	3374
926.138	3317
926.245	3412
926.352	3241
926.459	3412
926.566	3481
926.673	3336
926.779	3249
926.886	3245
926.993	3165
927.099	3157
927.206	3104
927.312	3093
927.419	3226
927.525	3211
927.631	3237
927.737	3173
927.843	3108
927.95	3036
928.056	3157
928.162	3188
928.267	3264
928.373	3736
928.479	3302
928.585	3097
928.69	3203
928.796	3310
928.901	3169
929.007	3062
929.112	3195
929.218	3192
929.323	3131
929.428	3116
929.533	3306
929.638	3058
929.743	3192
929.848	3241
929.953	3233
930.058	3127
930.163	3017
930.267	3058
930.372	3176
930.477	3051
930.581	3306
930.685	3195
930.79	3062
930.894	3089
930.998	3070
931.103	3275
931.207	2941
931.311	2906
931.415	2948
931.519	2766
931.623	2815
