Data from test_V78500241_1108.txt Node
Date: Fri Mar 25 16:22:52 CST 2022
User: usil
Spectrometer: V785-0024
Trigger mode: 0
Integration Time (sec): 4.000000E-1
Scans to average: 1
Nonlinearity correction enabled: false
Boxcar width: 0
Storing dark spectrum: false
XAxis mode: Wavelengths
Number of Pixels in Spectrum: 1024
>>>>>Begin Spectral Data<<<<<
801.071	2895
801.214	2906
801.356	2861
801.499	2880
801.641	2830
801.783	2899
801.926	3058
802.068	2956
802.211	2998
802.353	3039
802.496	2929
802.638	3013
802.78	3020
802.923	3051
803.065	2994
803.208	2960
803.35	2899
803.492	2918
803.635	2902
803.777	2777
803.919	2838
804.061	3222
804.204	2929
804.346	2929
804.488	2811
804.63	2952
804.773	2864
804.915	2925
805.057	3070
805.199	2929
805.341	2952
805.483	3039
805.626	3032
805.768	2918
805.91	3074
806.052	3104
806.194	3028
806.336	3222
806.478	3028
806.62	2929
806.762	2952
806.904	3055
807.046	3154
807.188	2952
807.33	2883
807.472	2990
807.614	2906
807.756	2963
807.898	2918
808.04	2872
808.182	2998
808.324	2967
808.465	2857
808.607	2899
808.749	2769
808.891	2883
809.033	2956
809.174	2986
809.316	2887
809.458	2914
809.6	2743
809.741	2788
809.883	2739
810.025	2853
810.166	2834
810.308	2834
810.45	2830
810.591	2739
810.733	2750
810.875	2853
811.016	2766
811.158	2743
811.299	2807
811.441	2918
811.582	2872
811.724	2864
811.865	2815
812.007	2891
812.148	2906
812.29	2849
812.431	2895
812.573	2944
812.714	2963
812.855	3028
812.997	3058
813.138	3119
813.279	2963
813.421	3001
813.562	2933
813.703	2842
813.845	2929
813.986	2800
814.127	2758
814.268	2830
814.41	2853
814.551	2830
814.692	2872
814.833	2788
814.974	2895
815.115	2944
815.256	2880
815.397	2807
815.539	2883
815.68	2785
815.821	2773
815.962	2914
816.103	2906
816.244	2876
816.385	2845
816.526	2967
816.666	2922
816.807	2762
816.948	2891
817.089	2910
817.23	2864
817.371	2769
817.512	2792
817.653	2811
817.793	2830
817.934	2899
818.075	2963
818.216	2963
818.356	3039
818.497	2853
818.638	2819
818.778	2826
818.919	2777
819.06	2731
819.2	2899
819.341	2804
819.481	2811
819.622	2925
819.762	3093
819.903	3036
820.043	2956
820.184	2967
820.324	2902
820.465	3009
820.605	3005
820.746	2982
820.886	2902
821.026	3070
821.167	3146
821.307	3245
821.447	3317
821.588	3214
821.728	3165
821.868	3203
822.008	3104
822.149	3199
822.289	3176
822.429	3074
822.569	3116
822.709	3180
822.849	3036
822.99	3066
823.13	3188
823.27	3165
823.41	3097
823.55	3127
823.69	3165
823.83	3184
823.97	3116
824.11	3005
824.25	2963
824.389	3062
824.529	3131
824.669	3085
824.809	3184
824.949	3214
825.089	3241
825.228	3150
825.368	2971
825.508	2956
825.648	2975
825.787	2990
825.927	3005
826.067	2979
826.206	2933
826.346	3039
826.485	3066
826.625	3104
826.765	3256
826.904	3203
827.044	2982
827.183	2971
827.323	2872
827.462	2948
827.601	2925
827.741	2880
827.88	2960
828.02	2845
828.159	2963
828.298	3005
828.437	3127
828.577	3070
828.716	3256
828.855	3028
828.994	2914
829.134	2876
829.273	2941
829.412	2868
829.551	2857
829.69	2872
829.829	3001
829.968	3097
830.107	3020
830.246	3043
830.385	2941
830.524	2880
830.663	2811
830.802	2712
830.941	2655
831.08	2636
831.219	2746
831.357	2754
831.496	2982
831.635	2697
831.774	2640
831.913	2651
832.051	2522
832.19	2590
832.329	2674
832.467	2533
832.606	2503
832.744	2571
832.883	2560
833.022	2583
833.16	2640
833.299	2693
833.437	2693
833.576	2750
833.714	2712
833.852	2724
833.991	2785
834.129	2807
834.267	2811
834.406	2781
834.544	2864
834.682	2849
834.821	2868
834.959	3081
835.097	2864
835.235	3043
835.373	2982
835.511	3043
835.65	2925
835.788	2960
835.926	2819
836.064	2807
836.202	2838
836.34	3074
836.478	3135
836.615	3024
836.753	3108
836.891	3207
837.029	3154
837.167	3085
837.305	3032
837.443	3005
837.58	2925
837.718	3142
837.856	3039
837.993	3036
838.131	3154
838.269	3104
838.406	3066
838.544	3062
838.681	2922
838.819	2899
838.956	2830
839.094	2815
839.231	2902
839.369	3055
839.506	3389
839.643	3207
839.781	3017
839.918	2933
840.055	3036
840.193	3047
840.33	3043
840.467	3085
840.604	3154
840.742	3401
840.879	3062
841.016	3051
841.153	3104
841.29	3351
841.427	3279
841.564	3256
841.701	3329
841.838	3211
841.975	3192
842.112	3230
842.249	3051
842.385	3024
842.522	3260
842.659	3070
842.796	3009
842.933	3119
843.069	3039
843.206	3058
843.343	3165
843.479	3123
843.616	3104
843.752	2876
843.889	2891
844.025	3081
844.162	2842
844.298	3051
844.435	2948
844.571	2922
844.708	3055
844.844	3188
844.98	3230
845.117	3176
845.253	3005
845.389	3013
845.525	3066
845.661	3097
845.798	3017
845.934	3104
846.07	3047
846.206	3195
846.342	3313
846.478	3211
846.614	3066
846.75	3055
846.886	3017
847.022	3256
847.158	3123
847.294	3207
847.429	3253
847.565	3203
847.701	3450
847.837	3051
847.972	2994
848.108	3154
848.244	3131
848.379	2975
848.515	2960
848.65	2922
848.786	2952
848.921	3020
849.057	3108
849.192	3123
849.328	3077
849.463	3123
849.598	3032
849.734	3039
849.869	3005
850.004	2906
850.14	2952
850.275	2922
850.41	2823
850.545	2883
850.68	2914
850.815	2933
850.95	2963
851.085	3180
851.22	3108
851.355	3028
851.49	2994
851.625	3017
851.76	3001
851.895	2918
852.03	2895
852.165	3020
852.299	3108
852.434	3173
852.569	3097
852.703	3180
852.838	3245
852.973	3359
853.107	3374
853.242	3138
853.376	3039
853.511	2971
853.645	3036
853.78	3226
853.914	3100
854.048	3081
854.183	3074
854.317	3112
854.451	3283
854.585	3138
854.72	3085
854.854	3195
854.988	3055
855.122	3089
855.256	2952
855.39	3093
855.524	3260
855.658	3154
855.792	3157
855.926	3180
856.06	3214
856.194	3222
856.327	3150
856.461	3085
856.595	3093
856.729	3097
856.862	3218
856.996	3146
857.13	3203
857.263	3230
857.397	3260
857.53	3138
857.664	3207
857.797	3253
857.931	3222
858.064	3169
858.197	3199
858.331	3123
858.464	3058
858.597	3009
858.731	3116
858.864	3146
858.997	3058
859.13	3135
859.263	3165
859.396	3169
859.529	3077
859.662	3066
859.795	3020
859.928	3150
860.061	3245
860.194	3279
860.327	3093
860.46	3077
860.592	3249
860.725	3256
860.858	3245
860.99	3104
861.123	3051
861.256	3039
861.388	3135
861.521	3720
861.653	3017
861.786	2971
861.918	2998
862.05	3062
862.183	3085
862.315	3176
862.447	3203
862.58	3093
862.712	2960
862.844	2887
862.976	3032
863.108	3005
863.24	3420
863.372	2853
863.504	2956
863.636	2967
863.768	2998
863.9	2971
864.032	2868
864.164	2971
864.296	2960
864.428	3085
864.559	3093
864.691	3062
864.823	3032
864.954	3017
865.086	3047
865.217	2979
865.349	2948
865.48	2971
865.612	3013
865.743	3142
865.875	2982
866.006	2941
866.137	3001
866.269	2933
866.4	2956
866.531	2933
866.662	2864
866.793	2876
866.924	2899
867.055	2982
867.186	2914
867.317	2899
867.448	2834
867.579	2838
867.71	2864
867.841	2811
867.972	2876
868.103	2899
868.233	2876
868.364	2880
868.495	2925
868.625	3127
868.756	3165
868.886	2952
869.017	2982
869.147	3165
869.278	3161
869.408	3013
869.539	3032
869.669	3097
869.799	3039
869.929	3127
870.06	3081
870.19	3317
870.32	3264
870.45	3249
870.58	3363
870.71	3397
870.84	3507
870.97	3264
871.1	3241
871.23	3454
871.36	3447
871.489	3359
871.619	3374
871.749	3409
871.879	3488
872.008	3431
872.138	3340
872.267	3249
872.397	3150
872.526	3108
872.656	2960
872.785	3066
872.915	3214
873.044	3260
873.173	3226
873.303	3218
873.432	3241
873.561	3283
873.69	3116
873.819	3135
873.948	3188
874.077	3100
874.206	3039
874.335	3104
874.464	3237
874.593	3355
874.722	3203
874.851	3374
874.979	3363
875.108	3302
875.237	3222
875.365	3138
875.494	3146
875.623	3256
875.751	3058
875.88	3135
876.008	3165
876.136	3237
876.265	3351
876.393	3500
876.521	3420
876.65	3420
876.778	3332
876.906	3249
877.034	3192
877.162	3203
877.29	3161
877.418	3253
877.546	3245
877.674	3233
877.802	3241
877.93	3233
878.058	3165
878.185	3097
878.313	3188
878.441	3226
878.568	3070
878.696	3154
878.824	3275
878.951	3275
879.079	3439
879.206	3618
879.333	3439
879.461	3294
879.588	3367
879.715	3485
879.842	3568
879.97	3393
880.097	3199
880.224	3131
880.351	3207
880.478	3176
880.605	3161
880.732	3169
880.859	3488
880.986	3313
881.112	3355
881.239	3195
881.366	3093
881.493	3009
881.619	3039
881.746	3074
881.872	3085
881.999	3112
882.125	3131
882.252	3241
882.378	3260
882.505	3435
882.631	3283
882.757	3165
882.883	3218
883.01	3218
883.136	3157
883.262	3097
883.388	3119
883.514	3351
883.64	3306
883.766	3275
883.892	3184
884.018	3218
884.143	3393
884.269	3549
884.395	3207
884.52	3165
884.646	3207
884.772	3146
884.897	3093
885.023	3241
885.148	3306
885.274	3431
885.399	3355
885.524	3287
885.65	3268
885.775	3310
885.9	3264
886.025	3412
886.15	3374
886.275	3287
886.4	3184
886.525	3294
886.65	3264
886.775	3306
886.9	3496
887.025	3610
887.149	3393
887.274	3237
887.399	3199
887.523	3195
887.648	3165
887.773	3138
887.897	3378
888.021	3424
888.146	3279
888.27	3443
888.395	3530
888.519	3389
888.643	3458
888.767	3412
888.891	3283
889.015	3256
889.139	3249
889.263	3245
889.387	3401
889.511	3496
889.635	3443
889.759	3268
889.883	3279
890.006	3336
890.13	3507
890.254	3245
890.377	3336
890.501	3214
890.624	3188
890.748	3321
890.871	3192
890.995	3077
891.118	3036
891.241	3207
891.364	3237
891.488	3348
891.611	3142
891.734	3245
891.857	3256
891.98	3199
892.103	3294
892.226	3287
892.349	3192
892.471	3138
892.594	3241
892.717	3298
892.839	3272
892.962	3294
893.085	3393
893.207	3291
893.33	3146
893.452	3260
893.575	3344
893.697	3226
893.819	3462
893.941	3496
894.064	3477
894.186	3245
894.308	3264
894.43	3454
894.552	3557
894.674	3488
894.796	3268
894.918	3310
895.04	3283
895.161	3397
895.283	3336
895.405	3279
895.526	3367
895.648	3424
895.769	3431
895.891	3435
896.012	3473
896.134	3443
896.255	3405
896.376	3378
896.498	3378
896.619	3412
896.74	3405
896.861	3401
896.982	3660
897.103	3823
897.224	3610
897.345	3496
897.466	3420
897.587	3481
897.708	3603
897.828	3519
897.949	3431
898.07	3321
898.19	3412
898.311	3606
898.431	3435
898.552	3519
898.672	3595
898.792	3576
898.913	3504
899.033	3431
899.153	3260
899.273	3218
899.393	3310
899.513	3306
899.633	3298
899.753	3310
899.873	3287
899.993	3378
900.113	3355
900.232	3363
900.352	3348
900.472	3302
900.591	3207
900.711	3294
900.83	3249
900.95	3389
901.069	3500
901.189	3355
901.308	3192
901.427	3138
901.546	3180
901.665	3237
901.784	3302
901.904	3188
902.023	3154
902.141	2990
902.26	2986
902.379	3157
902.498	3070
902.617	3036
902.735	3173
902.854	3226
902.973	3180
903.091	3024
903.21	3089
903.328	3116
903.446	3093
903.565	3062
903.683	3226
903.801	3108
903.919	3230
904.038	3321
904.156	3142
904.274	3298
904.392	3298
904.51	3283
904.627	3294
904.745	3443
904.863	3481
904.981	3249
905.098	3199
905.216	3245
905.334	3294
905.451	3275
905.569	3306
905.686	3424
905.803	3454
905.921	3317
906.038	3420
906.155	3332
906.272	3275
906.389	3310
906.506	3272
906.623	3218
906.74	3260
906.857	3184
906.974	3279
907.091	3469
907.208	3549
907.324	3420
907.441	3378
907.557	3222
907.674	3230
907.79	3233
907.907	3298
908.023	3412
908.139	3401
908.256	3340
908.372	3363
908.488	3370
908.604	3249
908.72	3249
908.836	3310
908.952	3283
909.068	3317
909.184	3466
909.3	3351
909.415	3481
909.531	3431
909.647	3264
909.762	3310
909.878	3256
909.993	3355
910.108	3329
910.224	3340
910.339	3416
910.454	3329
910.57	3272
910.685	3230
910.8	3625
910.915	3553
911.03	3431
911.145	3275
911.259	3294
911.374	3325
911.489	3249
911.604	3249
911.718	3123
911.833	3161
911.947	3009
912.062	2975
912.176	3184
912.291	3192
912.405	3195
912.519	3447
912.633	3469
912.748	3340
912.862	3253
912.976	3154
913.09	3043
913.204	3135
913.318	3176
913.431	3321
913.545	3355
913.659	3386
913.772	3317
913.886	3203
914	3203
914.113	3344
914.226	3378
914.34	3332
914.453	3184
914.566	3393
914.68	3306
914.793	3287
914.906	3138
915.019	3135
915.132	3051
915.245	3173
915.358	3230
915.47	3241
915.583	3256
915.696	3287
915.809	3382
915.921	3393
916.034	3264
916.146	3245
916.259	3173
916.371	3351
916.483	3370
916.595	3275
916.708	3329
916.82	3336
916.932	3363
917.044	3317
917.156	3302
917.268	3233
917.38	3310
917.491	3283
917.603	3336
917.715	3428
917.826	3492
917.938	3363
918.049	3279
918.161	3458
918.272	3591
918.384	3587
918.495	3477
918.606	3332
918.717	3283
918.828	3374
918.939	3378
919.05	3302
919.161	3359
919.272	3146
919.383	3306
919.494	3496
919.604	3705
919.715	3450
919.826	3412
919.936	3469
920.047	3564
920.157	3564
920.267	3770
920.378	3625
920.488	3580
920.598	3751
920.708	3994
920.818	3854
920.928	3831
921.038	4055
921.148	3998
921.258	3755
921.368	3656
921.477	3561
921.587	3557
921.697	3458
921.806	3622
921.916	3500
922.025	3329
922.134	3367
922.244	3336
922.353	3386
922.462	3241
922.571	3249
922.68	3100
922.789	3043
922.898	3123
923.007	3108
923.116	3226
923.224	3188
923.333	3157
923.442	3066
923.55	3100
923.659	3154
923.767	3192
923.876	3093
923.984	3176
924.092	3142
924.201	3165
924.309	3211
924.417	3279
924.525	3180
924.633	3275
924.741	4006
924.849	3013
924.956	3264
925.064	3066
925.172	3047
925.279	3116
925.387	3192
925.494	3207
925.602	3340
925.709	3340
925.816	3188
925.924	3253
926.031	3367
926.138	3329
926.245	3340
926.352	3218
926.459	3416
926.566	3473
926.673	3321
926.779	3275
926.886	3298
926.993	3169
927.099	3104
927.206	3135
927.312	3127
927.419	3249
927.525	3199
927.631	3298
927.737	3150
927.843	3157
927.95	3081
928.056	3089
928.162	3184
928.267	3237
928.373	3819
928.479	3268
928.585	3119
928.69	3218
928.796	3268
928.901	3157
929.007	3032
929.112	3203
929.218	3184
929.323	3112
929.428	3180
929.533	3317
929.638	3077
929.743	3173
929.848	3249
929.953	3207
930.058	3116
930.163	3013
930.267	3032
930.372	3207
930.477	3013
930.581	3298
930.685	3173
930.79	3047
930.894	3089
930.998	3055
931.103	3302
931.207	2971
931.311	2922
931.415	2883
931.519	2762
931.623	2804
