Data from test_V78500241_905.txt Node
Date: Fri Mar 25 16:21:28 CST 2022
User: usil
Spectrometer: V785-0024
Trigger mode: 0
Integration Time (sec): 4.000000E-1
Scans to average: 1
Nonlinearity correction enabled: false
Boxcar width: 0
Storing dark spectrum: false
XAxis mode: Wavelengths
Number of Pixels in Spectrum: 1024
>>>>>Begin Spectral Data<<<<<
801.071	2933
801.214	2956
801.356	2880
801.499	2937
801.641	2849
801.783	2975
801.926	3093
802.068	2971
802.211	3024
802.353	3024
802.496	3001
802.638	3013
802.78	3032
802.923	3058
803.065	3009
803.208	2910
803.35	2925
803.492	2906
803.635	2944
803.777	2762
803.919	2849
804.061	3161
804.204	2933
804.346	2914
804.488	2807
804.63	2998
804.773	2902
804.915	2891
805.057	3066
805.199	2933
805.341	2971
805.483	3032
805.626	2960
805.768	2971
805.91	3093
806.052	3150
806.194	3020
806.336	3214
806.478	3013
806.62	2952
806.762	3001
806.904	3032
807.046	3165
807.188	2963
807.33	2914
807.472	2979
807.614	2906
807.756	2990
807.898	2891
808.04	2906
808.182	2975
808.324	2963
808.465	2902
808.607	2868
808.749	2804
808.891	2845
809.033	2979
809.174	2960
809.316	2849
809.458	2899
809.6	2781
809.741	2781
809.883	2804
810.025	2872
810.166	2845
810.308	2842
810.45	2842
810.591	2773
810.733	2777
810.875	2838
811.016	2781
811.158	2712
811.299	2796
811.441	2929
811.582	2910
811.724	2815
811.865	2857
812.007	2925
812.148	2876
812.29	2830
812.431	2849
812.573	2910
812.714	2937
812.855	3009
812.997	3093
813.138	3131
813.279	2990
813.421	2971
813.562	2910
813.703	2864
813.845	2906
813.986	2762
814.127	2727
814.268	2842
814.41	2853
814.551	2781
814.692	2906
814.833	2838
814.974	2914
815.115	2891
815.256	2823
815.397	2823
815.539	2838
815.68	2773
815.821	2785
815.962	2952
816.103	2922
816.244	2880
816.385	2883
816.526	2975
816.666	2887
816.807	2758
816.948	2864
817.089	2895
817.23	2849
817.371	2781
817.512	2834
817.653	2849
817.793	2834
817.934	2857
818.075	2979
818.216	2979
818.356	3009
818.497	2891
818.638	2758
818.778	2823
818.919	2769
819.06	2762
819.2	2868
819.341	2792
819.481	2788
819.622	2967
819.762	3100
819.903	3024
820.043	2925
820.184	2887
820.324	2876
820.465	3039
820.605	3020
820.746	3017
820.886	2937
821.026	3112
821.167	3169
821.307	3291
821.447	3272
821.588	3264
821.728	3207
821.868	3188
822.008	3138
822.149	3176
822.289	3218
822.429	3093
822.569	3135
822.709	3214
822.849	3013
822.99	3100
823.13	3173
823.27	3192
823.41	3100
823.55	3165
823.69	3173
823.83	3211
823.97	3119
824.11	3047
824.25	3032
824.389	3093
824.529	3142
824.669	3104
824.809	3199
824.949	3253
825.089	3233
825.228	3180
825.368	3074
825.508	3043
825.648	2998
825.787	3097
825.927	3074
826.067	3009
826.206	2994
826.346	3089
826.485	3100
826.625	3161
826.765	3291
826.904	3260
827.044	3066
827.183	3017
827.323	2861
827.462	2990
827.601	2933
827.741	2979
827.88	2998
828.02	2876
828.159	2998
828.298	3100
828.437	3173
828.577	3081
828.716	3264
828.855	3157
828.994	2975
829.134	2895
829.273	2956
829.412	2891
829.551	2906
829.69	2929
829.829	3032
829.968	3154
830.107	3047
830.246	3070
830.385	2956
830.524	2963
830.663	2861
830.802	2781
830.941	2678
831.08	2686
831.219	2792
831.357	2815
831.496	3020
831.635	2754
831.774	2682
831.913	2686
832.051	2590
832.19	2632
832.329	2727
832.467	2568
832.606	2514
832.744	2594
832.883	2636
833.022	2632
833.16	2659
833.299	2750
833.437	2720
833.576	2727
833.714	2731
833.852	2754
833.991	2773
834.129	2853
834.267	2887
834.406	2800
834.544	2902
834.682	2914
834.821	2887
834.959	3093
835.097	2941
835.235	3089
835.373	3017
835.511	3070
835.65	2990
835.788	2971
835.926	2853
836.064	2853
836.202	2861
836.34	3119
836.478	3154
836.615	3077
836.753	3135
836.891	3222
837.029	3180
837.167	3176
837.305	3085
837.443	3097
837.58	2998
837.718	3161
837.856	3104
837.993	3062
838.131	3154
838.269	3138
838.406	3119
838.544	3146
838.681	2971
838.819	2944
838.956	2830
839.094	2823
839.231	2944
839.369	3017
839.506	3374
839.643	3264
839.781	3028
839.918	3017
840.055	3070
840.193	3104
840.33	3089
840.467	3108
840.604	3207
840.742	3454
840.879	3093
841.016	3062
841.153	3135
841.29	3382
841.427	3355
841.564	3275
841.701	3325
841.838	3256
841.975	3165
842.112	3264
842.249	3123
842.385	3108
842.522	3294
842.659	3116
842.796	3108
842.933	3165
843.069	3028
843.206	3009
843.343	3218
843.479	3116
843.616	3188
843.752	2899
843.889	2906
844.025	3146
844.162	2887
844.298	3127
844.435	2990
844.571	2922
844.708	3123
844.844	3211
844.98	3245
845.117	3241
845.253	3070
845.389	3036
845.525	3108
845.661	3127
845.798	3024
845.934	3146
846.07	3081
846.206	3211
846.342	3340
846.478	3199
846.614	3127
846.75	3062
846.886	3020
847.022	3260
847.158	3184
847.294	3188
847.429	3241
847.565	3233
847.701	3507
847.837	3058
847.972	3039
848.108	3184
848.244	3169
848.379	3001
848.515	2967
848.65	2944
848.786	2960
848.921	3055
849.057	3116
849.192	3169
849.328	3146
849.463	3123
849.598	3058
849.734	3043
849.869	2990
850.004	2887
850.14	3013
850.275	2922
850.41	2868
850.545	2891
850.68	2990
850.815	2975
850.95	2986
851.085	3214
851.22	3123
851.355	3047
851.49	2998
851.625	3024
851.76	3032
851.895	2929
852.03	2933
852.165	3070
852.299	3142
852.434	3184
852.569	3180
852.703	3169
852.838	3272
852.973	3344
853.107	3344
853.242	3176
853.376	3100
853.511	2990
853.645	3066
853.78	3233
853.914	3146
854.048	3116
854.183	3108
854.317	3188
854.451	3268
854.585	3169
854.72	3100
854.854	3199
854.988	3093
855.122	3142
855.256	2971
855.39	3169
855.524	3253
855.658	3184
855.792	3184
855.926	3211
856.06	3241
856.194	3275
856.327	3226
856.461	3081
856.595	3138
856.729	3154
856.862	3260
856.996	3184
857.13	3230
857.263	3264
857.397	3302
857.53	3112
857.664	3195
857.797	3287
857.931	3302
858.064	3188
858.197	3298
858.331	3150
858.464	3123
858.597	2998
858.731	3161
858.864	3135
858.997	3119
859.13	3211
859.263	3169
859.396	3211
859.529	3112
859.662	3036
859.795	3036
859.928	3157
860.061	3306
860.194	3291
860.327	3135
860.46	3077
860.592	3249
860.725	3279
860.858	3283
860.99	3135
861.123	3085
861.256	3070
861.388	3161
861.521	3838
861.653	3005
861.786	2986
861.918	3032
862.05	3070
862.183	3127
862.315	3131
862.447	3226
862.58	3066
862.712	3017
862.844	2876
862.976	3047
863.108	2998
863.24	3363
863.372	2887
863.504	2979
863.636	2990
863.768	3032
863.9	3001
864.032	2944
864.164	2982
864.296	3020
864.428	3112
864.559	3104
864.691	3081
864.823	3074
864.954	3070
865.086	3058
865.217	3017
865.349	2982
865.48	3013
865.612	3085
865.743	3131
865.875	3013
866.006	2944
866.137	3028
866.269	2986
866.4	2956
866.531	2941
866.662	2899
866.793	2883
866.924	2914
867.055	2979
867.186	2952
867.317	2883
867.448	2857
867.579	2883
867.71	2857
867.841	2834
867.972	2941
868.103	2914
868.233	2872
868.364	2876
868.495	2956
868.625	3104
868.756	3199
868.886	2998
869.017	3020
869.147	3176
869.278	3192
869.408	3116
869.539	3055
869.669	3116
869.799	3058
869.929	3112
870.06	3100
870.19	3367
870.32	3283
870.45	3310
870.58	3370
870.71	3439
870.84	3488
870.97	3294
871.1	3268
871.23	3496
871.36	3454
871.489	3363
871.619	3420
871.749	3435
871.879	3462
872.008	3469
872.138	3382
872.267	3306
872.397	3184
872.526	3104
872.656	3024
872.785	3138
872.915	3291
873.044	3329
873.173	3230
873.303	3291
873.432	3287
873.561	3226
873.69	3203
873.819	3142
873.948	3203
874.077	3100
874.206	3081
874.335	3108
874.464	3241
874.593	3367
874.722	3310
874.851	3412
874.979	3378
875.108	3336
875.237	3199
875.365	3154
875.494	3150
875.623	3237
875.751	3097
875.88	3150
876.008	3207
876.136	3253
876.265	3367
876.393	3553
876.521	3439
876.65	3405
876.778	3310
876.906	3268
877.034	3188
877.162	3249
877.29	3199
877.418	3268
877.546	3275
877.674	3237
877.802	3237
877.93	3199
878.058	3146
878.185	3146
878.313	3233
878.441	3203
878.568	3100
878.696	3165
878.824	3253
878.951	3279
879.079	3431
879.206	3614
879.333	3428
879.461	3344
879.588	3405
879.715	3477
879.842	3595
879.97	3420
880.097	3161
880.224	3142
880.351	3184
880.478	3283
880.605	3218
880.732	3203
880.859	3526
880.986	3306
881.112	3340
881.239	3214
881.366	3100
881.493	3055
881.619	3028
881.746	3077
881.872	3100
881.999	3131
882.125	3150
882.252	3237
882.378	3313
882.505	3435
882.631	3283
882.757	3173
882.883	3199
883.01	3249
883.136	3176
883.262	3112
883.388	3123
883.514	3325
883.64	3370
883.766	3325
883.892	3180
884.018	3272
884.143	3439
884.269	3538
884.395	3195
884.52	3188
884.646	3188
884.772	3116
884.897	3108
885.023	3218
885.148	3351
885.274	3389
885.399	3416
885.524	3321
885.65	3260
885.775	3344
885.9	3260
886.025	3466
886.15	3374
886.275	3351
886.4	3253
886.525	3298
886.65	3272
886.775	3325
886.9	3492
887.025	3675
887.149	3412
887.274	3233
887.399	3169
887.523	3245
887.648	3199
887.773	3173
887.897	3370
888.021	3447
888.146	3302
888.27	3450
888.395	3519
888.519	3428
888.643	3443
888.767	3450
888.891	3321
889.015	3272
889.139	3302
889.263	3245
889.387	3397
889.511	3492
889.635	3500
889.759	3291
889.883	3283
890.006	3370
890.13	3519
890.254	3256
890.377	3359
890.501	3211
890.624	3195
890.748	3321
890.871	3184
890.995	3135
891.118	3055
891.241	3195
891.364	3230
891.488	3310
891.611	3127
891.734	3222
891.857	3291
891.98	3256
892.103	3340
892.226	3264
892.349	3230
892.471	3089
892.594	3283
892.717	3287
892.839	3241
892.962	3325
893.085	3355
893.207	3321
893.33	3146
893.452	3203
893.575	3351
893.697	3291
893.819	3481
893.941	3488
894.064	3454
894.186	3287
894.308	3256
894.43	3431
894.552	3561
894.674	3496
894.796	3268
894.918	3321
895.04	3306
895.161	3420
895.283	3378
895.405	3298
895.526	3332
895.648	3458
895.769	3435
895.891	3466
896.012	3477
896.134	3416
896.255	3420
896.376	3374
896.498	3405
896.619	3416
896.74	3370
896.861	3416
896.982	3698
897.103	3827
897.224	3644
897.345	3500
897.466	3420
897.587	3488
897.708	3633
897.828	3557
897.949	3431
898.07	3325
898.19	3348
898.311	3622
898.431	3462
898.552	3526
898.672	3618
898.792	3568
898.913	3557
899.033	3412
899.153	3249
899.273	3245
899.393	3310
899.513	3325
899.633	3321
899.753	3340
899.873	3298
899.993	3370
900.113	3313
900.232	3359
900.352	3336
900.472	3332
900.591	3184
900.711	3279
900.83	3268
900.95	3435
901.069	3496
901.189	3386
901.308	3203
901.427	3180
901.546	3184
901.665	3329
901.784	3340
901.904	3176
902.023	3173
902.141	3017
902.26	3036
902.379	3138
902.498	3055
902.617	3051
902.735	3218
902.854	3222
902.973	3222
903.091	3043
903.21	3066
903.328	3116
903.446	3104
903.565	3138
903.683	3184
903.801	3142
903.919	3264
904.038	3306
904.156	3161
904.274	3264
904.392	3253
904.51	3253
904.627	3313
904.745	3450
904.863	3485
904.981	3230
905.098	3161
905.216	3237
905.334	3249
905.451	3317
905.569	3275
905.686	3435
905.803	3458
905.921	3268
906.038	3443
906.155	3355
906.272	3256
906.389	3336
906.506	3253
906.623	3256
906.74	3253
906.857	3184
906.974	3260
907.091	3420
907.208	3526
907.324	3473
907.441	3367
907.557	3207
907.674	3218
907.79	3199
907.907	3279
908.023	3344
908.139	3386
908.256	3325
908.372	3393
908.488	3393
908.604	3245
908.72	3241
908.836	3283
908.952	3260
909.068	3317
909.184	3504
909.3	3382
909.415	3515
909.531	3450
909.647	3291
909.762	3294
909.878	3260
909.993	3397
910.108	3317
910.224	3340
910.339	3389
910.454	3351
910.57	3283
910.685	3218
910.8	3584
910.915	3561
911.03	3439
911.145	3260
911.259	3249
911.374	3321
911.489	3272
911.604	3249
911.718	3131
911.833	3154
911.947	3055
912.062	2956
912.176	3195
912.291	3188
912.405	3211
912.519	3447
912.633	3424
912.748	3340
912.862	3256
912.976	3165
913.09	3051
913.204	3138
913.318	3230
913.431	3367
913.545	3340
913.659	3367
913.772	3344
913.886	3268
914	3184
914.113	3332
914.226	3405
914.34	3386
914.453	3211
914.566	3393
914.68	3302
914.793	3355
914.906	3131
915.019	3123
915.132	3089
915.245	3157
915.358	3222
915.47	3195
915.583	3249
915.696	3317
915.809	3420
915.921	3443
916.034	3260
916.146	3260
916.259	3203
916.371	3363
916.483	3382
916.595	3287
916.708	3310
916.82	3336
916.932	3340
917.044	3321
917.156	3329
917.268	3253
917.38	3279
917.491	3302
917.603	3382
917.715	3412
917.826	3443
917.938	3378
918.049	3275
918.161	3424
918.272	3553
918.384	3625
918.495	3466
918.606	3348
918.717	3279
918.828	3363
918.939	3393
919.05	3279
919.161	3416
919.272	3146
919.383	3317
919.494	3504
919.604	3747
919.715	3526
919.826	3447
919.936	3454
920.047	3568
920.157	3591
920.267	3823
920.378	3610
920.488	3561
920.598	3762
920.708	3975
920.818	3823
920.928	3812
921.038	3991
921.148	4010
921.258	3705
921.368	3622
921.477	3568
921.587	3549
921.697	3485
921.806	3606
921.916	3496
922.025	3382
922.134	3374
922.244	3359
922.353	3428
922.462	3302
922.571	3226
922.68	3131
922.789	3077
922.898	3127
923.007	3089
923.116	3233
923.224	3188
923.333	3192
923.442	3104
923.55	3085
923.659	3142
923.767	3195
923.876	3116
923.984	3253
924.092	3119
924.201	3199
924.309	3180
924.417	3256
924.525	3142
924.633	3253
924.741	4158
924.849	3028
924.956	3268
925.064	3108
925.172	3020
925.279	3116
925.387	3188
925.494	3207
925.602	3325
925.709	3355
925.816	3188
925.924	3268
926.031	3367
926.138	3325
926.245	3363
926.352	3233
926.459	3435
926.566	3492
926.673	3313
926.779	3249
926.886	3279
926.993	3108
927.099	3104
927.206	3119
927.312	3085
927.419	3241
927.525	3188
927.631	3233
927.737	3135
927.843	3112
927.95	3051
928.056	3135
928.162	3169
928.267	3230
928.373	3857
928.479	3264
928.585	3055
928.69	3195
928.796	3272
928.901	3146
929.007	3013
929.112	3237
929.218	3203
929.323	3157
929.428	3161
929.533	3306
929.638	3081
929.743	3157
929.848	3253
929.953	3184
930.058	3169
930.163	3009
930.267	3032
930.372	3161
930.477	3039
930.581	3359
930.685	3173
930.79	3104
930.894	3097
930.998	3150
931.103	3253
931.207	2922
931.311	2929
931.415	2941
931.519	2762
931.623	2823
