Data from test_V78500241_1028.txt Node
Date: Fri Mar 25 16:22:19 CST 2022
User: usil
Spectrometer: V785-0024
Trigger mode: 0
Integration Time (sec): 4.000000E-1
Scans to average: 1
Nonlinearity correction enabled: false
Boxcar width: 0
Storing dark spectrum: false
XAxis mode: Wavelengths
Number of Pixels in Spectrum: 1024
>>>>>Begin Spectral Data<<<<<
801.071	2887
801.214	2956
801.356	2868
801.499	2876
801.641	2845
801.783	2918
801.926	3020
802.068	2994
802.211	3009
802.353	3028
802.496	2967
802.638	2986
802.78	3013
802.923	3081
803.065	3001
803.208	2864
803.35	2937
803.492	2914
803.635	2929
803.777	2743
803.919	2838
804.061	3188
804.204	2941
804.346	2922
804.488	2849
804.63	2975
804.773	2857
804.915	2922
805.057	3074
805.199	2910
805.341	2979
805.483	3058
805.626	2975
805.768	2895
805.91	3058
806.052	3089
806.194	3017
806.336	3207
806.478	2975
806.62	2906
806.762	3013
806.904	3024
807.046	3146
807.188	2975
807.33	2906
807.472	2990
807.614	2857
807.756	2952
807.898	2864
808.04	2895
808.182	2944
808.324	2914
808.465	2902
808.607	2876
808.749	2804
808.891	2823
809.033	2986
809.174	2956
809.316	2880
809.458	2891
809.6	2762
809.741	2762
809.883	2785
810.025	2857
810.166	2868
810.308	2861
810.45	2823
810.591	2796
810.733	2750
810.875	2807
811.016	2766
811.158	2766
811.299	2785
811.441	2906
811.582	2891
811.724	2857
811.865	2853
812.007	2902
812.148	2902
812.29	2861
812.431	2868
812.573	2963
812.714	2922
812.855	3024
812.997	3028
813.138	3112
813.279	3028
813.421	2975
813.562	2906
813.703	2838
813.845	2910
813.986	2792
814.127	2754
814.268	2796
814.41	2868
814.551	2796
814.692	2876
814.833	2807
814.974	2902
815.115	2914
815.256	2804
815.397	2815
815.539	2845
815.68	2777
815.821	2834
815.962	2922
816.103	2941
816.244	2891
816.385	2872
816.526	2967
816.666	2922
816.807	2743
816.948	2883
817.089	2891
817.23	2823
817.371	2769
817.512	2811
817.653	2838
817.793	2838
817.934	2876
818.075	2960
818.216	2994
818.356	3039
818.497	2883
818.638	2781
818.778	2823
818.919	2800
819.06	2766
819.2	2857
819.341	2800
819.481	2823
819.622	2891
819.762	3081
819.903	2967
820.043	2914
820.184	2891
820.324	2925
820.465	2986
820.605	2979
820.746	3047
820.886	2925
821.026	3116
821.167	3169
821.307	3256
821.447	3253
821.588	3218
821.728	3173
821.868	3188
822.008	3074
822.149	3161
822.289	3222
822.429	3066
822.569	3093
822.709	3195
822.849	3009
822.99	3066
823.13	3157
823.27	3176
823.41	3100
823.55	3150
823.69	3207
823.83	3180
823.97	3108
824.11	3013
824.25	2998
824.389	3039
824.529	3123
824.669	3055
824.809	3180
824.949	3253
825.089	3211
825.228	3154
825.368	2986
825.508	2952
825.648	3013
825.787	3001
825.927	2994
826.067	2941
826.206	2956
826.346	3055
826.485	3062
826.625	3097
826.765	3222
826.904	3203
827.044	3009
827.183	2933
827.323	2842
827.462	2979
827.601	2922
827.741	2902
827.88	2941
828.02	2826
828.159	2979
828.298	3028
828.437	3123
828.577	3020
828.716	3199
828.855	3097
828.994	2902
829.134	2861
829.273	2925
829.412	2906
829.551	2845
829.69	2906
829.829	2960
829.968	3119
830.107	2990
830.246	2982
830.385	2910
830.524	2880
830.663	2804
830.802	2720
830.941	2663
831.08	2655
831.219	2739
831.357	2766
831.496	2944
831.635	2746
831.774	2655
831.913	2644
832.051	2587
832.19	2571
832.329	2678
832.467	2507
832.606	2476
832.744	2594
832.883	2587
833.022	2590
833.16	2655
833.299	2697
833.437	2663
833.576	2705
833.714	2716
833.852	2731
833.991	2750
834.129	2842
834.267	2842
834.406	2788
834.544	2842
834.682	2895
834.821	2887
834.959	3070
835.097	2891
835.235	3074
835.373	3005
835.511	2975
835.65	2979
835.788	2952
835.926	2830
836.064	2796
836.202	2807
836.34	3081
836.478	3142
836.615	3024
836.753	3135
836.891	3161
837.029	3207
837.167	3062
837.305	3074
837.443	3024
837.58	2956
837.718	3123
837.856	3055
837.993	3020
838.131	3127
838.269	3116
838.406	3135
838.544	3077
838.681	2948
838.819	2944
838.956	2819
839.094	2872
839.231	2925
839.369	3036
839.506	3367
839.643	3192
839.781	3024
839.918	3001
840.055	3070
840.193	3055
840.33	3055
840.467	3081
840.604	3131
840.742	3355
840.879	3112
841.016	3028
841.153	3089
841.29	3329
841.427	3256
841.564	3272
841.701	3325
841.838	3218
841.975	3188
842.112	3218
842.249	3081
842.385	3013
842.522	3230
842.659	3066
842.796	3104
842.933	3108
843.069	3013
843.206	3017
843.343	3146
843.479	3104
843.616	3116
843.752	2868
843.889	2868
844.025	3081
844.162	2914
844.298	3055
844.435	2941
844.571	2914
844.708	3070
844.844	3161
844.98	3226
845.117	3173
845.253	3036
845.389	3017
845.525	3100
845.661	3119
845.798	3001
845.934	3123
846.07	3058
846.206	3173
846.342	3298
846.478	3230
846.614	3085
846.75	3047
846.886	3036
847.022	3279
847.158	3119
847.294	3176
847.429	3218
847.565	3233
847.701	3473
847.837	3009
847.972	2960
848.108	3184
848.244	3131
848.379	2994
848.515	2975
848.65	2918
848.786	2948
848.921	3036
849.057	3127
849.192	3131
849.328	3089
849.463	3089
849.598	3028
849.734	2982
849.869	2906
850.004	2895
850.14	2982
850.275	2895
850.41	2826
850.545	2883
850.68	2937
850.815	2956
850.95	2944
851.085	3180
851.22	3097
851.355	3036
851.49	2925
851.625	2982
851.76	2990
851.895	2933
852.03	2944
852.165	3017
852.299	3116
852.434	3150
852.569	3161
852.703	3157
852.838	3237
852.973	3351
853.107	3348
853.242	3195
853.376	3081
853.511	2994
853.645	2998
853.78	3241
853.914	3104
854.048	3119
854.183	3085
854.317	3150
854.451	3260
854.585	3123
854.72	3055
854.854	3214
854.988	3070
855.122	3074
855.256	2986
855.39	3097
855.524	3192
855.658	3176
855.792	3169
855.926	3188
856.06	3230
856.194	3230
856.327	3146
856.461	3055
856.595	3112
856.729	3112
856.862	3203
856.996	3142
857.13	3192
857.263	3214
857.397	3241
857.53	3127
857.664	3176
857.797	3241
857.931	3264
858.064	3169
858.197	3207
858.331	3085
858.464	3093
858.597	2990
858.731	3123
858.864	3097
858.997	3085
859.13	3157
859.263	3173
859.396	3199
859.529	3100
859.662	3058
859.795	3024
859.928	3138
860.061	3260
860.194	3264
860.327	3150
860.46	3074
860.592	3237
860.725	3233
860.858	3203
860.99	3058
861.123	3039
861.256	3074
861.388	3146
861.521	3812
861.653	2982
861.786	2994
861.918	2994
862.05	3024
862.183	3093
862.315	3161
862.447	3192
862.58	3097
862.712	2933
862.844	2899
862.976	2998
863.108	3009
863.24	3435
863.372	2883
863.504	2998
863.636	2960
863.768	3036
863.9	2994
864.032	2891
864.164	2937
864.296	3028
864.428	3062
864.559	3100
864.691	3066
864.823	3047
864.954	3093
865.086	3043
865.217	2975
865.349	2963
865.48	2971
865.612	3043
865.743	3184
865.875	3009
866.006	2971
866.137	2967
866.269	2925
866.4	2941
866.531	2906
866.662	2902
866.793	2861
866.924	2918
867.055	2952
867.186	2891
867.317	2861
867.448	2815
867.579	2861
867.71	2845
867.841	2823
867.972	2899
868.103	2891
868.233	2891
868.364	2899
868.495	2876
868.625	3070
868.756	3097
868.886	2994
869.017	3001
869.147	3157
869.278	3131
869.408	3036
869.539	2998
869.669	3077
869.799	3028
869.929	3108
870.06	3112
870.19	3336
870.32	3298
870.45	3291
870.58	3386
870.71	3481
870.84	3469
870.97	3260
871.1	3222
871.23	3504
871.36	3447
871.489	3363
871.619	3370
871.749	3412
871.879	3409
872.008	3469
872.138	3321
872.267	3249
872.397	3127
872.526	3074
872.656	2994
872.785	3077
872.915	3226
873.044	3291
873.173	3214
873.303	3287
873.432	3268
873.561	3241
873.69	3119
873.819	3165
873.948	3188
874.077	3108
874.206	3032
874.335	3074
874.464	3192
874.593	3363
874.722	3218
874.851	3370
874.979	3310
875.108	3310
875.237	3173
875.365	3188
875.494	3161
875.623	3222
875.751	3036
875.88	3097
876.008	3188
876.136	3207
876.265	3348
876.393	3549
876.521	3393
876.65	3351
876.778	3317
876.906	3241
877.034	3207
877.162	3241
877.29	3188
877.418	3233
877.546	3245
877.674	3226
877.802	3226
877.93	3230
878.058	3112
878.185	3119
878.313	3211
878.441	3195
878.568	3043
878.696	3131
878.824	3222
878.951	3272
879.079	3447
879.206	3561
879.333	3450
879.461	3344
879.588	3351
879.715	3473
879.842	3584
879.97	3405
880.097	3184
880.224	3097
880.351	3211
880.478	3173
880.605	3230
880.732	3176
880.859	3466
880.986	3283
881.112	3287
881.239	3211
881.366	3089
881.493	3001
881.619	3005
881.746	3077
881.872	3066
881.999	3051
882.125	3150
882.252	3249
882.378	3279
882.505	3431
882.631	3291
882.757	3184
882.883	3184
883.01	3230
883.136	3146
883.262	3074
883.388	3123
883.514	3332
883.64	3367
883.766	3310
883.892	3192
884.018	3245
884.143	3405
884.269	3526
884.395	3214
884.52	3154
884.646	3150
884.772	3154
884.897	3100
885.023	3195
885.148	3363
885.274	3401
885.399	3370
885.524	3287
885.65	3268
885.775	3321
885.9	3264
886.025	3428
886.15	3348
886.275	3260
886.4	3214
886.525	3332
886.65	3287
886.775	3275
886.9	3454
887.025	3618
887.149	3374
887.274	3253
887.399	3176
887.523	3184
887.648	3192
887.773	3173
887.897	3321
888.021	3428
888.146	3313
888.27	3405
888.395	3545
888.519	3416
888.643	3447
888.767	3439
888.891	3298
889.015	3275
889.139	3264
889.263	3188
889.387	3393
889.511	3511
889.635	3466
889.759	3313
889.883	3283
890.006	3435
890.13	3469
890.254	3306
890.377	3367
890.501	3226
890.624	3195
890.748	3283
890.871	3207
890.995	3081
891.118	3085
891.241	3180
891.364	3264
891.488	3313
891.611	3203
891.734	3218
891.857	3310
891.98	3222
892.103	3336
892.226	3291
892.349	3226
892.471	3093
892.594	3260
892.717	3256
892.839	3268
892.962	3283
893.085	3351
893.207	3256
893.33	3116
893.452	3184
893.575	3325
893.697	3264
893.819	3511
893.941	3496
894.064	3397
894.186	3287
894.308	3272
894.43	3443
894.552	3511
894.674	3507
894.796	3256
894.918	3313
895.04	3260
895.161	3420
895.283	3386
895.405	3256
895.526	3359
895.648	3428
895.769	3420
895.891	3443
896.012	3500
896.134	3473
896.255	3405
896.376	3393
896.498	3336
896.619	3450
896.74	3367
896.861	3416
896.982	3675
897.103	3842
897.224	3599
897.345	3515
897.466	3409
897.587	3500
897.708	3618
897.828	3557
897.949	3420
898.07	3340
898.19	3477
898.311	3587
898.431	3420
898.552	3530
898.672	3591
898.792	3576
898.913	3515
899.033	3416
899.153	3275
899.273	3268
899.393	3294
899.513	3310
899.633	3317
899.753	3325
899.873	3283
899.993	3363
900.113	3325
900.232	3367
900.352	3325
900.472	3264
900.591	3211
900.711	3291
900.83	3230
900.95	3405
901.069	3511
901.189	3351
901.308	3176
901.427	3150
901.546	3173
901.665	3279
901.784	3336
901.904	3214
902.023	3123
902.141	3005
902.26	2986
902.379	3127
902.498	3070
902.617	3058
902.735	3199
902.854	3268
902.973	3188
903.091	3043
903.21	3116
903.328	3146
903.446	3116
903.565	3112
903.683	3222
903.801	3150
903.919	3192
904.038	3306
904.156	3184
904.274	3260
904.392	3226
904.51	3260
904.627	3332
904.745	3401
904.863	3454
904.981	3264
905.098	3165
905.216	3233
905.334	3268
905.451	3298
905.569	3313
905.686	3409
905.803	3428
905.921	3283
906.038	3435
906.155	3370
906.272	3233
906.389	3359
906.506	3279
906.623	3214
906.74	3249
906.857	3214
906.974	3233
907.091	3469
907.208	3542
907.324	3435
907.441	3370
907.557	3249
907.674	3256
907.79	3180
907.907	3268
908.023	3370
908.139	3397
908.256	3268
908.372	3389
908.488	3302
908.604	3218
908.72	3222
908.836	3245
908.952	3222
909.068	3313
909.184	3488
909.3	3370
909.415	3485
909.531	3450
909.647	3287
909.762	3283
909.878	3264
909.993	3336
910.108	3340
910.224	3363
910.339	3412
910.454	3317
910.57	3287
910.685	3207
910.8	3633
910.915	3507
911.03	3443
911.145	3306
911.259	3249
911.374	3294
911.489	3249
911.604	3211
911.718	3112
911.833	3138
911.947	2998
912.062	2944
912.176	3161
912.291	3195
912.405	3207
912.519	3416
912.633	3447
912.748	3321
912.862	3256
912.976	3180
913.09	3108
913.204	3146
913.318	3192
913.431	3329
913.545	3397
913.659	3401
913.772	3363
913.886	3207
914	3226
914.113	3325
914.226	3428
914.34	3351
914.453	3207
914.566	3397
914.68	3291
914.793	3317
914.906	3123
915.019	3081
915.132	3070
915.245	3214
915.358	3169
915.47	3226
915.583	3272
915.696	3310
915.809	3397
915.921	3431
916.034	3226
916.146	3260
916.259	3218
916.371	3382
916.483	3382
916.595	3249
916.708	3367
916.82	3306
916.932	3321
917.044	3367
917.156	3329
917.268	3268
917.38	3340
917.491	3275
917.603	3332
917.715	3443
917.826	3466
917.938	3401
918.049	3260
918.161	3401
918.272	3553
918.384	3587
918.495	3454
918.606	3332
918.717	3249
918.828	3397
918.939	3428
919.05	3294
919.161	3344
919.272	3195
919.383	3241
919.494	3488
919.604	3724
919.715	3542
919.826	3409
919.936	3485
920.047	3599
920.157	3542
920.267	3823
920.378	3622
920.488	3553
920.598	3808
920.708	3964
920.818	3816
920.928	3812
921.038	4044
921.148	3964
921.258	3679
921.368	3663
921.477	3557
921.587	3492
921.697	3458
921.806	3629
921.916	3485
922.025	3389
922.134	3332
922.244	3321
922.353	3435
922.462	3264
922.571	3264
922.68	3070
922.789	3093
922.898	3089
923.007	3131
923.116	3180
923.224	3188
923.333	3203
923.442	3135
923.55	3112
923.659	3138
923.767	3226
923.876	3104
923.984	3180
924.092	3062
924.201	3226
924.309	3226
924.417	3253
924.525	3230
924.633	3218
924.741	4188
924.849	3055
924.956	3264
925.064	3093
925.172	3043
925.279	3077
925.387	3169
925.494	3214
925.602	3370
925.709	3310
925.816	3180
925.924	3283
926.031	3348
926.138	3329
926.245	3336
926.352	3272
926.459	3389
926.566	3485
926.673	3298
926.779	3195
926.886	3214
926.993	3135
927.099	3142
927.206	3142
927.312	3089
927.419	3241
927.525	3214
927.631	3230
927.737	3138
927.843	3108
927.95	3043
928.056	3119
928.162	3169
928.267	3245
928.373	3873
928.479	3313
928.585	3036
928.69	3272
928.796	3291
928.901	3135
929.007	3001
929.112	3169
929.218	3192
929.323	3108
929.428	3150
929.533	3313
929.638	3081
929.743	3222
929.848	3249
929.953	3218
930.058	3138
930.163	2998
930.267	3032
930.372	3188
930.477	3051
930.581	3336
930.685	3169
930.79	3024
930.894	3150
930.998	3089
931.103	3264
931.207	2956
931.311	2937
931.415	2891
931.519	2788
931.623	2823
