Data from test_V78500241_938.txt Node
Date: Fri Mar 25 16:21:42 CST 2022
User: usil
Spectrometer: V785-0024
Trigger mode: 0
Integration Time (sec): 4.000000E-1
Scans to average: 1
Nonlinearity correction enabled: false
Boxcar width: 0
Storing dark spectrum: false
XAxis mode: Wavelengths
Number of Pixels in Spectrum: 1024
>>>>>Begin Spectral Data<<<<<
801.071	2937
801.214	2933
801.356	2864
801.499	2876
801.641	2845
801.783	2895
801.926	3032
802.068	2967
802.211	2986
802.353	3013
802.496	2937
802.638	2982
802.78	3036
802.923	3097
803.065	2998
803.208	2891
803.35	2922
803.492	2948
803.635	2883
803.777	2762
803.919	2845
804.061	3165
804.204	2902
804.346	2918
804.488	2819
804.63	2967
804.773	2902
804.915	2914
805.057	3089
805.199	2891
805.341	2998
805.483	2998
805.626	2998
805.768	2925
805.91	3055
806.052	3100
806.194	3020
806.336	3218
806.478	3017
806.62	2902
806.762	2967
806.904	3013
807.046	3150
807.188	2952
807.33	2861
807.472	2975
807.614	2876
807.756	2952
807.898	2925
808.04	2872
808.182	2967
808.324	2914
808.465	2876
808.607	2864
808.749	2766
808.891	2845
809.033	2975
809.174	2960
809.316	2880
809.458	2845
809.6	2788
809.741	2758
809.883	2750
810.025	2853
810.166	2804
810.308	2807
810.45	2891
810.591	2781
810.733	2785
810.875	2826
811.016	2792
811.158	2739
811.299	2796
811.441	2929
811.582	2876
811.724	2807
811.865	2796
812.007	2899
812.148	2872
812.29	2826
812.431	2853
812.573	2914
812.714	2937
812.855	3017
812.997	3024
813.138	3097
813.279	2975
813.421	2975
813.562	2933
813.703	2823
813.845	2883
813.986	2781
814.127	2731
814.268	2834
814.41	2853
814.551	2796
814.692	2861
814.833	2800
814.974	2838
815.115	2929
815.256	2792
815.397	2804
815.539	2880
815.68	2750
815.821	2746
815.962	2922
816.103	2914
816.244	2830
816.385	2857
816.526	2941
816.666	2929
816.807	2731
816.948	2845
817.089	2891
817.23	2853
817.371	2758
817.512	2724
817.653	2823
817.793	2807
817.934	2895
818.075	2937
818.216	2986
818.356	3036
818.497	2857
818.638	2807
818.778	2826
818.919	2785
819.06	2743
819.2	2864
819.341	2777
819.481	2819
819.622	2922
819.762	3051
819.903	3032
820.043	2906
820.184	2880
820.324	2868
820.465	2994
820.605	2986
820.746	2998
820.886	2872
821.026	3058
821.167	3104
821.307	3237
821.447	3260
821.588	3245
821.728	3165
821.868	3214
822.008	3043
822.149	3169
822.289	3222
822.429	3089
822.569	3108
822.709	3188
822.849	3020
822.99	3058
823.13	3161
823.27	3157
823.41	3089
823.55	3142
823.69	3135
823.83	3222
823.97	3104
824.11	2998
824.25	2982
824.389	3089
824.529	3116
824.669	3070
824.809	3218
824.949	3264
825.089	3272
825.228	3203
825.368	3032
825.508	2960
825.648	2975
825.787	3077
825.927	3036
826.067	2967
826.206	3005
826.346	3089
826.485	3104
826.625	3131
826.765	3291
826.904	3218
827.044	3009
827.183	2922
827.323	2883
827.462	3013
827.601	2956
827.741	2960
827.88	2990
828.02	2861
828.159	3013
828.298	3043
828.437	3142
828.577	3066
828.716	3260
828.855	3097
828.994	2941
829.134	2914
829.273	2967
829.412	2918
829.551	2914
829.69	2933
829.829	3047
829.968	3180
830.107	3043
830.246	3097
830.385	2948
830.524	2922
830.663	2849
830.802	2766
830.941	2739
831.08	2697
831.219	2773
831.357	2781
831.496	2944
831.635	2750
831.774	2697
831.913	2697
832.051	2606
832.19	2640
832.329	2750
832.467	2560
832.606	2511
832.744	2648
832.883	2602
833.022	2594
833.16	2689
833.299	2716
833.437	2705
833.576	2727
833.714	2800
833.852	2773
833.991	2785
834.129	2880
834.267	2819
834.406	2823
834.544	2883
834.682	2906
834.821	2937
834.959	3089
835.097	2944
835.235	3097
835.373	3051
835.511	3032
835.65	2967
835.788	2982
835.926	2864
836.064	2845
836.202	2883
836.34	3119
836.478	3173
836.615	3081
836.753	3176
836.891	3207
837.029	3195
837.167	3135
837.305	3081
837.443	3066
837.58	3009
837.718	3131
837.856	3104
837.993	3039
838.131	3169
838.269	3127
838.406	3116
838.544	3081
838.681	2960
838.819	2933
838.956	2838
839.094	2838
839.231	2952
839.369	3055
839.506	3431
839.643	3233
839.781	3043
839.918	3013
840.055	3066
840.193	3077
840.33	3119
840.467	3100
840.604	3173
840.742	3412
840.879	3074
841.016	3123
841.153	3123
841.29	3370
841.427	3310
841.564	3302
841.701	3306
841.838	3226
841.975	3222
842.112	3230
842.249	3127
842.385	3070
842.522	3298
842.659	3112
842.796	3062
842.933	3127
843.069	3100
843.206	3085
843.343	3203
843.479	3108
843.616	3176
843.752	2941
843.889	2868
844.025	3138
844.162	2906
844.298	3142
844.435	3001
844.571	2944
844.708	3119
844.844	3211
844.98	3226
845.117	3222
845.253	3066
845.389	3009
845.525	3112
845.661	3108
845.798	3051
845.934	3138
846.07	3089
846.206	3211
846.342	3363
846.478	3214
846.614	3131
846.75	3104
846.886	3009
847.022	3279
847.158	3184
847.294	3211
847.429	3218
847.565	3230
847.701	3477
847.837	3051
847.972	3051
848.108	3199
848.244	3154
848.379	3043
848.515	2952
848.65	2967
848.786	3005
848.921	3062
849.057	3112
849.192	3184
849.328	3085
849.463	3127
849.598	3077
849.734	3051
849.869	3020
850.004	2952
850.14	2971
850.275	2941
850.41	2842
850.545	2914
850.68	2967
850.815	2986
850.95	3005
851.085	3253
851.22	3074
851.355	3085
851.49	2979
851.625	3028
851.76	3032
851.895	2952
852.03	2967
852.165	3077
852.299	3131
852.434	3211
852.569	3146
852.703	3218
852.838	3264
852.973	3393
853.107	3348
853.242	3180
853.376	3108
853.511	3009
853.645	3077
853.78	3222
853.914	3093
854.048	3146
854.183	3135
854.317	3154
854.451	3306
854.585	3142
854.72	3085
854.854	3237
854.988	3097
855.122	3100
855.256	3017
855.39	3104
855.524	3272
855.658	3211
855.792	3169
855.926	3237
856.06	3218
856.194	3275
856.327	3165
856.461	3081
856.595	3093
856.729	3119
856.862	3233
856.996	3165
857.13	3226
857.263	3256
857.397	3287
857.53	3119
857.664	3249
857.797	3249
857.931	3291
858.064	3199
858.197	3195
858.331	3157
858.464	3093
858.597	3032
858.731	3127
858.864	3195
858.997	3135
859.13	3176
859.263	3169
859.396	3218
859.529	3119
859.662	3104
859.795	3055
859.928	3169
860.061	3310
860.194	3275
860.327	3150
860.46	3123
860.592	3245
860.725	3253
860.858	3291
860.99	3100
861.123	3085
861.256	3062
861.388	3218
861.521	3831
861.653	3028
861.786	3032
861.918	3009
862.05	3036
862.183	3127
862.315	3142
862.447	3203
862.58	3077
862.712	2967
862.844	2880
862.976	3074
863.108	3070
863.24	3389
863.372	2895
863.504	2979
863.636	2967
863.768	3039
863.9	2994
864.032	2933
864.164	2948
864.296	3017
864.428	3070
864.559	3112
864.691	3085
864.823	3051
864.954	3100
865.086	3077
865.217	3036
865.349	3005
865.48	3024
865.612	3077
865.743	3214
865.875	2956
866.006	2937
866.137	2998
866.269	2929
866.4	2948
866.531	2941
866.662	2899
866.793	2929
866.924	2937
867.055	2994
867.186	2948
867.317	2906
867.448	2849
867.579	2868
867.71	2883
867.841	2842
867.972	2941
868.103	2899
868.233	2880
868.364	2861
868.495	2925
868.625	3085
868.756	3188
868.886	3005
869.017	3013
869.147	3226
869.278	3146
869.408	3070
869.539	3017
869.669	3135
869.799	3043
869.929	3150
870.06	3093
870.19	3340
870.32	3306
870.45	3336
870.58	3401
870.71	3443
870.84	3538
870.97	3313
871.1	3272
871.23	3511
871.36	3485
871.489	3420
871.619	3393
871.749	3428
871.879	3424
872.008	3511
872.138	3393
872.267	3279
872.397	3142
872.526	3135
872.656	3032
872.785	3138
872.915	3249
873.044	3272
873.173	3237
873.303	3249
873.432	3237
873.561	3279
873.69	3173
873.819	3154
873.948	3233
874.077	3150
874.206	3066
874.335	3104
874.464	3195
874.593	3370
874.722	3245
874.851	3420
874.979	3344
875.108	3355
875.237	3195
875.365	3207
875.494	3184
875.623	3264
875.751	3097
875.88	3112
876.008	3241
876.136	3253
876.265	3370
876.393	3519
876.521	3443
876.65	3428
876.778	3348
876.906	3272
877.034	3199
877.162	3260
877.29	3188
877.418	3294
877.546	3249
877.674	3253
877.802	3275
877.93	3218
878.058	3192
878.185	3077
878.313	3241
878.441	3253
878.568	3074
878.696	3169
878.824	3256
878.951	3313
879.079	3469
879.206	3603
879.333	3450
879.461	3344
879.588	3378
879.715	3519
879.842	3599
879.97	3424
880.097	3169
880.224	3154
880.351	3203
880.478	3226
880.605	3237
880.732	3214
880.859	3515
880.986	3321
881.112	3325
881.239	3260
881.366	3104
881.493	3066
881.619	3077
881.746	3028
881.872	3093
881.999	3100
882.125	3184
882.252	3256
882.378	3283
882.505	3416
882.631	3253
882.757	3150
882.883	3245
883.01	3256
883.136	3142
883.262	3127
883.388	3138
883.514	3336
883.64	3382
883.766	3332
883.892	3165
884.018	3214
884.143	3401
884.269	3557
884.395	3233
884.52	3161
884.646	3207
884.772	3142
884.897	3127
885.023	3260
885.148	3321
885.274	3428
885.399	3378
885.524	3283
885.65	3268
885.775	3389
885.9	3283
886.025	3435
886.15	3382
886.275	3325
886.4	3241
886.525	3325
886.65	3275
886.775	3268
886.9	3515
887.025	3629
887.149	3447
887.274	3275
887.399	3218
887.523	3222
887.648	3180
887.773	3165
887.897	3367
888.021	3397
888.146	3340
888.27	3443
888.395	3507
888.519	3454
888.643	3431
888.767	3504
888.891	3310
889.015	3222
889.139	3279
889.263	3313
889.387	3412
889.511	3500
889.635	3416
889.759	3310
889.883	3302
890.006	3397
890.13	3504
890.254	3264
890.377	3401
890.501	3245
890.624	3165
890.748	3291
890.871	3218
890.995	3138
891.118	3104
891.241	3207
891.364	3207
891.488	3332
891.611	3180
891.734	3230
891.857	3313
891.98	3275
892.103	3393
892.226	3283
892.349	3222
892.471	3112
892.594	3241
892.717	3329
892.839	3283
892.962	3291
893.085	3367
893.207	3291
893.33	3180
893.452	3268
893.575	3359
893.697	3241
893.819	3496
893.941	3477
894.064	3450
894.186	3272
894.308	3268
894.43	3397
894.552	3507
894.674	3454
894.796	3283
894.918	3340
895.04	3332
895.161	3378
895.283	3447
895.405	3340
895.526	3374
895.648	3416
895.769	3439
895.891	3454
896.012	3511
896.134	3485
896.255	3401
896.376	3405
896.498	3389
896.619	3447
896.74	3355
896.861	3397
896.982	3701
897.103	3835
897.224	3576
897.345	3534
897.466	3424
897.587	3466
897.708	3637
897.828	3530
897.949	3435
898.07	3340
898.19	3389
898.311	3587
898.431	3466
898.552	3473
898.672	3542
898.792	3603
898.913	3534
899.033	3420
899.153	3256
899.273	3222
899.393	3260
899.513	3332
899.633	3310
899.753	3355
899.873	3355
899.993	3401
900.113	3302
900.232	3386
900.352	3325
900.472	3336
900.591	3233
900.711	3283
900.83	3264
900.95	3397
901.069	3492
901.189	3363
901.308	3199
901.427	3100
901.546	3184
901.665	3321
901.784	3370
901.904	3237
902.023	3154
902.141	3009
902.26	3017
902.379	3142
902.498	3093
902.617	3093
902.735	3256
902.854	3241
902.973	3256
903.091	3058
903.21	3093
903.328	3154
903.446	3138
903.565	3116
903.683	3211
903.801	3119
903.919	3253
904.038	3275
904.156	3184
904.274	3344
904.392	3256
904.51	3321
904.627	3370
904.745	3447
904.863	3515
904.981	3298
905.098	3214
905.216	3256
905.334	3355
905.451	3340
905.569	3367
905.686	3473
905.803	3530
905.921	3325
906.038	3496
906.155	3393
906.272	3363
906.389	3416
906.506	3279
906.623	3260
906.74	3329
906.857	3249
906.974	3287
907.091	3507
907.208	3603
907.324	3511
907.441	3439
907.557	3253
907.674	3294
907.79	3245
907.907	3298
908.023	3409
908.139	3458
908.256	3344
908.372	3405
908.488	3420
908.604	3332
908.72	3317
908.836	3355
908.952	3313
909.068	3370
909.184	3492
909.3	3420
909.415	3564
909.531	3515
909.647	3332
909.762	3363
909.878	3287
909.993	3420
910.108	3412
910.224	3355
910.339	3416
910.454	3359
910.57	3359
910.685	3306
910.8	3614
910.915	3614
911.03	3447
911.145	3344
911.259	3317
911.374	3291
911.489	3249
911.604	3268
911.718	3188
911.833	3207
911.947	3081
912.062	3043
912.176	3230
912.291	3237
912.405	3245
912.519	3469
912.633	3504
912.748	3370
912.862	3302
912.976	3192
913.09	3104
913.204	3211
913.318	3264
913.431	3351
913.545	3374
913.659	3443
913.772	3370
913.886	3268
914	3268
914.113	3378
914.226	3454
914.34	3393
914.453	3237
914.566	3458
914.68	3378
914.793	3340
914.906	3230
915.019	3142
915.132	3097
915.245	3272
915.358	3268
915.47	3294
915.583	3298
915.696	3344
915.809	3443
915.921	3485
916.034	3325
916.146	3279
916.259	3256
916.371	3409
916.483	3420
916.595	3321
916.708	3359
916.82	3348
916.932	3355
917.044	3351
917.156	3351
917.268	3291
917.38	3329
917.491	3306
917.603	3393
917.715	3477
917.826	3477
917.938	3393
918.049	3313
918.161	3469
918.272	3614
918.384	3606
918.495	3545
918.606	3386
918.717	3321
918.828	3420
918.939	3439
919.05	3317
919.161	3393
919.272	3226
919.383	3340
919.494	3538
919.604	3698
919.715	3523
919.826	3435
919.936	3488
920.047	3637
920.157	3542
920.267	3800
920.378	3622
920.488	3591
920.598	3838
920.708	3987
920.818	3835
920.928	3854
921.038	4078
921.148	3987
921.258	3762
921.368	3641
921.477	3633
921.587	3568
921.697	3477
921.806	3633
921.916	3549
922.025	3378
922.134	3397
922.244	3340
922.353	3496
922.462	3302
922.571	3245
922.68	3112
922.789	3100
922.898	3180
923.007	3135
923.116	3211
923.224	3211
923.333	3237
923.442	3138
923.55	3131
923.659	3192
923.767	3260
923.876	3161
923.984	3287
924.092	3146
924.201	3188
924.309	3230
924.417	3287
924.525	3192
924.633	3291
924.741	4204
924.849	3093
924.956	3294
925.064	3104
925.172	3077
925.279	3146
925.387	3260
925.494	3195
925.602	3370
925.709	3367
925.816	3222
925.924	3317
926.031	3424
926.138	3332
926.245	3405
926.352	3279
926.459	3416
926.566	3519
926.673	3329
926.779	3310
926.886	3268
926.993	3207
927.099	3169
927.206	3093
927.312	3112
927.419	3283
927.525	3237
927.631	3317
927.737	3207
927.843	3138
927.95	3055
928.056	3138
928.162	3203
928.267	3256
928.373	3892
928.479	3336
928.585	3119
928.69	3237
928.796	3306
928.901	3180
929.007	3123
929.112	3180
929.218	3214
929.323	3199
929.428	3138
929.533	3355
929.638	3150
929.743	3207
929.848	3294
929.953	3279
930.058	3135
930.163	3043
930.267	3081
930.372	3233
930.477	3020
930.581	3310
930.685	3211
930.79	3097
930.894	3150
930.998	3131
931.103	3291
931.207	2956
931.311	2963
931.415	2941
931.519	2834
931.623	2826
