Data from test_V78500241_1438.txt Node
Date: Fri Mar 25 16:25:09 CST 2022
User: usil
Spectrometer: V785-0024
Trigger mode: 0
Integration Time (sec): 4.000000E-1
Scans to average: 1
Nonlinearity correction enabled: false
Boxcar width: 0
Storing dark spectrum: false
XAxis mode: Wavelengths
Number of Pixels in Spectrum: 1024
>>>>>Begin Spectral Data<<<<<
801.071	2941
801.214	2967
801.356	2933
801.499	2941
801.641	2910
801.783	2982
801.926	3047
802.068	2986
802.211	2982
802.353	3066
802.496	2994
802.638	3024
802.78	3070
802.923	3108
803.065	3043
803.208	2902
803.35	2914
803.492	2952
803.635	2982
803.777	2792
803.919	2899
804.061	3203
804.204	2975
804.346	2941
804.488	2853
804.63	2979
804.773	2918
804.915	2948
805.057	3097
805.199	2948
805.341	3005
805.483	3070
805.626	3039
805.768	2967
805.91	3116
806.052	3116
806.194	3039
806.336	3253
806.478	3066
806.62	2967
806.762	2986
806.904	3051
807.046	3192
807.188	3020
807.33	2922
807.472	2998
807.614	2899
807.756	2956
807.898	2925
808.04	2899
808.182	3028
808.324	2956
808.465	2895
808.607	2857
808.749	2804
808.891	2906
809.033	2979
809.174	2963
809.316	2887
809.458	2902
809.6	2785
809.741	2735
809.883	2773
810.025	2857
810.166	2876
810.308	2842
810.45	2845
810.591	2781
810.733	2777
810.875	2868
811.016	2773
811.158	2762
811.299	2807
811.441	2941
811.582	2914
811.724	2830
811.865	2861
812.007	2910
812.148	2922
812.29	2864
812.431	2895
812.573	2967
812.714	2963
812.855	3039
812.997	3017
813.138	3108
813.279	3039
813.421	2986
813.562	2979
813.703	2910
813.845	2918
813.986	2781
814.127	2727
814.268	2861
814.41	2857
814.551	2823
814.692	2861
814.833	2834
814.974	2868
815.115	2937
815.256	2842
815.397	2811
815.539	2864
815.68	2811
815.821	2773
815.962	2971
816.103	2918
816.244	2914
816.385	2853
816.526	2990
816.666	2910
816.807	2754
816.948	2906
817.089	2963
817.23	2887
817.371	2800
817.512	2796
817.653	2819
817.793	2815
817.934	2864
818.075	2975
818.216	2982
818.356	2982
818.497	2880
818.638	2788
818.778	2861
818.919	2845
819.06	2769
819.2	2861
819.341	2788
819.481	2796
819.622	2941
819.762	3104
819.903	3017
820.043	2902
820.184	2933
820.324	2891
820.465	3020
820.605	3001
820.746	3051
820.886	2963
821.026	3104
821.167	3184
821.307	3256
821.447	3294
821.588	3222
821.728	3195
821.868	3192
822.008	3058
822.149	3218
822.289	3233
822.429	3081
822.569	3097
822.709	3188
822.849	3032
822.99	3112
823.13	3173
823.27	3203
823.41	3123
823.55	3146
823.69	3154
823.83	3192
823.97	3127
824.11	2979
824.25	3001
824.389	3112
824.529	3108
824.669	3085
824.809	3211
824.949	3241
825.089	3218
825.228	3169
825.368	3009
825.508	2986
825.648	3009
825.787	3005
825.927	3039
826.067	2982
826.206	2975
826.346	3043
826.485	3066
826.625	3138
826.765	3298
826.904	3207
827.044	2994
827.183	2963
827.323	2864
827.462	3013
827.601	2948
827.741	2967
827.88	2986
828.02	2861
828.159	2960
828.298	3066
828.437	3127
828.577	3013
828.716	3237
828.855	3062
828.994	2906
829.134	2864
829.273	2906
829.412	2883
829.551	2849
829.69	2918
829.829	2948
829.968	3150
830.107	3005
830.246	3043
830.385	2971
830.524	2918
830.663	2861
830.802	2758
830.941	2659
831.08	2644
831.219	2735
831.357	2739
831.496	2971
831.635	2758
831.774	2636
831.913	2663
832.051	2564
832.19	2549
832.329	2678
832.467	2571
832.606	2499
832.744	2583
832.883	2571
833.022	2587
833.16	2648
833.299	2686
833.437	2720
833.576	2693
833.714	2712
833.852	2754
833.991	2788
834.129	2842
834.267	2819
834.406	2796
834.544	2845
834.682	2849
834.821	2872
834.959	3070
835.097	2880
835.235	3017
835.373	2990
835.511	3001
835.65	2948
835.788	2944
835.926	2826
836.064	2819
836.202	2823
836.34	3062
836.478	3157
836.615	3062
836.753	3077
836.891	3233
837.029	3173
837.167	3131
837.305	3074
837.443	3001
837.58	2960
837.718	3119
837.856	3051
837.993	3039
838.131	3097
838.269	3108
838.406	3097
838.544	3116
838.681	2910
838.819	2929
838.956	2766
839.094	2838
839.231	2914
839.369	3009
839.506	3374
839.643	3192
839.781	3028
839.918	2994
840.055	3039
840.193	3085
840.33	3085
840.467	3100
840.604	3157
840.742	3412
840.879	3062
841.016	3028
841.153	3142
841.29	3306
841.427	3298
841.564	3287
841.701	3283
841.838	3211
841.975	3173
842.112	3203
842.249	3070
842.385	3036
842.522	3279
842.659	3077
842.796	3043
842.933	3108
843.069	3047
843.206	3055
843.343	3176
843.479	3116
843.616	3142
843.752	2925
843.889	2891
844.025	3062
844.162	2838
844.298	3077
844.435	2952
844.571	2880
844.708	3097
844.844	3165
844.98	3264
845.117	3195
845.253	3001
845.389	2979
845.525	3127
845.661	3093
845.798	3013
845.934	3123
846.07	3081
846.206	3222
846.342	3283
846.478	3226
846.614	3089
846.75	3047
846.886	3047
847.022	3264
847.158	3150
847.294	3214
847.429	3233
847.565	3203
847.701	3488
847.837	3020
847.972	3039
848.108	3135
848.244	3176
848.379	2986
848.515	2933
848.65	2944
848.786	2971
848.921	3036
849.057	3104
849.192	3093
849.328	3055
849.463	3093
849.598	3089
849.734	3066
849.869	2952
850.004	2929
850.14	2967
850.275	2914
850.41	2826
850.545	2910
850.68	2902
850.815	2960
850.95	2975
851.085	3176
851.22	3097
851.355	3009
851.49	2925
851.625	2979
851.76	2994
851.895	2937
852.03	2861
852.165	3051
852.299	3127
852.434	3180
852.569	3123
852.703	3195
852.838	3253
852.973	3298
853.107	3336
853.242	3165
853.376	3062
853.511	3005
853.645	3028
853.78	3241
853.914	3135
854.048	3093
854.183	3066
854.317	3146
854.451	3317
854.585	3135
854.72	3138
854.854	3192
854.988	3047
855.122	3066
855.256	2937
855.39	3089
855.524	3230
855.658	3157
855.792	3173
855.926	3176
856.06	3211
856.194	3264
856.327	3146
856.461	3077
856.595	3081
856.729	3119
856.862	3195
856.996	3154
857.13	3184
857.263	3176
857.397	3245
857.53	3100
857.664	3199
857.797	3249
857.931	3275
858.064	3188
858.197	3195
858.331	3104
858.464	3112
858.597	3039
858.731	3127
858.864	3116
858.997	3077
859.13	3161
859.263	3135
859.396	3207
859.529	3100
859.662	3032
859.795	3070
859.928	3142
860.061	3279
860.194	3256
860.327	3135
860.46	3081
860.592	3222
860.725	3233
860.858	3218
860.99	3097
861.123	3055
861.256	3062
861.388	3138
861.521	3838
861.653	3013
861.786	3009
861.918	2986
862.05	3055
862.183	3093
862.315	3135
862.447	3203
862.58	3066
862.712	2929
862.844	2876
862.976	3051
863.108	2998
863.24	3329
863.372	2880
863.504	2975
863.636	2937
863.768	3017
863.9	2967
864.032	2933
864.164	2952
864.296	2986
864.428	3047
864.559	3104
864.691	3036
864.823	3070
864.954	3043
865.086	3062
865.217	2982
865.349	2948
865.48	2994
865.612	3028
865.743	3150
865.875	3024
866.006	2975
866.137	2963
866.269	2933
866.4	2902
866.531	2887
866.662	2887
866.793	2937
866.924	2891
867.055	2971
867.186	2899
867.317	2853
867.448	2838
867.579	2872
867.71	2864
867.841	2826
867.972	2902
868.103	2880
868.233	2872
868.364	2842
868.495	2899
868.625	3055
868.756	3176
868.886	3001
869.017	2994
869.147	3154
869.278	3138
869.408	3062
869.539	3017
869.669	3058
869.799	3058
869.929	3085
870.06	3100
870.19	3340
870.32	3287
870.45	3287
870.58	3348
870.71	3443
870.84	3412
870.97	3241
871.1	3199
871.23	3458
871.36	3511
871.489	3336
871.619	3378
871.749	3424
871.879	3416
872.008	3454
872.138	3340
872.267	3241
872.397	3127
872.526	3119
872.656	3009
872.785	3085
872.915	3195
873.044	3325
873.173	3211
873.303	3245
873.432	3214
873.561	3237
873.69	3154
873.819	3116
873.948	3192
874.077	3097
874.206	3043
874.335	3058
874.464	3237
874.593	3348
874.722	3214
874.851	3397
874.979	3325
875.108	3313
875.237	3214
875.365	3161
875.494	3157
875.623	3222
875.751	3077
875.88	3074
876.008	3192
876.136	3192
876.265	3374
876.393	3500
876.521	3405
876.65	3374
876.778	3287
876.906	3253
877.034	3203
877.162	3230
877.29	3165
877.418	3272
877.546	3199
877.674	3195
877.802	3214
877.93	3230
878.058	3135
878.185	3081
878.313	3195
878.441	3207
878.568	3047
878.696	3135
878.824	3241
878.951	3306
879.079	3481
879.206	3660
879.333	3412
879.461	3329
879.588	3367
879.715	3473
879.842	3591
879.97	3359
880.097	3188
880.224	3100
880.351	3195
880.478	3218
880.605	3165
880.732	3165
880.859	3458
880.986	3306
881.112	3325
881.239	3237
881.366	3131
881.493	3013
881.619	2982
881.746	3131
881.872	3089
881.999	3066
882.125	3146
882.252	3218
882.378	3325
882.505	3401
882.631	3264
882.757	3157
882.883	3142
883.01	3226
883.136	3161
883.262	3089
883.388	3104
883.514	3291
883.64	3348
883.766	3310
883.892	3165
884.018	3207
884.143	3405
884.269	3530
884.395	3218
884.52	3184
884.646	3176
884.772	3077
884.897	3077
885.023	3184
885.148	3340
885.274	3416
885.399	3332
885.524	3279
885.65	3249
885.775	3332
885.9	3298
886.025	3454
886.15	3351
886.275	3275
886.4	3233
886.525	3313
886.65	3260
886.775	3275
886.9	3492
887.025	3610
887.149	3389
887.274	3245
887.399	3154
887.523	3188
887.648	3195
887.773	3237
887.897	3370
888.021	3424
888.146	3294
888.27	3439
888.395	3492
888.519	3447
888.643	3435
888.767	3454
888.891	3332
889.015	3233
889.139	3283
889.263	3218
889.387	3397
889.511	3473
889.635	3409
889.759	3283
889.883	3279
890.006	3367
890.13	3477
890.254	3310
890.377	3329
890.501	3180
890.624	3150
890.748	3283
890.871	3207
890.995	3074
891.118	3058
891.241	3192
891.364	3245
891.488	3329
891.611	3192
891.734	3207
891.857	3317
891.98	3241
892.103	3359
892.226	3272
892.349	3169
892.471	3108
892.594	3230
892.717	3275
892.839	3287
892.962	3310
893.085	3332
893.207	3336
893.33	3176
893.452	3199
893.575	3363
893.697	3230
893.819	3466
893.941	3507
894.064	3443
894.186	3302
894.308	3310
894.43	3424
894.552	3523
894.674	3416
894.796	3306
894.918	3306
895.04	3294
895.161	3386
895.283	3386
895.405	3310
895.526	3340
895.648	3458
895.769	3409
895.891	3454
896.012	3473
896.134	3466
896.255	3420
896.376	3389
896.498	3382
896.619	3420
896.74	3340
896.861	3435
896.982	3694
897.103	3789
897.224	3599
897.345	3519
897.466	3454
897.587	3466
897.708	3641
897.828	3584
897.949	3454
898.07	3332
898.19	3393
898.311	3614
898.431	3447
898.552	3515
898.672	3606
898.792	3591
898.913	3515
899.033	3409
899.153	3317
899.273	3226
899.393	3256
899.513	3306
899.633	3336
899.753	3370
899.873	3275
899.993	3416
900.113	3355
900.232	3382
900.352	3340
900.472	3283
900.591	3218
900.711	3291
900.83	3218
900.95	3412
901.069	3477
901.189	3359
901.308	3169
901.427	3157
901.546	3207
901.665	3264
901.784	3291
901.904	3241
902.023	3169
902.141	2990
902.26	2979
902.379	3161
902.498	3093
902.617	3024
902.735	3218
902.854	3253
902.973	3176
903.091	3055
903.21	3043
903.328	3135
903.446	3135
903.565	3127
903.683	3195
903.801	3169
903.919	3222
904.038	3287
904.156	3161
904.274	3268
904.392	3249
904.51	3268
904.627	3313
904.745	3409
904.863	3545
904.981	3237
905.098	3192
905.216	3214
905.334	3302
905.451	3291
905.569	3310
905.686	3428
905.803	3424
905.921	3325
906.038	3389
906.155	3351
906.272	3279
906.389	3336
906.506	3233
906.623	3306
906.74	3302
906.857	3222
906.974	3253
907.091	3439
907.208	3561
907.324	3458
907.441	3355
907.557	3222
907.674	3173
907.79	3180
907.907	3275
908.023	3348
908.139	3397
908.256	3363
908.372	3367
908.488	3355
908.604	3264
908.72	3245
908.836	3275
908.952	3245
909.068	3336
909.184	3462
909.3	3389
909.415	3485
909.531	3450
909.647	3268
909.762	3279
909.878	3268
909.993	3348
910.108	3321
910.224	3336
910.339	3412
910.454	3317
910.57	3275
910.685	3249
910.8	3587
910.915	3500
911.03	3416
911.145	3260
911.259	3249
911.374	3291
911.489	3264
911.604	3230
911.718	3104
911.833	3146
911.947	3009
912.062	2975
912.176	3169
912.291	3184
912.405	3214
912.519	3389
912.633	3447
912.748	3313
912.862	3256
912.976	3131
913.09	3074
913.204	3131
913.318	3222
913.431	3325
913.545	3306
913.659	3431
913.772	3370
913.886	3188
914	3188
914.113	3351
914.226	3374
914.34	3351
914.453	3222
914.566	3393
914.68	3302
914.793	3325
914.906	3138
915.019	3097
915.132	3062
915.245	3207
915.358	3195
915.47	3207
915.583	3233
915.696	3268
915.809	3382
915.921	3378
916.034	3241
916.146	3268
916.259	3237
916.371	3374
916.483	3370
916.595	3253
916.708	3275
916.82	3313
916.932	3340
917.044	3351
917.156	3370
917.268	3226
917.38	3249
917.491	3268
917.603	3393
917.715	3466
917.826	3492
917.938	3348
918.049	3283
918.161	3409
918.272	3519
918.384	3549
918.495	3466
918.606	3336
918.717	3279
918.828	3363
918.939	3424
919.05	3332
919.161	3386
919.272	3211
919.383	3298
919.494	3496
919.604	3675
919.715	3481
919.826	3401
919.936	3462
920.047	3599
920.157	3564
920.267	3766
920.378	3641
920.488	3538
920.598	3812
920.708	3953
920.818	3819
920.928	3800
921.038	4029
921.148	3994
921.258	3724
921.368	3622
921.477	3587
921.587	3549
921.697	3496
921.806	3656
921.916	3507
922.025	3378
922.134	3370
922.244	3294
922.353	3374
922.462	3272
922.571	3222
922.68	3104
922.789	3055
922.898	3127
923.007	3081
923.116	3222
923.224	3157
923.333	3192
923.442	3108
923.55	3116
923.659	3127
923.767	3256
923.876	3135
923.984	3298
924.092	3112
924.201	3203
924.309	3207
924.417	3253
924.525	3249
924.633	3211
924.741	4173
924.849	3028
924.956	3249
925.064	3097
925.172	3009
925.279	3100
925.387	3199
925.494	3157
925.602	3370
925.709	3321
925.816	3195
925.924	3268
926.031	3382
926.138	3340
926.245	3344
926.352	3264
926.459	3405
926.566	3428
926.673	3325
926.779	3272
926.886	3214
926.993	3119
927.099	3119
927.206	3119
927.312	3119
927.419	3203
927.525	3214
927.631	3279
927.737	3169
927.843	3116
927.95	3043
928.056	3169
928.162	3192
928.267	3237
928.373	3873
928.479	3332
928.585	3066
928.69	3203
928.796	3264
928.901	3161
929.007	3070
929.112	3176
929.218	3154
929.323	3146
929.428	3104
929.533	3302
929.638	3104
929.743	3165
929.848	3275
929.953	3218
930.058	3146
930.163	3013
930.267	3066
930.372	3188
930.477	3001
930.581	3325
930.685	3169
930.79	3062
930.894	3104
930.998	3116
931.103	3253
931.207	2967
931.311	2948
931.415	2864
931.519	2739
931.623	2773
