Data from test_V78500241_1930.txt Node
Date: Fri Mar 25 16:28:34 CST 2022
User: usil
Spectrometer: V785-0024
Trigger mode: 0
Integration Time (sec): 4.000000E-1
Scans to average: 1
Nonlinearity correction enabled: false
Boxcar width: 0
Storing dark spectrum: false
XAxis mode: Wavelengths
Number of Pixels in Spectrum: 1024
>>>>>Begin Spectral Data<<<<<
801.071	2899
801.214	2925
801.356	2887
801.499	2967
801.641	2861
801.783	2960
801.926	3058
802.068	2982
802.211	2994
802.353	3039
802.496	2960
802.638	2979
802.78	3093
802.923	3097
803.065	3009
803.208	2941
803.35	2933
803.492	2929
803.635	2918
803.777	2769
803.919	2872
804.061	3184
804.204	2956
804.346	2891
804.488	2868
804.63	2998
804.773	2883
804.915	2956
805.057	3074
805.199	2922
805.341	2982
805.483	3013
805.626	2994
805.768	2941
805.91	3077
806.052	3097
806.194	3062
806.336	3211
806.478	3032
806.62	2941
806.762	2967
806.904	3028
807.046	3176
807.188	2971
807.33	2933
807.472	2994
807.614	2914
807.756	3005
807.898	2906
808.04	2872
808.182	2998
808.324	2960
808.465	2864
808.607	2857
808.749	2804
808.891	2834
809.033	2990
809.174	2967
809.316	2887
809.458	2864
809.6	2781
809.741	2754
809.883	2785
810.025	2815
810.166	2830
810.308	2842
810.45	2834
810.591	2792
810.733	2743
810.875	2830
811.016	2781
811.158	2773
811.299	2804
811.441	2937
811.582	2895
811.724	2804
811.865	2819
812.007	2883
812.148	2925
812.29	2830
812.431	2880
812.573	2944
812.714	2975
812.855	3024
812.997	3062
813.138	3119
813.279	3005
813.421	2956
813.562	2975
813.703	2838
813.845	2918
813.986	2785
814.127	2762
814.268	2796
814.41	2811
814.551	2826
814.692	2864
814.833	2796
814.974	2887
815.115	2975
815.256	2857
815.397	2800
815.539	2872
815.68	2766
815.821	2788
815.962	2922
816.103	2929
816.244	2864
816.385	2891
816.526	2990
816.666	2925
816.807	2735
816.948	2887
817.089	2914
817.23	2861
817.371	2819
817.512	2804
817.653	2868
817.793	2853
817.934	2864
818.075	2971
818.216	2979
818.356	3043
818.497	2902
818.638	2777
818.778	2842
818.919	2807
819.06	2731
819.2	2857
819.341	2800
819.481	2796
819.622	2910
819.762	3085
819.903	3039
820.043	2914
820.184	2880
820.324	2872
820.465	3009
820.605	3036
820.746	3055
820.886	2918
821.026	3104
821.167	3146
821.307	3279
821.447	3306
821.588	3207
821.728	3150
821.868	3161
822.008	3039
822.149	3195
822.289	3237
822.429	3104
822.569	3104
822.709	3154
822.849	3009
822.99	3028
823.13	3142
823.27	3195
823.41	3104
823.55	3138
823.69	3169
823.83	3214
823.97	3081
824.11	3032
824.25	3005
824.389	3051
824.529	3100
824.669	3077
824.809	3207
824.949	3260
825.089	3237
825.228	3218
825.368	2975
825.508	2982
825.648	2975
825.787	3017
825.927	3001
826.067	3024
826.206	2975
826.346	3058
826.485	3089
826.625	3097
826.765	3287
826.904	3260
827.044	3001
827.183	2963
827.323	2922
827.462	2990
827.601	2941
827.741	2982
827.88	2982
828.02	2891
828.159	2998
828.298	3081
828.437	3127
828.577	3047
828.716	3268
828.855	3097
828.994	2914
829.134	2914
829.273	2952
829.412	2883
829.551	2899
829.69	2956
829.829	2994
829.968	3157
830.107	3043
830.246	3062
830.385	2922
830.524	2918
830.663	2891
830.802	2758
830.941	2678
831.08	2697
831.219	2804
831.357	2796
831.496	2952
831.635	2769
831.774	2697
831.913	2701
832.051	2575
832.19	2617
832.329	2716
832.467	2590
832.606	2514
832.744	2640
832.883	2579
833.022	2636
833.16	2689
833.299	2708
833.437	2743
833.576	2762
833.714	2769
833.852	2735
833.991	2785
834.129	2914
834.267	2849
834.406	2830
834.544	2906
834.682	2922
834.821	2918
834.959	3150
835.097	2933
835.235	3108
835.373	3032
835.511	3055
835.65	3009
835.788	2956
835.926	2868
836.064	2868
836.202	2891
836.34	3138
836.478	3184
836.615	3089
836.753	3146
836.891	3241
837.029	3237
837.167	3108
837.305	3108
837.443	3074
837.58	3028
837.718	3180
837.856	3093
837.993	3077
838.131	3146
838.269	3108
838.406	3138
838.544	3100
838.681	2948
838.819	2902
838.956	2891
839.094	2891
839.231	2941
839.369	3039
839.506	3409
839.643	3222
839.781	3051
839.918	2967
840.055	3077
840.193	3089
840.33	3142
840.467	3135
840.604	3195
840.742	3458
840.879	3074
841.016	3062
841.153	3161
841.29	3336
841.427	3302
841.564	3313
841.701	3332
841.838	3226
841.975	3230
842.112	3245
842.249	3127
842.385	3058
842.522	3321
842.659	3123
842.796	3127
842.933	3123
843.069	3108
843.206	3074
843.343	3245
843.479	3135
843.616	3127
843.752	2941
843.889	2899
844.025	3142
844.162	2960
844.298	3108
844.435	2979
844.571	2933
844.708	3127
844.844	3195
844.98	3313
845.117	3222
845.253	3051
845.389	3039
845.525	3093
845.661	3127
845.798	3047
845.934	3184
846.07	3077
846.206	3256
846.342	3306
846.478	3233
846.614	3146
846.75	3089
846.886	3070
847.022	3275
847.158	3176
847.294	3256
847.429	3237
847.565	3264
847.701	3507
847.837	3081
847.972	3043
848.108	3207
848.244	3207
848.379	3028
848.515	2986
848.65	2918
848.786	2979
848.921	3058
849.057	3112
849.192	3138
849.328	3112
849.463	3119
849.598	3085
849.734	3089
849.869	2998
850.004	2960
850.14	3024
850.275	2929
850.41	2861
850.545	2906
850.68	2941
850.815	2948
850.95	3028
851.085	3230
851.22	3146
851.355	3097
851.49	3020
851.625	3047
851.76	3020
851.895	2918
852.03	2887
852.165	3062
852.299	3104
852.434	3230
852.569	3161
852.703	3226
852.838	3233
852.973	3329
853.107	3317
853.242	3195
853.376	3154
853.511	3020
853.645	3047
853.78	3260
853.914	3138
854.048	3154
854.183	3108
854.317	3199
854.451	3306
854.585	3150
854.72	3135
854.854	3222
854.988	3081
855.122	3123
855.256	3005
855.39	3142
855.524	3245
855.658	3199
855.792	3192
855.926	3226
856.06	3237
856.194	3306
856.327	3192
856.461	3123
856.595	3150
856.729	3108
856.862	3222
856.996	3180
857.13	3256
857.263	3249
857.397	3317
857.53	3154
857.664	3222
857.797	3264
857.931	3287
858.064	3233
858.197	3264
858.331	3161
858.464	3146
858.597	3039
858.731	3150
858.864	3192
858.997	3127
859.13	3211
859.263	3203
859.396	3241
859.529	3100
859.662	3157
859.795	3047
859.928	3180
860.061	3302
860.194	3310
860.327	3184
860.46	3123
860.592	3294
860.725	3302
860.858	3222
860.99	3131
861.123	3100
861.256	3085
861.388	3142
861.521	3880
861.653	3085
861.786	3024
861.918	3001
862.05	3081
862.183	3135
862.315	3184
862.447	3237
862.58	3150
862.712	2971
862.844	2914
862.976	3077
863.108	3017
863.24	3340
863.372	2922
863.504	3009
863.636	3001
863.768	3066
863.9	3043
864.032	2986
864.164	2982
864.296	3051
864.428	3100
864.559	3150
864.691	3104
864.823	3074
864.954	3055
865.086	3085
865.217	3024
865.349	2960
865.48	3032
865.612	3047
865.743	3165
865.875	3001
866.006	2956
866.137	2979
866.269	2971
866.4	2944
866.531	2933
866.662	2899
866.793	2960
866.924	2937
867.055	3009
867.186	2960
867.317	2899
867.448	2868
867.579	2872
867.71	2876
867.841	2815
867.972	2937
868.103	2925
868.233	2941
868.364	2891
868.495	2925
868.625	3135
868.756	3161
868.886	2979
869.017	3017
869.147	3192
869.278	3169
869.408	3066
869.539	3009
869.669	3104
869.799	3047
869.929	3150
870.06	3119
870.19	3370
870.32	3313
870.45	3310
870.58	3386
870.71	3488
870.84	3447
870.97	3317
871.1	3253
871.23	3481
871.36	3504
871.489	3386
871.619	3409
871.749	3447
871.879	3477
872.008	3511
872.138	3370
872.267	3287
872.397	3157
872.526	3142
872.656	3047
872.785	3097
872.915	3260
873.044	3344
873.173	3230
873.303	3260
873.432	3260
873.561	3237
873.69	3184
873.819	3188
873.948	3214
874.077	3161
874.206	3093
874.335	3093
874.464	3211
874.593	3329
874.722	3253
874.851	3424
874.979	3355
875.108	3332
875.237	3218
875.365	3150
875.494	3188
875.623	3298
875.751	3116
875.88	3138
876.008	3245
876.136	3226
876.265	3378
876.393	3523
876.521	3409
876.65	3393
876.778	3332
876.906	3260
877.034	3226
877.162	3214
877.29	3169
877.418	3287
877.546	3294
877.674	3268
877.802	3264
877.93	3226
878.058	3176
878.185	3108
878.313	3233
878.441	3233
878.568	3077
878.696	3157
878.824	3291
878.951	3321
879.079	3443
879.206	3614
879.333	3435
879.461	3317
879.588	3359
879.715	3549
879.842	3599
879.97	3401
880.097	3173
880.224	3176
880.351	3226
880.478	3203
880.605	3203
880.732	3241
880.859	3526
880.986	3329
881.112	3348
881.239	3222
881.366	3104
881.493	3036
881.619	3070
881.746	3066
881.872	3116
881.999	3097
882.125	3165
882.252	3302
882.378	3317
882.505	3492
882.631	3291
882.757	3142
882.883	3218
883.01	3253
883.136	3195
883.262	3123
883.388	3131
883.514	3340
883.64	3374
883.766	3332
883.892	3211
884.018	3275
884.143	3435
884.269	3557
884.395	3226
884.52	3207
884.646	3249
884.772	3142
884.897	3104
885.023	3256
885.148	3344
885.274	3450
885.399	3405
885.524	3275
885.65	3275
885.775	3275
885.9	3306
886.025	3447
886.15	3374
886.275	3378
886.4	3268
886.525	3302
886.65	3294
886.775	3302
886.9	3466
887.025	3637
887.149	3416
887.274	3302
887.399	3157
887.523	3233
887.648	3195
887.773	3192
887.897	3412
888.021	3416
888.146	3306
888.27	3447
888.395	3561
888.519	3420
888.643	3412
888.767	3500
888.891	3332
889.015	3283
889.139	3294
889.263	3275
889.387	3435
889.511	3530
889.635	3428
889.759	3317
889.883	3355
890.006	3443
890.13	3504
890.254	3287
890.377	3348
890.501	3211
890.624	3226
890.748	3268
890.871	3211
890.995	3161
891.118	3097
891.241	3188
891.364	3245
891.488	3310
891.611	3222
891.734	3222
891.857	3310
891.98	3249
892.103	3367
892.226	3260
892.349	3222
892.471	3142
892.594	3195
892.717	3355
892.839	3272
892.962	3317
893.085	3355
893.207	3294
893.33	3176
893.452	3237
893.575	3370
893.697	3256
893.819	3500
893.941	3523
894.064	3496
894.186	3283
894.308	3302
894.43	3466
894.552	3534
894.674	3504
894.796	3294
894.918	3317
895.04	3321
895.161	3439
895.283	3382
895.405	3310
895.526	3389
895.648	3469
895.769	3412
895.891	3462
896.012	3511
896.134	3481
896.255	3435
896.376	3401
896.498	3397
896.619	3424
896.74	3329
896.861	3450
896.982	3698
897.103	3838
897.224	3618
897.345	3591
897.466	3458
897.587	3500
897.708	3641
897.828	3576
897.949	3431
898.07	3344
898.19	3424
898.311	3614
898.431	3447
898.552	3549
898.672	3625
898.792	3599
898.913	3557
899.033	3435
899.153	3294
899.273	3218
899.393	3310
899.513	3340
899.633	3325
899.753	3332
899.873	3317
899.993	3367
900.113	3336
900.232	3382
900.352	3359
900.472	3363
900.591	3222
900.711	3348
900.83	3291
900.95	3420
901.069	3504
901.189	3336
901.308	3195
901.427	3135
901.546	3253
901.665	3306
901.784	3306
901.904	3230
902.023	3165
902.141	2994
902.26	2998
902.379	3142
902.498	3070
902.617	3100
902.735	3203
902.854	3260
902.973	3226
903.091	3089
903.21	3089
903.328	3138
903.446	3119
903.565	3097
903.683	3207
903.801	3123
903.919	3226
904.038	3313
904.156	3176
904.274	3298
904.392	3264
904.51	3283
904.627	3329
904.745	3412
904.863	3504
904.981	3253
905.098	3165
905.216	3222
905.334	3283
905.451	3306
905.569	3317
905.686	3424
905.803	3458
905.921	3294
906.038	3450
906.155	3370
906.272	3256
906.389	3332
906.506	3249
906.623	3237
906.74	3256
906.857	3165
906.974	3287
907.091	3462
907.208	3584
907.324	3485
907.441	3382
907.557	3275
907.674	3272
907.79	3195
907.907	3306
908.023	3386
908.139	3351
908.256	3329
908.372	3374
908.488	3363
908.604	3279
908.72	3264
908.836	3298
908.952	3302
909.068	3370
909.184	3515
909.3	3378
909.415	3504
909.531	3447
909.647	3283
909.762	3294
909.878	3268
909.993	3359
910.108	3344
910.224	3348
910.339	3466
910.454	3348
910.57	3317
910.685	3241
910.8	3606
910.915	3549
911.03	3469
911.145	3241
911.259	3275
911.374	3332
911.489	3203
911.604	3218
911.718	3165
911.833	3169
911.947	2998
912.062	3001
912.176	3165
912.291	3176
912.405	3211
912.519	3443
912.633	3481
912.748	3363
912.862	3253
912.976	3176
913.09	3097
913.204	3123
913.318	3192
913.431	3378
913.545	3317
913.659	3420
913.772	3325
913.886	3245
914	3192
914.113	3355
914.226	3401
914.34	3355
914.453	3214
914.566	3416
914.68	3317
914.793	3287
914.906	3157
915.019	3123
915.132	3074
915.245	3211
915.358	3233
915.47	3260
915.583	3264
915.696	3302
915.809	3466
915.921	3454
916.034	3253
916.146	3256
916.259	3214
916.371	3386
916.483	3378
916.595	3279
916.708	3355
916.82	3329
916.932	3325
917.044	3340
917.156	3374
917.268	3233
917.38	3348
917.491	3317
917.603	3363
917.715	3447
917.826	3469
917.938	3409
918.049	3272
918.161	3435
918.272	3584
918.384	3603
918.495	3500
918.606	3329
918.717	3268
918.828	3370
918.939	3397
919.05	3245
919.161	3405
919.272	3176
919.383	3245
919.494	3488
919.604	3690
919.715	3485
919.826	3393
919.936	3488
920.047	3576
920.157	3564
920.267	3774
920.378	3599
920.488	3580
920.598	3808
920.708	3945
920.818	3861
920.928	3808
921.038	4051
921.148	4017
921.258	3709
921.368	3629
921.477	3618
921.587	3534
921.697	3477
921.806	3633
921.916	3511
922.025	3363
922.134	3367
922.244	3332
922.353	3416
922.462	3310
922.571	3211
922.68	3112
922.789	3112
922.898	3123
923.007	3058
923.116	3226
923.224	3188
923.333	3150
923.442	3097
923.55	3127
923.659	3123
923.767	3203
923.876	3104
923.984	3230
924.092	3131
924.201	3199
924.309	3237
924.417	3291
924.525	3195
924.633	3268
924.741	4169
924.849	3043
924.956	3275
925.064	3089
925.172	3036
925.279	3089
925.387	3192
925.494	3176
925.602	3378
925.709	3306
925.816	3180
925.924	3256
926.031	3409
926.138	3363
926.245	3355
926.352	3218
926.459	3443
926.566	3462
926.673	3275
926.779	3211
926.886	3230
926.993	3161
927.099	3093
927.206	3116
927.312	3100
927.419	3222
927.525	3218
927.631	3249
927.737	3138
927.843	3119
927.95	2986
928.056	3104
928.162	3188
928.267	3249
928.373	3869
928.479	3340
928.585	3032
928.69	3211
928.796	3294
928.901	3176
929.007	3036
929.112	3241
929.218	3180
929.323	3131
929.428	3161
929.533	3294
929.638	3135
929.743	3184
929.848	3279
929.953	3218
930.058	3138
930.163	3020
930.267	3005
930.372	3218
930.477	3028
930.581	3317
930.685	3192
930.79	3043
930.894	3135
930.998	3131
931.103	3272
931.207	2963
931.311	2956
931.415	2963
931.519	2750
931.623	2819
