Data from test_V78500241_1878.txt Node
Date: Fri Mar 25 16:28:12 CST 2022
User: usil
Spectrometer: V785-0024
Trigger mode: 0
Integration Time (sec): 4.000000E-1
Scans to average: 1
Nonlinearity correction enabled: false
Boxcar width: 0
Storing dark spectrum: false
XAxis mode: Wavelengths
Number of Pixels in Spectrum: 1024
>>>>>Begin Spectral Data<<<<<
801.071	2895
801.214	2937
801.356	2880
801.499	2895
801.641	2880
801.783	2883
801.926	3066
802.068	2979
802.211	2994
802.353	3020
802.496	2929
802.638	3005
802.78	2986
802.923	3077
803.065	2967
803.208	2906
803.35	2944
803.492	2925
803.635	2944
803.777	2746
803.919	2868
804.061	3211
804.204	2941
804.346	2906
804.488	2830
804.63	2986
804.773	2819
804.915	2887
805.057	3047
805.199	2925
805.341	2982
805.483	3047
805.626	2986
805.768	2967
805.91	3058
806.052	3112
806.194	2994
806.336	3237
806.478	3062
806.62	2922
806.762	2960
806.904	3036
807.046	3161
807.188	2979
807.33	2906
807.472	2986
807.614	2876
807.756	2994
807.898	2933
808.04	2887
808.182	2963
808.324	2956
808.465	2857
808.607	2857
808.749	2804
808.891	2826
809.033	2948
809.174	2994
809.316	2876
809.458	2883
809.6	2781
809.741	2815
809.883	2777
810.025	2815
810.166	2830
810.308	2830
810.45	2811
810.591	2762
810.733	2739
810.875	2849
811.016	2807
811.158	2762
811.299	2815
811.441	2895
811.582	2883
811.724	2792
811.865	2804
812.007	2887
812.148	2872
812.29	2838
812.431	2883
812.573	2906
812.714	2979
812.855	3024
812.997	3036
813.138	3104
813.279	3028
813.421	2994
813.562	2956
813.703	2880
813.845	2906
813.986	2746
814.127	2701
814.268	2826
814.41	2834
814.551	2800
814.692	2880
814.833	2834
814.974	2891
815.115	2960
815.256	2823
815.397	2800
815.539	2880
815.68	2777
815.821	2788
815.962	2929
816.103	2922
816.244	2925
816.385	2849
816.526	2948
816.666	2895
816.807	2739
816.948	2906
817.089	2937
817.23	2826
817.371	2769
817.512	2788
817.653	2868
817.793	2781
817.934	2826
818.075	2971
818.216	2982
818.356	3039
818.497	2887
818.638	2766
818.778	2823
818.919	2815
819.06	2781
819.2	2922
819.341	2769
819.481	2807
819.622	2929
819.762	3085
819.903	3051
820.043	2933
820.184	2910
820.324	2899
820.465	3005
820.605	2975
820.746	2990
820.886	2899
821.026	3112
821.167	3157
821.307	3188
821.447	3294
821.588	3226
821.728	3226
821.868	3192
822.008	3077
822.149	3184
822.289	3237
822.429	3081
822.569	3070
822.709	3211
822.849	3036
822.99	3062
823.13	3150
823.27	3249
823.41	3081
823.55	3173
823.69	3138
823.83	3173
823.97	3066
824.11	3013
824.25	2979
824.389	3058
824.529	3108
824.669	3036
824.809	3188
824.949	3245
825.089	3188
825.228	3165
825.368	3009
825.508	2933
825.648	2933
825.787	3009
825.927	3043
826.067	2986
826.206	2960
826.346	3039
826.485	3062
826.625	3047
826.765	3264
826.904	3188
827.044	2979
827.183	2922
827.323	2834
827.462	3009
827.601	2887
827.741	2910
827.88	2952
828.02	2838
828.159	2975
828.298	3039
828.437	3108
828.577	2975
828.716	3233
828.855	3051
828.994	2937
829.134	2876
829.273	2922
829.412	2883
829.551	2853
829.69	2880
829.829	2948
829.968	3108
830.107	3013
830.246	3028
830.385	2933
830.524	2883
830.663	2792
830.802	2727
830.941	2659
831.08	2625
831.219	2773
831.357	2750
831.496	2933
831.635	2712
831.774	2625
831.913	2640
832.051	2522
832.19	2564
832.329	2644
832.467	2530
832.606	2469
832.744	2575
832.883	2575
833.022	2606
833.16	2640
833.299	2670
833.437	2674
833.576	2693
833.714	2727
833.852	2708
833.991	2735
834.129	2781
834.267	2823
834.406	2762
834.544	2880
834.682	2864
834.821	2819
834.959	3024
835.097	2876
835.235	3104
835.373	3036
835.511	2971
835.65	2941
835.788	2944
835.926	2819
836.064	2811
836.202	2800
836.34	3089
836.478	3150
836.615	3020
836.753	3100
836.891	3184
837.029	3127
837.167	3055
837.305	3058
837.443	3017
837.58	2967
837.718	3135
837.856	3055
837.993	3028
838.131	3070
838.269	3085
838.406	3093
838.544	3104
838.681	2971
838.819	2872
838.956	2788
839.094	2800
839.231	2914
839.369	2994
839.506	3370
839.643	3195
839.781	3039
839.918	2937
840.055	3032
840.193	3051
840.33	3047
840.467	3070
840.604	3131
840.742	3367
840.879	3066
841.016	3062
841.153	3081
841.29	3317
841.427	3275
841.564	3287
841.701	3336
841.838	3230
841.975	3161
842.112	3249
842.249	3108
842.385	3024
842.522	3253
842.659	3093
842.796	3051
842.933	3062
843.069	3005
843.206	3047
843.343	3199
843.479	3127
843.616	3146
843.752	2933
843.889	2849
844.025	3062
844.162	2914
844.298	3051
844.435	2941
844.571	2929
844.708	3074
844.844	3195
844.98	3184
845.117	3154
845.253	3062
845.389	3020
845.525	3070
845.661	3066
845.798	3001
845.934	3104
846.07	3077
846.206	3169
846.342	3287
846.478	3214
846.614	3074
846.75	3039
846.886	3062
847.022	3211
847.158	3146
847.294	3157
847.429	3222
847.565	3173
847.701	3488
847.837	3032
847.972	2956
848.108	3135
848.244	3116
848.379	2990
848.515	2914
848.65	2944
848.786	2933
848.921	3020
849.057	3089
849.192	3108
849.328	3047
849.463	3108
849.598	3062
849.734	3032
849.869	2963
850.004	2941
850.14	2952
850.275	2918
850.41	2838
850.545	2906
850.68	2887
850.815	2906
850.95	2963
851.085	3192
851.22	3131
851.355	3017
851.49	2975
851.625	2975
851.76	2986
851.895	2910
852.03	2887
852.165	3009
852.299	3077
852.434	3176
852.569	3138
852.703	3146
852.838	3264
852.973	3336
853.107	3329
853.242	3157
853.376	3062
853.511	2975
853.645	3062
853.78	3184
853.914	3051
854.048	3093
854.183	3085
854.317	3157
854.451	3306
854.585	3116
854.72	3097
854.854	3188
854.988	3081
855.122	3077
855.256	2994
855.39	3097
855.524	3237
855.658	3207
855.792	3161
855.926	3180
856.06	3199
856.194	3230
856.327	3123
856.461	3100
856.595	3047
856.729	3085
856.862	3199
856.996	3180
857.13	3199
857.263	3199
857.397	3241
857.53	3093
857.664	3195
857.797	3188
857.931	3207
858.064	3154
858.197	3195
858.331	3112
858.464	3055
858.597	3009
858.731	3131
858.864	3123
858.997	3089
859.13	3123
859.263	3211
859.396	3173
859.529	3058
859.662	3066
859.795	3043
859.928	3146
860.061	3253
860.194	3268
860.327	3119
860.46	3074
860.592	3218
860.725	3218
860.858	3256
860.99	3138
861.123	3024
861.256	3013
861.388	3131
861.521	3804
861.653	3009
861.786	2971
861.918	2986
862.05	3032
862.183	3089
862.315	3127
862.447	3199
862.58	3070
862.712	2944
862.844	2864
862.976	3001
863.108	3005
863.24	3302
863.372	2872
863.504	2956
863.636	2941
863.768	2994
863.9	2994
864.032	2891
864.164	2922
864.296	3009
864.428	3081
864.559	3077
864.691	3051
864.823	3055
864.954	3043
865.086	3020
865.217	3001
865.349	2944
865.48	2948
865.612	3024
865.743	3173
865.875	2956
866.006	2963
866.137	2979
866.269	2937
866.4	2944
866.531	2922
866.662	2887
866.793	2895
866.924	2876
867.055	2975
867.186	2918
867.317	2880
867.448	2838
867.579	2826
867.71	2857
867.841	2815
867.972	2902
868.103	2925
868.233	2914
868.364	2853
868.495	2922
868.625	3077
868.756	3173
868.886	2975
869.017	3051
869.147	3150
869.278	3161
869.408	3036
869.539	3070
869.669	3093
869.799	3009
869.929	3123
870.06	3039
870.19	3332
870.32	3253
870.45	3256
870.58	3409
870.71	3435
870.84	3439
870.97	3260
871.1	3226
871.23	3485
871.36	3492
871.489	3351
871.619	3416
871.749	3386
871.879	3405
872.008	3481
872.138	3367
872.267	3260
872.397	3154
872.526	3104
872.656	2998
872.785	3077
872.915	3203
873.044	3332
873.173	3195
873.303	3214
873.432	3253
873.561	3192
873.69	3157
873.819	3123
873.948	3176
874.077	3127
874.206	3028
874.335	3097
874.464	3188
874.593	3298
874.722	3230
874.851	3397
874.979	3348
875.108	3340
875.237	3192
875.365	3127
875.494	3176
875.623	3237
875.751	3074
875.88	3108
876.008	3207
876.136	3245
876.265	3340
876.393	3515
876.521	3435
876.65	3374
876.778	3302
876.906	3260
877.034	3211
877.162	3233
877.29	3180
877.418	3279
877.546	3272
877.674	3241
877.802	3222
877.93	3226
878.058	3150
878.185	3100
878.313	3241
878.441	3173
878.568	3108
878.696	3108
878.824	3199
878.951	3272
879.079	3416
879.206	3557
879.333	3424
879.461	3351
879.588	3355
879.715	3454
879.842	3599
879.97	3412
880.097	3104
880.224	3097
880.351	3150
880.478	3241
880.605	3218
880.732	3218
880.859	3458
880.986	3279
881.112	3329
881.239	3226
881.366	3062
881.493	2990
881.619	3005
881.746	3062
881.872	3047
881.999	3097
882.125	3142
882.252	3241
882.378	3313
882.505	3443
882.631	3249
882.757	3146
882.883	3199
883.01	3237
883.136	3184
883.262	3074
883.388	3142
883.514	3302
883.64	3367
883.766	3241
883.892	3211
884.018	3226
884.143	3447
884.269	3561
884.395	3199
884.52	3173
884.646	3176
884.772	3142
884.897	3146
885.023	3176
885.148	3332
885.274	3409
885.399	3367
885.524	3294
885.65	3260
885.775	3313
885.9	3260
886.025	3397
886.15	3389
886.275	3306
886.4	3253
886.525	3298
886.65	3272
886.775	3253
886.9	3507
887.025	3618
887.149	3409
887.274	3233
887.399	3135
887.523	3230
887.648	3169
887.773	3188
887.897	3382
888.021	3401
888.146	3332
888.27	3439
888.395	3530
888.519	3450
888.643	3443
888.767	3416
888.891	3294
889.015	3211
889.139	3279
889.263	3241
889.387	3389
889.511	3469
889.635	3439
889.759	3260
889.883	3294
890.006	3348
890.13	3462
890.254	3233
890.377	3321
890.501	3214
890.624	3207
890.748	3268
890.871	3195
890.995	3112
891.118	3058
891.241	3161
891.364	3180
891.488	3302
891.611	3161
891.734	3195
891.857	3272
891.98	3218
892.103	3367
892.226	3275
892.349	3222
892.471	3116
892.594	3253
892.717	3268
892.839	3313
892.962	3272
893.085	3306
893.207	3291
893.33	3150
893.452	3207
893.575	3336
893.697	3233
893.819	3469
893.941	3492
894.064	3439
894.186	3268
894.308	3268
894.43	3469
894.552	3549
894.674	3466
894.796	3279
894.918	3317
895.04	3283
895.161	3420
895.283	3370
895.405	3325
895.526	3359
895.648	3420
895.769	3435
895.891	3447
896.012	3439
896.134	3454
896.255	3424
896.376	3389
896.498	3332
896.619	3397
896.74	3332
896.861	3370
896.982	3618
897.103	3873
897.224	3564
897.345	3526
897.466	3466
897.587	3466
897.708	3625
897.828	3564
897.949	3405
898.07	3268
898.19	3409
898.311	3576
898.431	3431
898.552	3504
898.672	3614
898.792	3591
898.913	3526
899.033	3386
899.153	3256
899.273	3211
899.393	3287
899.513	3329
899.633	3313
899.753	3317
899.873	3275
899.993	3355
900.113	3294
900.232	3363
900.352	3306
900.472	3268
900.591	3211
900.711	3313
900.83	3214
900.95	3367
901.069	3496
901.189	3344
901.308	3150
901.427	3127
901.546	3195
901.665	3264
901.784	3291
901.904	3207
902.023	3104
902.141	2998
902.26	2986
902.379	3127
902.498	3058
902.617	3074
902.735	3211
902.854	3226
902.973	3199
903.091	3032
903.21	3043
903.328	3123
903.446	3093
903.565	3074
903.683	3173
903.801	3081
903.919	3237
904.038	3279
904.156	3123
904.274	3245
904.392	3188
904.51	3260
904.627	3294
904.745	3473
904.863	3477
904.981	3237
905.098	3173
905.216	3176
905.334	3306
905.451	3272
905.569	3245
905.686	3386
905.803	3416
905.921	3264
906.038	3435
906.155	3351
906.272	3249
906.389	3317
906.506	3245
906.623	3222
906.74	3306
906.857	3195
906.974	3222
907.091	3462
907.208	3572
907.324	3439
907.441	3378
907.557	3214
907.674	3230
907.79	3218
907.907	3268
908.023	3386
908.139	3389
908.256	3291
908.372	3405
908.488	3336
908.604	3233
908.72	3237
908.836	3275
908.952	3264
909.068	3355
909.184	3450
909.3	3401
909.415	3469
909.531	3507
909.647	3298
909.762	3302
909.878	3317
909.993	3378
910.108	3351
910.224	3386
910.339	3424
910.454	3374
910.57	3355
910.685	3253
910.8	3614
910.915	3572
911.03	3469
911.145	3298
911.259	3313
911.374	3325
911.489	3298
911.604	3233
911.718	3192
911.833	3180
911.947	3066
912.062	3024
912.176	3157
912.291	3218
912.405	3283
912.519	3496
912.633	3538
912.748	3397
912.862	3325
912.976	3218
913.09	3131
913.204	3176
913.318	3245
913.431	3348
913.545	3355
913.659	3450
913.772	3378
913.886	3222
914	3214
914.113	3405
914.226	3443
914.34	3389
914.453	3249
914.566	3424
914.68	3344
914.793	3332
914.906	3154
915.019	3169
915.132	3123
915.245	3233
915.358	3249
915.47	3260
915.583	3283
915.696	3306
915.809	3428
915.921	3431
916.034	3325
916.146	3310
916.259	3233
916.371	3409
916.483	3431
916.595	3325
916.708	3363
916.82	3397
916.932	3386
917.044	3389
917.156	3348
917.268	3291
917.38	3351
917.491	3325
917.603	3382
917.715	3504
917.826	3515
917.938	3447
918.049	3279
918.161	3450
918.272	3629
918.384	3629
918.495	3534
918.606	3359
918.717	3325
918.828	3428
918.939	3454
919.05	3306
919.161	3370
919.272	3203
919.383	3310
919.494	3530
919.604	3679
919.715	3519
919.826	3428
919.936	3534
920.047	3641
920.157	3599
920.267	3804
920.378	3618
920.488	3591
920.598	3816
920.708	3983
920.818	3850
920.928	3835
921.038	4063
921.148	4025
921.258	3759
921.368	3660
921.477	3663
921.587	3557
921.697	3500
921.806	3671
921.916	3523
922.025	3367
922.134	3428
922.244	3359
922.353	3477
922.462	3298
922.571	3298
922.68	3154
922.789	3089
922.898	3192
923.007	3135
923.116	3256
923.224	3207
923.333	3211
923.442	3131
923.55	3112
923.659	3173
923.767	3260
923.876	3146
923.984	3268
924.092	3161
924.201	3211
924.309	3294
924.417	3275
924.525	3249
924.633	3237
924.741	4093
924.849	3043
924.956	3298
925.064	3116
925.172	3055
925.279	3119
925.387	3207
925.494	3230
925.602	3351
925.709	3351
925.816	3188
925.924	3291
926.031	3405
926.138	3355
926.245	3401
926.352	3279
926.459	3409
926.566	3500
926.673	3332
926.779	3306
926.886	3268
926.993	3222
927.099	3173
927.206	3104
927.312	3150
927.419	3272
927.525	3230
927.631	3321
927.737	3207
927.843	3169
927.95	3062
928.056	3150
928.162	3188
928.267	3264
928.373	3812
928.479	3291
928.585	3055
928.69	3275
928.796	3325
928.901	3195
929.007	3039
929.112	3211
929.218	3245
929.323	3226
929.428	3169
929.533	3355
929.638	3146
929.743	3161
929.848	3291
929.953	3287
930.058	3188
930.163	3032
930.267	3089
930.372	3226
930.477	3032
930.581	3336
930.685	3184
930.79	3062
930.894	3176
930.998	3154
931.103	3348
931.207	3001
931.311	2967
931.415	2971
931.519	2785
931.623	2849
