Data from test_V78500241_967.txt Node
Date: Fri Mar 25 16:21:54 CST 2022
User: usil
Spectrometer: V785-0024
Trigger mode: 0
Integration Time (sec): 4.000000E-1
Scans to average: 1
Nonlinearity correction enabled: false
Boxcar width: 0
Storing dark spectrum: false
XAxis mode: Wavelengths
Number of Pixels in Spectrum: 1024
>>>>>Begin Spectral Data<<<<<
801.071	2948
801.214	2956
801.356	2910
801.499	2918
801.641	2883
801.783	2960
801.926	3051
802.068	2998
802.211	2979
802.353	3055
802.496	2963
802.638	3024
802.78	3074
802.923	3074
803.065	3017
803.208	2925
803.35	2960
803.492	2933
803.635	2941
803.777	2766
803.919	2861
804.061	3230
804.204	2944
804.346	2895
804.488	2845
804.63	2982
804.773	2906
804.915	2925
805.057	3097
805.199	2925
805.341	2925
805.483	3070
805.626	3001
805.768	2944
805.91	3100
806.052	3112
806.194	3005
806.336	3222
806.478	3039
806.62	2925
806.762	3005
806.904	3058
807.046	3135
807.188	3001
807.33	2914
807.472	2994
807.614	2883
807.756	2971
807.898	2918
808.04	2891
808.182	2971
808.324	2956
808.465	2891
808.607	2864
808.749	2811
808.891	2804
809.033	2998
809.174	2963
809.316	2880
809.458	2891
809.6	2750
809.741	2781
809.883	2762
810.025	2800
810.166	2864
810.308	2853
810.45	2849
810.591	2773
810.733	2777
810.875	2815
811.016	2785
811.158	2743
811.299	2788
811.441	2918
811.582	2876
811.724	2815
811.865	2861
812.007	2899
812.148	2872
812.29	2830
812.431	2899
812.573	2998
812.714	2967
812.855	3020
812.997	3005
813.138	3097
813.279	3005
813.421	2948
813.562	2960
813.703	2872
813.845	2853
813.986	2758
814.127	2750
814.268	2804
814.41	2845
814.551	2838
814.692	2838
814.833	2796
814.974	2887
815.115	2960
815.256	2819
815.397	2800
815.539	2857
815.68	2773
815.821	2788
815.962	2952
816.103	2933
816.244	2857
816.385	2845
816.526	2944
816.666	2910
816.807	2735
816.948	2902
817.089	2929
817.23	2842
817.371	2773
817.512	2804
817.653	2845
817.793	2807
817.934	2891
818.075	2952
818.216	2990
818.356	2979
818.497	2906
818.638	2811
818.778	2830
818.919	2800
819.06	2743
819.2	2849
819.341	2834
819.481	2819
819.622	2914
819.762	3119
819.903	3051
820.043	2929
820.184	2880
820.324	2933
820.465	3024
820.605	3020
820.746	3005
820.886	2941
821.026	3123
821.167	3176
821.307	3256
821.447	3340
821.588	3237
821.728	3192
821.868	3169
822.008	3093
822.149	3203
822.289	3260
822.429	3112
822.569	3146
822.709	3184
822.849	3066
822.99	3093
823.13	3180
823.27	3203
823.41	3097
823.55	3161
823.69	3192
823.83	3150
823.97	3142
824.11	3039
824.25	3013
824.389	3150
824.529	3138
824.669	3131
824.809	3218
824.949	3340
825.089	3249
825.228	3199
825.368	3020
825.508	2982
825.648	2979
825.787	3047
825.927	3043
826.067	3001
826.206	3036
826.346	3051
826.485	3074
826.625	3150
826.765	3275
826.904	3249
827.044	3036
827.183	2960
827.323	2922
827.462	2986
827.601	2975
827.741	2975
827.88	3017
828.02	2902
828.159	3017
828.298	3093
828.437	3165
828.577	3104
828.716	3283
828.855	3085
828.994	2937
829.134	2933
829.273	2960
829.412	2933
829.551	2891
829.69	2933
829.829	3032
829.968	3169
830.107	3020
830.246	3055
830.385	2986
830.524	2944
830.663	2864
830.802	2766
830.941	2731
831.08	2697
831.219	2815
831.357	2823
831.496	3005
831.635	2777
831.774	2701
831.913	2705
832.051	2636
832.19	2621
832.329	2716
832.467	2590
832.606	2511
832.744	2659
832.883	2617
833.022	2655
833.16	2670
833.299	2708
833.437	2735
833.576	2754
833.714	2758
833.852	2750
833.991	2807
834.129	2883
834.267	2857
834.406	2815
834.544	2899
834.682	2910
834.821	2906
834.959	3104
835.097	2933
835.235	3116
835.373	2990
835.511	3070
835.65	3047
835.788	2986
835.926	2864
836.064	2830
836.202	2872
836.34	3161
836.478	3176
836.615	3066
836.753	3146
836.891	3241
837.029	3226
837.167	3119
837.305	3116
837.443	3070
837.58	2998
837.718	3142
837.856	3070
837.993	3093
838.131	3192
838.269	3112
838.406	3108
838.544	3104
838.681	2960
838.819	2967
838.956	2849
839.094	2857
839.231	2956
839.369	3066
839.506	3405
839.643	3253
839.781	3077
839.918	2975
840.055	3116
840.193	3093
840.33	3051
840.467	3142
840.604	3173
840.742	3412
840.879	3081
841.016	3085
841.153	3135
841.29	3370
841.427	3317
841.564	3336
841.701	3340
841.838	3275
841.975	3184
842.112	3230
842.249	3127
842.385	3081
842.522	3325
842.659	3135
842.796	3089
842.933	3135
843.069	3081
843.206	3085
843.343	3180
843.479	3161
843.616	3188
843.752	2929
843.889	2899
844.025	3089
844.162	2902
844.298	3131
844.435	2960
844.571	2925
844.708	3089
844.844	3192
844.98	3249
845.117	3230
845.253	3062
845.389	3043
845.525	3138
845.661	3150
845.798	3028
845.934	3135
846.07	3081
846.206	3264
846.342	3378
846.478	3256
846.614	3074
846.75	3104
846.886	3074
847.022	3253
847.158	3157
847.294	3165
847.429	3268
847.565	3237
847.701	3500
847.837	3066
847.972	3020
848.108	3199
848.244	3192
848.379	2960
848.515	2979
848.65	2975
848.786	2975
848.921	3058
849.057	3112
849.192	3188
849.328	3062
849.463	3077
849.598	3070
849.734	3077
849.869	3013
850.004	2944
850.14	2994
850.275	2960
850.41	2883
850.545	2891
850.68	2956
850.815	2975
850.95	2994
851.085	3214
851.22	3135
851.355	3058
851.49	2982
851.625	3020
851.76	3047
851.895	2986
852.03	2941
852.165	3070
852.299	3100
852.434	3214
852.569	3150
852.703	3207
852.838	3245
852.973	3351
853.107	3340
853.242	3154
853.376	3077
853.511	2975
853.645	3074
853.78	3253
853.914	3173
854.048	3135
854.183	3097
854.317	3192
854.451	3317
854.585	3150
854.72	3116
854.854	3253
854.988	3070
855.122	3116
855.256	3039
855.39	3131
855.524	3241
855.658	3199
855.792	3207
855.926	3211
856.06	3230
856.194	3279
856.327	3173
856.461	3058
856.595	3093
856.729	3104
856.862	3233
856.996	3184
857.13	3245
857.263	3237
857.397	3272
857.53	3150
857.664	3214
857.797	3298
857.931	3253
858.064	3180
858.197	3241
858.331	3119
858.464	3116
858.597	3039
858.731	3135
858.864	3127
858.997	3112
859.13	3226
859.263	3214
859.396	3214
859.529	3097
859.662	3089
859.795	3055
859.928	3169
860.061	3253
860.194	3313
860.327	3138
860.46	3116
860.592	3249
860.725	3260
860.858	3317
860.99	3127
861.123	3051
861.256	3051
861.388	3142
861.521	3873
861.653	3028
861.786	3028
861.918	3020
862.05	3089
862.183	3169
862.315	3157
862.447	3233
862.58	3165
862.712	2956
862.844	2906
862.976	3047
863.108	2979
863.24	3424
863.372	2876
863.504	2975
863.636	3009
863.768	3058
863.9	3001
864.032	2956
864.164	2944
864.296	3024
864.428	3100
864.559	3157
864.691	3108
864.823	3055
864.954	3032
865.086	3089
865.217	3020
865.349	2952
865.48	3009
865.612	2998
865.743	3211
865.875	3047
866.006	2960
866.137	2963
866.269	2948
866.4	2941
866.531	2956
866.662	2880
866.793	2952
866.924	2941
867.055	2986
867.186	2952
867.317	2899
867.448	2868
867.579	2906
867.71	2914
867.841	2849
867.972	2922
868.103	2944
868.233	2895
868.364	2902
868.495	2902
868.625	3093
868.756	3199
868.886	3039
869.017	3024
869.147	3188
869.278	3203
869.408	3085
869.539	3043
869.669	3093
869.799	3024
869.929	3142
870.06	3097
870.19	3317
870.32	3298
870.45	3298
870.58	3386
870.71	3458
870.84	3477
870.97	3302
871.1	3222
871.23	3504
871.36	3488
871.489	3382
871.619	3412
871.749	3409
871.879	3511
872.008	3500
872.138	3355
872.267	3275
872.397	3195
872.526	3116
872.656	3066
872.785	3112
872.915	3253
873.044	3279
873.173	3237
873.303	3245
873.432	3268
873.561	3237
873.69	3176
873.819	3157
873.948	3237
874.077	3108
874.206	3013
874.335	3119
874.464	3195
874.593	3355
874.722	3237
874.851	3405
874.979	3386
875.108	3344
875.237	3241
875.365	3195
875.494	3176
875.623	3233
875.751	3119
875.88	3119
876.008	3226
876.136	3237
876.265	3363
876.393	3534
876.521	3401
876.65	3370
876.778	3348
876.906	3283
877.034	3203
877.162	3241
877.29	3188
877.418	3256
877.546	3241
877.674	3245
877.802	3214
877.93	3245
878.058	3135
878.185	3146
878.313	3226
878.441	3233
878.568	3085
878.696	3146
878.824	3222
878.951	3291
879.079	3412
879.206	3614
879.333	3462
879.461	3332
879.588	3378
879.715	3481
879.842	3599
879.97	3386
880.097	3138
880.224	3131
880.351	3214
880.478	3195
880.605	3176
880.732	3165
880.859	3507
880.986	3332
881.112	3344
881.239	3192
881.366	3097
881.493	3081
881.619	3001
881.746	3116
881.872	3104
881.999	3131
882.125	3135
882.252	3245
882.378	3302
882.505	3424
882.631	3283
882.757	3154
882.883	3260
883.01	3199
883.136	3138
883.262	3131
883.388	3104
883.514	3340
883.64	3397
883.766	3329
883.892	3203
884.018	3249
884.143	3458
884.269	3519
884.395	3195
884.52	3135
884.646	3192
884.772	3180
884.897	3135
885.023	3241
885.148	3367
885.274	3416
885.399	3378
885.524	3275
885.65	3291
885.775	3313
885.9	3226
886.025	3466
886.15	3363
886.275	3291
886.4	3249
886.525	3332
886.65	3237
886.775	3275
886.9	3519
887.025	3656
887.149	3443
887.274	3260
887.399	3222
887.523	3195
887.648	3184
887.773	3195
887.897	3359
888.021	3412
888.146	3302
888.27	3439
888.395	3523
888.519	3435
888.643	3466
888.767	3488
888.891	3317
889.015	3207
889.139	3313
889.263	3264
889.387	3397
889.511	3538
889.635	3511
889.759	3310
889.883	3283
890.006	3405
890.13	3515
890.254	3268
890.377	3321
890.501	3199
890.624	3176
890.748	3264
890.871	3176
890.995	3123
891.118	3104
891.241	3180
891.364	3203
891.488	3275
891.611	3169
891.734	3214
891.857	3275
891.98	3253
892.103	3348
892.226	3283
892.349	3256
892.471	3093
892.594	3268
892.717	3298
892.839	3313
892.962	3294
893.085	3340
893.207	3306
893.33	3199
893.452	3233
893.575	3355
893.697	3218
893.819	3454
893.941	3492
894.064	3462
894.186	3253
894.308	3283
894.43	3443
894.552	3526
894.674	3481
894.796	3264
894.918	3287
895.04	3291
895.161	3473
895.283	3409
895.405	3336
895.526	3386
895.648	3428
895.769	3462
895.891	3462
896.012	3443
896.134	3496
896.255	3389
896.376	3382
896.498	3325
896.619	3416
896.74	3416
896.861	3409
896.982	3690
897.103	3861
897.224	3580
897.345	3523
897.466	3420
897.587	3477
897.708	3603
897.828	3576
897.949	3412
898.07	3344
898.19	3416
898.311	3599
898.431	3458
898.552	3507
898.672	3614
898.792	3561
898.913	3542
899.033	3428
899.153	3325
899.273	3249
899.393	3298
899.513	3336
899.633	3291
899.753	3321
899.873	3294
899.993	3355
900.113	3348
900.232	3355
900.352	3355
900.472	3287
900.591	3222
900.711	3329
900.83	3306
900.95	3405
901.069	3477
901.189	3393
901.308	3192
901.427	3100
901.546	3165
901.665	3275
901.784	3336
901.904	3218
902.023	3146
902.141	3024
902.26	2998
902.379	3108
902.498	3093
902.617	3051
902.735	3237
902.854	3249
902.973	3169
903.091	3051
903.21	3036
903.328	3119
903.446	3112
903.565	3116
903.683	3230
903.801	3169
903.919	3226
904.038	3298
904.156	3180
904.274	3310
904.392	3260
904.51	3329
904.627	3332
904.745	3409
904.863	3511
904.981	3245
905.098	3131
905.216	3249
905.334	3294
905.451	3325
905.569	3313
905.686	3428
905.803	3454
905.921	3275
906.038	3401
906.155	3386
906.272	3272
906.389	3310
906.506	3230
906.623	3237
906.74	3256
906.857	3192
906.974	3294
907.091	3420
907.208	3584
907.324	3473
907.441	3416
907.557	3249
907.674	3237
907.79	3207
907.907	3306
908.023	3393
908.139	3348
908.256	3424
908.372	3374
908.488	3367
908.604	3241
908.72	3218
908.836	3272
908.952	3241
909.068	3302
909.184	3496
909.3	3389
909.415	3519
909.531	3435
909.647	3283
909.762	3283
909.878	3264
909.993	3367
910.108	3291
910.224	3332
910.339	3428
910.454	3336
910.57	3264
910.685	3241
910.8	3561
910.915	3534
911.03	3443
911.145	3279
911.259	3260
911.374	3313
911.489	3218
911.604	3260
911.718	3112
911.833	3119
911.947	3032
912.062	3001
912.176	3150
912.291	3211
912.405	3214
912.519	3393
912.633	3473
912.748	3321
912.862	3272
912.976	3154
913.09	3047
913.204	3157
913.318	3222
913.431	3370
913.545	3317
913.659	3367
913.772	3313
913.886	3188
914	3188
914.113	3359
914.226	3405
914.34	3401
914.453	3199
914.566	3412
914.68	3279
914.793	3325
914.906	3135
915.019	3119
915.132	3058
915.245	3157
915.358	3214
915.47	3211
915.583	3279
915.696	3237
915.809	3454
915.921	3416
916.034	3260
916.146	3233
916.259	3230
916.371	3378
916.483	3378
916.595	3249
916.708	3359
916.82	3329
916.932	3321
917.044	3313
917.156	3340
917.268	3260
917.38	3313
917.491	3287
917.603	3401
917.715	3454
917.826	3443
917.938	3359
918.049	3207
918.161	3450
918.272	3572
918.384	3557
918.495	3492
918.606	3336
918.717	3291
918.828	3420
918.939	3447
919.05	3298
919.161	3382
919.272	3184
919.383	3294
919.494	3492
919.604	3713
919.715	3481
919.826	3409
919.936	3439
920.047	3622
920.157	3542
920.267	3797
920.378	3622
920.488	3572
920.598	3774
920.708	3949
920.818	3842
920.928	3819
921.038	3968
921.148	3987
921.258	3694
921.368	3633
921.477	3538
921.587	3564
921.697	3450
921.806	3622
921.916	3515
922.025	3355
922.134	3378
922.244	3283
922.353	3428
922.462	3249
922.571	3237
922.68	3119
922.789	3093
922.898	3138
923.007	3131
923.116	3184
923.224	3119
923.333	3218
923.442	3074
923.55	3074
923.659	3180
923.767	3192
923.876	3112
923.984	3302
924.092	3104
924.201	3180
924.309	3188
924.417	3237
924.525	3176
924.633	3230
924.741	4207
924.849	3051
924.956	3264
925.064	3077
925.172	3028
925.279	3089
925.387	3245
925.494	3161
925.602	3382
925.709	3340
925.816	3192
925.924	3256
926.031	3393
926.138	3332
926.245	3378
926.352	3256
926.459	3416
926.566	3504
926.673	3332
926.779	3260
926.886	3222
926.993	3173
927.099	3089
927.206	3085
927.312	3123
927.419	3203
927.525	3214
927.631	3287
927.737	3131
927.843	3085
927.95	3032
928.056	3154
928.162	3173
928.267	3268
928.373	3876
928.479	3302
928.585	3097
928.69	3226
928.796	3268
928.901	3176
929.007	3047
929.112	3188
929.218	3169
929.323	3112
929.428	3169
929.533	3264
929.638	3100
929.743	3211
929.848	3260
929.953	3249
930.058	3135
930.163	2971
930.267	3036
930.372	3188
930.477	3066
930.581	3359
930.685	3184
930.79	3070
930.894	3146
930.998	3081
931.103	3287
931.207	2937
931.311	2929
931.415	2929
931.519	2769
931.623	2834
