Data from test_V78500241_2003.txt Node
Date: Fri Mar 25 16:29:04 CST 2022
User: usil
Spectrometer: V785-0024
Trigger mode: 0
Integration Time (sec): 4.000000E-1
Scans to average: 1
Nonlinearity correction enabled: false
Boxcar width: 0
Storing dark spectrum: false
XAxis mode: Wavelengths
Number of Pixels in Spectrum: 1024
>>>>>Begin Spectral Data<<<<<
801.071	2918
801.214	2960
801.356	2857
801.499	2899
801.641	2868
801.783	2933
801.926	3070
802.068	2937
802.211	3009
802.353	3043
802.496	2990
802.638	2982
802.78	3043
802.923	3047
803.065	3017
803.208	2895
803.35	2891
803.492	2925
803.635	2918
803.777	2758
803.919	2861
804.061	3233
804.204	2975
804.346	2925
804.488	2864
804.63	2986
804.773	2887
804.915	2948
805.057	3100
805.199	2948
805.341	2944
805.483	3055
805.626	3032
805.768	2914
805.91	3043
806.052	3081
806.194	3020
806.336	3245
806.478	3024
806.62	2941
806.762	2990
806.904	3085
807.046	3203
807.188	2963
807.33	2910
807.472	2963
807.614	2925
807.756	2994
807.898	2941
808.04	2880
808.182	2990
808.324	2944
808.465	2883
808.607	2880
808.749	2819
808.891	2845
809.033	2960
809.174	2967
809.316	2891
809.458	2895
809.6	2781
809.741	2800
809.883	2800
810.025	2868
810.166	2883
810.308	2842
810.45	2834
810.591	2777
810.733	2785
810.875	2830
811.016	2785
811.158	2766
811.299	2823
811.441	2941
811.582	2887
811.724	2800
811.865	2842
812.007	2963
812.148	2883
812.29	2861
812.431	2895
812.573	2952
812.714	2941
812.855	3043
812.997	3051
813.138	3154
813.279	3005
813.421	2963
813.562	3005
813.703	2891
813.845	2883
813.986	2750
814.127	2724
814.268	2823
814.41	2834
814.551	2823
814.692	2887
814.833	2815
814.974	2895
815.115	2891
815.256	2842
815.397	2762
815.539	2872
815.68	2792
815.821	2811
815.962	2960
816.103	2922
816.244	2902
816.385	2872
816.526	2948
816.666	2910
816.807	2773
816.948	2872
817.089	2914
817.23	2868
817.371	2773
817.512	2804
817.653	2864
817.793	2826
817.934	2864
818.075	2937
818.216	2979
818.356	3024
818.497	2857
818.638	2830
818.778	2864
818.919	2769
819.06	2762
819.2	2914
819.341	2830
819.481	2781
819.622	2883
819.762	3093
819.903	3066
820.043	2963
820.184	2899
820.324	2895
820.465	3017
820.605	3013
820.746	2967
820.886	2929
821.026	3104
821.167	3161
821.307	3226
821.447	3268
821.588	3218
821.728	3195
821.868	3188
822.008	3062
822.149	3157
822.289	3230
822.429	3070
822.569	3116
822.709	3142
822.849	3013
822.99	3074
823.13	3127
823.27	3165
823.41	3089
823.55	3188
823.69	3146
823.83	3203
823.97	3085
824.11	3070
824.25	3009
824.389	3074
824.529	3074
824.669	3036
824.809	3180
824.949	3256
825.089	3249
825.228	3169
825.368	2979
825.508	2933
825.648	2948
825.787	2998
825.927	3058
826.067	2967
826.206	2944
826.346	3051
826.485	3043
826.625	3131
826.765	3249
826.904	3230
827.044	2960
827.183	2925
827.323	2849
827.462	2986
827.601	2933
827.741	2941
827.88	2944
828.02	2849
828.159	2979
828.298	3020
828.437	3104
828.577	3036
828.716	3199
828.855	3074
828.994	2899
829.134	2899
829.273	2918
829.412	2868
829.551	2845
829.69	2868
829.829	3020
829.968	3169
830.107	3001
830.246	3001
830.385	2941
830.524	2834
830.663	2815
830.802	2708
830.941	2629
831.08	2644
831.219	2754
831.357	2731
831.496	2925
831.635	2697
831.774	2636
831.913	2629
832.051	2549
832.19	2594
832.329	2674
832.467	2530
832.606	2461
832.744	2594
832.883	2571
833.022	2564
833.16	2625
833.299	2678
833.437	2705
833.576	2651
833.714	2705
833.852	2762
833.991	2766
834.129	2838
834.267	2861
834.406	2750
834.544	2895
834.682	2868
834.821	2872
834.959	3055
835.097	2918
835.235	3055
835.373	2982
835.511	3001
835.65	2952
835.788	2952
835.926	2800
836.064	2781
836.202	2864
836.34	3077
836.478	3131
836.615	3013
836.753	3116
836.891	3203
837.029	3192
837.167	3123
837.305	3047
837.443	3017
837.58	2944
837.718	3138
837.856	3020
837.993	3024
838.131	3104
838.269	3097
838.406	3066
838.544	3081
838.681	2929
838.819	2872
838.956	2800
839.094	2819
839.231	2883
839.369	2990
839.506	3344
839.643	3207
839.781	3017
839.918	2941
840.055	3047
840.193	3051
840.33	3070
840.467	3119
840.604	3161
840.742	3367
840.879	3043
841.016	3013
841.153	3138
841.29	3325
841.427	3294
841.564	3249
841.701	3302
841.838	3214
841.975	3142
842.112	3203
842.249	3043
842.385	3032
842.522	3241
842.659	3085
842.796	3043
842.933	3116
843.069	3024
843.206	3036
843.343	3180
843.479	3131
843.616	3142
843.752	2899
843.889	2845
844.025	3093
844.162	2883
844.298	3066
844.435	2914
844.571	2910
844.708	3074
844.844	3207
844.98	3230
845.117	3169
845.253	3058
845.389	3017
845.525	3081
845.661	3116
845.798	3020
845.934	3119
846.07	3070
846.206	3222
846.342	3298
846.478	3195
846.614	3058
846.75	3062
846.886	3017
847.022	3218
847.158	3150
847.294	3195
847.429	3264
847.565	3203
847.701	3492
847.837	3013
847.972	3005
848.108	3157
848.244	3142
848.379	3020
848.515	2929
848.65	2986
848.786	2990
848.921	3001
849.057	3077
849.192	3089
849.328	3058
849.463	3104
849.598	3032
849.734	3043
849.869	2937
850.004	2914
850.14	2933
850.275	2922
850.41	2861
850.545	2891
850.68	2941
850.815	2990
850.95	2994
851.085	3104
851.22	3097
851.355	3043
851.49	2960
851.625	2998
851.76	3047
851.895	2948
852.03	2899
852.165	3028
852.299	3108
852.434	3192
852.569	3157
852.703	3135
852.838	3249
852.973	3374
853.107	3351
853.242	3142
853.376	3085
853.511	2933
853.645	3036
853.78	3207
853.914	3119
854.048	3123
854.183	3104
854.317	3154
854.451	3291
854.585	3108
854.72	3085
854.854	3199
854.988	3043
855.122	3100
855.256	2967
855.39	3104
855.524	3237
855.658	3184
855.792	3131
855.926	3169
856.06	3203
856.194	3268
856.327	3119
856.461	3081
856.595	3089
856.729	3104
856.862	3241
856.996	3142
857.13	3192
857.263	3203
857.397	3291
857.53	3085
857.664	3180
857.797	3203
857.931	3253
858.064	3192
858.197	3214
858.331	3135
858.464	3081
858.597	2998
858.731	3089
858.864	3100
858.997	3074
859.13	3169
859.263	3161
859.396	3184
859.529	3108
859.662	3085
859.795	3039
859.928	3108
860.061	3241
860.194	3264
860.327	3138
860.46	3074
860.592	3237
860.725	3249
860.858	3207
860.99	3116
861.123	3039
861.256	3005
861.388	3146
861.521	3827
861.653	3051
861.786	2982
861.918	3005
862.05	3081
862.183	3097
862.315	3138
862.447	3165
862.58	3089
862.712	2937
862.844	2861
862.976	3039
863.108	2982
863.24	3294
863.372	2868
863.504	2948
863.636	2979
863.768	3036
863.9	2994
864.032	2887
864.164	2922
864.296	3028
864.428	3062
864.559	3097
864.691	3093
864.823	3081
864.954	3028
865.086	3028
865.217	3017
865.349	2941
865.48	2975
865.612	3077
865.743	3161
865.875	2948
866.006	2948
866.137	2952
866.269	2929
866.4	2929
866.531	2937
866.662	2891
866.793	2883
866.924	2925
867.055	2975
867.186	2902
867.317	2826
867.448	2842
867.579	2826
867.71	2880
867.841	2834
867.972	2899
868.103	2914
868.233	2902
868.364	2902
868.495	2906
868.625	3081
868.756	3157
868.886	2967
869.017	3058
869.147	3173
869.278	3188
869.408	3066
869.539	3036
869.669	3112
869.799	3043
869.929	3123
870.06	3127
870.19	3291
870.32	3260
870.45	3298
870.58	3355
870.71	3431
870.84	3439
870.97	3275
871.1	3211
871.23	3447
871.36	3450
871.489	3401
871.619	3382
871.749	3397
871.879	3431
872.008	3481
872.138	3348
872.267	3272
872.397	3146
872.526	3131
872.656	2986
872.785	3093
872.915	3237
873.044	3332
873.173	3214
873.303	3226
873.432	3214
873.561	3264
873.69	3173
873.819	3119
873.948	3203
874.077	3089
874.206	3047
874.335	3066
874.464	3195
874.593	3321
874.722	3272
874.851	3389
874.979	3351
875.108	3348
875.237	3195
875.365	3131
875.494	3154
875.623	3275
875.751	3074
875.88	3093
876.008	3173
876.136	3199
876.265	3329
876.393	3485
876.521	3409
876.65	3389
876.778	3313
876.906	3226
877.034	3218
877.162	3222
877.29	3176
877.418	3298
877.546	3256
877.674	3184
877.802	3230
877.93	3211
878.058	3176
878.185	3081
878.313	3180
878.441	3188
878.568	3100
878.696	3127
878.824	3233
878.951	3268
879.079	3431
879.206	3603
879.333	3393
879.461	3351
879.588	3344
879.715	3500
879.842	3618
879.97	3393
880.097	3176
880.224	3150
880.351	3154
880.478	3169
880.605	3173
880.732	3176
880.859	3492
880.986	3317
881.112	3332
881.239	3176
881.366	3093
881.493	3028
881.619	3051
881.746	3058
881.872	3085
881.999	3119
882.125	3089
882.252	3195
882.378	3294
882.505	3405
882.631	3291
882.757	3157
882.883	3195
883.01	3233
883.136	3192
883.262	3127
883.388	3100
883.514	3332
883.64	3393
883.766	3256
883.892	3173
884.018	3268
884.143	3382
884.269	3523
884.395	3249
884.52	3161
884.646	3150
884.772	3119
884.897	3116
885.023	3188
885.148	3344
885.274	3412
885.399	3351
885.524	3253
885.65	3294
885.775	3283
885.9	3302
886.025	3409
886.15	3340
886.275	3317
886.4	3230
886.525	3268
886.65	3249
886.775	3272
886.9	3507
887.025	3644
887.149	3412
887.274	3233
887.399	3173
887.523	3207
887.648	3154
887.773	3207
887.897	3401
888.021	3416
888.146	3302
888.27	3416
888.395	3511
888.519	3439
888.643	3454
888.767	3405
888.891	3344
889.015	3256
889.139	3302
889.263	3230
889.387	3370
889.511	3485
889.635	3424
889.759	3272
889.883	3279
890.006	3367
890.13	3485
890.254	3253
890.377	3367
890.501	3154
890.624	3165
890.748	3298
890.871	3173
890.995	3108
891.118	3051
891.241	3180
891.364	3214
891.488	3310
891.611	3176
891.734	3226
891.857	3253
891.98	3218
892.103	3298
892.226	3245
892.349	3180
892.471	3081
892.594	3222
892.717	3283
892.839	3249
892.962	3283
893.085	3363
893.207	3317
893.33	3112
893.452	3241
893.575	3382
893.697	3279
893.819	3481
893.941	3462
894.064	3431
894.186	3306
894.308	3283
894.43	3412
894.552	3526
894.674	3439
894.796	3291
894.918	3306
895.04	3279
895.161	3409
895.283	3393
895.405	3287
895.526	3359
895.648	3424
895.769	3439
895.891	3443
896.012	3507
896.134	3473
896.255	3401
896.376	3351
896.498	3363
896.619	3420
896.74	3340
896.861	3412
896.982	3698
897.103	3838
897.224	3557
897.345	3564
897.466	3386
897.587	3469
897.708	3614
897.828	3488
897.949	3428
898.07	3310
898.19	3416
898.311	3641
898.431	3454
898.552	3519
898.672	3595
898.792	3576
898.913	3462
899.033	3435
899.153	3272
899.273	3195
899.393	3268
899.513	3321
899.633	3344
899.753	3298
899.873	3264
899.993	3374
900.113	3336
900.232	3359
900.352	3317
900.472	3279
900.591	3218
900.711	3355
900.83	3230
900.95	3416
901.069	3443
901.189	3336
901.308	3165
901.427	3097
901.546	3184
901.665	3310
901.784	3298
901.904	3188
902.023	3192
902.141	3020
902.26	2971
902.379	3074
902.498	3047
902.617	3036
902.735	3184
902.854	3256
902.973	3192
903.091	3013
903.21	3081
903.328	3173
903.446	3097
903.565	3135
903.683	3165
903.801	3085
903.919	3230
904.038	3325
904.156	3157
904.274	3291
904.392	3264
904.51	3275
904.627	3317
904.745	3439
904.863	3485
904.981	3245
905.098	3161
905.216	3199
905.334	3302
905.451	3283
905.569	3310
905.686	3374
905.803	3443
905.921	3302
906.038	3428
906.155	3355
906.272	3233
906.389	3306
906.506	3184
906.623	3256
906.74	3275
906.857	3188
906.974	3233
907.091	3462
907.208	3572
907.324	3458
907.441	3405
907.557	3188
907.674	3241
907.79	3218
907.907	3279
908.023	3351
908.139	3359
908.256	3329
908.372	3348
908.488	3344
908.604	3279
908.72	3222
908.836	3249
908.952	3329
909.068	3378
909.184	3492
909.3	3382
909.415	3500
909.531	3454
909.647	3275
909.762	3264
909.878	3310
909.993	3348
910.108	3340
910.224	3348
910.339	3416
910.454	3321
910.57	3256
910.685	3222
910.8	3618
910.915	3545
911.03	3428
911.145	3241
911.259	3310
911.374	3306
911.489	3230
911.604	3180
911.718	3142
911.833	3131
911.947	3009
912.062	2963
912.176	3131
912.291	3203
912.405	3192
912.519	3370
912.633	3454
912.748	3321
912.862	3237
912.976	3157
913.09	3074
913.204	3157
913.318	3188
913.431	3313
913.545	3325
913.659	3420
913.772	3321
913.886	3275
914	3150
914.113	3363
914.226	3416
914.34	3412
914.453	3230
914.566	3355
914.68	3294
914.793	3329
914.906	3138
915.019	3108
915.132	3085
915.245	3188
915.358	3161
915.47	3222
915.583	3294
915.696	3294
915.809	3389
915.921	3389
916.034	3249
916.146	3237
916.259	3218
916.371	3397
916.483	3332
916.595	3230
916.708	3355
916.82	3291
916.932	3355
917.044	3367
917.156	3367
917.268	3241
917.38	3256
917.491	3283
917.603	3359
917.715	3431
917.826	3496
917.938	3401
918.049	3268
918.161	3412
918.272	3542
918.384	3587
918.495	3473
918.606	3321
918.717	3256
918.828	3389
918.939	3393
919.05	3348
919.161	3336
919.272	3176
919.383	3283
919.494	3507
919.604	3675
919.715	3500
919.826	3367
919.936	3443
920.047	3603
920.157	3542
920.267	3728
920.378	3595
920.488	3584
920.598	3736
920.708	3941
920.818	3827
920.928	3838
921.038	3991
921.148	3983
921.258	3671
921.368	3622
921.477	3591
921.587	3530
921.697	3447
921.806	3648
921.916	3523
922.025	3340
922.134	3340
922.244	3294
922.353	3416
922.462	3233
922.571	3256
922.68	3093
922.789	3062
922.898	3100
923.007	3070
923.116	3230
923.224	3169
923.333	3154
923.442	3089
923.55	3104
923.659	3138
923.767	3169
923.876	3112
923.984	3230
924.092	3097
924.201	3214
924.309	3218
924.417	3226
924.525	3211
924.633	3211
924.741	4147
924.849	3055
924.956	3253
925.064	3100
925.172	3009
925.279	3089
925.387	3207
925.494	3226
925.602	3374
925.709	3302
925.816	3214
925.924	3283
926.031	3393
926.138	3313
926.245	3348
926.352	3233
926.459	3443
926.566	3450
926.673	3325
926.779	3230
926.886	3291
926.993	3138
927.099	3093
927.206	3123
927.312	3100
927.419	3256
927.525	3195
927.631	3294
927.737	3123
927.843	3127
927.95	3005
928.056	3127
928.162	3173
928.267	3226
928.373	3861
928.479	3264
928.585	3051
928.69	3222
928.796	3237
928.901	3176
929.007	3062
929.112	3218
929.218	3154
929.323	3165
929.428	3154
929.533	3351
929.638	3135
929.743	3211
929.848	3298
929.953	3233
930.058	3127
930.163	2986
930.267	3032
930.372	3176
930.477	3055
930.581	3313
930.685	3154
930.79	3081
930.894	3138
930.998	3089
931.103	3325
931.207	2986
931.311	2963
931.415	2933
931.519	2766
931.623	2796
