Data from test_V78500241_716.txt Node
Date: Fri Mar 25 16:20:09 CST 2022
User: usil
Spectrometer: V785-0024
Trigger mode: 0
Integration Time (sec): 4.000000E-1
Scans to average: 1
Nonlinearity correction enabled: false
Boxcar width: 0
Storing dark spectrum: false
XAxis mode: Wavelengths
Number of Pixels in Spectrum: 1024
>>>>>Begin Spectral Data<<<<<
801.071	2899
801.214	2922
801.356	2891
801.499	2910
801.641	2857
801.783	2937
801.926	3074
802.068	3005
802.211	3013
802.353	3055
802.496	2929
802.638	2994
802.78	3017
802.923	3055
803.065	2979
803.208	2899
803.35	2922
803.492	2925
803.635	2929
803.777	2792
803.919	2880
804.061	3192
804.204	2960
804.346	2883
804.488	2834
804.63	3001
804.773	2868
804.915	2899
805.057	3062
805.199	2952
805.341	2971
805.483	3039
805.626	2956
805.768	2967
805.91	3085
806.052	3093
806.194	3055
806.336	3218
806.478	3013
806.62	2956
806.762	2956
806.904	3043
807.046	3192
807.188	2990
807.33	2880
807.472	3009
807.614	2887
807.756	3001
807.898	2925
808.04	2864
808.182	2979
808.324	2948
808.465	2902
808.607	2883
808.749	2819
808.891	2845
809.033	2952
809.174	2967
809.316	2864
809.458	2902
809.6	2750
809.741	2785
809.883	2746
810.025	2864
810.166	2868
810.308	2861
810.45	2853
810.591	2766
810.733	2724
810.875	2849
811.016	2762
811.158	2777
811.299	2819
811.441	2918
811.582	2876
811.724	2838
811.865	2796
812.007	2906
812.148	2883
812.29	2842
812.431	2861
812.573	2944
812.714	2918
812.855	3081
812.997	3024
813.138	3131
813.279	3024
813.421	2944
813.562	2948
813.703	2872
813.845	2891
813.986	2762
814.127	2754
814.268	2823
814.41	2864
814.551	2777
814.692	2872
814.833	2826
814.974	2902
815.115	2929
815.256	2834
815.397	2815
815.539	2842
815.68	2811
815.821	2823
815.962	2941
816.103	2925
816.244	2868
816.385	2861
816.526	2982
816.666	2910
816.807	2766
816.948	2872
817.089	2883
817.23	2853
817.371	2750
817.512	2811
817.653	2868
817.793	2823
817.934	2861
818.075	2944
818.216	2975
818.356	3009
818.497	2849
818.638	2781
818.778	2800
818.919	2777
819.06	2785
819.2	2880
819.341	2792
819.481	2773
819.622	2868
819.762	3066
819.903	3009
820.043	2887
820.184	2876
820.324	2906
820.465	2994
820.605	3005
820.746	3047
820.886	2922
821.026	3077
821.167	3127
821.307	3230
821.447	3279
821.588	3264
821.728	3214
821.868	3199
822.008	3077
822.149	3218
822.289	3211
822.429	3108
822.569	3077
822.709	3173
822.849	3062
822.99	3058
823.13	3157
823.27	3188
823.41	3138
823.55	3131
823.69	3116
823.83	3199
823.97	3093
824.11	2971
824.25	2994
824.389	3043
824.529	3097
824.669	3043
824.809	3176
824.949	3283
825.089	3180
825.228	3138
825.368	3005
825.508	2933
825.648	2986
825.787	3009
825.927	2994
826.067	2986
826.206	2975
826.346	3028
826.485	3039
826.625	3100
826.765	3256
826.904	3176
827.044	2994
827.183	2925
827.323	2880
827.462	2986
827.601	2914
827.741	2933
827.88	2933
828.02	2864
828.159	3005
828.298	3047
828.437	3104
828.577	3032
828.716	3241
828.855	3074
828.994	2922
829.134	2918
829.273	2891
829.412	2872
829.551	2895
829.69	2872
829.829	2937
829.968	3138
830.107	3024
830.246	3024
830.385	2929
830.524	2845
830.663	2834
830.802	2758
830.941	2667
831.08	2655
831.219	2769
831.357	2697
831.496	2918
831.635	2720
831.774	2686
831.913	2617
832.051	2549
832.19	2579
832.329	2682
832.467	2499
832.606	2503
832.744	2564
832.883	2590
833.022	2575
833.16	2670
833.299	2682
833.437	2674
833.576	2712
833.714	2697
833.852	2743
833.991	2750
834.129	2792
834.267	2796
834.406	2807
834.544	2883
834.682	2902
834.821	2868
834.959	3020
835.097	2887
835.235	3085
835.373	3020
835.511	3028
835.65	2948
835.788	2937
835.926	2807
836.064	2838
836.202	2853
836.34	3108
836.478	3165
836.615	3036
836.753	3142
836.891	3192
837.029	3135
837.167	3081
837.305	3055
837.443	3066
837.58	2941
837.718	3104
837.856	3055
837.993	3001
838.131	3116
838.269	3093
838.406	3100
838.544	3039
838.681	2956
838.819	2929
838.956	2792
839.094	2834
839.231	2899
839.369	3005
839.506	3382
839.643	3199
839.781	3005
839.918	2967
840.055	3020
840.193	3005
840.33	3062
840.467	3104
840.604	3165
840.742	3374
840.879	3081
841.016	3058
841.153	3077
841.29	3325
841.427	3253
841.564	3241
841.701	3298
841.838	3195
841.975	3150
842.112	3241
842.249	3100
842.385	3028
842.522	3222
842.659	3081
842.796	3074
842.933	3089
843.069	3013
843.206	3036
843.343	3146
843.479	3097
843.616	3135
843.752	2895
843.889	2868
844.025	3043
844.162	2895
844.298	3089
844.435	2948
844.571	2899
844.708	3070
844.844	3176
844.98	3207
845.117	3157
845.253	3032
845.389	2998
845.525	3112
845.661	3081
845.798	3024
845.934	3127
846.07	3036
846.206	3218
846.342	3325
846.478	3253
846.614	3074
846.75	3020
846.886	3043
847.022	3249
847.158	3138
847.294	3214
847.429	3268
847.565	3237
847.701	3485
847.837	2994
847.972	2982
848.108	3161
848.244	3108
848.379	2986
848.515	2948
848.65	2956
848.786	2929
848.921	3020
849.057	3097
849.192	3123
849.328	3062
849.463	3119
849.598	3043
849.734	3020
849.869	2998
850.004	2895
850.14	2933
850.275	2906
850.41	2819
850.545	2872
850.68	2906
850.815	2922
850.95	2971
851.085	3188
851.22	3097
851.355	3039
851.49	2979
851.625	3017
851.76	2956
851.895	2941
852.03	2910
852.165	3043
852.299	3093
852.434	3203
852.569	3116
852.703	3138
852.838	3245
852.973	3325
853.107	3336
853.242	3138
853.376	3089
853.511	2994
853.645	3013
853.78	3256
853.914	3173
854.048	3112
854.183	3093
854.317	3135
854.451	3287
854.585	3123
854.72	3097
854.854	3226
854.988	3024
855.122	3104
855.256	3005
855.39	3104
855.524	3264
855.658	3195
855.792	3146
855.926	3176
856.06	3188
856.194	3256
856.327	3135
856.461	3077
856.595	3032
856.729	3074
856.862	3222
856.996	3138
857.13	3154
857.263	3207
857.397	3272
857.53	3112
857.664	3188
857.797	3218
857.931	3253
858.064	3165
858.197	3211
858.331	3100
858.464	3043
858.597	2994
858.731	3089
858.864	3116
858.997	3058
859.13	3116
859.263	3161
859.396	3161
859.529	3043
859.662	3066
859.795	3066
859.928	3142
860.061	3249
860.194	3230
860.327	3131
860.46	3070
860.592	3249
860.725	3264
860.858	3245
860.99	3077
861.123	3013
861.256	3070
861.388	3135
861.521	3934
861.653	3032
861.786	2994
861.918	2990
862.05	3077
862.183	3089
862.315	3146
862.447	3214
862.58	3108
862.712	2952
862.844	2845
862.976	3028
863.108	2971
863.24	3462
863.372	2887
863.504	2941
863.636	2929
863.768	3055
863.9	2956
864.032	2906
864.164	2902
864.296	3013
864.428	3081
864.559	3108
864.691	3013
864.823	3089
864.954	3032
865.086	2990
865.217	2998
865.349	2963
865.48	2998
865.612	3043
865.743	3135
865.875	2967
866.006	2948
866.137	2960
866.269	2937
866.4	2952
866.531	2899
866.662	2880
866.793	2899
866.924	2880
867.055	2971
867.186	2948
867.317	2872
867.448	2830
867.579	2842
867.71	2880
867.841	2815
867.972	2887
868.103	2941
868.233	2880
868.364	2910
868.495	2845
868.625	3100
868.756	3146
868.886	2990
869.017	2986
869.147	3195
869.278	3161
869.408	3055
869.539	3001
869.669	3097
869.799	3047
869.929	3123
870.06	3116
870.19	3367
870.32	3283
870.45	3298
870.58	3367
870.71	3424
870.84	3477
870.97	3294
871.1	3233
871.23	3500
871.36	3431
871.489	3386
871.619	3355
871.749	3435
871.879	3431
872.008	3507
872.138	3359
872.267	3275
872.397	3157
872.526	3119
872.656	3005
872.785	3100
872.915	3241
873.044	3241
873.173	3214
873.303	3245
873.432	3249
873.561	3218
873.69	3154
873.819	3169
873.948	3176
874.077	3074
874.206	3028
874.335	3055
874.464	3230
874.593	3306
874.722	3256
874.851	3389
874.979	3344
875.108	3298
875.237	3165
875.365	3146
875.494	3142
875.623	3253
875.751	3093
875.88	3104
876.008	3192
876.136	3253
876.265	3355
876.393	3511
876.521	3447
876.65	3378
876.778	3298
876.906	3237
877.034	3176
877.162	3249
877.29	3195
877.418	3268
877.546	3226
877.674	3241
877.802	3211
877.93	3241
878.058	3146
878.185	3085
878.313	3180
878.441	3195
878.568	3081
878.696	3131
878.824	3279
878.951	3325
879.079	3424
879.206	3587
879.333	3469
879.461	3355
879.588	3340
879.715	3496
879.842	3584
879.97	3344
880.097	3150
880.224	3131
880.351	3169
880.478	3199
880.605	3176
880.732	3180
880.859	3511
880.986	3298
881.112	3329
881.239	3180
881.366	3097
881.493	3032
881.619	3013
881.746	3093
881.872	3074
881.999	3104
882.125	3169
882.252	3233
882.378	3264
882.505	3412
882.631	3230
882.757	3165
882.883	3180
883.01	3222
883.136	3150
883.262	3089
883.388	3055
883.514	3294
883.64	3336
883.766	3249
883.892	3203
884.018	3260
884.143	3355
884.269	3534
884.395	3192
884.52	3150
884.646	3180
884.772	3127
884.897	3104
885.023	3211
885.148	3302
885.274	3393
885.399	3389
885.524	3260
885.65	3294
885.775	3310
885.9	3256
886.025	3412
886.15	3340
886.275	3317
886.4	3165
886.525	3298
886.65	3306
886.775	3264
886.9	3492
887.025	3652
887.149	3409
887.274	3233
887.399	3176
887.523	3214
887.648	3176
887.773	3203
887.897	3355
888.021	3386
888.146	3253
888.27	3450
888.395	3534
888.519	3443
888.643	3431
888.767	3439
888.891	3260
889.015	3195
889.139	3268
889.263	3268
889.387	3424
889.511	3500
889.635	3485
889.759	3306
889.883	3275
890.006	3378
890.13	3462
890.254	3310
890.377	3313
890.501	3169
890.624	3173
890.748	3253
890.871	3188
890.995	3108
891.118	3043
891.241	3195
891.364	3214
891.488	3325
891.611	3169
891.734	3230
891.857	3249
891.98	3253
892.103	3332
892.226	3294
892.349	3203
892.471	3093
892.594	3260
892.717	3321
892.839	3249
892.962	3260
893.085	3363
893.207	3317
893.33	3211
893.452	3226
893.575	3302
893.697	3245
893.819	3454
893.941	3477
894.064	3424
894.186	3264
894.308	3264
894.43	3420
894.552	3500
894.674	3458
894.796	3245
894.918	3268
895.04	3279
895.161	3389
895.283	3359
895.405	3283
895.526	3367
895.648	3450
895.769	3469
895.891	3492
896.012	3443
896.134	3420
896.255	3428
896.376	3348
896.498	3382
896.619	3450
896.74	3397
896.861	3409
896.982	3675
897.103	3842
897.224	3595
897.345	3515
897.466	3378
897.587	3454
897.708	3656
897.828	3526
897.949	3424
898.07	3336
898.19	3401
898.311	3633
898.431	3447
898.552	3519
898.672	3618
898.792	3580
898.913	3542
899.033	3389
899.153	3294
899.273	3230
899.393	3306
899.513	3302
899.633	3321
899.753	3351
899.873	3321
899.993	3355
900.113	3317
900.232	3386
900.352	3355
900.472	3317
900.591	3253
900.711	3279
900.83	3237
900.95	3443
901.069	3507
901.189	3386
901.308	3203
901.427	3127
901.546	3150
901.665	3302
901.784	3294
901.904	3207
902.023	3138
902.141	3009
902.26	2998
902.379	3146
902.498	3055
902.617	3032
902.735	3211
902.854	3203
902.973	3188
903.091	3047
903.21	3066
903.328	3104
903.446	3112
903.565	3104
903.683	3184
903.801	3127
903.919	3230
904.038	3291
904.156	3188
904.274	3275
904.392	3237
904.51	3253
904.627	3348
904.745	3416
904.863	3511
904.981	3264
905.098	3169
905.216	3241
905.334	3317
905.451	3302
905.569	3283
905.686	3435
905.803	3420
905.921	3298
906.038	3409
906.155	3325
906.272	3260
906.389	3321
906.506	3188
906.623	3233
906.74	3310
906.857	3218
906.974	3253
907.091	3469
907.208	3572
907.324	3492
907.441	3378
907.557	3188
907.674	3214
907.79	3199
907.907	3298
908.023	3412
908.139	3344
908.256	3329
908.372	3397
908.488	3367
908.604	3245
908.72	3241
908.836	3302
908.952	3291
909.068	3317
909.184	3473
909.3	3401
909.415	3511
909.531	3462
909.647	3272
909.762	3291
909.878	3253
909.993	3348
910.108	3393
910.224	3287
910.339	3397
910.454	3336
910.57	3287
910.685	3237
910.8	3603
910.915	3538
911.03	3447
911.145	3260
911.259	3241
911.374	3329
911.489	3214
911.604	3195
911.718	3135
911.833	3176
911.947	3036
912.062	3001
912.176	3142
912.291	3169
912.405	3192
912.519	3420
912.633	3439
912.748	3340
912.862	3268
912.976	3199
913.09	3058
913.204	3127
913.318	3207
913.431	3348
913.545	3336
913.659	3374
913.772	3306
913.886	3180
914	3199
914.113	3340
914.226	3443
914.34	3374
914.453	3226
914.566	3405
914.68	3253
914.793	3291
914.906	3154
915.019	3104
915.132	3070
915.245	3195
915.358	3222
915.47	3226
915.583	3329
915.696	3275
915.809	3409
915.921	3416
916.034	3256
916.146	3245
916.259	3222
916.371	3355
916.483	3325
916.595	3275
916.708	3363
916.82	3332
916.932	3389
917.044	3325
917.156	3374
917.268	3203
917.38	3313
917.491	3283
917.603	3367
917.715	3435
917.826	3428
917.938	3348
918.049	3264
918.161	3409
918.272	3542
918.384	3561
918.495	3443
918.606	3370
918.717	3233
918.828	3359
918.939	3393
919.05	3264
919.161	3367
919.272	3161
919.383	3279
919.494	3492
919.604	3694
919.715	3507
919.826	3393
919.936	3458
920.047	3568
920.157	3519
920.267	3774
920.378	3603
920.488	3618
920.598	3747
920.708	3953
920.818	3812
920.928	3800
921.038	4025
921.148	3979
921.258	3713
921.368	3656
921.477	3576
921.587	3553
921.697	3507
921.806	3591
921.916	3523
922.025	3355
922.134	3397
922.244	3302
922.353	3439
922.462	3291
922.571	3214
922.68	3100
922.789	3066
922.898	3131
923.007	3089
923.116	3203
923.224	3199
923.333	3180
923.442	3119
923.55	3089
923.659	3154
923.767	3241
923.876	3127
923.984	3256
924.092	3097
924.201	3165
924.309	3233
924.417	3287
924.525	3180
924.633	3256
924.741	4204
924.849	3089
924.956	3241
925.064	3077
925.172	3066
925.279	3093
925.387	3165
925.494	3207
925.602	3344
925.709	3329
925.816	3173
925.924	3306
926.031	3412
926.138	3329
926.245	3378
926.352	3237
926.459	3374
926.566	3458
926.673	3340
926.779	3195
926.886	3253
926.993	3157
927.099	3184
927.206	3097
927.312	3119
927.419	3233
927.525	3184
927.631	3256
927.737	3112
927.843	3131
927.95	3043
928.056	3108
928.162	3169
928.267	3253
928.373	3899
928.479	3348
928.585	3020
928.69	3207
928.796	3230
928.901	3157
929.007	3081
929.112	3184
929.218	3157
929.323	3097
929.428	3138
929.533	3332
929.638	3135
929.743	3154
929.848	3245
929.953	3253
930.058	3165
930.163	2998
930.267	3036
930.372	3165
930.477	2990
930.581	3287
930.685	3203
930.79	3039
930.894	3104
930.998	3055
931.103	3264
931.207	2933
931.311	2941
931.415	2948
931.519	2773
931.623	2811
