Data from test_V78500241_911.txt Node
Date: Fri Mar 25 16:21:30 CST 2022
User: usil
Spectrometer: V785-0024
Trigger mode: 0
Integration Time (sec): 4.000000E-1
Scans to average: 1
Nonlinearity correction enabled: false
Boxcar width: 0
Storing dark spectrum: false
XAxis mode: Wavelengths
Number of Pixels in Spectrum: 1024
>>>>>Begin Spectral Data<<<<<
801.071	2944
801.214	3024
801.356	2906
801.499	2963
801.641	2895
801.783	2982
801.926	3097
802.068	2994
802.211	3055
802.353	3070
802.496	3028
802.638	3039
802.78	3116
802.923	3173
803.065	3058
803.208	2941
803.35	2986
803.492	2933
803.635	2944
803.777	2792
803.919	2887
804.061	3207
804.204	2998
804.346	2929
804.488	2899
804.63	3020
804.773	2941
804.915	2967
805.057	3085
805.199	2971
805.341	2986
805.483	3081
805.626	3024
805.768	2994
805.91	3093
806.052	3146
806.194	3097
806.336	3253
806.478	3066
806.62	2960
806.762	3013
806.904	3131
807.046	3222
807.188	2963
807.33	2933
807.472	3062
807.614	2952
807.756	3017
807.898	2944
808.04	2918
808.182	2967
808.324	2979
808.465	2910
808.607	2906
808.749	2876
808.891	2876
809.033	2998
809.174	3005
809.316	2906
809.458	2914
809.6	2788
809.741	2819
809.883	2785
810.025	2902
810.166	2868
810.308	2845
810.45	2891
810.591	2781
810.733	2830
810.875	2880
811.016	2807
811.158	2785
811.299	2834
811.441	2948
811.582	2876
811.724	2845
811.865	2838
812.007	2895
812.148	2891
812.29	2899
812.431	2902
812.573	2967
812.714	3020
812.855	3058
812.997	3066
813.138	3184
813.279	3024
813.421	3024
813.562	2941
813.703	2902
813.845	2910
813.986	2807
814.127	2746
814.268	2804
814.41	2868
814.551	2823
814.692	2899
814.833	2834
814.974	2933
815.115	2986
815.256	2876
815.397	2834
815.539	2872
815.68	2788
815.821	2811
815.962	2944
816.103	2944
816.244	2922
816.385	2849
816.526	2986
816.666	2948
816.807	2800
816.948	2922
817.089	2960
817.23	2891
817.371	2796
817.512	2853
817.653	2899
817.793	2853
817.934	2899
818.075	2990
818.216	2994
818.356	3032
818.497	2922
818.638	2807
818.778	2868
818.919	2819
819.06	2807
819.2	2899
819.341	2830
819.481	2788
819.622	2948
819.762	3112
819.903	3028
820.043	2937
820.184	2948
820.324	2914
820.465	3036
820.605	3001
820.746	3036
820.886	2986
821.026	3093
821.167	3157
821.307	3302
821.447	3348
821.588	3230
821.728	3222
821.868	3218
822.008	3108
822.149	3222
822.289	3291
822.429	3157
822.569	3131
822.709	3222
822.849	3039
822.99	3123
823.13	3195
823.27	3230
823.41	3108
823.55	3176
823.69	3222
823.83	3211
823.97	3085
824.11	3043
824.25	2990
824.389	3074
824.529	3138
824.669	3070
824.809	3287
824.949	3287
825.089	3268
825.228	3195
825.368	3032
825.508	2910
825.648	2979
825.787	3062
825.927	3028
826.067	2971
826.206	2975
826.346	3039
826.485	3074
826.625	3169
826.765	3321
826.904	3207
827.044	3028
827.183	2937
827.323	2902
827.462	3001
827.601	2922
827.741	2948
827.88	2990
828.02	2861
828.159	2971
828.298	3085
828.437	3135
828.577	3058
828.716	3272
828.855	3123
828.994	2952
829.134	2910
829.273	2960
829.412	2880
829.551	2887
829.69	2902
829.829	3024
829.968	3142
830.107	3051
830.246	3036
830.385	2918
830.524	2906
830.663	2830
830.802	2739
830.941	2674
831.08	2670
831.219	2788
831.357	2773
831.496	2944
831.635	2701
831.774	2655
831.913	2682
832.051	2568
832.19	2594
832.329	2735
832.467	2537
832.606	2495
832.744	2571
832.883	2579
833.022	2629
833.16	2670
833.299	2697
833.437	2667
833.576	2727
833.714	2743
833.852	2735
833.991	2762
834.129	2853
834.267	2864
834.406	2800
834.544	2891
834.682	2887
834.821	2853
834.959	3062
835.097	2906
835.235	3100
835.373	3020
835.511	3024
835.65	2982
835.788	2963
835.926	2838
836.064	2842
836.202	2842
836.34	3077
836.478	3161
836.615	3055
836.753	3146
836.891	3237
837.029	3184
837.167	3127
837.305	3066
837.443	3077
837.58	2971
837.718	3127
837.856	3112
837.993	3020
838.131	3138
838.269	3116
838.406	3081
838.544	3081
838.681	2929
838.819	2944
838.956	2857
839.094	2842
839.231	2918
839.369	3017
839.506	3355
839.643	3222
839.781	3024
839.918	2994
840.055	3066
840.193	3070
840.33	3055
840.467	3093
840.604	3157
840.742	3435
840.879	3070
841.016	3062
841.153	3165
841.29	3355
841.427	3287
841.564	3264
841.701	3313
841.838	3241
841.975	3192
842.112	3245
842.249	3070
842.385	3005
842.522	3287
842.659	3093
842.796	3089
842.933	3116
843.069	3123
843.206	3043
843.343	3218
843.479	3142
843.616	3138
843.752	2937
843.889	2895
844.025	3089
844.162	2902
844.298	3077
844.435	2956
844.571	2963
844.708	3119
844.844	3222
844.98	3233
845.117	3192
845.253	3097
845.389	3013
845.525	3097
845.661	3108
845.798	3058
845.934	3146
846.07	3047
846.206	3222
846.342	3310
846.478	3241
846.614	3062
846.75	3070
846.886	3020
847.022	3256
847.158	3157
847.294	3199
847.429	3237
847.565	3211
847.701	3519
847.837	3039
847.972	3013
848.108	3192
848.244	3135
848.379	3013
848.515	2941
848.65	2933
848.786	2986
848.921	3032
849.057	3089
849.192	3161
849.328	3047
849.463	3081
849.598	3089
849.734	3051
849.869	2982
850.004	2937
850.14	3028
850.275	2922
850.41	2880
850.545	2880
850.68	2925
850.815	2971
850.95	2941
851.085	3226
851.22	3097
851.355	3074
851.49	2979
851.625	3039
851.76	3051
851.895	2941
852.03	2918
852.165	3036
852.299	3108
852.434	3207
852.569	3127
852.703	3233
852.838	3268
852.973	3332
853.107	3344
853.242	3146
853.376	3070
853.511	2952
853.645	3032
853.78	3256
853.914	3131
854.048	3119
854.183	3089
854.317	3180
854.451	3325
854.585	3131
854.72	3085
854.854	3203
854.988	3058
855.122	3123
855.256	3036
855.39	3119
855.524	3218
855.658	3203
855.792	3199
855.926	3195
856.06	3218
856.194	3294
856.327	3154
856.461	3081
856.595	3116
856.729	3104
856.862	3253
856.996	3154
857.13	3230
857.263	3226
857.397	3291
857.53	3131
857.664	3207
857.797	3264
857.931	3313
858.064	3135
858.197	3268
858.331	3180
858.464	3077
858.597	3017
858.731	3119
858.864	3127
858.997	3112
859.13	3142
859.263	3226
859.396	3207
859.529	3081
859.662	3066
859.795	3070
859.928	3207
860.061	3237
860.194	3310
860.327	3135
860.46	3112
860.592	3237
860.725	3272
860.858	3211
860.99	3081
861.123	3074
861.256	3028
861.388	3127
861.521	3880
861.653	3047
861.786	2994
861.918	3009
862.05	3081
862.183	3108
862.315	3116
862.447	3192
862.58	3119
862.712	2952
862.844	2914
862.976	3017
863.108	3013
863.24	3351
863.372	2887
863.504	2952
863.636	2910
863.768	3055
863.9	2994
864.032	2941
864.164	2925
864.296	3036
864.428	3119
864.559	3108
864.691	3089
864.823	3070
864.954	3055
865.086	3051
865.217	3009
865.349	2960
865.48	2998
865.612	3017
865.743	3195
865.875	2979
866.006	2948
866.137	2963
866.269	2956
866.4	2952
866.531	2948
866.662	2906
866.793	2872
866.924	2918
867.055	2986
867.186	2944
867.317	2906
867.448	2872
867.579	2853
867.71	2861
867.841	2819
867.972	2918
868.103	2895
868.233	2910
868.364	2891
868.495	2910
868.625	3051
868.756	3154
868.886	2960
869.017	3028
869.147	3173
869.278	3192
869.408	3032
869.539	2998
869.669	3100
869.799	3036
869.929	3142
870.06	3112
870.19	3313
870.32	3310
870.45	3298
870.58	3359
870.71	3458
870.84	3462
870.97	3294
871.1	3249
871.23	3515
871.36	3458
871.489	3378
871.619	3359
871.749	3416
871.879	3428
872.008	3454
872.138	3359
872.267	3298
872.397	3131
872.526	3100
872.656	3005
872.785	3066
872.915	3241
873.044	3329
873.173	3233
873.303	3253
873.432	3264
873.561	3245
873.69	3188
873.819	3165
873.948	3218
874.077	3116
874.206	3017
874.335	3097
874.464	3192
874.593	3351
874.722	3241
874.851	3424
874.979	3355
875.108	3321
875.237	3207
875.365	3157
875.494	3142
875.623	3230
875.751	3077
875.88	3108
876.008	3188
876.136	3211
876.265	3370
876.393	3492
876.521	3420
876.65	3378
876.778	3355
876.906	3253
877.034	3226
877.162	3245
877.29	3207
877.418	3260
877.546	3241
877.674	3214
877.802	3241
877.93	3203
878.058	3127
878.185	3093
878.313	3169
878.441	3237
878.568	3081
878.696	3169
878.824	3256
878.951	3260
879.079	3420
879.206	3606
879.333	3458
879.461	3302
879.588	3344
879.715	3469
879.842	3584
879.97	3378
880.097	3184
880.224	3116
880.351	3184
880.478	3211
880.605	3169
880.732	3199
880.859	3545
880.986	3302
881.112	3313
881.239	3203
881.366	3066
881.493	3039
881.619	3032
881.746	3100
881.872	3097
881.999	3097
882.125	3146
882.252	3237
882.378	3283
882.505	3405
882.631	3310
882.757	3165
882.883	3214
883.01	3199
883.136	3169
883.262	3062
883.388	3116
883.514	3317
883.64	3382
883.766	3355
883.892	3211
884.018	3245
884.143	3416
884.269	3542
884.395	3214
884.52	3150
884.646	3195
884.772	3142
884.897	3097
885.023	3195
885.148	3294
885.274	3378
885.399	3363
885.524	3275
885.65	3256
885.775	3317
885.9	3279
886.025	3382
886.15	3382
886.275	3275
886.4	3226
886.525	3329
886.65	3226
886.775	3264
886.9	3507
887.025	3584
887.149	3439
887.274	3237
887.399	3131
887.523	3233
887.648	3192
887.773	3176
887.897	3382
888.021	3370
888.146	3260
888.27	3397
888.395	3526
888.519	3450
888.643	3412
888.767	3458
888.891	3268
889.015	3279
889.139	3313
889.263	3233
889.387	3389
889.511	3500
889.635	3431
889.759	3268
889.883	3294
890.006	3382
890.13	3488
890.254	3268
890.377	3409
890.501	3222
890.624	3154
890.748	3260
890.871	3165
890.995	3097
891.118	3047
891.241	3154
891.364	3222
891.488	3294
891.611	3176
891.734	3245
891.857	3279
891.98	3241
892.103	3348
892.226	3275
892.349	3184
892.471	3135
892.594	3249
892.717	3245
892.839	3268
892.962	3310
893.085	3351
893.207	3317
893.33	3165
893.452	3211
893.575	3355
893.697	3253
893.819	3447
893.941	3511
894.064	3424
894.186	3287
894.308	3294
894.43	3466
894.552	3534
894.674	3462
894.796	3283
894.918	3306
895.04	3241
895.161	3431
895.283	3386
895.405	3313
895.526	3389
895.648	3447
895.769	3416
895.891	3466
896.012	3454
896.134	3473
896.255	3409
896.376	3431
896.498	3344
896.619	3439
896.74	3374
896.861	3412
896.982	3743
897.103	3846
897.224	3587
897.345	3511
897.466	3420
897.587	3523
897.708	3576
897.828	3526
897.949	3443
898.07	3298
898.19	3401
898.311	3625
898.431	3443
898.552	3488
898.672	3568
898.792	3580
898.913	3511
899.033	3401
899.153	3260
899.273	3184
899.393	3291
899.513	3313
899.633	3340
899.753	3275
899.873	3283
899.993	3374
900.113	3321
900.232	3348
900.352	3336
900.472	3291
900.591	3195
900.711	3321
900.83	3249
900.95	3397
901.069	3469
901.189	3336
901.308	3192
901.427	3104
901.546	3161
901.665	3325
901.784	3348
901.904	3207
902.023	3180
902.141	3024
902.26	3005
902.379	3108
902.498	3062
902.617	3024
902.735	3203
902.854	3249
902.973	3203
903.091	3028
903.21	3039
903.328	3100
903.446	3112
903.565	3097
903.683	3203
903.801	3100
903.919	3230
904.038	3291
904.156	3146
904.274	3275
904.392	3241
904.51	3272
904.627	3348
904.745	3424
904.863	3500
904.981	3245
905.098	3173
905.216	3211
905.334	3310
905.451	3306
905.569	3325
905.686	3412
905.803	3469
905.921	3302
906.038	3412
906.155	3382
906.272	3302
906.389	3348
906.506	3211
906.623	3226
906.74	3272
906.857	3195
906.974	3245
907.091	3477
907.208	3584
907.324	3481
907.441	3370
907.557	3195
907.674	3218
907.79	3245
907.907	3260
908.023	3405
908.139	3355
908.256	3336
908.372	3386
908.488	3321
908.604	3260
908.72	3272
908.836	3249
908.952	3279
909.068	3332
909.184	3488
909.3	3409
909.415	3496
909.531	3435
909.647	3279
909.762	3291
909.878	3260
909.993	3332
910.108	3313
910.224	3348
910.339	3420
910.454	3313
910.57	3287
910.685	3230
910.8	3572
910.915	3568
911.03	3473
911.145	3253
911.259	3272
911.374	3313
911.489	3256
911.604	3264
911.718	3074
911.833	3138
911.947	3024
912.062	2963
912.176	3188
912.291	3188
912.405	3237
912.519	3412
912.633	3401
912.748	3317
912.862	3256
912.976	3157
913.09	3097
913.204	3123
913.318	3211
913.431	3363
913.545	3325
913.659	3393
913.772	3294
913.886	3222
914	3161
914.113	3310
914.226	3397
914.34	3374
914.453	3230
914.566	3428
914.68	3287
914.793	3294
914.906	3104
915.019	3131
915.132	3085
915.245	3161
915.358	3203
915.47	3256
915.583	3260
915.696	3336
915.809	3401
915.921	3393
916.034	3222
916.146	3253
916.259	3233
916.371	3370
916.483	3370
916.595	3272
916.708	3310
916.82	3325
916.932	3302
917.044	3359
917.156	3351
917.268	3256
917.38	3279
917.491	3287
917.603	3355
917.715	3447
917.826	3439
917.938	3370
918.049	3321
918.161	3439
918.272	3591
918.384	3542
918.495	3466
918.606	3351
918.717	3253
918.828	3340
918.939	3393
919.05	3287
919.161	3325
919.272	3192
919.383	3245
919.494	3469
919.604	3671
919.715	3477
919.826	3393
919.936	3443
920.047	3576
920.157	3542
920.267	3740
920.378	3614
920.488	3553
920.598	3770
920.708	3941
920.818	3831
920.928	3835
921.038	3994
921.148	3983
921.258	3698
921.368	3614
921.477	3629
921.587	3542
921.697	3439
921.806	3622
921.916	3519
922.025	3351
922.134	3382
922.244	3348
922.353	3435
922.462	3264
922.571	3230
922.68	3100
922.789	3051
922.898	3108
923.007	3116
923.116	3211
923.224	3150
923.333	3169
923.442	3112
923.55	3108
923.659	3097
923.767	3211
923.876	3127
923.984	3207
924.092	3062
924.201	3199
924.309	3230
924.417	3264
924.525	3157
924.633	3256
924.741	4177
924.849	3051
924.956	3256
925.064	3081
925.172	2998
925.279	3085
925.387	3203
925.494	3176
925.602	3378
925.709	3370
925.816	3203
925.924	3268
926.031	3367
926.138	3351
926.245	3351
926.352	3256
926.459	3393
926.566	3447
926.673	3332
926.779	3245
926.886	3253
926.993	3135
927.099	3123
927.206	3085
927.312	3131
927.419	3237
927.525	3233
927.631	3218
927.737	3093
927.843	3104
927.95	3017
928.056	3161
928.162	3184
928.267	3245
928.373	3819
928.479	3260
928.585	3039
928.69	3176
928.796	3268
928.901	3161
929.007	3020
929.112	3173
929.218	3142
929.323	3173
929.428	3142
929.533	3298
929.638	3104
929.743	3195
929.848	3245
929.953	3192
930.058	3093
930.163	2994
930.267	3024
930.372	3199
930.477	3039
930.581	3264
930.685	3195
930.79	3028
930.894	3081
930.998	3020
931.103	3264
931.207	2952
931.311	2941
931.415	2895
931.519	2766
931.623	2830
