Data from test_V78500241_97.txt Node
Date: Fri Mar 25 16:15:52 CST 2022
User: usil
Spectrometer: V785-0024
Trigger mode: 0
Integration Time (sec): 4.000000E-1
Scans to average: 1
Nonlinearity correction enabled: false
Boxcar width: 0
Storing dark spectrum: false
XAxis mode: Wavelengths
Number of Pixels in Spectrum: 1024
>>>>>Begin Spectral Data<<<<<
801.071	2899
801.214	2952
801.356	2880
801.499	2887
801.641	2899
801.783	2944
801.926	3047
802.068	2994
802.211	3032
802.353	3043
802.496	2998
802.638	3043
802.78	3097
802.923	3108
803.065	3043
803.208	2899
803.35	2979
803.492	2952
803.635	2910
803.777	2754
803.919	2887
804.061	3245
804.204	2979
804.346	2922
804.488	2845
804.63	2990
804.773	2891
804.915	2925
805.057	3108
805.199	2929
805.341	2975
805.483	3112
805.626	3005
805.768	2971
805.91	3112
806.052	3131
806.194	3070
806.336	3249
806.478	3055
806.62	2986
806.762	3047
806.904	3055
807.046	3188
807.188	3009
807.33	2933
807.472	3047
807.614	2963
807.756	3020
807.898	2963
808.04	2937
808.182	2986
808.324	2975
808.465	2864
808.607	2895
808.749	2826
808.891	2899
809.033	3036
809.174	2982
809.316	2925
809.458	2891
809.6	2785
809.741	2796
809.883	2781
810.025	2864
810.166	2838
810.308	2895
810.45	2899
810.591	2781
810.733	2788
810.875	2872
811.016	2807
811.158	2777
811.299	2807
811.441	2933
811.582	2941
811.724	2842
811.865	2849
812.007	2937
812.148	2902
812.29	2883
812.431	2906
812.573	2952
812.714	2990
812.855	3081
812.997	3074
813.138	3135
813.279	3043
813.421	2982
813.562	2986
813.703	2899
813.845	2910
813.986	2823
814.127	2758
814.268	2849
814.41	2899
814.551	2849
814.692	2895
814.833	2796
814.974	2952
815.115	2998
815.256	2876
815.397	2834
815.539	2880
815.68	2800
815.821	2842
815.962	2975
816.103	2952
816.244	2883
816.385	2857
816.526	2975
816.666	2937
816.807	2769
816.948	2910
817.089	2925
817.23	2838
817.371	2804
817.512	2773
817.653	2861
817.793	2823
817.934	2899
818.075	2990
818.216	3005
818.356	3066
818.497	2914
818.638	2807
818.778	2872
818.919	2826
819.06	2796
819.2	2891
819.341	2792
819.481	2823
819.622	2979
819.762	3116
819.903	3024
820.043	2937
820.184	2922
820.324	2933
820.465	3051
820.605	3077
820.746	3047
820.886	2929
821.026	3131
821.167	3192
821.307	3260
821.447	3310
821.588	3260
821.728	3241
821.868	3268
822.008	3112
822.149	3218
822.289	3218
822.429	3146
822.569	3097
822.709	3180
822.849	3058
822.99	3127
823.13	3169
823.27	3253
823.41	3169
823.55	3195
823.69	3165
823.83	3199
823.97	3142
824.11	3009
824.25	3001
824.389	3066
824.529	3127
824.669	3097
824.809	3218
824.949	3313
825.089	3230
825.228	3173
825.368	3001
825.508	3024
825.648	2982
825.787	3032
825.927	3051
826.067	2982
826.206	2971
826.346	3074
826.485	3119
826.625	3157
826.765	3321
826.904	3233
827.044	3028
827.183	2967
827.323	2891
827.462	3001
827.601	2906
827.741	2956
827.88	2986
828.02	2861
828.159	3001
828.298	3070
828.437	3127
828.577	3058
828.716	3275
828.855	3055
828.994	2948
829.134	2861
829.273	2918
829.412	2872
829.551	2872
829.69	2929
829.829	2979
829.968	3188
830.107	3032
830.246	3039
830.385	2891
830.524	2868
830.663	2864
830.802	2754
830.941	2667
831.08	2651
831.219	2788
831.357	2785
831.496	3017
831.635	2731
831.774	2640
831.913	2667
832.051	2556
832.19	2621
832.329	2708
832.467	2552
832.606	2533
832.744	2590
832.883	2590
833.022	2587
833.16	2682
833.299	2689
833.437	2712
833.576	2720
833.714	2754
833.852	2716
833.991	2804
834.129	2880
834.267	2838
834.406	2830
834.544	2906
834.682	2899
834.821	2902
834.959	3077
835.097	2887
835.235	3097
835.373	3062
835.511	3024
835.65	3001
835.788	2979
835.926	2845
836.064	2819
836.202	2861
836.34	3077
836.478	3165
836.615	3062
836.753	3119
836.891	3218
837.029	3161
837.167	3157
837.305	3047
837.443	3055
837.58	2998
837.718	3154
837.856	3066
837.993	3077
838.131	3123
838.269	3093
838.406	3127
838.544	3055
838.681	2944
838.819	2941
838.956	2811
839.094	2853
839.231	2937
839.369	3062
839.506	3393
839.643	3226
839.781	3020
839.918	2990
840.055	3047
840.193	3062
840.33	3104
840.467	3138
840.604	3123
840.742	3435
840.879	3116
841.016	3024
841.153	3157
841.29	3359
841.427	3302
841.564	3298
841.701	3351
841.838	3253
841.975	3237
842.112	3241
842.249	3100
842.385	3055
842.522	3249
842.659	3108
842.796	3085
842.933	3157
843.069	3058
843.206	3055
843.343	3184
843.479	3127
843.616	3176
843.752	2929
843.889	2910
844.025	3150
844.162	2868
844.298	3062
844.435	2960
844.571	2937
844.708	3089
844.844	3192
844.98	3249
845.117	3233
845.253	3024
845.389	3032
845.525	3127
845.661	3131
845.798	3001
845.934	3142
846.07	3089
846.206	3241
846.342	3321
846.478	3226
846.614	3112
846.75	3066
846.886	3085
847.022	3237
847.158	3176
847.294	3241
847.429	3268
847.565	3226
847.701	3530
847.837	3077
847.972	3039
848.108	3214
848.244	3165
848.379	3039
848.515	2933
848.65	2937
848.786	3001
848.921	3055
849.057	3138
849.192	3154
849.328	3112
849.463	3169
849.598	3100
849.734	3036
849.869	3017
850.004	2956
850.14	2937
850.275	2948
850.41	2853
850.545	2902
850.68	2948
850.815	2979
850.95	3009
851.085	3203
851.22	3127
851.355	3047
851.49	2971
851.625	3017
851.76	3032
851.895	3009
852.03	2925
852.165	3058
852.299	3100
852.434	3211
852.569	3131
852.703	3233
852.838	3313
852.973	3367
853.107	3336
853.242	3169
853.376	3150
853.511	3001
853.645	3066
853.78	3230
853.914	3154
854.048	3154
854.183	3081
854.317	3188
854.451	3302
854.585	3131
854.72	3081
854.854	3241
854.988	3058
855.122	3135
855.256	2990
855.39	3138
855.524	3260
855.658	3211
855.792	3195
855.926	3222
856.06	3230
856.194	3256
856.327	3165
856.461	3100
856.595	3116
856.729	3097
856.862	3207
856.996	3157
857.13	3226
857.263	3279
857.397	3272
857.53	3142
857.664	3195
857.797	3268
857.931	3260
858.064	3169
858.197	3245
858.331	3123
858.464	3100
858.597	3020
858.731	3112
858.864	3123
858.997	3131
859.13	3157
859.263	3195
859.396	3237
859.529	3100
859.662	3112
859.795	3070
859.928	3169
860.061	3264
860.194	3313
860.327	3119
860.46	3123
860.592	3256
860.725	3275
860.858	3264
860.99	3146
861.123	3077
861.256	3074
861.388	3146
861.521	3724
861.653	3062
861.786	3013
861.918	3055
862.05	3085
862.183	3131
862.315	3135
862.447	3233
862.58	3123
862.712	2979
862.844	2895
862.976	3047
863.108	3062
863.24	3443
863.372	2922
863.504	2952
863.636	2967
863.768	3043
863.9	3020
864.032	2922
864.164	2982
864.296	3028
864.428	3085
864.559	3161
864.691	3077
864.823	3074
864.954	3085
865.086	3074
865.217	3017
865.349	2979
865.48	3036
865.612	3043
865.743	3180
865.875	2994
866.006	2971
866.137	2975
866.269	2963
866.4	2967
866.531	2948
866.662	2883
866.793	2933
866.924	2929
867.055	2990
867.186	2933
867.317	2922
867.448	2864
867.579	2849
867.71	2895
867.841	2861
867.972	2922
868.103	2925
868.233	2899
868.364	2906
868.495	2914
868.625	3150
868.756	3188
868.886	2975
869.017	3085
869.147	3233
869.278	3199
869.408	3100
869.539	3036
869.669	3116
869.799	3051
869.929	3135
870.06	3146
870.19	3344
870.32	3287
870.45	3336
870.58	3363
870.71	3492
870.84	3443
870.97	3321
871.1	3279
871.23	3507
871.36	3481
871.489	3412
871.619	3447
871.749	3458
871.879	3454
872.008	3473
872.138	3397
872.267	3275
872.397	3195
872.526	3142
872.656	3047
872.785	3104
872.915	3291
873.044	3340
873.173	3283
873.303	3264
873.432	3283
873.561	3268
873.69	3150
873.819	3165
873.948	3230
874.077	3138
874.206	3058
874.335	3116
874.464	3245
874.593	3378
874.722	3279
874.851	3420
874.979	3409
875.108	3355
875.237	3237
875.365	3184
875.494	3199
875.623	3260
875.751	3119
875.88	3131
876.008	3169
876.136	3233
876.265	3359
876.393	3557
876.521	3439
876.65	3435
876.778	3306
876.906	3268
877.034	3203
877.162	3218
877.29	3180
877.418	3253
877.546	3272
877.674	3298
877.802	3222
877.93	3283
878.058	3180
878.185	3100
878.313	3203
878.441	3222
878.568	3051
878.696	3245
878.824	3287
878.951	3313
879.079	3485
879.206	3705
879.333	3466
879.461	3329
879.588	3340
879.715	3515
879.842	3603
879.97	3420
880.097	3173
880.224	3146
880.351	3207
880.478	3211
880.605	3218
880.732	3226
880.859	3530
880.986	3268
881.112	3344
881.239	3195
881.366	3127
881.493	3074
881.619	3058
881.746	3116
881.872	3104
881.999	3119
882.125	3222
882.252	3294
882.378	3313
882.505	3447
882.631	3321
882.757	3199
882.883	3268
883.01	3249
883.136	3188
883.262	3097
883.388	3138
883.514	3378
883.64	3397
883.766	3283
883.892	3233
884.018	3253
884.143	3424
884.269	3599
884.395	3249
884.52	3157
884.646	3184
884.772	3173
884.897	3180
885.023	3226
885.148	3363
885.274	3435
885.399	3386
885.524	3287
885.65	3306
885.775	3355
885.9	3298
886.025	3435
886.15	3393
886.275	3325
886.4	3222
886.525	3332
886.65	3313
886.775	3287
886.9	3561
887.025	3679
887.149	3454
887.274	3283
887.399	3169
887.523	3218
887.648	3184
887.773	3218
887.897	3409
888.021	3389
888.146	3317
888.27	3416
888.395	3580
888.519	3420
888.643	3473
888.767	3473
888.891	3351
889.015	3253
889.139	3340
889.263	3249
889.387	3458
889.511	3507
889.635	3477
889.759	3294
889.883	3302
890.006	3386
890.13	3488
890.254	3313
890.377	3340
890.501	3241
890.624	3230
890.748	3287
890.871	3180
890.995	3157
891.118	3104
891.241	3222
891.364	3268
891.488	3363
891.611	3241
891.734	3253
891.857	3294
891.98	3268
892.103	3359
892.226	3287
892.349	3233
892.471	3123
892.594	3279
892.717	3310
892.839	3279
892.962	3294
893.085	3378
893.207	3287
893.33	3180
893.452	3245
893.575	3386
893.697	3275
893.819	3485
893.941	3507
894.064	3420
894.186	3310
894.308	3310
894.43	3447
894.552	3568
894.674	3504
894.796	3298
894.918	3310
895.04	3306
895.161	3450
895.283	3397
895.405	3306
895.526	3344
895.648	3439
895.769	3420
895.891	3481
896.012	3477
896.134	3469
896.255	3409
896.376	3401
896.498	3370
896.619	3428
896.74	3389
896.861	3469
896.982	3694
897.103	3838
897.224	3599
897.345	3538
897.466	3477
897.587	3496
897.708	3644
897.828	3549
897.949	3473
898.07	3363
898.19	3409
898.311	3584
898.431	3492
898.552	3500
898.672	3633
898.792	3614
898.913	3534
899.033	3439
899.153	3370
899.273	3241
899.393	3332
899.513	3325
899.633	3332
899.753	3340
899.873	3348
899.993	3389
900.113	3336
900.232	3428
900.352	3370
900.472	3340
900.591	3199
900.711	3321
900.83	3245
900.95	3477
901.069	3549
901.189	3393
901.308	3207
901.427	3157
901.546	3173
901.665	3279
901.784	3382
901.904	3237
902.023	3180
902.141	3043
902.26	2986
902.379	3161
902.498	3070
902.617	3100
902.735	3218
902.854	3264
902.973	3192
903.091	3051
903.21	3100
903.328	3176
903.446	3127
903.565	3154
903.683	3218
903.801	3142
903.919	3264
904.038	3291
904.156	3188
904.274	3294
904.392	3287
904.51	3279
904.627	3386
904.745	3428
904.863	3515
904.981	3291
905.098	3192
905.216	3226
905.334	3332
905.451	3302
905.569	3332
905.686	3439
905.803	3462
905.921	3306
906.038	3431
906.155	3401
906.272	3291
906.389	3363
906.506	3287
906.623	3241
906.74	3287
906.857	3230
906.974	3260
907.091	3515
907.208	3572
907.324	3504
907.441	3439
907.557	3253
907.674	3233
907.79	3222
907.907	3279
908.023	3409
908.139	3428
908.256	3374
908.372	3378
908.488	3344
908.604	3268
908.72	3268
908.836	3287
908.952	3279
909.068	3355
909.184	3523
909.3	3412
909.415	3500
909.531	3504
909.647	3306
909.762	3332
909.878	3283
909.993	3382
910.108	3363
910.224	3344
910.339	3428
910.454	3325
910.57	3321
910.685	3302
910.8	3568
910.915	3564
911.03	3424
911.145	3302
911.259	3340
911.374	3310
911.489	3226
911.604	3188
911.718	3165
911.833	3150
911.947	3032
912.062	2998
912.176	3154
912.291	3249
912.405	3188
912.519	3424
912.633	3523
912.748	3329
912.862	3264
912.976	3176
913.09	3097
913.204	3146
913.318	3218
913.431	3370
913.545	3359
913.659	3409
913.772	3340
913.886	3249
914	3203
914.113	3367
914.226	3420
914.34	3447
914.453	3260
914.566	3477
914.68	3329
914.793	3306
914.906	3154
915.019	3146
915.132	3108
915.245	3199
915.358	3233
915.47	3226
915.583	3272
915.696	3313
915.809	3397
915.921	3431
916.034	3268
916.146	3268
916.259	3256
916.371	3401
916.483	3351
916.595	3306
916.708	3332
916.82	3344
916.932	3393
917.044	3367
917.156	3367
917.268	3313
917.38	3325
917.491	3336
917.603	3382
917.715	3443
917.826	3481
917.938	3397
918.049	3291
918.161	3466
918.272	3580
918.384	3610
918.495	3523
918.606	3355
918.717	3287
918.828	3405
918.939	3488
919.05	3370
919.161	3416
919.272	3241
919.383	3298
919.494	3553
919.604	3740
919.715	3542
919.826	3416
919.936	3488
920.047	3625
920.157	3614
920.267	3831
920.378	3675
920.488	3641
920.598	3861
920.708	4036
920.818	3876
920.928	3880
921.038	4097
921.148	4097
921.258	3835
921.368	3713
921.477	3618
921.587	3610
921.697	3477
921.806	3698
921.916	3618
922.025	3420
922.134	3397
922.244	3351
922.353	3496
922.462	3351
922.571	3313
922.68	3131
922.789	3131
922.898	3245
923.007	3123
923.116	3310
923.224	3264
923.333	3275
923.442	3173
923.55	3169
923.659	3230
923.767	3291
923.876	3188
923.984	3310
924.092	3222
924.201	3256
924.309	3272
924.417	3321
924.525	3241
924.633	3317
924.741	4257
924.849	3150
924.956	3340
925.064	3195
925.172	3093
925.279	3207
925.387	3264
925.494	3275
925.602	3435
925.709	3428
925.816	3241
925.924	3370
926.031	3454
926.138	3389
926.245	3447
926.352	3351
926.459	3488
926.566	3549
926.673	3386
926.779	3332
926.886	3336
926.993	3275
927.099	3233
927.206	3150
927.312	3180
927.419	3294
927.525	3268
927.631	3348
927.737	3222
927.843	3184
927.95	3104
928.056	3203
928.162	3249
928.267	3348
928.373	3846
928.479	3355
928.585	3085
928.69	3298
928.796	3298
928.901	3222
929.007	3135
929.112	3256
929.218	3237
929.323	3214
929.428	3230
929.533	3409
929.638	3188
929.743	3199
929.848	3340
929.953	3272
930.058	3192
930.163	3028
930.267	3119
930.372	3260
930.477	3077
930.581	3378
930.685	3233
930.79	3150
930.894	3192
930.998	3161
931.103	3363
931.207	3020
931.311	3024
931.415	2975
931.519	2838
931.623	2838
