Data from test_V78500241_850.txt Node
Date: Fri Mar 25 16:21:05 CST 2022
User: usil
Spectrometer: V785-0024
Trigger mode: 0
Integration Time (sec): 4.000000E-1
Scans to average: 1
Nonlinearity correction enabled: false
Boxcar width: 0
Storing dark spectrum: false
XAxis mode: Wavelengths
Number of Pixels in Spectrum: 1024
>>>>>Begin Spectral Data<<<<<
801.071	2948
801.214	2952
801.356	2906
801.499	2952
801.641	2899
801.783	2929
801.926	3085
802.068	2944
802.211	3005
802.353	3051
802.496	2967
802.638	3013
802.78	3131
802.923	3070
803.065	3043
803.208	2941
803.35	2902
803.492	2956
803.635	2982
803.777	2777
803.919	2895
804.061	3184
804.204	2986
804.346	2941
804.488	2826
804.63	3024
804.773	2902
804.915	2933
805.057	3051
805.199	2975
805.341	2956
805.483	3051
805.626	3032
805.768	2971
805.91	3077
806.052	3146
806.194	3043
806.336	3222
806.478	3009
806.62	2998
806.762	2994
806.904	3089
807.046	3165
807.188	2994
807.33	2952
807.472	2975
807.614	2918
807.756	3001
807.898	2948
808.04	2906
808.182	2960
808.324	2952
808.465	2929
808.607	2895
808.749	2800
808.891	2845
809.033	2986
809.174	2941
809.316	2906
809.458	2853
809.6	2773
809.741	2781
809.883	2796
810.025	2861
810.166	2876
810.308	2853
810.45	2842
810.591	2792
810.733	2773
810.875	2811
811.016	2773
811.158	2758
811.299	2815
811.441	2956
811.582	2937
811.724	2838
811.865	2857
812.007	2902
812.148	2895
812.29	2864
812.431	2883
812.573	2960
812.714	2975
812.855	3043
812.997	3017
813.138	3100
813.279	3013
813.421	2994
813.562	2956
813.703	2891
813.845	2861
813.986	2773
814.127	2739
814.268	2823
814.41	2849
814.551	2815
814.692	2891
814.833	2815
814.974	2925
815.115	2963
815.256	2845
815.397	2842
815.539	2880
815.68	2804
815.821	2777
815.962	2933
816.103	2925
816.244	2868
816.385	2887
816.526	2982
816.666	2918
816.807	2750
816.948	2895
817.089	2948
817.23	2872
817.371	2804
817.512	2826
817.653	2819
817.793	2804
817.934	2891
818.075	2971
818.216	2986
818.356	3070
818.497	2883
818.638	2773
818.778	2834
818.919	2815
819.06	2758
819.2	2872
819.341	2800
819.481	2800
819.622	2941
819.762	3123
819.903	3039
820.043	2929
820.184	2933
820.324	2910
820.465	3017
820.605	3032
820.746	3055
820.886	2941
821.026	3146
821.167	3154
821.307	3264
821.447	3268
821.588	3222
821.728	3207
821.868	3211
822.008	3066
822.149	3188
822.289	3256
822.429	3108
822.569	3119
822.709	3157
822.849	3005
822.99	3085
823.13	3180
823.27	3173
823.41	3119
823.55	3138
823.69	3138
823.83	3192
823.97	3116
824.11	3005
824.25	3028
824.389	3070
824.529	3119
824.669	3066
824.809	3180
824.949	3249
825.089	3222
825.228	3165
825.368	3032
825.508	2941
825.648	2990
825.787	3013
825.927	3020
826.067	2975
826.206	2975
826.346	3066
826.485	3074
826.625	3119
826.765	3256
826.904	3207
827.044	3009
827.183	2933
827.323	2872
827.462	2994
827.601	2929
827.741	2910
827.88	2956
828.02	2883
828.159	2979
828.298	3051
828.437	3127
828.577	3074
828.716	3241
828.855	3085
828.994	2902
829.134	2899
829.273	2944
829.412	2883
829.551	2864
829.69	2899
829.829	3001
829.968	3150
830.107	3005
830.246	3074
830.385	2918
830.524	2857
830.663	2807
830.802	2746
830.941	2636
831.08	2674
831.219	2777
831.357	2788
831.496	2918
831.635	2739
831.774	2674
831.913	2693
832.051	2541
832.19	2579
832.329	2686
832.467	2533
832.606	2480
832.744	2590
832.883	2552
833.022	2602
833.16	2655
833.299	2674
833.437	2716
833.576	2682
833.714	2708
833.852	2727
833.991	2769
834.129	2826
834.267	2811
834.406	2781
834.544	2883
834.682	2902
834.821	2853
834.959	3032
835.097	2887
835.235	3070
835.373	3032
835.511	3039
835.65	2982
835.788	2906
835.926	2819
836.064	2838
836.202	2857
836.34	3085
836.478	3138
836.615	3028
836.753	3116
836.891	3192
837.029	3195
837.167	3112
837.305	3074
837.443	3028
837.58	2952
837.718	3093
837.856	3074
837.993	3024
838.131	3089
838.269	3085
838.406	3123
838.544	3058
838.681	2937
838.819	2880
838.956	2807
839.094	2815
839.231	2906
839.369	2979
839.506	3367
839.643	3230
839.781	2990
839.918	2956
840.055	3043
840.193	3051
840.33	3070
840.467	3066
840.604	3165
840.742	3382
840.879	3066
841.016	3074
841.153	3104
841.29	3329
841.427	3329
841.564	3275
841.701	3313
841.838	3199
841.975	3184
842.112	3249
842.249	3070
842.385	3036
842.522	3294
842.659	3131
842.796	3104
842.933	3119
843.069	3097
843.206	3043
843.343	3184
843.479	3093
843.616	3142
843.752	2937
843.889	2891
844.025	3085
844.162	2883
844.298	3055
844.435	2899
844.571	2910
844.708	3047
844.844	3169
844.98	3230
845.117	3199
845.253	3020
845.389	2967
845.525	3097
845.661	3089
845.798	3009
845.934	3104
846.07	3055
846.206	3218
846.342	3302
846.478	3192
846.614	3104
846.75	3047
846.886	3036
847.022	3226
847.158	3116
847.294	3214
847.429	3203
847.565	3233
847.701	3466
847.837	3043
847.972	3024
848.108	3154
848.244	3108
848.379	2944
848.515	2902
848.65	2914
848.786	2952
848.921	3028
849.057	3066
849.192	3180
849.328	3039
849.463	3161
849.598	3055
849.734	3020
849.869	2971
850.004	2918
850.14	2975
850.275	2910
850.41	2838
850.545	2876
850.68	2922
850.815	2941
850.95	2979
851.085	3233
851.22	3074
851.355	3013
851.49	3013
851.625	2994
851.76	3005
851.895	2906
852.03	2914
852.165	3036
852.299	3077
852.434	3169
852.569	3142
852.703	3173
852.838	3230
852.973	3321
853.107	3310
853.242	3188
853.376	3108
853.511	2998
853.645	3051
853.78	3222
853.914	3154
854.048	3112
854.183	3089
854.317	3127
854.451	3302
854.585	3116
854.72	3112
854.854	3211
854.988	3062
855.122	3066
855.256	2979
855.39	3085
855.524	3218
855.658	3161
855.792	3116
855.926	3154
856.06	3195
856.194	3256
856.327	3146
856.461	3058
856.595	3070
856.729	3066
856.862	3249
856.996	3184
857.13	3180
857.263	3211
857.397	3256
857.53	3116
857.664	3192
857.797	3211
857.931	3222
858.064	3176
858.197	3226
858.331	3142
858.464	3135
858.597	3020
858.731	3104
858.864	3093
858.997	3085
859.13	3169
859.263	3176
859.396	3176
859.529	3123
859.662	3039
859.795	3051
859.928	3123
860.061	3249
860.194	3253
860.327	3142
860.46	3131
860.592	3260
860.725	3268
860.858	3233
860.99	3108
861.123	3043
861.256	3070
861.388	3165
861.521	3926
861.653	3039
861.786	2994
861.918	3009
862.05	3039
862.183	3089
862.315	3131
862.447	3180
862.58	3089
862.712	2929
862.844	2891
862.976	3032
863.108	2998
863.24	3317
863.372	2880
863.504	2948
863.636	2910
863.768	3043
863.9	2994
864.032	2922
864.164	2963
864.296	3013
864.428	3081
864.559	3097
864.691	3032
864.823	3062
864.954	3024
865.086	3062
865.217	3024
865.349	2914
865.48	2982
865.612	3005
865.743	3119
865.875	2975
866.006	2929
866.137	2975
866.269	2937
866.4	2925
866.531	2914
866.662	2887
866.793	2880
866.924	2861
867.055	2937
867.186	2914
867.317	2861
867.448	2842
867.579	2857
867.71	2842
867.841	2826
867.972	2937
868.103	2899
868.233	2891
868.364	2849
868.495	2891
868.625	3127
868.756	3188
868.886	2929
869.017	2990
869.147	3173
869.278	3169
869.408	3047
869.539	3009
869.669	3097
869.799	3005
869.929	3112
870.06	3093
870.19	3340
870.32	3291
870.45	3313
870.58	3359
870.71	3412
870.84	3450
870.97	3279
871.1	3264
871.23	3469
871.36	3439
871.489	3351
871.619	3370
871.749	3462
871.879	3447
872.008	3507
872.138	3374
872.267	3317
872.397	3154
872.526	3097
872.656	3043
872.785	3127
872.915	3233
873.044	3348
873.173	3241
873.303	3241
873.432	3245
873.561	3245
873.69	3180
873.819	3123
873.948	3203
874.077	3116
874.206	3085
874.335	3070
874.464	3207
874.593	3374
874.722	3230
874.851	3374
874.979	3321
875.108	3310
875.237	3241
875.365	3157
875.494	3173
875.623	3233
875.751	3055
875.88	3097
876.008	3199
876.136	3207
876.265	3336
876.393	3515
876.521	3416
876.65	3409
876.778	3332
876.906	3272
877.034	3195
877.162	3192
877.29	3165
877.418	3207
877.546	3264
877.674	3233
877.802	3249
877.93	3199
878.058	3100
878.185	3135
878.313	3176
878.441	3199
878.568	3058
878.696	3146
878.824	3230
878.951	3321
879.079	3485
879.206	3637
879.333	3450
879.461	3306
879.588	3329
879.715	3447
879.842	3599
879.97	3355
880.097	3176
880.224	3123
880.351	3218
880.478	3207
880.605	3161
880.732	3173
880.859	3458
880.986	3306
881.112	3332
881.239	3161
881.366	3116
881.493	3043
881.619	3039
881.746	3093
881.872	3123
881.999	3097
882.125	3123
882.252	3256
882.378	3287
882.505	3393
882.631	3298
882.757	3150
882.883	3211
883.01	3253
883.136	3169
883.262	3127
883.388	3127
883.514	3298
883.64	3348
883.766	3329
883.892	3169
884.018	3237
884.143	3420
884.269	3561
884.395	3195
884.52	3176
884.646	3173
884.772	3119
884.897	3089
885.023	3203
885.148	3348
885.274	3378
885.399	3359
885.524	3272
885.65	3249
885.775	3283
885.9	3291
886.025	3401
886.15	3405
886.275	3325
886.4	3237
886.525	3283
886.65	3260
886.775	3302
886.9	3511
887.025	3603
887.149	3397
887.274	3253
887.399	3173
887.523	3211
887.648	3131
887.773	3176
887.897	3378
888.021	3412
888.146	3287
888.27	3397
888.395	3530
888.519	3458
888.643	3412
888.767	3469
888.891	3291
889.015	3275
889.139	3294
889.263	3226
889.387	3386
889.511	3515
889.635	3431
889.759	3283
889.883	3264
890.006	3351
890.13	3492
890.254	3272
890.377	3344
890.501	3233
890.624	3169
890.748	3306
890.871	3226
890.995	3108
891.118	3047
891.241	3176
891.364	3207
891.488	3272
891.611	3165
891.734	3207
891.857	3302
891.98	3249
892.103	3306
892.226	3279
892.349	3226
892.471	3077
892.594	3214
892.717	3298
892.839	3260
892.962	3268
893.085	3378
893.207	3336
893.33	3150
893.452	3241
893.575	3321
893.697	3233
893.819	3450
893.941	3523
894.064	3447
894.186	3283
894.308	3302
894.43	3420
894.552	3511
894.674	3492
894.796	3302
894.918	3287
895.04	3272
895.161	3443
895.283	3344
895.405	3317
895.526	3336
895.648	3439
895.769	3424
895.891	3447
896.012	3458
896.134	3492
896.255	3401
896.376	3340
896.498	3359
896.619	3447
896.74	3332
896.861	3428
896.982	3690
897.103	3850
897.224	3549
897.345	3462
897.466	3401
897.587	3458
897.708	3614
897.828	3545
897.949	3424
898.07	3359
898.19	3420
898.311	3599
898.431	3458
898.552	3454
898.672	3595
898.792	3568
898.913	3515
899.033	3389
899.153	3256
899.273	3199
899.393	3237
899.513	3317
899.633	3264
899.753	3344
899.873	3340
899.993	3378
900.113	3344
900.232	3382
900.352	3351
900.472	3283
900.591	3195
900.711	3287
900.83	3237
900.95	3424
901.069	3496
901.189	3367
901.308	3165
901.427	3119
901.546	3176
901.665	3268
901.784	3386
901.904	3203
902.023	3184
902.141	3039
902.26	2998
902.379	3112
902.498	3085
902.617	3066
902.735	3214
902.854	3222
902.973	3199
903.091	3013
903.21	3032
903.328	3161
903.446	3108
903.565	3127
903.683	3207
903.801	3146
903.919	3256
904.038	3291
904.156	3161
904.274	3294
904.392	3245
904.51	3298
904.627	3321
904.745	3439
904.863	3519
904.981	3268
905.098	3146
905.216	3237
905.334	3291
905.451	3306
905.569	3287
905.686	3382
905.803	3431
905.921	3294
906.038	3424
906.155	3374
906.272	3256
906.389	3336
906.506	3237
906.623	3256
906.74	3279
906.857	3176
906.974	3253
907.091	3435
907.208	3538
907.324	3447
907.441	3370
907.557	3222
907.674	3237
907.79	3192
907.907	3275
908.023	3405
908.139	3355
908.256	3340
908.372	3382
908.488	3332
908.604	3264
908.72	3226
908.836	3275
908.952	3253
909.068	3287
909.184	3477
909.3	3409
909.415	3519
909.531	3401
909.647	3279
909.762	3279
909.878	3245
909.993	3344
910.108	3351
910.224	3355
910.339	3344
910.454	3279
910.57	3332
910.685	3199
910.8	3580
910.915	3545
911.03	3447
911.145	3260
911.259	3260
911.374	3332
911.489	3237
911.604	3192
911.718	3146
911.833	3138
911.947	3005
912.062	2998
912.176	3184
912.291	3184
912.405	3165
912.519	3420
912.633	3473
912.748	3329
912.862	3268
912.976	3184
913.09	3043
913.204	3135
913.318	3241
913.431	3294
913.545	3336
913.659	3428
913.772	3302
913.886	3249
914	3245
914.113	3332
914.226	3393
914.34	3367
914.453	3184
914.566	3397
914.68	3264
914.793	3283
914.906	3161
915.019	3047
915.132	3070
915.245	3176
915.358	3214
915.47	3256
915.583	3264
915.696	3317
915.809	3424
915.921	3412
916.034	3272
916.146	3256
916.259	3241
916.371	3401
916.483	3367
916.595	3291
916.708	3313
916.82	3351
916.932	3344
917.044	3355
917.156	3336
917.268	3241
917.38	3298
917.491	3287
917.603	3382
917.715	3447
917.826	3431
917.938	3367
918.049	3256
918.161	3420
918.272	3530
918.384	3584
918.495	3530
918.606	3355
918.717	3249
918.828	3378
918.939	3420
919.05	3317
919.161	3363
919.272	3199
919.383	3253
919.494	3504
919.604	3656
919.715	3462
919.826	3401
919.936	3424
920.047	3561
920.157	3561
920.267	3827
920.378	3576
920.488	3564
920.598	3785
920.708	3949
920.818	3842
920.928	3816
921.038	4006
921.148	4010
921.258	3675
921.368	3625
921.477	3572
921.587	3526
921.697	3458
921.806	3633
921.916	3530
922.025	3355
922.134	3351
922.244	3298
922.353	3428
922.462	3264
922.571	3176
922.68	3127
922.789	3097
922.898	3123
923.007	3089
923.116	3203
923.224	3146
923.333	3165
923.442	3123
923.55	3100
923.659	3150
923.767	3218
923.876	3150
923.984	3268
924.092	3081
924.201	3195
924.309	3211
924.417	3260
924.525	3195
924.633	3256
924.741	3991
924.849	3066
924.956	3256
925.064	3131
925.172	3032
925.279	3142
925.387	3184
925.494	3226
925.602	3317
925.709	3348
925.816	3184
925.924	3302
926.031	3393
926.138	3344
926.245	3359
926.352	3237
926.459	3409
926.566	3481
926.673	3317
926.779	3245
926.886	3218
926.993	3165
927.099	3135
927.206	3112
927.312	3081
927.419	3188
927.525	3199
927.631	3283
927.737	3154
927.843	3154
927.95	3036
928.056	3176
928.162	3169
928.267	3260
928.373	3774
928.479	3302
928.585	3062
928.69	3218
928.796	3306
928.901	3184
929.007	3085
929.112	3222
929.218	3203
929.323	3146
929.428	3154
929.533	3253
929.638	3127
929.743	3154
929.848	3256
929.953	3188
930.058	3112
930.163	2990
930.267	3043
930.372	3192
930.477	3062
930.581	3321
930.685	3173
930.79	3055
930.894	3116
930.998	3112
931.103	3275
931.207	2952
931.311	2933
931.415	2948
931.519	2773
931.623	2800
