Data from test_V78500241_659.txt Node
Date: Fri Mar 25 16:19:46 CST 2022
User: usil
Spectrometer: V785-0024
Trigger mode: 0
Integration Time (sec): 4.000000E-1
Scans to average: 1
Nonlinearity correction enabled: false
Boxcar width: 0
Storing dark spectrum: false
XAxis mode: Wavelengths
Number of Pixels in Spectrum: 1024
>>>>>Begin Spectral Data<<<<<
801.071	2906
801.214	2948
801.356	2895
801.499	2895
801.641	2872
801.783	2929
801.926	3070
802.068	2960
802.211	2979
802.353	3047
802.496	2994
802.638	3036
802.78	3032
802.923	3074
803.065	2986
803.208	2891
803.35	2925
803.492	2941
803.635	2929
803.777	2769
803.919	2853
804.061	3195
804.204	2925
804.346	2891
804.488	2830
804.63	2967
804.773	2842
804.915	2906
805.057	3070
805.199	2895
805.341	2937
805.483	3043
805.626	3001
805.768	2963
805.91	3097
806.052	3081
806.194	3051
806.336	3275
806.478	3058
806.62	2937
806.762	2944
806.904	3070
807.046	3180
807.188	2994
807.33	2914
807.472	2990
807.614	2895
807.756	2982
807.898	2925
808.04	2876
808.182	2967
808.324	2948
808.465	2834
808.607	2876
808.749	2781
808.891	2826
809.033	2986
809.174	2963
809.316	2895
809.458	2902
809.6	2800
809.741	2739
809.883	2762
810.025	2849
810.166	2876
810.308	2857
810.45	2864
810.591	2800
810.733	2777
810.875	2811
811.016	2792
811.158	2754
811.299	2777
811.441	2895
811.582	2880
811.724	2823
811.865	2819
812.007	2925
812.148	2830
812.29	2823
812.431	2887
812.573	2956
812.714	2982
812.855	3032
812.997	3032
813.138	3108
813.279	2967
813.421	2967
813.562	2979
813.703	2861
813.845	2918
813.986	2773
814.127	2731
814.268	2815
814.41	2861
814.551	2800
814.692	2872
814.833	2838
814.974	2929
815.115	2952
815.256	2773
815.397	2838
815.539	2857
815.68	2777
815.821	2785
815.962	2944
816.103	2937
816.244	2891
816.385	2880
816.526	2967
816.666	2937
816.807	2743
816.948	2891
817.089	2906
817.23	2842
817.371	2800
817.512	2785
817.653	2845
817.793	2792
817.934	2853
818.075	2982
818.216	2975
818.356	3047
818.497	2887
818.638	2788
818.778	2815
818.919	2788
819.06	2769
819.2	2887
819.341	2785
819.481	2800
819.622	2918
819.762	3047
819.903	3051
820.043	2906
820.184	2929
820.324	2906
820.465	2990
820.605	3017
820.746	2982
820.886	2902
821.026	3077
821.167	3131
821.307	3256
821.447	3237
821.588	3222
821.728	3241
821.868	3188
822.008	3066
822.149	3192
822.289	3241
822.429	3085
822.569	3070
822.709	3180
822.849	3051
822.99	3058
823.13	3142
823.27	3195
823.41	3100
823.55	3093
823.69	3138
823.83	3180
823.97	3093
824.11	2998
824.25	2952
824.389	3047
824.529	3085
824.669	3055
824.809	3211
824.949	3249
825.089	3214
825.228	3146
825.368	3001
825.508	2963
825.648	2937
825.787	3009
825.927	2975
826.067	2933
826.206	2933
826.346	3032
826.485	3051
826.625	3081
826.765	3264
826.904	3207
827.044	3039
827.183	2902
827.323	2857
827.462	2986
827.601	2910
827.741	2899
827.88	2944
828.02	2845
828.159	3017
828.298	3020
828.437	3077
828.577	3081
828.716	3233
828.855	3093
828.994	2929
829.134	2910
829.273	2944
829.412	2834
829.551	2861
829.69	2849
829.829	2960
829.968	3138
830.107	3013
830.246	3028
830.385	2902
830.524	2872
830.663	2845
830.802	2716
830.941	2667
831.08	2632
831.219	2754
831.357	2735
831.496	2944
831.635	2731
831.774	2659
831.913	2674
832.051	2514
832.19	2549
832.329	2708
832.467	2526
832.606	2476
832.744	2571
832.883	2590
833.022	2602
833.16	2636
833.299	2670
833.437	2689
833.576	2678
833.714	2708
833.852	2716
833.991	2754
834.129	2845
834.267	2785
834.406	2823
834.544	2842
834.682	2845
834.821	2868
834.959	3085
835.097	2872
835.235	3032
835.373	3017
835.511	3017
835.65	2971
835.788	2929
835.926	2826
836.064	2796
836.202	2853
836.34	3039
836.478	3127
836.615	3039
836.753	3108
836.891	3188
837.029	3135
837.167	3100
837.305	3062
837.443	3009
837.58	2971
837.718	3142
837.856	3070
837.993	3058
838.131	3093
838.269	3100
838.406	3097
838.544	3089
838.681	2944
838.819	2883
838.956	2796
839.094	2830
839.231	2933
839.369	3013
839.506	3355
839.643	3233
839.781	3013
839.918	2975
840.055	3032
840.193	3043
840.33	3055
840.467	3085
840.604	3169
840.742	3374
840.879	3055
841.016	3020
841.153	3131
841.29	3294
841.427	3291
841.564	3264
841.701	3317
841.838	3184
841.975	3142
842.112	3218
842.249	3085
842.385	3058
842.522	3283
842.659	3112
842.796	3028
842.933	3085
843.069	3062
843.206	3017
843.343	3195
843.479	3100
843.616	3085
843.752	2876
843.889	2853
844.025	3074
844.162	2876
844.298	3070
844.435	2925
844.571	2891
844.708	3039
844.844	3188
844.98	3237
845.117	3154
845.253	3077
845.389	2990
845.525	3116
845.661	3089
845.798	3005
845.934	3138
846.07	3039
846.206	3222
846.342	3351
846.478	3203
846.614	3062
846.75	3024
846.886	3005
847.022	3222
847.158	3100
847.294	3199
847.429	3256
847.565	3230
847.701	3462
847.837	3024
847.972	3009
848.108	3135
848.244	3135
848.379	3001
848.515	2963
848.65	2891
848.786	2952
848.921	3024
849.057	3104
849.192	3138
849.328	3051
849.463	3108
849.598	3058
849.734	3032
849.869	3001
850.004	2941
850.14	2948
850.275	2910
850.41	2826
850.545	2899
850.68	2925
850.815	2944
850.95	2975
851.085	3207
851.22	3097
851.355	3028
851.49	2956
851.625	2979
851.76	3055
851.895	2925
852.03	2918
852.165	3013
852.299	3089
852.434	3165
852.569	3135
852.703	3176
852.838	3249
852.973	3325
853.107	3374
853.242	3142
853.376	3108
853.511	2960
853.645	3028
853.78	3203
853.914	3104
854.048	3093
854.183	3066
854.317	3135
854.451	3264
854.585	3100
854.72	3097
854.854	3188
854.988	3077
855.122	3081
855.256	2960
855.39	3093
855.524	3218
855.658	3188
855.792	3154
855.926	3176
856.06	3199
856.194	3241
856.327	3138
856.461	3093
856.595	3062
856.729	3081
856.862	3222
856.996	3142
857.13	3184
857.263	3237
857.397	3283
857.53	3135
857.664	3176
857.797	3241
857.931	3241
858.064	3165
858.197	3222
858.331	3127
858.464	3100
858.597	3005
858.731	3070
858.864	3066
858.997	3081
859.13	3138
859.263	3165
859.396	3222
859.529	3081
859.662	3089
859.795	3028
859.928	3119
860.061	3256
860.194	3272
860.327	3100
860.46	3089
860.592	3211
860.725	3230
860.858	3241
860.99	3089
861.123	3024
861.256	2994
861.388	3142
861.521	3816
861.653	2986
861.786	2979
861.918	2990
862.05	2998
862.183	3058
862.315	3074
862.447	3226
862.58	3097
862.712	2971
862.844	2872
862.976	3039
863.108	2979
863.24	3416
863.372	2895
863.504	2929
863.636	2952
863.768	3043
863.9	2986
864.032	2944
864.164	2937
864.296	3009
864.428	3077
864.559	3108
864.691	3058
864.823	3032
864.954	3036
865.086	3020
865.217	2982
865.349	2944
865.48	2975
865.612	2998
865.743	3138
865.875	2979
866.006	2933
866.137	2975
866.269	2929
866.4	2963
866.531	2944
866.662	2899
866.793	2918
866.924	2868
867.055	2963
867.186	2895
867.317	2876
867.448	2880
867.579	2838
867.71	2830
867.841	2800
867.972	2891
868.103	2883
868.233	2891
868.364	2861
868.495	2910
868.625	3058
868.756	3176
868.886	2990
869.017	3036
869.147	3135
869.278	3142
869.408	3066
869.539	3047
869.669	3097
869.799	3070
869.929	3154
870.06	3074
870.19	3332
870.32	3253
870.45	3287
870.58	3389
870.71	3412
870.84	3458
870.97	3298
871.1	3207
871.23	3431
871.36	3458
871.489	3325
871.619	3370
871.749	3386
871.879	3431
872.008	3450
872.138	3336
872.267	3264
872.397	3142
872.526	3085
872.656	2990
872.785	3119
872.915	3226
873.044	3291
873.173	3222
873.303	3211
873.432	3226
873.561	3230
873.69	3142
873.819	3146
873.948	3233
874.077	3066
874.206	3032
874.335	3085
874.464	3226
874.593	3374
874.722	3260
874.851	3393
874.979	3344
875.108	3321
875.237	3165
875.365	3138
875.494	3142
875.623	3264
875.751	3100
875.88	3104
876.008	3226
876.136	3241
876.265	3344
876.393	3504
876.521	3401
876.65	3389
876.778	3321
876.906	3226
877.034	3199
877.162	3233
877.29	3142
877.418	3233
877.546	3233
877.674	3203
877.802	3241
877.93	3188
878.058	3112
878.185	3150
878.313	3161
878.441	3184
878.568	3066
878.696	3146
878.824	3268
878.951	3294
879.079	3397
879.206	3591
879.333	3439
879.461	3325
879.588	3359
879.715	3477
879.842	3568
879.97	3389
880.097	3199
880.224	3131
880.351	3203
880.478	3214
880.605	3180
880.732	3180
880.859	3519
880.986	3306
881.112	3291
881.239	3146
881.366	3097
881.493	2998
881.619	3024
881.746	3051
881.872	3138
881.999	3108
882.125	3157
882.252	3245
882.378	3306
882.505	3409
882.631	3302
882.757	3165
882.883	3237
883.01	3218
883.136	3131
883.262	3077
883.388	3116
883.514	3329
883.64	3374
883.766	3317
883.892	3195
884.018	3226
884.143	3416
884.269	3530
884.395	3176
884.52	3161
884.646	3142
884.772	3123
884.897	3097
885.023	3222
885.148	3355
885.274	3363
885.399	3336
885.524	3294
885.65	3260
885.775	3313
885.9	3313
886.025	3447
886.15	3382
886.275	3287
886.4	3214
886.525	3298
886.65	3272
886.775	3317
886.9	3492
887.025	3595
887.149	3351
887.274	3268
887.399	3146
887.523	3188
887.648	3135
887.773	3180
887.897	3401
888.021	3355
888.146	3306
888.27	3469
888.395	3488
888.519	3386
888.643	3439
888.767	3466
888.891	3272
889.015	3245
889.139	3294
889.263	3272
889.387	3420
889.511	3477
889.635	3409
889.759	3310
889.883	3249
890.006	3389
890.13	3507
890.254	3241
890.377	3340
890.501	3211
890.624	3184
890.748	3317
890.871	3169
890.995	3127
891.118	3074
891.241	3176
891.364	3214
891.488	3306
891.611	3165
891.734	3195
891.857	3298
891.98	3199
892.103	3313
892.226	3237
892.349	3188
892.471	3123
892.594	3218
892.717	3310
892.839	3249
892.962	3275
893.085	3344
893.207	3279
893.33	3131
893.452	3211
893.575	3310
893.697	3230
893.819	3466
893.941	3496
894.064	3435
894.186	3268
894.308	3268
894.43	3447
894.552	3545
894.674	3492
894.796	3264
894.918	3340
895.04	3298
895.161	3428
895.283	3348
895.405	3313
895.526	3355
895.648	3454
895.769	3378
895.891	3454
896.012	3511
896.134	3409
896.255	3443
896.376	3359
896.498	3393
896.619	3443
896.74	3340
896.861	3393
896.982	3648
897.103	3808
897.224	3610
897.345	3469
897.466	3386
897.587	3485
897.708	3595
897.828	3576
897.949	3450
898.07	3325
898.19	3420
898.311	3580
898.431	3401
898.552	3492
898.672	3561
898.792	3549
898.913	3504
899.033	3382
899.153	3298
899.273	3199
899.393	3287
899.513	3313
899.633	3291
899.753	3321
899.873	3302
899.993	3378
900.113	3336
900.232	3374
900.352	3329
900.472	3268
900.591	3199
900.711	3279
900.83	3214
900.95	3435
901.069	3469
901.189	3359
901.308	3169
901.427	3051
901.546	3192
901.665	3298
901.784	3332
901.904	3180
902.023	3150
902.141	3013
902.26	2979
902.379	3123
902.498	3085
902.617	3032
902.735	3214
902.854	3222
902.973	3173
903.091	3036
903.21	3081
903.328	3135
903.446	3112
903.565	3081
903.683	3176
903.801	3165
903.919	3226
904.038	3283
904.156	3150
904.274	3253
904.392	3253
904.51	3298
904.627	3332
904.745	3473
904.863	3496
904.981	3275
905.098	3135
905.216	3188
905.334	3287
905.451	3329
905.569	3302
905.686	3397
905.803	3401
905.921	3279
906.038	3431
906.155	3382
906.272	3283
906.389	3340
906.506	3241
906.623	3222
906.74	3245
906.857	3184
906.974	3222
907.091	3439
907.208	3542
907.324	3469
907.441	3386
907.557	3207
907.674	3256
907.79	3173
907.907	3222
908.023	3348
908.139	3351
908.256	3351
908.372	3359
908.488	3332
908.604	3245
908.72	3207
908.836	3287
908.952	3291
909.068	3329
909.184	3496
909.3	3367
909.415	3515
909.531	3458
909.647	3226
909.762	3283
909.878	3249
909.993	3378
910.108	3310
910.224	3325
910.339	3443
910.454	3306
910.57	3249
910.685	3192
910.8	3572
910.915	3523
911.03	3435
911.145	3272
911.259	3298
911.374	3272
911.489	3207
911.604	3188
911.718	3112
911.833	3112
911.947	3013
912.062	2967
912.176	3180
912.291	3169
912.405	3211
912.519	3382
912.633	3454
912.748	3344
912.862	3298
912.976	3135
913.09	3074
913.204	3119
913.318	3211
913.431	3272
913.545	3340
913.659	3412
913.772	3351
913.886	3214
914	3192
914.113	3359
914.226	3416
914.34	3367
914.453	3199
914.566	3389
914.68	3275
914.793	3351
914.906	3123
915.019	3116
915.132	3058
915.245	3180
915.358	3195
915.47	3249
915.583	3275
915.696	3291
915.809	3424
915.921	3405
916.034	3275
916.146	3302
916.259	3241
916.371	3412
916.483	3386
916.595	3298
916.708	3302
916.82	3348
916.932	3382
917.044	3386
917.156	3355
917.268	3260
917.38	3367
917.491	3355
917.603	3367
917.715	3481
917.826	3564
917.938	3412
918.049	3302
918.161	3492
918.272	3584
918.384	3637
918.495	3492
918.606	3355
918.717	3279
918.828	3367
918.939	3439
919.05	3329
919.161	3386
919.272	3241
919.383	3253
919.494	3568
919.604	3743
919.715	3507
919.826	3466
919.936	3492
920.047	3633
920.157	3587
920.267	3808
920.378	3633
920.488	3652
920.598	3804
920.708	4006
920.818	3896
920.928	3861
921.038	4036
921.148	4029
921.258	3778
921.368	3641
921.477	3622
921.587	3591
921.697	3443
921.806	3682
921.916	3534
922.025	3416
922.134	3389
922.244	3359
922.353	3435
922.462	3321
922.571	3256
922.68	3138
922.789	3112
922.898	3199
923.007	3169
923.116	3245
923.224	3230
923.333	3230
923.442	3116
923.55	3165
923.659	3173
923.767	3268
923.876	3165
923.984	3275
924.092	3093
924.201	3214
924.309	3233
924.417	3272
924.525	3222
924.633	3260
924.741	4090
924.849	3089
924.956	3329
925.064	3131
925.172	3077
925.279	3127
925.387	3241
925.494	3253
925.602	3374
925.709	3355
925.816	3233
925.924	3344
926.031	3454
926.138	3359
926.245	3367
926.352	3306
926.459	3469
926.566	3526
926.673	3351
926.779	3298
926.886	3272
926.993	3184
927.099	3176
927.206	3157
927.312	3157
927.419	3195
927.525	3253
927.631	3264
927.737	3157
927.843	3146
927.95	3074
928.056	3184
928.162	3173
928.267	3275
928.373	3827
928.479	3348
928.585	3108
928.69	3226
928.796	3302
928.901	3188
929.007	3112
929.112	3226
929.218	3218
929.323	3154
929.428	3154
929.533	3367
929.638	3146
929.743	3176
929.848	3287
929.953	3249
930.058	3207
930.163	3013
930.267	3104
930.372	3226
930.477	3047
930.581	3329
930.685	3195
930.79	3085
930.894	3135
930.998	3150
931.103	3306
931.207	2956
931.311	2963
931.415	2971
931.519	2811
931.623	2857
