Data from test_V78500241_520.txt Node
Date: Fri Mar 25 16:18:48 CST 2022
User: usil
Spectrometer: V785-0024
Trigger mode: 0
Integration Time (sec): 4.000000E-1
Scans to average: 1
Nonlinearity correction enabled: false
Boxcar width: 0
Storing dark spectrum: false
XAxis mode: Wavelengths
Number of Pixels in Spectrum: 1024
>>>>>Begin Spectral Data<<<<<
801.071	2948
801.214	3001
801.356	2895
801.499	2929
801.641	2872
801.783	2925
801.926	3100
802.068	3047
802.211	3009
802.353	3066
802.496	2990
802.638	3020
802.78	3058
802.923	3138
803.065	3020
803.208	2918
803.35	2975
803.492	3009
803.635	2967
803.777	2781
803.919	2880
804.061	3253
804.204	2960
804.346	2956
804.488	2918
804.63	3028
804.773	2944
804.915	2971
805.057	3100
805.199	2975
805.341	3020
805.483	3051
805.626	3047
805.768	2960
805.91	3119
806.052	3146
806.194	3116
806.336	3264
806.478	3066
806.62	2994
806.762	3005
806.904	3131
807.046	3180
807.188	3055
807.33	2948
807.472	3047
807.614	2941
807.756	3043
807.898	2944
808.04	2952
808.182	3009
808.324	2971
808.465	2944
808.607	2914
808.749	2842
808.891	2887
809.033	3058
809.174	2975
809.316	2933
809.458	2994
809.6	2796
809.741	2777
809.883	2811
810.025	2864
810.166	2887
810.308	2880
810.45	2895
810.591	2819
810.733	2796
810.875	2845
811.016	2804
811.158	2785
811.299	2845
811.441	2918
811.582	2937
811.724	2899
811.865	2891
812.007	2971
812.148	2899
812.29	2857
812.431	2925
812.573	2994
812.714	2956
812.855	3074
812.997	3081
813.138	3146
813.279	3017
813.421	3051
813.562	3013
813.703	2944
813.845	2910
813.986	2807
814.127	2758
814.268	2880
814.41	2883
814.551	2864
814.692	2918
814.833	2853
814.974	2910
815.115	2960
815.256	2872
815.397	2807
815.539	2918
815.68	2815
815.821	2842
815.962	2982
816.103	2956
816.244	2891
816.385	2887
816.526	2998
816.666	2975
816.807	2781
816.948	2922
817.089	2922
817.23	2895
817.371	2815
817.512	2830
817.653	2895
817.793	2834
817.934	2895
818.075	3013
818.216	3024
818.356	3077
818.497	2910
818.638	2845
818.778	2853
818.919	2800
819.06	2811
819.2	2918
819.341	2830
819.481	2834
819.622	2975
819.762	3097
819.903	3039
820.043	2948
820.184	2933
820.324	2922
820.465	3036
820.605	3051
820.746	3058
820.886	2944
821.026	3127
821.167	3157
821.307	3287
821.447	3332
821.588	3275
821.728	3188
821.868	3283
822.008	3127
822.149	3207
822.289	3222
822.429	3116
822.569	3039
822.709	3192
822.849	3070
822.99	3077
823.13	3192
823.27	3226
823.41	3146
823.55	3214
823.69	3176
823.83	3161
823.97	3077
824.11	2998
824.25	3062
824.389	3058
824.529	3165
824.669	3085
824.809	3195
824.949	3287
825.089	3222
825.228	3169
825.368	3020
825.508	2994
825.648	3028
825.787	3051
825.927	3028
826.067	2990
826.206	2979
826.346	3081
826.485	3112
826.625	3176
826.765	3287
826.904	3226
827.044	3020
827.183	2956
827.323	2883
827.462	3001
827.601	2941
827.741	2967
827.88	3005
828.02	2861
828.159	3009
828.298	3051
828.437	3146
828.577	3051
828.716	3302
828.855	3089
828.994	2918
829.134	2891
829.273	2967
829.412	2902
829.551	2895
829.69	2952
829.829	3020
829.968	3104
830.107	3039
830.246	3032
830.385	2952
830.524	2918
830.663	2838
830.802	2750
830.941	2670
831.08	2670
831.219	2804
831.357	2781
831.496	2998
831.635	2735
831.774	2670
831.913	2659
832.051	2541
832.19	2590
832.329	2731
832.467	2587
832.606	2518
832.744	2575
832.883	2625
833.022	2602
833.16	2682
833.299	2693
833.437	2712
833.576	2746
833.714	2746
833.852	2754
833.991	2785
834.129	2864
834.267	2868
834.406	2796
834.544	2883
834.682	2895
834.821	2891
834.959	3085
835.097	2941
835.235	3058
835.373	3001
835.511	3047
835.65	2937
835.788	2979
835.926	2872
836.064	2823
836.202	2906
836.34	3104
836.478	3176
836.615	3062
836.753	3119
836.891	3222
837.029	3203
837.167	3108
837.305	3089
837.443	3104
837.58	2979
837.718	3165
837.856	3104
837.993	3047
838.131	3157
838.269	3108
838.406	3123
838.544	3112
838.681	2941
838.819	2944
838.956	2864
839.094	2880
839.231	2933
839.369	3028
839.506	3393
839.643	3211
839.781	3028
839.918	2963
840.055	3036
840.193	3047
840.33	3085
840.467	3119
840.604	3146
840.742	3397
840.879	3039
841.016	3097
841.153	3116
841.29	3313
841.427	3317
841.564	3283
841.701	3355
841.838	3222
841.975	3211
842.112	3222
842.249	3123
842.385	3081
842.522	3264
842.659	3089
842.796	3051
842.933	3112
843.069	3093
843.206	3081
843.343	3173
843.479	3138
843.616	3142
843.752	2902
843.889	2922
844.025	3089
844.162	2887
844.298	3097
844.435	2948
844.571	2925
844.708	3108
844.844	3192
844.98	3264
845.117	3207
845.253	3077
845.389	3055
845.525	3142
845.661	3081
845.798	3032
845.934	3138
846.07	3039
846.206	3264
846.342	3344
846.478	3268
846.614	3119
846.75	3074
846.886	3058
847.022	3275
847.158	3123
847.294	3211
847.429	3264
847.565	3237
847.701	3504
847.837	3066
847.972	3001
848.108	3176
848.244	3169
848.379	3032
848.515	2956
848.65	2960
848.786	2967
848.921	3039
849.057	3173
849.192	3146
849.328	3097
849.463	3131
849.598	3097
849.734	3043
849.869	3013
850.004	2944
850.14	2971
850.275	2891
850.41	2887
850.545	2891
850.68	2922
850.815	2979
850.95	2979
851.085	3203
851.22	3112
851.355	3055
851.49	3001
851.625	3028
851.76	2994
851.895	2933
852.03	2944
852.165	3085
852.299	3127
852.434	3192
852.569	3169
852.703	3176
852.838	3253
852.973	3367
853.107	3359
853.242	3135
853.376	3146
853.511	3005
853.645	3058
853.78	3245
853.914	3123
854.048	3135
854.183	3100
854.317	3150
854.451	3264
854.585	3173
854.72	3066
854.854	3218
854.988	3081
855.122	3108
855.256	2990
855.39	3135
855.524	3268
855.658	3157
855.792	3150
855.926	3199
856.06	3237
856.194	3226
856.327	3138
856.461	3070
856.595	3074
856.729	3074
856.862	3214
856.996	3146
857.13	3230
857.263	3253
857.397	3298
857.53	3135
857.664	3188
857.797	3264
857.931	3294
858.064	3142
858.197	3218
858.331	3146
858.464	3112
858.597	3039
858.731	3100
858.864	3146
858.997	3085
859.13	3157
859.263	3195
859.396	3249
859.529	3093
859.662	3104
859.795	3097
859.928	3142
860.061	3237
860.194	3291
860.327	3165
860.46	3138
860.592	3256
860.725	3260
860.858	3245
860.99	3116
861.123	3047
861.256	3081
861.388	3176
861.521	3922
861.653	3001
861.786	3036
861.918	3009
862.05	3077
862.183	3150
862.315	3157
862.447	3218
862.58	3100
862.712	2941
862.844	2891
862.976	3017
863.108	3036
863.24	3458
863.372	2933
863.504	2982
863.636	2998
863.768	3001
863.9	2971
864.032	2883
864.164	2963
864.296	2998
864.428	3089
864.559	3135
864.691	3085
864.823	3085
864.954	3039
865.086	3024
865.217	2998
865.349	2933
865.48	2994
865.612	3005
865.743	3173
865.875	2975
866.006	2952
866.137	2967
866.269	2952
866.4	2922
866.531	2925
866.662	2922
866.793	2906
866.924	2876
867.055	2998
867.186	2971
867.317	2887
867.448	2823
867.579	2883
867.71	2838
867.841	2804
867.972	2906
868.103	2914
868.233	2887
868.364	2918
868.495	2906
868.625	3077
868.756	3173
868.886	2979
869.017	3017
869.147	3146
869.278	3157
869.408	3055
869.539	3077
869.669	3119
869.799	3001
869.929	3142
870.06	3089
870.19	3344
870.32	3317
870.45	3306
870.58	3378
870.71	3458
870.84	3447
870.97	3249
871.1	3275
871.23	3450
871.36	3462
871.489	3317
871.619	3389
871.749	3401
871.879	3420
872.008	3488
872.138	3370
872.267	3260
872.397	3150
872.526	3100
872.656	3043
872.785	3131
872.915	3256
873.044	3359
873.173	3211
873.303	3233
873.432	3222
873.561	3241
873.69	3150
873.819	3165
873.948	3173
874.077	3100
874.206	3043
874.335	3112
874.464	3253
874.593	3355
874.722	3260
874.851	3428
874.979	3340
875.108	3279
875.237	3249
875.365	3195
875.494	3176
875.623	3222
875.751	3108
875.88	3108
876.008	3184
876.136	3237
876.265	3370
876.393	3519
876.521	3382
876.65	3393
876.778	3374
876.906	3233
877.034	3142
877.162	3268
877.29	3154
877.418	3249
877.546	3245
877.674	3264
877.802	3230
877.93	3237
878.058	3123
878.185	3093
878.313	3195
878.441	3203
878.568	3047
878.696	3146
878.824	3260
878.951	3313
879.079	3481
879.206	3625
879.333	3439
879.461	3306
879.588	3329
879.715	3458
879.842	3629
879.97	3348
880.097	3192
880.224	3097
880.351	3203
880.478	3233
880.605	3188
880.732	3203
880.859	3496
880.986	3313
881.112	3317
881.239	3214
881.366	3093
881.493	3020
881.619	3028
881.746	3047
881.872	3081
881.999	3119
882.125	3131
882.252	3241
882.378	3317
882.505	3412
882.631	3268
882.757	3237
882.883	3226
883.01	3192
883.136	3169
883.262	3093
883.388	3112
883.514	3306
883.64	3367
883.766	3279
883.892	3203
884.018	3237
884.143	3443
884.269	3545
884.395	3199
884.52	3161
884.646	3138
884.772	3119
884.897	3112
885.023	3199
885.148	3332
885.274	3409
885.399	3367
885.524	3279
885.65	3302
885.775	3298
885.9	3310
886.025	3431
886.15	3355
886.275	3294
886.4	3214
886.525	3332
886.65	3268
886.775	3268
886.9	3488
887.025	3667
887.149	3416
887.274	3245
887.399	3214
887.523	3192
887.648	3188
887.773	3180
887.897	3386
888.021	3428
888.146	3332
888.27	3420
888.395	3557
888.519	3447
888.643	3450
888.767	3447
888.891	3321
889.015	3253
889.139	3332
889.263	3226
889.387	3370
889.511	3496
889.635	3447
889.759	3298
889.883	3294
890.006	3367
890.13	3500
890.254	3264
890.377	3367
890.501	3195
890.624	3192
890.748	3279
890.871	3211
890.995	3100
891.118	3081
891.241	3173
891.364	3195
891.488	3291
891.611	3207
891.734	3253
891.857	3283
891.98	3211
892.103	3329
892.226	3279
892.349	3233
892.471	3097
892.594	3230
892.717	3291
892.839	3283
892.962	3310
893.085	3340
893.207	3268
893.33	3195
893.452	3214
893.575	3291
893.697	3264
893.819	3458
893.941	3469
894.064	3435
894.186	3264
894.308	3298
894.43	3450
894.552	3557
894.674	3534
894.796	3279
894.918	3313
895.04	3287
895.161	3458
895.283	3336
895.405	3264
895.526	3329
895.648	3405
895.769	3420
895.891	3469
896.012	3443
896.134	3458
896.255	3378
896.376	3378
896.498	3378
896.619	3439
896.74	3340
896.861	3386
896.982	3686
897.103	3797
897.224	3564
897.345	3504
897.466	3416
897.587	3450
897.708	3595
897.828	3542
897.949	3466
898.07	3325
898.19	3405
898.311	3580
898.431	3481
898.552	3515
898.672	3587
898.792	3576
898.913	3519
899.033	3393
899.153	3272
899.273	3226
899.393	3287
899.513	3355
899.633	3313
899.753	3348
899.873	3306
899.993	3359
900.113	3336
900.232	3401
900.352	3355
900.472	3268
900.591	3203
900.711	3256
900.83	3245
900.95	3450
901.069	3469
901.189	3329
901.308	3142
901.427	3116
901.546	3165
901.665	3306
901.784	3317
901.904	3211
902.023	3176
902.141	3047
902.26	2986
902.379	3150
902.498	3066
902.617	3043
902.735	3195
902.854	3230
902.973	3222
903.091	3074
903.21	3081
903.328	3146
903.446	3077
903.565	3081
903.683	3195
903.801	3127
903.919	3249
904.038	3287
904.156	3169
904.274	3313
904.392	3268
904.51	3268
904.627	3310
904.745	3412
904.863	3500
904.981	3287
905.098	3180
905.216	3253
905.334	3321
905.451	3287
905.569	3317
905.686	3409
905.803	3450
905.921	3275
906.038	3431
906.155	3329
906.272	3256
906.389	3302
906.506	3249
906.623	3291
906.74	3268
906.857	3195
906.974	3226
907.091	3477
907.208	3568
907.324	3466
907.441	3389
907.557	3256
907.674	3253
907.79	3218
907.907	3317
908.023	3393
908.139	3348
908.256	3332
908.372	3374
908.488	3355
908.604	3256
908.72	3222
908.836	3260
908.952	3310
909.068	3389
909.184	3496
909.3	3359
909.415	3492
909.531	3469
909.647	3233
909.762	3268
909.878	3291
909.993	3332
910.108	3332
910.224	3348
910.339	3412
910.454	3325
910.57	3317
910.685	3203
910.8	3542
910.915	3549
911.03	3431
911.145	3245
911.259	3291
911.374	3332
911.489	3226
911.604	3222
911.718	3112
911.833	3184
911.947	3017
912.062	2986
912.176	3135
912.291	3184
912.405	3199
912.519	3439
912.633	3469
912.748	3325
912.862	3260
912.976	3173
913.09	3051
913.204	3135
913.318	3207
913.431	3310
913.545	3359
913.659	3416
913.772	3317
913.886	3211
914	3188
914.113	3348
914.226	3458
914.34	3401
914.453	3237
914.566	3367
914.68	3313
914.793	3310
914.906	3142
915.019	3119
915.132	3100
915.245	3157
915.358	3184
915.47	3203
915.583	3287
915.696	3241
915.809	3401
915.921	3424
916.034	3264
916.146	3207
916.259	3203
916.371	3393
916.483	3382
916.595	3272
916.708	3340
916.82	3344
916.932	3332
917.044	3355
917.156	3306
917.268	3241
917.38	3351
917.491	3291
917.603	3382
917.715	3420
917.826	3439
917.938	3382
918.049	3275
918.161	3416
918.272	3534
918.384	3564
918.495	3462
918.606	3363
918.717	3294
918.828	3355
918.939	3435
919.05	3241
919.161	3321
919.272	3173
919.383	3260
919.494	3515
919.604	3663
919.715	3473
919.826	3389
919.936	3485
920.047	3553
920.157	3542
920.267	3774
920.378	3576
920.488	3568
920.598	3785
920.708	3956
920.818	3831
920.928	3857
921.038	4040
921.148	3983
921.258	3656
921.368	3622
921.477	3553
921.587	3542
921.697	3485
921.806	3614
921.916	3492
922.025	3378
922.134	3355
922.244	3355
922.353	3393
922.462	3256
922.571	3264
922.68	3112
922.789	3051
922.898	3142
923.007	3074
923.116	3203
923.224	3165
923.333	3142
923.442	3093
923.55	3116
923.659	3138
923.767	3230
923.876	3131
923.984	3260
924.092	3097
924.201	3199
924.309	3237
924.417	3264
924.525	3207
924.633	3256
924.741	4200
924.849	3043
924.956	3214
925.064	3138
925.172	3024
925.279	3104
925.387	3195
925.494	3199
925.602	3321
925.709	3310
925.816	3180
925.924	3272
926.031	3302
926.138	3287
926.245	3355
926.352	3218
926.459	3401
926.566	3454
926.673	3313
926.779	3249
926.886	3218
926.993	3100
927.099	3119
927.206	3127
927.312	3154
927.419	3180
927.525	3180
927.631	3291
927.737	3161
927.843	3119
927.95	3028
928.056	3116
928.162	3184
928.267	3256
928.373	3751
928.479	3298
928.585	3074
928.69	3199
928.796	3287
928.901	3104
929.007	3062
929.112	3203
929.218	3142
929.323	3135
929.428	3135
929.533	3287
929.638	3104
929.743	3165
929.848	3287
929.953	3241
930.058	3157
930.163	3009
930.267	3047
930.372	3199
930.477	3017
930.581	3348
930.685	3188
930.79	3043
930.894	3119
930.998	3112
931.103	3264
931.207	2963
931.311	2956
931.415	2899
931.519	2788
931.623	2811
