Data from test_V78500241_299.txt Node
Date: Fri Mar 25 16:17:16 CST 2022
User: usil
Spectrometer: V785-0024
Trigger mode: 0
Integration Time (sec): 4.000000E-1
Scans to average: 1
Nonlinearity correction enabled: false
Boxcar width: 0
Storing dark spectrum: false
XAxis mode: Wavelengths
Number of Pixels in Spectrum: 1024
>>>>>Begin Spectral Data<<<<<
801.071	2891
801.214	2952
801.356	2861
801.499	2918
801.641	2864
801.783	2918
801.926	3039
802.068	2979
802.211	2982
802.353	3020
802.496	2975
802.638	3032
802.78	3097
802.923	3089
803.065	3036
803.208	2872
803.35	2933
803.492	2929
803.635	2941
803.777	2746
803.919	2872
804.061	3241
804.204	2960
804.346	2925
804.488	2815
804.63	3005
804.773	2876
804.915	2910
805.057	3043
805.199	2899
805.341	2975
805.483	3055
805.626	2963
805.768	3001
805.91	3119
806.052	3119
806.194	3032
806.336	3237
806.478	3028
806.62	2948
806.762	3009
806.904	3058
807.046	3157
807.188	2975
807.33	2925
807.472	2994
807.614	2880
807.756	2998
807.898	2929
808.04	2876
808.182	2971
808.324	2963
808.465	2887
808.607	2891
808.749	2834
808.891	2826
809.033	2967
809.174	2960
809.316	2880
809.458	2918
809.6	2758
809.741	2773
809.883	2792
810.025	2838
810.166	2857
810.308	2838
810.45	2853
810.591	2781
810.733	2796
810.875	2815
811.016	2777
811.158	2735
811.299	2819
811.441	2941
811.582	2891
811.724	2811
811.865	2823
812.007	2914
812.148	2872
812.29	2864
812.431	2902
812.573	2914
812.714	2967
812.855	3036
812.997	3066
813.138	3093
813.279	3001
813.421	2986
813.562	2941
813.703	2887
813.845	2883
813.986	2800
814.127	2769
814.268	2834
814.41	2838
814.551	2804
814.692	2853
814.833	2773
814.974	2876
815.115	2925
815.256	2845
815.397	2823
815.539	2857
815.68	2785
815.821	2796
815.962	2944
816.103	2948
816.244	2868
816.385	2868
816.526	2967
816.666	2914
816.807	2769
816.948	2891
817.089	2906
817.23	2853
817.371	2792
817.512	2796
817.653	2845
817.793	2785
817.934	2902
818.075	2982
818.216	2963
818.356	3005
818.497	2895
818.638	2807
818.778	2834
818.919	2823
819.06	2739
819.2	2883
819.341	2800
819.481	2807
819.622	2914
819.762	3077
819.903	3036
820.043	2956
820.184	2861
820.324	2895
820.465	3009
820.605	3005
820.746	2979
820.886	2929
821.026	3104
821.167	3165
821.307	3275
821.447	3268
821.588	3233
821.728	3176
821.868	3214
822.008	3077
822.149	3173
822.289	3237
822.429	3104
822.569	3100
822.709	3192
822.849	3039
822.99	3055
823.13	3150
823.27	3222
823.41	3097
823.55	3131
823.69	3119
823.83	3203
823.97	3081
824.11	2990
824.25	2982
824.389	3062
824.529	3131
824.669	3055
824.809	3199
824.949	3260
825.089	3192
825.228	3112
825.368	2979
825.508	2971
825.648	2967
825.787	2994
825.927	3013
826.067	2967
826.206	2941
826.346	3074
826.485	3066
826.625	3070
826.765	3241
826.904	3180
827.044	2948
827.183	2906
827.323	2880
827.462	2990
827.601	2906
827.741	2944
827.88	2986
828.02	2868
828.159	2967
828.298	3074
828.437	3112
828.577	3036
828.716	3237
828.855	3093
828.994	2880
829.134	2891
829.273	2922
829.412	2864
829.551	2861
829.69	2910
829.829	2944
829.968	3085
830.107	3001
830.246	2990
830.385	2922
830.524	2902
830.663	2815
830.802	2731
830.941	2629
831.08	2659
831.219	2746
831.357	2746
831.496	2944
831.635	2693
831.774	2640
831.913	2610
832.051	2549
832.19	2583
832.329	2689
832.467	2522
832.606	2465
832.744	2598
832.883	2571
833.022	2526
833.16	2659
833.299	2701
833.437	2655
833.576	2724
833.714	2689
833.852	2720
833.991	2724
834.129	2834
834.267	2815
834.406	2804
834.544	2872
834.682	2876
834.821	2857
834.959	3085
835.097	2861
835.235	3039
835.373	3005
835.511	3009
835.65	2922
835.788	2967
835.926	2804
836.064	2800
836.202	2834
836.34	3070
836.478	3146
836.615	3036
836.753	3085
836.891	3214
837.029	3154
837.167	3150
837.305	3058
837.443	3051
837.58	2979
837.718	3135
837.856	3066
837.993	3020
838.131	3131
838.269	3039
838.406	3097
838.544	3062
838.681	2933
838.819	2914
838.956	2807
839.094	2792
839.231	2914
839.369	3009
839.506	3393
839.643	3222
839.781	3009
839.918	2956
840.055	3058
840.193	3055
840.33	3062
840.467	3081
840.604	3173
840.742	3405
840.879	3058
841.016	3066
841.153	3142
841.29	3336
841.427	3291
841.564	3226
841.701	3287
841.838	3245
841.975	3188
842.112	3211
842.249	3131
842.385	3028
842.522	3272
842.659	3100
842.796	3058
842.933	3119
843.069	3062
843.206	3039
843.343	3165
843.479	3085
843.616	3135
843.752	2876
843.889	2857
844.025	3070
844.162	2876
844.298	3058
844.435	2937
844.571	2914
844.708	3055
844.844	3150
844.98	3260
845.117	3180
845.253	2990
845.389	3028
845.525	3119
845.661	3093
845.798	2948
845.934	3116
846.07	3066
846.206	3226
846.342	3313
846.478	3241
846.614	3100
846.75	3055
846.886	3047
847.022	3245
847.158	3135
847.294	3218
847.429	3256
847.565	3184
847.701	3492
847.837	3077
847.972	3005
848.108	3142
848.244	3138
848.379	2979
848.515	2933
848.65	2925
848.786	2963
848.921	3036
849.057	3116
849.192	3119
849.328	3039
849.463	3100
849.598	3062
849.734	3039
849.869	2963
850.004	2944
850.14	2956
850.275	2944
850.41	2849
850.545	2914
850.68	2914
850.815	2918
850.95	2994
851.085	3176
851.22	3066
851.355	3024
851.49	2990
851.625	2975
851.76	3028
851.895	2925
852.03	2914
852.165	3028
852.299	3108
852.434	3184
852.569	3146
852.703	3169
852.838	3253
852.973	3313
853.107	3321
853.242	3142
853.376	3116
853.511	2960
853.645	3051
853.78	3256
853.914	3108
854.048	3142
854.183	3081
854.317	3146
854.451	3291
854.585	3131
854.72	3070
854.854	3214
854.988	3047
855.122	3093
855.256	2960
855.39	3138
855.524	3226
855.658	3169
855.792	3146
855.926	3199
856.06	3199
856.194	3233
856.327	3169
856.461	3112
856.595	3070
856.729	3043
856.862	3199
856.996	3157
857.13	3169
857.263	3241
857.397	3279
857.53	3093
857.664	3199
857.797	3230
857.931	3241
858.064	3157
858.197	3233
858.331	3116
858.464	3093
858.597	3013
858.731	3116
858.864	3093
858.997	3112
859.13	3123
859.263	3203
859.396	3180
859.529	3097
859.662	3093
859.795	3047
859.928	3180
860.061	3253
860.194	3264
860.327	3081
860.46	3119
860.592	3237
860.725	3233
860.858	3260
860.99	3116
861.123	3036
861.256	3043
861.388	3146
861.521	3857
861.653	3013
861.786	3039
861.918	2979
862.05	3074
862.183	3093
862.315	3161
862.447	3192
862.58	3104
862.712	2948
862.844	2868
862.976	3039
863.108	3001
863.24	3317
863.372	2868
863.504	2956
863.636	2918
863.768	3039
863.9	2937
864.032	2895
864.164	2914
864.296	3020
864.428	3051
864.559	3093
864.691	3051
864.823	3081
864.954	3024
865.086	3051
865.217	3028
865.349	2944
865.48	2933
865.612	3062
865.743	3154
865.875	2982
866.006	2944
866.137	2986
866.269	2944
866.4	2922
866.531	2922
866.662	2895
866.793	2925
866.924	2887
867.055	2971
867.186	2914
867.317	2880
867.448	2857
867.579	2830
867.71	2834
867.841	2800
867.972	2906
868.103	2880
868.233	2887
868.364	2876
868.495	2918
868.625	3116
868.756	3180
868.886	2960
869.017	3017
869.147	3142
869.278	3184
869.408	3043
869.539	3043
869.669	3058
869.799	3013
869.929	3112
870.06	3081
870.19	3374
870.32	3279
870.45	3268
870.58	3340
870.71	3409
870.84	3469
870.97	3294
871.1	3203
871.23	3488
871.36	3447
871.489	3329
871.619	3374
871.749	3439
871.879	3454
872.008	3462
872.138	3389
872.267	3283
872.397	3157
872.526	3100
872.656	3039
872.785	3062
872.915	3272
873.044	3321
873.173	3218
873.303	3207
873.432	3241
873.561	3272
873.69	3093
873.819	3123
873.948	3161
874.077	3108
874.206	3055
874.335	3108
874.464	3192
874.593	3332
874.722	3241
874.851	3420
874.979	3336
875.108	3317
875.237	3226
875.365	3150
875.494	3127
875.623	3279
875.751	3043
875.88	3150
876.008	3184
876.136	3199
876.265	3378
876.393	3515
876.521	3401
876.65	3370
876.778	3310
876.906	3237
877.034	3195
877.162	3226
877.29	3142
877.418	3245
877.546	3230
877.674	3253
877.802	3249
877.93	3237
878.058	3154
878.185	3112
878.313	3195
878.441	3211
878.568	3039
878.696	3146
878.824	3237
878.951	3325
879.079	3469
879.206	3564
879.333	3458
879.461	3336
879.588	3321
879.715	3500
879.842	3572
879.97	3382
880.097	3176
880.224	3150
880.351	3203
880.478	3218
880.605	3161
880.732	3169
880.859	3469
880.986	3256
881.112	3329
881.239	3199
881.366	3066
881.493	3036
881.619	3058
881.746	3100
881.872	3081
881.999	3119
882.125	3135
882.252	3245
882.378	3310
882.505	3405
882.631	3272
882.757	3138
882.883	3207
883.01	3249
883.136	3150
883.262	3093
883.388	3116
883.514	3325
883.64	3348
883.766	3298
883.892	3161
884.018	3256
884.143	3405
884.269	3538
884.395	3203
884.52	3165
884.646	3192
884.772	3112
884.897	3081
885.023	3169
885.148	3329
885.274	3435
885.399	3344
885.524	3268
885.65	3245
885.775	3317
885.9	3283
886.025	3447
886.15	3370
886.275	3302
886.4	3218
886.525	3310
886.65	3264
886.775	3249
886.9	3485
887.025	3629
887.149	3393
887.274	3245
887.399	3184
887.523	3173
887.648	3192
887.773	3211
887.897	3386
888.021	3416
888.146	3317
888.27	3428
888.395	3538
888.519	3443
888.643	3462
888.767	3492
888.891	3298
889.015	3253
889.139	3298
889.263	3253
889.387	3416
889.511	3526
889.635	3447
889.759	3287
889.883	3279
890.006	3370
890.13	3450
890.254	3237
890.377	3313
890.501	3195
890.624	3188
890.748	3283
890.871	3203
890.995	3074
891.118	3070
891.241	3211
891.364	3230
891.488	3306
891.611	3192
891.734	3211
891.857	3287
891.98	3306
892.103	3302
892.226	3294
892.349	3230
892.471	3116
892.594	3173
892.717	3298
892.839	3283
892.962	3275
893.085	3393
893.207	3298
893.33	3169
893.452	3184
893.575	3351
893.697	3245
893.819	3458
893.941	3504
894.064	3466
894.186	3275
894.308	3237
894.43	3454
894.552	3530
894.674	3469
894.796	3249
894.918	3302
895.04	3275
895.161	3439
895.283	3462
895.405	3283
895.526	3332
895.648	3397
895.769	3405
895.891	3439
896.012	3458
896.134	3443
896.255	3401
896.376	3378
896.498	3359
896.619	3439
896.74	3351
896.861	3435
896.982	3671
897.103	3869
897.224	3545
897.345	3545
897.466	3454
897.587	3500
897.708	3603
897.828	3561
897.949	3458
898.07	3340
898.19	3405
898.311	3629
898.431	3454
898.552	3526
898.672	3610
898.792	3568
898.913	3561
899.033	3405
899.153	3279
899.273	3222
899.393	3291
899.513	3279
899.633	3317
899.753	3321
899.873	3317
899.993	3370
900.113	3317
900.232	3389
900.352	3340
900.472	3298
900.591	3226
900.711	3306
900.83	3230
900.95	3401
901.069	3523
901.189	3374
901.308	3180
901.427	3123
901.546	3230
901.665	3302
901.784	3351
901.904	3188
902.023	3138
902.141	3028
902.26	2956
902.379	3123
902.498	3024
902.617	3051
902.735	3218
902.854	3222
902.973	3154
903.091	3009
903.21	3066
903.328	3150
903.446	3135
903.565	3116
903.683	3192
903.801	3119
903.919	3275
904.038	3268
904.156	3199
904.274	3291
904.392	3272
904.51	3351
904.627	3359
904.745	3435
904.863	3477
904.981	3256
905.098	3184
905.216	3218
905.334	3287
905.451	3325
905.569	3313
905.686	3401
905.803	3389
905.921	3313
906.038	3424
906.155	3351
906.272	3294
906.389	3336
906.506	3226
906.623	3279
906.74	3306
906.857	3199
906.974	3230
907.091	3439
907.208	3538
907.324	3450
907.441	3374
907.557	3214
907.674	3237
907.79	3199
907.907	3279
908.023	3409
908.139	3351
908.256	3329
908.372	3405
908.488	3348
908.604	3245
908.72	3214
908.836	3256
908.952	3275
909.068	3317
909.184	3507
909.3	3428
909.415	3477
909.531	3477
909.647	3287
909.762	3302
909.878	3226
909.993	3351
910.108	3310
910.224	3317
910.339	3416
910.454	3279
910.57	3275
910.685	3264
910.8	3564
910.915	3568
911.03	3420
911.145	3260
911.259	3272
911.374	3340
911.489	3264
911.604	3256
911.718	3085
911.833	3150
911.947	3028
912.062	2960
912.176	3176
912.291	3203
912.405	3233
912.519	3389
912.633	3443
912.748	3355
912.862	3241
912.976	3142
913.09	3047
913.204	3131
913.318	3203
913.431	3321
913.545	3287
913.659	3428
913.772	3287
913.886	3214
914	3214
914.113	3306
914.226	3401
914.34	3310
914.453	3241
914.566	3439
914.68	3298
914.793	3317
914.906	3119
915.019	3085
915.132	3066
915.245	3192
915.358	3230
915.47	3233
915.583	3211
915.696	3283
915.809	3416
915.921	3424
916.034	3264
916.146	3279
916.259	3241
916.371	3355
916.483	3336
916.595	3291
916.708	3329
916.82	3332
916.932	3351
917.044	3306
917.156	3348
917.268	3279
917.38	3279
917.491	3291
917.603	3351
917.715	3481
917.826	3473
917.938	3367
918.049	3287
918.161	3435
918.272	3561
918.384	3549
918.495	3488
918.606	3336
918.717	3287
918.828	3367
918.939	3435
919.05	3291
919.161	3397
919.272	3192
919.383	3275
919.494	3443
919.604	3675
919.715	3504
919.826	3405
919.936	3424
920.047	3580
920.157	3523
920.267	3728
920.378	3591
920.488	3553
920.598	3774
920.708	3896
920.818	3831
920.928	3804
921.038	4040
921.148	3994
921.258	3709
921.368	3625
921.477	3572
921.587	3564
921.697	3466
921.806	3606
921.916	3511
922.025	3317
922.134	3367
922.244	3332
922.353	3454
922.462	3237
922.571	3256
922.68	3135
922.789	3081
922.898	3131
923.007	3097
923.116	3211
923.224	3131
923.333	3203
923.442	3093
923.55	3131
923.659	3119
923.767	3233
923.876	3119
923.984	3272
924.092	3089
924.201	3207
924.309	3260
924.417	3272
924.525	3192
924.633	3256
924.741	4188
924.849	3089
924.956	3268
925.064	3138
925.172	3085
925.279	3157
925.387	3222
925.494	3230
925.602	3401
925.709	3355
925.816	3222
925.924	3306
926.031	3431
926.138	3363
926.245	3409
926.352	3249
926.459	3454
926.566	3500
926.673	3348
926.779	3313
926.886	3321
926.993	3180
927.099	3192
927.206	3138
927.312	3173
927.419	3287
927.525	3237
927.631	3355
927.737	3195
927.843	3180
927.95	3066
928.056	3180
928.162	3241
928.267	3306
928.373	3964
928.479	3401
928.585	3108
928.69	3226
928.796	3317
928.901	3188
929.007	3104
929.112	3253
929.218	3230
929.323	3173
929.428	3222
929.533	3344
929.638	3176
929.743	3199
929.848	3287
929.953	3268
930.058	3233
930.163	3032
930.267	3085
930.372	3245
930.477	3108
930.581	3367
930.685	3226
930.79	3070
930.894	3192
930.998	3138
931.103	3340
931.207	3028
931.311	3001
931.415	2975
931.519	2807
931.623	2830
