Data from test_V78500241_91.txt Node
Date: Fri Mar 25 16:15:50 CST 2022
User: usil
Spectrometer: V785-0024
Trigger mode: 0
Integration Time (sec): 4.000000E-1
Scans to average: 1
Nonlinearity correction enabled: false
Boxcar width: 0
Storing dark spectrum: false
XAxis mode: Wavelengths
Number of Pixels in Spectrum: 1024
>>>>>Begin Spectral Data<<<<<
801.071	2944
801.214	2956
801.356	2895
801.499	2937
801.641	2902
801.783	2910
801.926	3089
802.068	2994
802.211	3001
802.353	3093
802.496	2990
802.638	3005
802.78	3093
802.923	3112
803.065	3036
803.208	2948
803.35	2944
803.492	2963
803.635	2914
803.777	2766
803.919	2853
804.061	3214
804.204	2982
804.346	2925
804.488	2887
804.63	3036
804.773	2876
804.915	2883
805.057	3062
805.199	2982
805.341	2956
805.483	3028
805.626	3055
805.768	2948
805.91	3074
806.052	3135
806.194	3024
806.336	3272
806.478	3020
806.62	2998
806.762	3005
806.904	3058
807.046	3165
807.188	3001
807.33	2925
807.472	3009
807.614	2910
807.756	2998
807.898	2963
808.04	2914
808.182	3001
808.324	2998
808.465	2899
808.607	2864
808.749	2804
808.891	2826
809.033	2971
809.174	2967
809.316	2914
809.458	2910
809.6	2777
809.741	2758
809.883	2788
810.025	2868
810.166	2891
810.308	2853
810.45	2880
810.591	2815
810.733	2796
810.875	2815
811.016	2807
811.158	2796
811.299	2868
811.441	2952
811.582	2925
811.724	2842
811.865	2838
812.007	2944
812.148	2910
812.29	2864
812.431	2918
812.573	2941
812.714	3001
812.855	3070
812.997	3070
813.138	3119
813.279	2994
813.421	3028
813.562	2979
813.703	2864
813.845	2937
813.986	2777
814.127	2762
814.268	2842
814.41	2838
814.551	2849
814.692	2899
814.833	2864
814.974	2933
815.115	2990
815.256	2864
815.397	2838
815.539	2883
815.68	2815
815.821	2811
815.962	2952
816.103	2982
816.244	2910
816.385	2895
816.526	2963
816.666	2925
816.807	2731
816.948	2891
817.089	2910
817.23	2845
817.371	2773
817.512	2804
817.653	2826
817.793	2838
817.934	2880
818.075	2990
818.216	2990
818.356	3047
818.497	2918
818.638	2823
818.778	2861
818.919	2807
819.06	2792
819.2	2864
819.341	2811
819.481	2819
819.622	2956
819.762	3093
819.903	3070
820.043	2960
820.184	2944
820.324	2941
820.465	3055
820.605	2986
820.746	3100
820.886	2960
821.026	3104
821.167	3161
821.307	3306
821.447	3306
821.588	3226
821.728	3226
821.868	3214
822.008	3066
822.149	3184
822.289	3207
822.429	3119
822.569	3070
822.709	3218
822.849	3055
822.99	3058
823.13	3119
823.27	3207
823.41	3131
823.55	3150
823.69	3173
823.83	3184
823.97	3097
824.11	3017
824.25	3024
824.389	3085
824.529	3135
824.669	3089
824.809	3199
824.949	3287
825.089	3233
825.228	3165
825.368	3047
825.508	2963
825.648	2975
825.787	2975
825.927	3058
826.067	2979
826.206	2975
826.346	3005
826.485	3116
826.625	3116
826.765	3329
826.904	3218
827.044	3009
827.183	2975
827.323	2880
827.462	3013
827.601	2922
827.741	2944
827.88	2963
828.02	2891
828.159	2944
828.298	3062
828.437	3150
828.577	3051
828.716	3287
828.855	3138
828.994	2967
829.134	2899
829.273	2975
829.412	2902
829.551	2872
829.69	2925
829.829	2960
829.968	3195
830.107	3058
830.246	3024
830.385	2975
830.524	2922
830.663	2864
830.802	2785
830.941	2670
831.08	2712
831.219	2800
831.357	2792
831.496	3013
831.635	2785
831.774	2712
831.913	2724
832.051	2590
832.19	2617
832.329	2739
832.467	2583
832.606	2564
832.744	2663
832.883	2602
833.022	2651
833.16	2701
833.299	2686
833.437	2716
833.576	2773
833.714	2788
833.852	2788
833.991	2834
834.129	2861
834.267	2891
834.406	2857
834.544	2944
834.682	2933
834.821	2922
834.959	3116
835.097	3001
835.235	3123
835.373	3081
835.511	3093
835.65	3036
835.788	3013
835.926	2899
836.064	2853
836.202	2906
836.34	3157
836.478	3214
836.615	3142
836.753	3207
836.891	3260
837.029	3199
837.167	3203
837.305	3146
837.443	3127
837.58	3051
837.718	3176
837.856	3135
837.993	3104
838.131	3192
838.269	3184
838.406	3173
838.544	3150
838.681	2956
838.819	2982
838.956	2853
839.094	2872
839.231	2963
839.369	3112
839.506	3477
839.643	3260
839.781	3032
839.918	3043
840.055	3074
840.193	3074
840.33	3104
840.467	3142
840.604	3211
840.742	3500
840.879	3100
841.016	3138
841.153	3192
841.29	3424
841.427	3348
841.564	3397
841.701	3374
841.838	3283
841.975	3245
842.112	3272
842.249	3138
842.385	3123
842.522	3283
842.659	3100
842.796	3142
842.933	3157
843.069	3112
843.206	3081
843.343	3233
843.479	3184
843.616	3184
843.752	2956
843.889	2948
844.025	3131
844.162	2944
844.298	3165
844.435	2982
844.571	2963
844.708	3146
844.844	3245
844.98	3306
845.117	3268
845.253	3104
845.389	3036
845.525	3161
845.661	3165
845.798	3089
845.934	3176
846.07	3077
846.206	3268
846.342	3367
846.478	3264
846.614	3161
846.75	3127
846.886	3055
847.022	3306
847.158	3214
847.294	3279
847.429	3340
847.565	3237
847.701	3523
847.837	3062
847.972	3074
848.108	3233
848.244	3195
848.379	3001
848.515	3013
848.65	2982
848.786	3020
848.921	3074
849.057	3165
849.192	3192
849.328	3116
849.463	3184
849.598	3154
849.734	3123
849.869	2986
850.004	2982
850.14	3017
850.275	3028
850.41	2910
850.545	2948
850.68	2990
850.815	2975
850.95	3028
851.085	3233
851.22	3180
851.355	3081
851.49	3043
851.625	3070
851.76	3085
851.895	2979
852.03	2967
852.165	3089
852.299	3146
852.434	3294
852.569	3176
852.703	3241
852.838	3321
852.973	3420
853.107	3363
853.242	3233
853.376	3169
853.511	3005
853.645	3104
853.78	3325
853.914	3226
854.048	3161
854.183	3173
854.317	3211
854.451	3359
854.585	3211
854.72	3123
854.854	3294
854.988	3119
855.122	3154
855.256	3043
855.39	3169
855.524	3340
855.658	3249
855.792	3268
855.926	3230
856.06	3241
856.194	3306
856.327	3211
856.461	3131
856.595	3146
856.729	3142
856.862	3249
856.996	3264
857.13	3268
857.263	3302
857.397	3340
857.53	3161
857.664	3222
857.797	3302
857.931	3306
858.064	3207
858.197	3275
858.331	3203
858.464	3142
858.597	3039
858.731	3195
858.864	3161
858.997	3127
859.13	3241
859.263	3218
859.396	3241
859.529	3157
859.662	3157
859.795	3142
859.928	3207
860.061	3329
860.194	3329
860.327	3207
860.46	3169
860.592	3336
860.725	3332
860.858	3313
860.99	3135
861.123	3119
861.256	3116
861.388	3176
861.521	3774
861.653	3081
861.786	3074
861.918	3020
862.05	3089
862.183	3154
862.315	3233
862.447	3275
862.58	3150
862.712	3013
862.844	2944
862.976	3077
863.108	3066
863.24	3466
863.372	2918
863.504	3005
863.636	3001
863.768	3089
863.9	3017
864.032	2948
864.164	2986
864.296	3077
864.428	3165
864.559	3131
864.691	3154
864.823	3116
864.954	3089
865.086	3104
865.217	3047
865.349	2990
865.48	2998
865.612	3070
865.743	3199
865.875	3047
866.006	2952
866.137	3013
866.269	2994
866.4	2986
866.531	2971
866.662	2960
866.793	2922
866.924	2956
867.055	2990
867.186	2975
867.317	2975
867.448	2902
867.579	2902
867.71	2891
867.841	2880
867.972	2933
868.103	2918
868.233	2925
868.364	2914
868.495	2963
868.625	3112
868.756	3207
868.886	3062
869.017	3070
869.147	3222
869.278	3230
869.408	3104
869.539	3077
869.669	3138
869.799	3100
869.929	3195
870.06	3173
870.19	3393
870.32	3329
870.45	3336
870.58	3431
870.71	3477
870.84	3488
870.97	3340
871.1	3298
871.23	3568
871.36	3523
871.489	3374
871.619	3454
871.749	3481
871.879	3496
872.008	3481
872.138	3431
872.267	3332
872.397	3218
872.526	3188
872.656	3047
872.785	3123
872.915	3291
873.044	3374
873.173	3264
873.303	3336
873.432	3310
873.561	3275
873.69	3199
873.819	3169
873.948	3233
874.077	3188
874.206	3085
874.335	3138
874.464	3268
874.593	3401
874.722	3302
874.851	3454
874.979	3401
875.108	3351
875.237	3214
875.365	3226
875.494	3218
875.623	3291
875.751	3146
875.88	3169
876.008	3249
876.136	3264
876.265	3416
876.393	3572
876.521	3477
876.65	3454
876.778	3374
876.906	3317
877.034	3237
877.162	3233
877.29	3241
877.418	3310
877.546	3264
877.674	3325
877.802	3306
877.93	3291
878.058	3203
878.185	3154
878.313	3245
878.441	3256
878.568	3138
878.696	3192
878.824	3275
878.951	3344
879.079	3511
879.206	3709
879.333	3492
879.461	3363
879.588	3412
879.715	3530
879.842	3618
879.97	3481
880.097	3249
880.224	3161
880.351	3249
880.478	3249
880.605	3249
880.732	3264
880.859	3534
880.986	3378
881.112	3416
881.239	3253
881.366	3154
881.493	3100
881.619	3051
881.746	3112
881.872	3135
881.999	3173
882.125	3169
882.252	3310
882.378	3321
882.505	3473
882.631	3298
882.757	3222
882.883	3253
883.01	3264
883.136	3222
883.262	3142
883.388	3188
883.514	3378
883.64	3492
883.766	3291
883.892	3233
884.018	3287
884.143	3481
884.269	3648
884.395	3260
884.52	3180
884.646	3207
884.772	3157
884.897	3184
885.023	3226
885.148	3332
885.274	3469
885.399	3405
885.524	3321
885.65	3325
885.775	3363
885.9	3279
886.025	3428
886.15	3405
886.275	3313
886.4	3310
886.525	3336
886.65	3272
886.775	3321
886.9	3538
887.025	3663
887.149	3473
887.274	3294
887.399	3207
887.523	3245
887.648	3222
887.773	3237
887.897	3412
888.021	3469
888.146	3378
888.27	3485
888.395	3599
888.519	3496
888.643	3481
888.767	3545
888.891	3393
889.015	3287
889.139	3336
889.263	3260
889.387	3443
889.511	3545
889.635	3477
889.759	3325
889.883	3344
890.006	3393
890.13	3557
890.254	3336
890.377	3382
890.501	3260
890.624	3241
890.748	3329
890.871	3199
890.995	3161
891.118	3127
891.241	3218
891.364	3310
891.488	3378
891.611	3203
891.734	3260
891.857	3317
891.98	3260
892.103	3355
892.226	3329
892.349	3268
892.471	3138
892.594	3287
892.717	3306
892.839	3302
892.962	3332
893.085	3405
893.207	3374
893.33	3214
893.452	3241
893.575	3370
893.697	3340
893.819	3477
893.941	3553
894.064	3473
894.186	3332
894.308	3325
894.43	3492
894.552	3584
894.674	3519
894.796	3329
894.918	3378
895.04	3344
895.161	3469
895.283	3435
895.405	3363
895.526	3416
895.648	3488
895.769	3458
895.891	3507
896.012	3523
896.134	3481
896.255	3420
896.376	3439
896.498	3367
896.619	3450
896.74	3409
896.861	3424
896.982	3747
897.103	3903
897.224	3625
897.345	3545
897.466	3447
897.587	3561
897.708	3698
897.828	3610
897.949	3500
898.07	3359
898.19	3481
898.311	3603
898.431	3481
898.552	3523
898.672	3656
898.792	3618
898.913	3545
899.033	3454
899.153	3329
899.273	3249
899.393	3317
899.513	3378
899.633	3351
899.753	3386
899.873	3329
899.993	3458
900.113	3363
900.232	3439
900.352	3367
900.472	3329
900.591	3237
900.711	3348
900.83	3321
900.95	3439
901.069	3530
901.189	3401
901.308	3226
901.427	3188
901.546	3233
901.665	3340
901.784	3340
901.904	3287
902.023	3142
902.141	3047
902.26	3047
902.379	3222
902.498	3112
902.617	3066
902.735	3237
902.854	3249
902.973	3211
903.091	3085
903.21	3081
903.328	3199
903.446	3154
903.565	3138
903.683	3218
903.801	3131
903.919	3275
904.038	3340
904.156	3195
904.274	3336
904.392	3329
904.51	3329
904.627	3370
904.745	3488
904.863	3542
904.981	3321
905.098	3230
905.216	3313
905.334	3344
905.451	3370
905.569	3389
905.686	3511
905.803	3443
905.921	3359
906.038	3538
906.155	3401
906.272	3329
906.389	3389
906.506	3294
906.623	3302
906.74	3348
906.857	3283
906.974	3340
907.091	3519
907.208	3618
907.324	3538
907.441	3492
907.557	3283
907.674	3332
907.79	3260
907.907	3344
908.023	3435
908.139	3420
908.256	3439
908.372	3435
908.488	3420
908.604	3325
908.72	3283
908.836	3359
908.952	3363
909.068	3416
909.184	3534
909.3	3481
909.415	3587
909.531	3557
909.647	3336
909.762	3393
909.878	3348
909.993	3439
910.108	3409
910.224	3458
910.339	3511
910.454	3428
910.57	3367
910.685	3355
910.8	3671
910.915	3629
911.03	3534
911.145	3370
911.259	3325
911.374	3409
911.489	3321
911.604	3283
911.718	3142
911.833	3230
911.947	3116
912.062	3058
912.176	3245
912.291	3268
912.405	3237
912.519	3492
912.633	3511
912.748	3416
912.862	3363
912.976	3241
913.09	3135
913.204	3195
913.318	3294
913.431	3420
913.545	3412
913.659	3481
913.772	3412
913.886	3275
914	3298
914.113	3412
914.226	3481
914.34	3466
914.453	3306
914.566	3492
914.68	3344
914.793	3405
914.906	3192
915.019	3188
915.132	3127
915.245	3249
915.358	3306
915.47	3332
915.583	3351
915.696	3355
915.809	3473
915.921	3488
916.034	3340
916.146	3332
916.259	3283
916.371	3412
916.483	3462
916.595	3374
916.708	3435
916.82	3386
916.932	3431
917.044	3428
917.156	3435
917.268	3329
917.38	3363
917.491	3386
917.603	3412
917.715	3500
917.826	3519
917.938	3485
918.049	3321
918.161	3530
918.272	3660
918.384	3644
918.495	3534
918.606	3378
918.717	3351
918.828	3424
918.939	3492
919.05	3389
919.161	3458
919.272	3233
919.383	3363
919.494	3580
919.604	3751
919.715	3545
919.826	3450
919.936	3534
920.047	3667
920.157	3591
920.267	3808
920.378	3652
920.488	3648
920.598	3835
920.708	4055
920.818	3876
920.928	3937
921.038	4097
921.148	4059
921.258	3789
921.368	3717
921.477	3679
921.587	3580
921.697	3519
921.806	3743
921.916	3576
922.025	3462
922.134	3428
922.244	3405
922.353	3488
922.462	3329
922.571	3260
922.68	3180
922.789	3097
922.898	3169
923.007	3161
923.116	3294
923.224	3275
923.333	3256
923.442	3146
923.55	3169
923.659	3199
923.767	3294
923.876	3150
923.984	3310
924.092	3161
924.201	3253
924.309	3279
924.417	3351
924.525	3283
924.633	3306
924.741	4249
924.849	3058
924.956	3317
925.064	3127
925.172	3116
925.279	3184
925.387	3268
925.494	3294
925.602	3420
925.709	3393
925.816	3195
925.924	3386
926.031	3439
926.138	3397
926.245	3431
926.352	3344
926.459	3504
926.566	3561
926.673	3374
926.779	3313
926.886	3363
926.993	3253
927.099	3169
927.206	3188
927.312	3203
927.419	3283
927.525	3260
927.631	3332
927.737	3192
927.843	3154
927.95	3074
928.056	3192
928.162	3264
928.267	3348
928.373	3831
928.479	3367
928.585	3138
928.69	3264
928.796	3344
928.901	3283
929.007	3108
929.112	3298
929.218	3264
929.323	3241
929.428	3233
929.533	3367
929.638	3184
929.743	3253
929.848	3275
929.953	3302
930.058	3195
930.163	3093
930.267	3112
930.372	3253
930.477	3097
930.581	3401
930.685	3245
930.79	3108
930.894	3169
930.998	3169
931.103	3344
931.207	3009
931.311	2960
931.415	2982
931.519	2834
931.623	2899
