Data from test_V78500241_1676.txt Node
Date: Fri Mar 25 16:26:48 CST 2022
User: usil
Spectrometer: V785-0024
Trigger mode: 0
Integration Time (sec): 4.000000E-1
Scans to average: 1
Nonlinearity correction enabled: false
Boxcar width: 0
Storing dark spectrum: false
XAxis mode: Wavelengths
Number of Pixels in Spectrum: 1024
>>>>>Begin Spectral Data<<<<<
801.071	2891
801.214	2937
801.356	2868
801.499	2883
801.641	2876
801.783	2944
801.926	3020
802.068	2967
802.211	3028
802.353	3039
802.496	2944
802.638	3013
802.78	3077
802.923	3074
803.065	2971
803.208	2883
803.35	2902
803.492	2899
803.635	2922
803.777	2743
803.919	2861
804.061	3184
804.204	2941
804.346	2876
804.488	2861
804.63	2960
804.773	2906
804.915	2891
805.057	3074
805.199	2937
805.341	2948
805.483	3039
805.626	3009
805.768	2952
805.91	3039
806.052	3070
806.194	3047
806.336	3214
806.478	3017
806.62	2952
806.762	2971
806.904	3047
807.046	3154
807.188	2956
807.33	2906
807.472	2986
807.614	2891
807.756	2975
807.898	2956
808.04	2925
808.182	2960
808.324	2910
808.465	2872
808.607	2891
808.749	2811
808.891	2842
809.033	2960
809.174	2982
809.316	2861
809.458	2902
809.6	2781
809.741	2773
809.883	2758
810.025	2838
810.166	2868
810.308	2861
810.45	2887
810.591	2769
810.733	2785
810.875	2864
811.016	2777
811.158	2758
811.299	2788
811.441	2944
811.582	2910
811.724	2838
811.865	2861
812.007	2914
812.148	2872
812.29	2857
812.431	2891
812.573	2941
812.714	2963
812.855	3055
812.997	3032
813.138	3089
813.279	2990
813.421	2967
813.562	2941
813.703	2864
813.845	2925
813.986	2792
814.127	2689
814.268	2853
814.41	2849
814.551	2849
814.692	2861
814.833	2762
814.974	2883
815.115	2975
815.256	2849
815.397	2826
815.539	2876
815.68	2781
815.821	2788
815.962	2956
816.103	2899
816.244	2891
816.385	2880
816.526	2933
816.666	2899
816.807	2762
816.948	2902
817.089	2861
817.23	2853
817.371	2777
817.512	2807
817.653	2861
817.793	2796
817.934	2895
818.075	2979
818.216	2967
818.356	3043
818.497	2883
818.638	2800
818.778	2838
818.919	2804
819.06	2735
819.2	2842
819.341	2769
819.481	2807
819.622	2906
819.762	3112
819.903	3032
820.043	2887
820.184	2883
820.324	2861
820.465	2998
820.605	2986
820.746	3017
820.886	2937
821.026	3097
821.167	3154
821.307	3264
821.447	3302
821.588	3218
821.728	3173
821.868	3214
822.008	3055
822.149	3176
822.289	3188
822.429	3112
822.569	3138
822.709	3169
822.849	3043
822.99	3020
823.13	3161
823.27	3230
823.41	3089
823.55	3127
823.69	3131
823.83	3173
823.97	3093
824.11	2975
824.25	3032
824.389	3051
824.529	3123
824.669	3058
824.809	3184
824.949	3230
825.089	3214
825.228	3123
825.368	3005
825.508	2933
825.648	2990
825.787	3028
825.927	3020
826.067	2994
826.206	2967
826.346	3055
826.485	3047
826.625	3097
826.765	3287
826.904	3195
827.044	2982
827.183	2914
827.323	2849
827.462	2979
827.601	2883
827.741	2937
827.88	2925
828.02	2838
828.159	2967
828.298	3077
828.437	3085
828.577	3032
828.716	3230
828.855	3070
828.994	2925
829.134	2872
829.273	2887
829.412	2849
829.551	2834
829.69	2941
829.829	2960
829.968	3135
830.107	2998
830.246	3039
830.385	2944
830.524	2872
830.663	2804
830.802	2739
830.941	2632
831.08	2617
831.219	2750
831.357	2750
831.496	2948
831.635	2708
831.774	2617
831.913	2629
832.051	2533
832.19	2579
832.329	2648
832.467	2526
832.606	2495
832.744	2556
832.883	2564
833.022	2583
833.16	2670
833.299	2674
833.437	2693
833.576	2712
833.714	2735
833.852	2689
833.991	2739
834.129	2823
834.267	2823
834.406	2807
834.544	2861
834.682	2868
834.821	2918
834.959	3039
835.097	2887
835.235	3074
835.373	2990
835.511	3005
835.65	2948
835.788	2960
835.926	2849
836.064	2804
836.202	2834
836.34	3104
836.478	3157
836.615	3013
836.753	3127
836.891	3131
837.029	3176
837.167	3089
837.305	3043
837.443	3043
837.58	2937
837.718	3123
837.856	3032
837.993	2998
838.131	3070
838.269	3116
838.406	3081
838.544	3104
838.681	2922
838.819	2902
838.956	2815
839.094	2845
839.231	2887
839.369	2967
839.506	3405
839.643	3199
839.781	3013
839.918	2971
840.055	3055
840.193	3017
840.33	3100
840.467	3055
840.604	3169
840.742	3367
840.879	3036
841.016	3062
841.153	3138
841.29	3317
841.427	3302
841.564	3279
841.701	3306
841.838	3218
841.975	3173
842.112	3180
842.249	3081
842.385	3017
842.522	3226
842.659	3123
842.796	3039
842.933	3112
843.069	3058
843.206	3058
843.343	3192
843.479	3081
843.616	3127
843.752	2902
843.889	2838
844.025	3089
844.162	2883
844.298	3074
844.435	2918
844.571	2906
844.708	3070
844.844	3195
844.98	3233
845.117	3169
845.253	3081
845.389	2998
845.525	3077
845.661	3081
845.798	2986
845.934	3116
846.07	3051
846.206	3233
846.342	3298
846.478	3203
846.614	3009
846.75	3039
846.886	3051
847.022	3241
847.158	3169
847.294	3199
847.429	3245
847.565	3211
847.701	3477
847.837	3051
847.972	2963
848.108	3161
848.244	3127
848.379	2971
848.515	2963
848.65	2948
848.786	2933
848.921	2994
849.057	3062
849.192	3150
849.328	3074
849.463	3055
849.598	3043
849.734	3036
849.869	2971
850.004	2902
850.14	2998
850.275	2933
850.41	2845
850.545	2864
850.68	2914
850.815	2971
850.95	2914
851.085	3157
851.22	3081
851.355	3036
851.49	2952
851.625	3020
851.76	3020
851.895	2925
852.03	2883
852.165	3024
852.299	3093
852.434	3165
852.569	3131
852.703	3157
852.838	3233
852.973	3336
853.107	3329
853.242	3154
853.376	3085
853.511	2948
853.645	2998
853.78	3199
853.914	3119
854.048	3097
854.183	3089
854.317	3184
854.451	3283
854.585	3116
854.72	3104
854.854	3203
854.988	3062
855.122	3100
855.256	2986
855.39	3142
855.524	3226
855.658	3195
855.792	3161
855.926	3176
856.06	3233
856.194	3245
856.327	3138
856.461	3093
856.595	3066
856.729	3074
856.862	3226
856.996	3150
857.13	3165
857.263	3199
857.397	3310
857.53	3146
857.664	3131
857.797	3218
857.931	3272
858.064	3157
858.197	3207
858.331	3123
858.464	3085
858.597	3017
858.731	3108
858.864	3131
858.997	3089
859.13	3116
859.263	3161
859.396	3195
859.529	3093
859.662	3089
859.795	3039
859.928	3138
860.061	3283
860.194	3306
860.327	3119
860.46	3104
860.592	3237
860.725	3249
860.858	3268
860.99	3085
861.123	3039
861.256	3074
861.388	3119
861.521	3842
861.653	3028
861.786	3005
861.918	3020
862.05	3058
862.183	3070
862.315	3135
862.447	3173
862.58	3093
862.712	2963
862.844	2868
862.976	3055
863.108	2982
863.24	3428
863.372	2864
863.504	2963
863.636	2944
863.768	3005
863.9	2929
864.032	2880
864.164	2944
864.296	3017
864.428	3066
864.559	3055
864.691	3077
864.823	3028
864.954	3005
865.086	3001
865.217	2979
865.349	2952
865.48	2941
865.612	3017
865.743	3154
865.875	2975
866.006	2952
866.137	2967
866.269	2944
866.4	2929
866.531	2914
866.662	2902
866.793	2902
866.924	2857
867.055	2971
867.186	2925
867.317	2857
867.448	2845
867.579	2853
867.71	2861
867.841	2845
867.972	2899
868.103	2914
868.233	2887
868.364	2864
868.495	2887
868.625	3062
868.756	3127
868.886	2994
869.017	2998
869.147	3146
869.278	3184
869.408	3043
869.539	3009
869.669	3108
869.799	3001
869.929	3157
870.06	3104
870.19	3313
870.32	3272
870.45	3321
870.58	3359
870.71	3435
870.84	3443
870.97	3310
871.1	3226
871.23	3466
871.36	3428
871.489	3336
871.619	3351
871.749	3405
871.879	3447
872.008	3507
872.138	3359
872.267	3256
872.397	3180
872.526	3089
872.656	2986
872.785	3070
872.915	3260
873.044	3302
873.173	3173
873.303	3241
873.432	3233
873.561	3233
873.69	3142
873.819	3127
873.948	3199
874.077	3089
874.206	3043
874.335	3074
874.464	3230
874.593	3329
874.722	3245
874.851	3393
874.979	3351
875.108	3302
875.237	3192
875.365	3154
875.494	3184
875.623	3237
875.751	3077
875.88	3127
876.008	3180
876.136	3176
876.265	3374
876.393	3549
876.521	3389
876.65	3344
876.778	3321
876.906	3260
877.034	3184
877.162	3195
877.29	3154
877.418	3214
877.546	3226
877.674	3226
877.802	3192
877.93	3222
878.058	3173
878.185	3077
878.313	3192
878.441	3180
878.568	3051
878.696	3127
878.824	3268
878.951	3317
879.079	3412
879.206	3629
879.333	3409
879.461	3283
879.588	3321
879.715	3496
879.842	3595
879.97	3370
880.097	3184
880.224	3127
880.351	3184
880.478	3230
880.605	3184
880.732	3207
880.859	3454
880.986	3268
881.112	3329
881.239	3214
881.366	3116
881.493	3058
881.619	3032
881.746	3093
881.872	3100
881.999	3112
882.125	3127
882.252	3249
882.378	3310
882.505	3450
882.631	3272
882.757	3169
882.883	3214
883.01	3214
883.136	3157
883.262	3097
883.388	3119
883.514	3306
883.64	3382
883.766	3302
883.892	3184
884.018	3249
884.143	3386
884.269	3564
884.395	3157
884.52	3157
884.646	3165
884.772	3081
884.897	3108
885.023	3230
885.148	3306
885.274	3412
885.399	3367
885.524	3287
885.65	3256
885.775	3272
885.9	3279
886.025	3389
886.15	3355
886.275	3294
886.4	3268
886.525	3272
886.65	3283
886.775	3233
886.9	3481
887.025	3652
887.149	3424
887.274	3249
887.399	3173
887.523	3218
887.648	3184
887.773	3207
887.897	3351
888.021	3386
888.146	3287
888.27	3416
888.395	3485
888.519	3416
888.643	3462
888.767	3462
888.891	3321
889.015	3264
889.139	3279
889.263	3294
889.387	3409
889.511	3504
889.635	3424
889.759	3256
889.883	3241
890.006	3374
890.13	3466
890.254	3279
890.377	3344
890.501	3199
890.624	3199
890.748	3340
890.871	3131
890.995	3074
891.118	3062
891.241	3203
891.364	3237
891.488	3329
891.611	3154
891.734	3214
891.857	3283
891.98	3249
892.103	3313
892.226	3260
892.349	3222
892.471	3093
892.594	3268
892.717	3283
892.839	3230
892.962	3302
893.085	3340
893.207	3302
893.33	3180
893.452	3214
893.575	3336
893.697	3253
893.819	3462
893.941	3492
894.064	3435
894.186	3241
894.308	3310
894.43	3454
894.552	3507
894.674	3477
894.796	3306
894.918	3313
895.04	3268
895.161	3401
895.283	3405
895.405	3291
895.526	3351
895.648	3401
895.769	3443
895.891	3454
896.012	3443
896.134	3428
896.255	3424
896.376	3351
896.498	3367
896.619	3435
896.74	3370
896.861	3378
896.982	3663
897.103	3850
897.224	3584
897.345	3462
897.466	3428
897.587	3534
897.708	3610
897.828	3519
897.949	3454
898.07	3291
898.19	3424
898.311	3606
898.431	3447
898.552	3504
898.672	3591
898.792	3587
898.913	3496
899.033	3431
899.153	3302
899.273	3241
899.393	3302
899.513	3325
899.633	3313
899.753	3321
899.873	3325
899.993	3420
900.113	3336
900.232	3359
900.352	3325
900.472	3275
900.591	3199
900.711	3275
900.83	3249
900.95	3420
901.069	3511
901.189	3332
901.308	3123
901.427	3150
901.546	3195
901.665	3256
901.784	3298
901.904	3192
902.023	3150
902.141	2998
902.26	2994
902.379	3123
902.498	3077
902.617	3017
902.735	3195
902.854	3245
902.973	3188
903.091	3032
903.21	3066
903.328	3131
903.446	3093
903.565	3047
903.683	3195
903.801	3089
903.919	3222
904.038	3249
904.156	3154
904.274	3264
904.392	3264
904.51	3294
904.627	3336
904.745	3439
904.863	3492
904.981	3279
905.098	3176
905.216	3211
905.334	3272
905.451	3275
905.569	3264
905.686	3428
905.803	3405
905.921	3310
906.038	3435
906.155	3355
906.272	3294
906.389	3310
906.506	3218
906.623	3264
906.74	3275
906.857	3161
906.974	3272
907.091	3473
907.208	3629
907.324	3469
907.441	3397
907.557	3233
907.674	3237
907.79	3211
907.907	3272
908.023	3340
908.139	3386
908.256	3313
908.372	3355
908.488	3340
908.604	3272
908.72	3249
908.836	3291
908.952	3310
909.068	3294
909.184	3466
909.3	3393
909.415	3458
909.531	3500
909.647	3313
909.762	3275
909.878	3237
909.993	3348
910.108	3298
910.224	3382
910.339	3386
910.454	3348
910.57	3256
910.685	3256
910.8	3584
910.915	3564
911.03	3424
911.145	3230
911.259	3233
911.374	3275
911.489	3249
911.604	3222
911.718	3127
911.833	3195
911.947	3062
912.062	2956
912.176	3135
912.291	3230
912.405	3222
912.519	3458
912.633	3450
912.748	3340
912.862	3268
912.976	3176
913.09	3020
913.204	3131
913.318	3233
913.431	3336
913.545	3344
913.659	3389
913.772	3340
913.886	3230
914	3253
914.113	3374
914.226	3409
914.34	3382
914.453	3233
914.566	3435
914.68	3283
914.793	3264
914.906	3138
915.019	3119
915.132	3062
915.245	3184
915.358	3180
915.47	3218
915.583	3260
915.696	3321
915.809	3416
915.921	3401
916.034	3310
916.146	3256
916.259	3256
916.371	3374
916.483	3382
916.595	3249
916.708	3348
916.82	3302
916.932	3355
917.044	3310
917.156	3317
917.268	3245
917.38	3310
917.491	3321
917.603	3382
917.715	3450
917.826	3431
917.938	3344
918.049	3233
918.161	3412
918.272	3580
918.384	3542
918.495	3515
918.606	3344
918.717	3279
918.828	3367
918.939	3447
919.05	3306
919.161	3367
919.272	3157
919.383	3237
919.494	3450
919.604	3682
919.715	3485
919.826	3367
919.936	3420
920.047	3572
920.157	3542
920.267	3755
920.378	3629
920.488	3580
920.598	3797
920.708	3930
920.818	3800
920.928	3831
921.038	3975
921.148	3983
921.258	3709
921.368	3629
921.477	3561
921.587	3511
921.697	3443
921.806	3660
921.916	3488
922.025	3351
922.134	3355
922.244	3340
922.353	3401
922.462	3214
922.571	3245
922.68	3097
922.789	3062
922.898	3146
923.007	3097
923.116	3184
923.224	3150
923.333	3165
923.442	3062
923.55	3085
923.659	3142
923.767	3207
923.876	3097
923.984	3199
924.092	3085
924.201	3237
924.309	3180
924.417	3214
924.525	3173
924.633	3195
924.741	4215
924.849	3017
924.956	3287
925.064	3081
925.172	3039
925.279	3104
925.387	3184
925.494	3207
925.602	3325
925.709	3351
925.816	3157
925.924	3279
926.031	3382
926.138	3310
926.245	3348
926.352	3211
926.459	3424
926.566	3447
926.673	3291
926.779	3253
926.886	3275
926.993	3169
927.099	3116
927.206	3112
927.312	3100
927.419	3264
927.525	3188
927.631	3283
927.737	3157
927.843	3097
927.95	3013
928.056	3108
928.162	3138
928.267	3214
928.373	3896
928.479	3272
928.585	3058
928.69	3249
928.796	3283
928.901	3135
929.007	3017
929.112	3195
929.218	3199
929.323	3150
929.428	3119
929.533	3260
929.638	3081
929.743	3157
929.848	3264
929.953	3214
930.058	3138
930.163	3017
930.267	3055
930.372	3188
930.477	3001
930.581	3355
930.685	3165
930.79	3009
930.894	3093
930.998	3089
931.103	3306
931.207	2925
931.311	2929
931.415	2929
931.519	2746
931.623	2807
