Data from test_V78500241_1103.txt Node
Date: Fri Mar 25 16:22:50 CST 2022
User: usil
Spectrometer: V785-0024
Trigger mode: 0
Integration Time (sec): 4.000000E-1
Scans to average: 1
Nonlinearity correction enabled: false
Boxcar width: 0
Storing dark spectrum: false
XAxis mode: Wavelengths
Number of Pixels in Spectrum: 1024
>>>>>Begin Spectral Data<<<<<
801.071	2872
801.214	2952
801.356	2880
801.499	2872
801.641	2864
801.783	2902
801.926	3020
802.068	2971
802.211	3001
802.353	3009
802.496	2944
802.638	3013
802.78	3032
802.923	3074
803.065	2979
803.208	2914
803.35	2922
803.492	2948
803.635	2914
803.777	2758
803.919	2864
804.061	3192
804.204	2952
804.346	2933
804.488	2773
804.63	2982
804.773	2899
804.915	2883
805.057	3093
805.199	2910
805.341	2948
805.483	3039
805.626	2963
805.768	2944
805.91	3081
806.052	3104
806.194	3017
806.336	3237
806.478	3051
806.62	2929
806.762	2979
806.904	3070
807.046	3138
807.188	3005
807.33	2914
807.472	2986
807.614	2910
807.756	3005
807.898	2937
808.04	2918
808.182	2960
808.324	2899
808.465	2899
808.607	2853
808.749	2800
808.891	2876
809.033	2998
809.174	2944
809.316	2895
809.458	2899
809.6	2750
809.741	2735
809.883	2762
810.025	2861
810.166	2819
810.308	2819
810.45	2864
810.591	2792
810.733	2773
810.875	2838
811.016	2785
811.158	2743
811.299	2853
811.441	2941
811.582	2891
811.724	2796
811.865	2826
812.007	2895
812.148	2834
812.29	2838
812.431	2906
812.573	2960
812.714	2979
812.855	3047
812.997	3043
813.138	3108
813.279	3024
813.421	3005
813.562	2971
813.703	2815
813.845	2918
813.986	2766
814.127	2705
814.268	2792
814.41	2834
814.551	2766
814.692	2914
814.833	2792
814.974	2899
815.115	2929
815.256	2823
815.397	2807
815.539	2876
815.68	2777
815.821	2796
815.962	2929
816.103	2910
816.244	2857
816.385	2891
816.526	2933
816.666	2910
816.807	2724
816.948	2891
817.089	2891
817.23	2864
817.371	2762
817.512	2792
817.653	2842
817.793	2807
817.934	2876
818.075	2956
818.216	2979
818.356	3047
818.497	2868
818.638	2773
818.778	2830
818.919	2754
819.06	2758
819.2	2868
819.341	2800
819.481	2804
819.622	2910
819.762	3123
819.903	3020
820.043	2906
820.184	2937
820.324	2876
820.465	2998
820.605	2975
820.746	3001
820.886	2948
821.026	3100
821.167	3161
821.307	3287
821.447	3275
821.588	3245
821.728	3214
821.868	3173
822.008	3100
822.149	3157
822.289	3230
822.429	3100
822.569	3085
822.709	3195
822.849	3051
822.99	3005
823.13	3138
823.27	3203
823.41	3127
823.55	3104
823.69	3123
823.83	3173
823.97	3100
824.11	2979
824.25	3020
824.389	3074
824.529	3089
824.669	3005
824.809	3192
824.949	3272
825.089	3264
825.228	3138
825.368	3013
825.508	2963
825.648	2982
825.787	2982
825.927	2998
826.067	2990
826.206	2941
826.346	3017
826.485	3051
826.625	3077
826.765	3253
826.904	3199
827.044	2982
827.183	2902
827.323	2853
827.462	2994
827.601	2857
827.741	2918
827.88	2952
828.02	2853
828.159	2986
828.298	3058
828.437	3116
828.577	3058
828.716	3245
828.855	3074
828.994	2922
829.134	2883
829.273	2902
829.412	2845
829.551	2872
829.69	2899
829.829	2952
829.968	3150
830.107	2990
830.246	3036
830.385	2922
830.524	2883
830.663	2807
830.802	2735
830.941	2678
831.08	2632
831.219	2720
831.357	2750
831.496	2937
831.635	2686
831.774	2636
831.913	2678
832.051	2537
832.19	2541
832.329	2701
832.467	2556
832.606	2488
832.744	2552
832.883	2541
833.022	2594
833.16	2663
833.299	2674
833.437	2712
833.576	2678
833.714	2731
833.852	2746
833.991	2750
834.129	2804
834.267	2834
834.406	2758
834.544	2849
834.682	2887
834.821	2842
834.959	3062
835.097	2872
835.235	3062
835.373	3001
835.511	3032
835.65	2910
835.788	2986
835.926	2823
836.064	2781
836.202	2830
836.34	3066
836.478	3127
836.615	3066
836.753	3100
836.891	3203
837.029	3119
837.167	3116
837.305	3032
837.443	3066
837.58	2941
837.718	3116
837.856	3047
837.993	2998
838.131	3097
838.269	3108
838.406	3093
838.544	3051
838.681	2933
838.819	2922
838.956	2785
839.094	2834
839.231	2922
839.369	3013
839.506	3359
839.643	3199
839.781	2998
839.918	2937
840.055	3024
840.193	3032
840.33	3062
840.467	3089
840.604	3154
840.742	3386
840.879	3017
841.016	3043
841.153	3093
841.29	3332
841.427	3275
841.564	3199
841.701	3329
841.838	3237
841.975	3192
842.112	3195
842.249	3135
842.385	3028
842.522	3241
842.659	3119
842.796	3043
842.933	3108
843.069	3020
843.206	3017
843.343	3173
843.479	3108
843.616	3093
843.752	2918
843.889	2910
844.025	3051
844.162	2891
844.298	3085
844.435	2967
844.571	2895
844.708	3055
844.844	3142
844.98	3195
845.117	3188
845.253	3051
845.389	2990
845.525	3108
845.661	3119
845.798	3001
845.934	3093
846.07	3043
846.206	3203
846.342	3283
846.478	3230
846.614	3100
846.75	3043
846.886	3013
847.022	3203
847.158	3127
847.294	3214
847.429	3237
847.565	3192
847.701	3466
847.837	3032
847.972	3013
848.108	3138
848.244	3093
848.379	3017
848.515	2933
848.65	2922
848.786	2960
848.921	2975
849.057	3097
849.192	3146
849.328	3055
849.463	3104
849.598	3074
849.734	3051
849.869	2990
850.004	2918
850.14	2986
850.275	2914
850.41	2857
850.545	2872
850.68	2918
850.815	2967
850.95	2933
851.085	3131
851.22	3100
851.355	3043
851.49	2952
851.625	2998
851.76	3051
851.895	2918
852.03	2925
852.165	3032
852.299	3104
852.434	3195
852.569	3093
852.703	3188
852.838	3249
852.973	3310
853.107	3302
853.242	3184
853.376	3127
853.511	2948
853.645	3058
853.78	3268
853.914	3085
854.048	3089
854.183	3119
854.317	3119
854.451	3260
854.585	3108
854.72	3089
854.854	3192
854.988	3001
855.122	3093
855.256	2979
855.39	3119
855.524	3253
855.658	3188
855.792	3142
855.926	3173
856.06	3207
856.194	3237
856.327	3176
856.461	3077
856.595	3093
856.729	3100
856.862	3199
856.996	3146
857.13	3226
857.263	3218
857.397	3283
857.53	3135
857.664	3203
857.797	3218
857.931	3253
858.064	3150
858.197	3203
858.331	3104
858.464	3066
858.597	3005
858.731	3135
858.864	3112
858.997	3051
859.13	3154
859.263	3176
859.396	3146
859.529	3135
859.662	3074
859.795	3062
859.928	3127
860.061	3249
860.194	3245
860.327	3131
860.46	3081
860.592	3256
860.725	3268
860.858	3264
860.99	3062
861.123	3051
861.256	3055
861.388	3135
861.521	3701
861.653	3005
861.786	3005
861.918	2979
862.05	3058
862.183	3097
862.315	3161
862.447	3207
862.58	3085
862.712	2952
862.844	2891
862.976	3028
863.108	2986
863.24	3439
863.372	2853
863.504	2948
863.636	2975
863.768	2998
863.9	2952
864.032	2918
864.164	3009
864.296	3001
864.428	3104
864.559	3116
864.691	3055
864.823	3070
864.954	3032
865.086	3017
865.217	2990
865.349	2967
865.48	2967
865.612	2990
865.743	3161
865.875	2979
866.006	2929
866.137	2975
866.269	2944
866.4	2914
866.531	2895
866.662	2899
866.793	2895
866.924	2910
867.055	2975
867.186	2933
867.317	2887
867.448	2864
867.579	2845
867.71	2849
867.841	2838
867.972	2887
868.103	2872
868.233	2902
868.364	2872
868.495	2887
868.625	3074
868.756	3184
868.886	2941
869.017	3020
869.147	3203
869.278	3165
869.408	3028
869.539	3017
869.669	3074
869.799	3051
869.929	3112
870.06	3104
870.19	3336
870.32	3264
870.45	3298
870.58	3405
870.71	3447
870.84	3447
870.97	3291
871.1	3245
871.23	3500
871.36	3469
871.489	3348
871.619	3386
871.749	3424
871.879	3393
872.008	3473
872.138	3310
872.267	3283
872.397	3108
872.526	3062
872.656	2982
872.785	3093
872.915	3226
873.044	3264
873.173	3233
873.303	3230
873.432	3245
873.561	3253
873.69	3173
873.819	3138
873.948	3161
874.077	3077
874.206	3051
874.335	3074
874.464	3203
874.593	3321
874.722	3207
874.851	3367
874.979	3355
875.108	3306
875.237	3135
875.365	3184
875.494	3150
875.623	3253
875.751	3093
875.88	3119
876.008	3222
876.136	3222
876.265	3348
876.393	3477
876.521	3378
876.65	3420
876.778	3344
876.906	3268
877.034	3195
877.162	3241
877.29	3176
877.418	3245
877.546	3241
877.674	3256
877.802	3249
877.93	3241
878.058	3112
878.185	3104
878.313	3245
878.441	3203
878.568	3062
878.696	3142
878.824	3245
878.951	3264
879.079	3420
879.206	3667
879.333	3439
879.461	3351
879.588	3363
879.715	3488
879.842	3549
879.97	3363
880.097	3173
880.224	3108
880.351	3207
880.478	3176
880.605	3218
880.732	3207
880.859	3511
880.986	3283
881.112	3336
881.239	3218
881.366	3081
881.493	3028
881.619	3028
881.746	3043
881.872	3127
881.999	3077
882.125	3165
882.252	3222
882.378	3302
882.505	3416
882.631	3272
882.757	3123
882.883	3218
883.01	3203
883.136	3157
883.262	3047
883.388	3142
883.514	3321
883.64	3397
883.766	3329
883.892	3176
884.018	3211
884.143	3428
884.269	3511
884.395	3188
884.52	3184
884.646	3176
884.772	3112
884.897	3104
885.023	3211
885.148	3313
885.274	3397
885.399	3355
885.524	3245
885.65	3283
885.775	3279
885.9	3264
886.025	3412
886.15	3397
886.275	3291
886.4	3241
886.525	3321
886.65	3253
886.775	3256
886.9	3496
887.025	3625
887.149	3374
887.274	3279
887.399	3184
887.523	3192
887.648	3188
887.773	3211
887.897	3344
888.021	3359
888.146	3302
888.27	3424
888.395	3549
888.519	3412
888.643	3469
888.767	3496
888.891	3317
889.015	3222
889.139	3294
889.263	3275
889.387	3370
889.511	3500
889.635	3431
889.759	3317
889.883	3287
890.006	3378
890.13	3450
890.254	3253
890.377	3363
890.501	3192
890.624	3199
890.748	3317
890.871	3165
890.995	3108
891.118	3051
891.241	3207
891.364	3226
891.488	3340
891.611	3146
891.734	3173
891.857	3241
891.98	3230
892.103	3355
892.226	3268
892.349	3188
892.471	3123
892.594	3207
892.717	3313
892.839	3260
892.962	3321
893.085	3367
893.207	3268
893.33	3150
893.452	3218
893.575	3325
893.697	3256
893.819	3473
893.941	3500
894.064	3469
894.186	3256
894.308	3249
894.43	3431
894.552	3511
894.674	3466
894.796	3275
894.918	3302
895.04	3272
895.161	3439
895.283	3374
895.405	3329
895.526	3397
895.648	3412
895.769	3443
895.891	3424
896.012	3515
896.134	3435
896.255	3374
896.376	3374
896.498	3325
896.619	3431
896.74	3374
896.861	3367
896.982	3679
897.103	3846
897.224	3603
897.345	3477
897.466	3420
897.587	3462
897.708	3614
897.828	3534
897.949	3409
898.07	3306
898.19	3405
898.311	3622
898.431	3454
898.552	3477
898.672	3561
898.792	3599
898.913	3534
899.033	3401
899.153	3310
899.273	3218
899.393	3291
899.513	3329
899.633	3317
899.753	3298
899.873	3306
899.993	3386
900.113	3329
900.232	3370
900.352	3306
900.472	3294
900.591	3207
900.711	3298
900.83	3226
900.95	3393
901.069	3481
901.189	3363
901.308	3173
901.427	3135
901.546	3154
901.665	3287
901.784	3317
901.904	3176
902.023	3146
902.141	3051
902.26	2986
902.379	3116
902.498	3085
902.617	3055
902.735	3214
902.854	3203
902.973	3203
903.091	3062
903.21	3009
903.328	3142
903.446	3138
903.565	3146
903.683	3184
903.801	3112
903.919	3241
904.038	3283
904.156	3180
904.274	3291
904.392	3222
904.51	3260
904.627	3348
904.745	3481
904.863	3481
904.981	3268
905.098	3173
905.216	3233
905.334	3344
905.451	3302
905.569	3279
905.686	3397
905.803	3424
905.921	3329
906.038	3412
906.155	3332
906.272	3272
906.389	3329
906.506	3241
906.623	3256
906.74	3313
906.857	3207
906.974	3241
907.091	3431
907.208	3568
907.324	3511
907.441	3359
907.557	3230
907.674	3226
907.79	3207
907.907	3287
908.023	3336
908.139	3378
908.256	3348
908.372	3363
908.488	3367
908.604	3272
908.72	3230
908.836	3268
908.952	3336
909.068	3344
909.184	3473
909.3	3401
909.415	3485
909.531	3412
909.647	3241
909.762	3298
909.878	3275
909.993	3363
910.108	3348
910.224	3351
910.339	3397
910.454	3329
910.57	3336
910.685	3222
910.8	3625
910.915	3515
911.03	3397
911.145	3249
911.259	3260
911.374	3313
911.489	3211
911.604	3241
911.718	3135
911.833	3157
911.947	3043
912.062	2994
912.176	3146
912.291	3180
912.405	3203
912.519	3473
912.633	3450
912.748	3332
912.862	3260
912.976	3131
913.09	3051
913.204	3173
913.318	3176
913.431	3325
913.545	3374
913.659	3397
913.772	3370
913.886	3211
914	3173
914.113	3370
914.226	3420
914.34	3348
914.453	3214
914.566	3405
914.68	3313
914.793	3329
914.906	3093
915.019	3070
915.132	3058
915.245	3195
915.358	3226
915.47	3214
915.583	3279
915.696	3310
915.809	3409
915.921	3382
916.034	3233
916.146	3230
916.259	3211
916.371	3389
916.483	3367
916.595	3230
916.708	3291
916.82	3310
916.932	3302
917.044	3355
917.156	3325
917.268	3253
917.38	3317
917.491	3298
917.603	3344
917.715	3420
917.826	3435
917.938	3389
918.049	3287
918.161	3420
918.272	3587
918.384	3538
918.495	3473
918.606	3310
918.717	3302
918.828	3378
918.939	3439
919.05	3329
919.161	3359
919.272	3195
919.383	3291
919.494	3515
919.604	3686
919.715	3473
919.826	3420
919.936	3473
920.047	3603
920.157	3538
920.267	3728
920.378	3637
920.488	3523
920.598	3713
920.708	3926
920.818	3846
920.928	3819
921.038	4025
921.148	3991
921.258	3720
921.368	3629
921.477	3534
921.587	3545
921.697	3473
921.806	3625
921.916	3515
922.025	3363
922.134	3374
922.244	3313
922.353	3424
922.462	3291
922.571	3237
922.68	3081
922.789	3074
922.898	3138
923.007	3097
923.116	3195
923.224	3165
923.333	3199
923.442	3074
923.55	3123
923.659	3150
923.767	3203
923.876	3127
923.984	3249
924.092	3142
924.201	3192
924.309	3207
924.417	3249
924.525	3203
924.633	3256
924.741	4032
924.849	3001
924.956	3233
925.064	3093
925.172	3051
925.279	3081
925.387	3192
925.494	3192
925.602	3321
925.709	3317
925.816	3218
925.924	3275
926.031	3389
926.138	3317
926.245	3344
926.352	3233
926.459	3409
926.566	3477
926.673	3272
926.779	3253
926.886	3283
926.993	3188
927.099	3093
927.206	3104
927.312	3089
927.419	3237
927.525	3142
927.631	3245
927.737	3150
927.843	3112
927.95	3020
928.056	3131
928.162	3165
928.267	3279
928.373	3861
928.479	3291
928.585	3062
928.69	3188
928.796	3253
928.901	3188
929.007	3070
929.112	3233
929.218	3188
929.323	3157
929.428	3123
929.533	3313
929.638	3150
929.743	3165
929.848	3272
929.953	3230
930.058	3169
930.163	3009
930.267	3077
930.372	3157
930.477	3055
930.581	3283
930.685	3180
930.79	3058
930.894	3131
930.998	3100
931.103	3283
931.207	2960
931.311	2933
931.415	2941
931.519	2777
931.623	2781
