Data from test_V78500241_1980.txt Node
Date: Fri Mar 25 16:28:55 CST 2022
User: usil
Spectrometer: V785-0024
Trigger mode: 0
Integration Time (sec): 4.000000E-1
Scans to average: 1
Nonlinearity correction enabled: false
Boxcar width: 0
Storing dark spectrum: false
XAxis mode: Wavelengths
Number of Pixels in Spectrum: 1024
>>>>>Begin Spectral Data<<<<<
801.071	2948
801.214	2948
801.356	2876
801.499	2925
801.641	2895
801.783	2933
801.926	3097
802.068	2971
802.211	3055
802.353	3074
802.496	2944
802.638	3024
802.78	3047
802.923	3127
803.065	3020
803.208	2910
803.35	2941
803.492	2937
803.635	2925
803.777	2762
803.919	2887
804.061	3222
804.204	2956
804.346	2906
804.488	2838
804.63	2994
804.773	2876
804.915	2948
805.057	3066
805.199	2948
805.341	2960
805.483	3039
805.626	2998
805.768	2963
805.91	3104
806.052	3127
806.194	3074
806.336	3264
806.478	3039
806.62	2952
806.762	2960
806.904	3100
807.046	3188
807.188	2994
807.33	2910
807.472	3024
807.614	2933
807.756	2982
807.898	2941
808.04	2864
808.182	2952
808.324	2933
808.465	2899
808.607	2891
808.749	2773
808.891	2887
809.033	2979
809.174	2975
809.316	2891
809.458	2906
809.6	2777
809.741	2792
809.883	2800
810.025	2861
810.166	2857
810.308	2857
810.45	2883
810.591	2758
810.733	2777
810.875	2842
811.016	2785
811.158	2788
811.299	2811
811.441	2914
811.582	2914
811.724	2823
811.865	2838
812.007	2941
812.148	2864
812.29	2887
812.431	2883
812.573	2937
812.714	2986
812.855	3036
812.997	3047
813.138	3131
813.279	3039
813.421	3017
813.562	2967
813.703	2864
813.845	2895
813.986	2788
814.127	2727
814.268	2842
814.41	2842
814.551	2792
814.692	2880
814.833	2792
814.974	2918
815.115	2963
815.256	2807
815.397	2815
815.539	2902
815.68	2807
815.821	2807
815.962	2975
816.103	2937
816.244	2872
816.385	2834
816.526	2994
816.666	2922
816.807	2750
816.948	2906
817.089	2902
817.23	2864
817.371	2739
817.512	2804
817.653	2872
817.793	2830
817.934	2910
818.075	2960
818.216	2948
818.356	3047
818.497	2861
818.638	2785
818.778	2834
818.919	2800
819.06	2762
819.2	2872
819.341	2804
819.481	2815
819.622	2922
819.762	3108
819.903	3062
820.043	2963
820.184	2914
820.324	2899
820.465	3062
820.605	3017
820.746	3013
820.886	2914
821.026	3154
821.167	3146
821.307	3283
821.447	3275
821.588	3237
821.728	3195
821.868	3203
822.008	3066
822.149	3192
822.289	3207
822.429	3097
822.569	3093
822.709	3150
822.849	3024
822.99	3051
823.13	3146
823.27	3195
823.41	3085
823.55	3154
823.69	3146
823.83	3169
823.97	3074
824.11	2967
824.25	3001
824.389	3093
824.529	3077
824.669	3089
824.809	3180
824.949	3279
825.089	3226
825.228	3176
825.368	2975
825.508	2971
825.648	2990
825.787	3024
825.927	3039
826.067	2975
826.206	2971
826.346	3036
826.485	3051
826.625	3108
826.765	3275
826.904	3233
827.044	2982
827.183	2914
827.323	2857
827.462	2963
827.601	2929
827.741	2918
827.88	2944
828.02	2853
828.159	3017
828.298	3043
828.437	3138
828.577	3051
828.716	3207
828.855	3093
828.994	2960
829.134	2887
829.273	2883
829.412	2861
829.551	2872
829.69	2853
829.829	3017
829.968	3097
830.107	3028
830.246	3043
830.385	2956
830.524	2922
830.663	2792
830.802	2743
830.941	2659
831.08	2640
831.219	2720
831.357	2746
831.496	2933
831.635	2727
831.774	2621
831.913	2667
832.051	2533
832.19	2594
832.329	2674
832.467	2507
832.606	2473
832.744	2590
832.883	2602
833.022	2568
833.16	2663
833.299	2701
833.437	2686
833.576	2705
833.714	2727
833.852	2727
833.991	2766
834.129	2834
834.267	2834
834.406	2788
834.544	2876
834.682	2880
834.821	2853
834.959	3043
835.097	2880
835.235	3070
835.373	2998
835.511	2979
835.65	2960
835.788	2982
835.926	2819
836.064	2826
836.202	2815
836.34	3100
836.478	3180
836.615	3036
836.753	3100
836.891	3203
837.029	3150
837.167	3135
837.305	3028
837.443	3047
837.58	2967
837.718	3093
837.856	3077
837.993	3009
838.131	3142
838.269	3146
838.406	3100
838.544	3089
838.681	2941
838.819	2902
838.956	2834
839.094	2842
839.231	2918
839.369	3005
839.506	3359
839.643	3199
839.781	3032
839.918	2979
840.055	3062
840.193	3051
840.33	3039
840.467	3089
840.604	3123
840.742	3386
840.879	3028
841.016	3024
841.153	3127
841.29	3336
841.427	3291
841.564	3283
841.701	3321
841.838	3249
841.975	3169
842.112	3211
842.249	3112
842.385	3017
842.522	3256
842.659	3097
842.796	3062
842.933	3066
843.069	3097
843.206	3032
843.343	3180
843.479	3093
843.616	3116
843.752	2948
843.889	2895
844.025	3081
844.162	2902
844.298	3104
844.435	2960
844.571	2960
844.708	3062
844.844	3192
844.98	3241
845.117	3214
845.253	3047
845.389	3001
845.525	3074
845.661	3085
845.798	3051
845.934	3127
846.07	3009
846.206	3226
846.342	3306
846.478	3192
846.614	3112
846.75	3028
846.886	2994
847.022	3253
847.158	3150
847.294	3188
847.429	3237
847.565	3195
847.701	3466
847.837	3020
847.972	3001
848.108	3157
848.244	3173
848.379	3009
848.515	2914
848.65	2902
848.786	2971
848.921	3013
849.057	3104
849.192	3089
849.328	3070
849.463	3093
849.598	3070
849.734	3062
849.869	3020
850.004	2933
850.14	2990
850.275	2922
850.41	2842
850.545	2861
850.68	2918
850.815	2933
850.95	2982
851.085	3180
851.22	3097
851.355	3013
851.49	2963
851.625	3043
851.76	2982
851.895	2922
852.03	2857
852.165	3017
852.299	3108
852.434	3173
852.569	3131
852.703	3157
852.838	3226
852.973	3291
853.107	3321
853.242	3146
853.376	3093
853.511	2979
853.645	3055
853.78	3211
853.914	3135
854.048	3089
854.183	3066
854.317	3123
854.451	3294
854.585	3135
854.72	3036
854.854	3241
854.988	3047
855.122	3074
855.256	2986
855.39	3112
855.524	3237
855.658	3188
855.792	3142
855.926	3211
856.06	3184
856.194	3332
856.327	3199
856.461	3097
856.595	3089
856.729	3089
856.862	3233
856.996	3154
857.13	3226
857.263	3230
857.397	3294
857.53	3157
857.664	3176
857.797	3237
857.931	3272
858.064	3184
858.197	3218
858.331	3157
858.464	3116
858.597	3032
858.731	3138
858.864	3173
858.997	3123
859.13	3154
859.263	3203
859.396	3226
859.529	3150
859.662	3104
859.795	3112
859.928	3169
860.061	3298
860.194	3313
860.327	3169
860.46	3127
860.592	3283
860.725	3287
860.858	3332
860.99	3146
861.123	3081
861.256	3100
861.388	3188
861.521	3869
861.653	3043
861.786	3013
861.918	3062
862.05	3108
862.183	3112
862.315	3192
862.447	3249
862.58	3157
862.712	2986
862.844	2925
862.976	3032
863.108	3043
863.24	3435
863.372	2933
863.504	3017
863.636	3020
863.768	3020
863.9	3028
864.032	2971
864.164	3017
864.296	3062
864.428	3123
864.559	3123
864.691	3112
864.823	3116
864.954	3043
865.086	3077
865.217	3017
865.349	2971
865.48	3032
865.612	3024
865.743	3199
865.875	2994
866.006	2998
866.137	3047
866.269	2967
866.4	2941
866.531	2979
866.662	2933
866.793	2899
866.924	2937
867.055	3028
867.186	2975
867.317	2922
867.448	2857
867.579	2864
867.71	2891
867.841	2861
867.972	2933
868.103	2925
868.233	2925
868.364	2941
868.495	2910
868.625	3089
868.756	3176
868.886	3009
869.017	3055
869.147	3199
869.278	3173
869.408	3066
869.539	3043
869.669	3146
869.799	3062
869.929	3184
870.06	3108
870.19	3336
870.32	3332
870.45	3336
870.58	3431
870.71	3496
870.84	3443
870.97	3329
871.1	3313
871.23	3507
871.36	3485
871.489	3416
871.619	3393
871.749	3447
871.879	3454
872.008	3534
872.138	3382
872.267	3306
872.397	3146
872.526	3142
872.656	2990
872.785	3131
872.915	3260
873.044	3344
873.173	3237
873.303	3264
873.432	3256
873.561	3253
873.69	3184
873.819	3237
873.948	3199
874.077	3108
874.206	3089
874.335	3108
874.464	3230
874.593	3355
874.722	3283
874.851	3443
874.979	3397
875.108	3351
875.237	3245
875.365	3173
875.494	3237
875.623	3275
875.751	3093
875.88	3142
876.008	3214
876.136	3283
876.265	3405
876.393	3526
876.521	3481
876.65	3424
876.778	3355
876.906	3294
877.034	3203
877.162	3241
877.29	3249
877.418	3306
877.546	3283
877.674	3272
877.802	3298
877.93	3260
878.058	3184
878.185	3157
878.313	3199
878.441	3218
878.568	3108
878.696	3184
878.824	3256
878.951	3336
879.079	3519
879.206	3652
879.333	3462
879.461	3355
879.588	3393
879.715	3500
879.842	3618
879.97	3409
880.097	3199
880.224	3131
880.351	3203
880.478	3233
880.605	3199
880.732	3199
880.859	3530
880.986	3332
881.112	3344
881.239	3237
881.366	3123
881.493	3089
881.619	3062
881.746	3100
881.872	3127
881.999	3104
882.125	3180
882.252	3275
882.378	3313
882.505	3424
882.631	3325
882.757	3161
882.883	3253
883.01	3222
883.136	3188
883.262	3127
883.388	3150
883.514	3355
883.64	3431
883.766	3344
883.892	3199
884.018	3260
884.143	3439
884.269	3542
884.395	3199
884.52	3188
884.646	3207
884.772	3161
884.897	3127
885.023	3203
885.148	3355
885.274	3450
885.399	3382
885.524	3287
885.65	3245
885.775	3329
885.9	3287
886.025	3454
886.15	3401
886.275	3340
886.4	3298
886.525	3367
886.65	3253
886.775	3272
886.9	3507
887.025	3629
887.149	3393
887.274	3283
887.399	3188
887.523	3207
887.648	3230
887.773	3195
887.897	3424
888.021	3443
888.146	3313
888.27	3481
888.395	3580
888.519	3454
888.643	3500
888.767	3469
888.891	3378
889.015	3272
889.139	3325
889.263	3291
889.387	3443
889.511	3530
889.635	3447
889.759	3336
889.883	3313
890.006	3374
890.13	3488
890.254	3291
890.377	3355
890.501	3207
890.624	3256
890.748	3359
890.871	3230
890.995	3135
891.118	3127
891.241	3214
891.364	3230
891.488	3302
891.611	3199
891.734	3249
891.857	3317
891.98	3275
892.103	3370
892.226	3317
892.349	3230
892.471	3119
892.594	3256
892.717	3287
892.839	3283
892.962	3351
893.085	3344
893.207	3317
893.33	3173
893.452	3218
893.575	3355
893.697	3275
893.819	3504
893.941	3534
894.064	3492
894.186	3287
894.308	3279
894.43	3424
894.552	3545
894.674	3469
894.796	3279
894.918	3310
895.04	3298
895.161	3473
895.283	3393
895.405	3325
895.526	3397
895.648	3462
895.769	3420
895.891	3473
896.012	3496
896.134	3488
896.255	3424
896.376	3439
896.498	3367
896.619	3466
896.74	3382
896.861	3386
896.982	3728
897.103	3827
897.224	3584
897.345	3564
897.466	3450
897.587	3530
897.708	3671
897.828	3534
897.949	3435
898.07	3332
898.19	3450
898.311	3629
898.431	3447
898.552	3504
898.672	3625
898.792	3561
898.913	3534
899.033	3458
899.153	3332
899.273	3241
899.393	3313
899.513	3317
899.633	3336
899.753	3393
899.873	3336
899.993	3397
900.113	3348
900.232	3340
900.352	3344
900.472	3310
900.591	3241
900.711	3313
900.83	3245
900.95	3409
901.069	3519
901.189	3386
901.308	3222
901.427	3131
901.546	3203
901.665	3283
901.784	3340
901.904	3230
902.023	3127
902.141	3020
902.26	2994
902.379	3119
902.498	3077
902.617	3112
902.735	3253
902.854	3268
902.973	3226
903.091	3112
903.21	3093
903.328	3180
903.446	3127
903.565	3104
903.683	3249
903.801	3169
903.919	3272
904.038	3313
904.156	3176
904.274	3329
904.392	3287
904.51	3329
904.627	3321
904.745	3447
904.863	3488
904.981	3275
905.098	3180
905.216	3253
905.334	3287
905.451	3389
905.569	3294
905.686	3439
905.803	3477
905.921	3329
906.038	3485
906.155	3355
906.272	3279
906.389	3351
906.506	3268
906.623	3260
906.74	3325
906.857	3211
906.974	3298
907.091	3450
907.208	3603
907.324	3473
907.441	3401
907.557	3226
907.674	3230
907.79	3218
907.907	3275
908.023	3409
908.139	3382
908.256	3306
908.372	3420
908.488	3389
908.604	3275
908.72	3249
908.836	3340
908.952	3317
909.068	3355
909.184	3523
909.3	3393
909.415	3519
909.531	3469
909.647	3275
909.762	3294
909.878	3268
909.993	3401
910.108	3329
910.224	3355
910.339	3409
910.454	3359
910.57	3294
910.685	3302
910.8	3629
910.915	3542
911.03	3435
911.145	3260
911.259	3279
911.374	3348
911.489	3249
911.604	3241
911.718	3123
911.833	3180
911.947	3017
912.062	3043
912.176	3192
912.291	3199
912.405	3253
912.519	3462
912.633	3519
912.748	3313
912.862	3321
912.976	3165
913.09	3070
913.204	3135
913.318	3226
913.431	3355
913.545	3340
913.659	3416
913.772	3321
913.886	3207
914	3249
914.113	3378
914.226	3409
914.34	3389
914.453	3245
914.566	3428
914.68	3272
914.793	3325
914.906	3161
915.019	3135
915.132	3077
915.245	3180
915.358	3222
915.47	3218
915.583	3279
915.696	3294
915.809	3393
915.921	3424
916.034	3264
916.146	3222
916.259	3253
916.371	3405
916.483	3378
916.595	3336
916.708	3355
916.82	3378
916.932	3332
917.044	3397
917.156	3332
917.268	3279
917.38	3291
917.491	3306
917.603	3367
917.715	3485
917.826	3492
917.938	3420
918.049	3325
918.161	3416
918.272	3549
918.384	3538
918.495	3488
918.606	3351
918.717	3313
918.828	3416
918.939	3389
919.05	3329
919.161	3386
919.272	3188
919.383	3264
919.494	3511
919.604	3701
919.715	3504
919.826	3416
919.936	3481
920.047	3599
920.157	3561
920.267	3762
920.378	3644
920.488	3576
920.598	3789
920.708	3991
920.818	3823
920.928	3816
921.038	4036
921.148	3998
921.258	3701
921.368	3652
921.477	3557
921.587	3568
921.697	3450
921.806	3641
921.916	3526
922.025	3370
922.134	3378
922.244	3332
922.353	3485
922.462	3298
922.571	3222
922.68	3135
922.789	3100
922.898	3150
923.007	3077
923.116	3211
923.224	3165
923.333	3157
923.442	3123
923.55	3131
923.659	3127
923.767	3199
923.876	3138
923.984	3294
924.092	3108
924.201	3199
924.309	3230
924.417	3222
924.525	3192
924.633	3256
924.741	4227
924.849	3055
924.956	3260
925.064	3116
925.172	3005
925.279	3085
925.387	3207
925.494	3192
925.602	3363
925.709	3340
925.816	3195
925.924	3317
926.031	3389
926.138	3317
926.245	3359
926.352	3233
926.459	3393
926.566	3473
926.673	3310
926.779	3275
926.886	3233
926.993	3142
927.099	3108
927.206	3108
927.312	3127
927.419	3241
927.525	3226
927.631	3279
927.737	3135
927.843	3142
927.95	2986
928.056	3157
928.162	3184
928.267	3260
928.373	3888
928.479	3321
928.585	3058
928.69	3211
928.796	3260
928.901	3173
929.007	3104
929.112	3192
929.218	3199
929.323	3119
929.428	3119
929.533	3317
929.638	3138
929.743	3157
929.848	3283
929.953	3211
930.058	3169
930.163	2986
930.267	3081
930.372	3157
930.477	3081
930.581	3325
930.685	3169
930.79	3074
930.894	3123
930.998	3119
931.103	3287
931.207	2971
931.311	2922
931.415	2941
931.519	2807
931.623	2819
