Data from test_V78500241_830.txt Node
Date: Fri Mar 25 16:20:57 CST 2022
User: usil
Spectrometer: V785-0024
Trigger mode: 0
Integration Time (sec): 4.000000E-1
Scans to average: 1
Nonlinearity correction enabled: false
Boxcar width: 0
Storing dark spectrum: false
XAxis mode: Wavelengths
Number of Pixels in Spectrum: 1024
>>>>>Begin Spectral Data<<<<<
801.071	2910
801.214	2925
801.356	2902
801.499	2929
801.641	2868
801.783	2937
801.926	3074
802.068	2994
802.211	3009
802.353	3039
802.496	2986
802.638	3017
802.78	3047
802.923	3085
803.065	3020
803.208	2933
803.35	2925
803.492	2929
803.635	2895
803.777	2758
803.919	2857
804.061	3226
804.204	2990
804.346	2910
804.488	2849
804.63	2971
804.773	2861
804.915	2937
805.057	3077
805.199	2910
805.341	2982
805.483	3055
805.626	3028
805.768	3001
805.91	3058
806.052	3097
806.194	3032
806.336	3226
806.478	3047
806.62	2975
806.762	2956
806.904	3070
807.046	3165
807.188	2982
807.33	2910
807.472	3009
807.614	2929
807.756	2986
807.898	2952
808.04	2891
808.182	2979
808.324	2948
808.465	2918
808.607	2899
808.749	2830
808.891	2864
809.033	2967
809.174	2914
809.316	2876
809.458	2895
809.6	2777
809.741	2781
809.883	2773
810.025	2861
810.166	2845
810.308	2845
810.45	2849
810.591	2762
810.733	2773
810.875	2849
811.016	2792
811.158	2785
811.299	2834
811.441	2918
811.582	2891
811.724	2785
811.865	2834
812.007	2925
812.148	2876
812.29	2834
812.431	2868
812.573	2929
812.714	2952
812.855	3032
812.997	3058
813.138	3146
813.279	3017
813.421	2944
813.562	2948
813.703	2910
813.845	2922
813.986	2811
814.127	2773
814.268	2845
814.41	2880
814.551	2781
814.692	2880
814.833	2834
814.974	2861
815.115	2933
815.256	2853
815.397	2796
815.539	2895
815.68	2773
815.821	2773
815.962	2944
816.103	2948
816.244	2883
816.385	2876
816.526	2933
816.666	2902
816.807	2773
816.948	2902
817.089	2910
817.23	2834
817.371	2796
817.512	2811
817.653	2815
817.793	2845
817.934	2868
818.075	2948
818.216	2979
818.356	3039
818.497	2887
818.638	2773
818.778	2815
818.919	2796
819.06	2743
819.2	2883
819.341	2819
819.481	2769
819.622	2933
819.762	3112
819.903	3051
820.043	2895
820.184	2868
820.324	2868
820.465	3001
820.605	2982
820.746	3013
820.886	2952
821.026	3074
821.167	3165
821.307	3253
821.447	3329
821.588	3211
821.728	3226
821.868	3180
822.008	3116
822.149	3176
822.289	3184
822.429	3074
822.569	3074
822.709	3195
822.849	3032
822.99	3077
823.13	3127
823.27	3226
823.41	3112
823.55	3157
823.69	3173
823.83	3169
823.97	3116
824.11	2990
824.25	2952
824.389	3074
824.529	3089
824.669	3077
824.809	3180
824.949	3226
825.089	3218
825.228	3195
825.368	2982
825.508	2925
825.648	2948
825.787	3020
825.927	3013
826.067	2922
826.206	2971
826.346	3039
826.485	3058
826.625	3108
826.765	3287
826.904	3233
827.044	2975
827.183	2941
827.323	2872
827.462	3001
827.601	2906
827.741	2914
827.88	2956
828.02	2849
828.159	2990
828.298	3058
828.437	3112
828.577	3032
828.716	3249
828.855	3142
828.994	2948
829.134	2872
829.273	2933
829.412	2872
829.551	2861
829.69	2918
829.829	2979
829.968	3138
830.107	2994
830.246	3074
830.385	2963
830.524	2887
830.663	2861
830.802	2750
830.941	2689
831.08	2705
831.219	2777
831.357	2781
831.496	3005
831.635	2727
831.774	2674
831.913	2686
832.051	2571
832.19	2644
832.329	2731
832.467	2583
832.606	2495
832.744	2617
832.883	2613
833.022	2632
833.16	2686
833.299	2743
833.437	2731
833.576	2708
833.714	2762
833.852	2766
833.991	2804
834.129	2883
834.267	2838
834.406	2804
834.544	2899
834.682	2922
834.821	2944
834.959	3108
835.097	2971
835.235	3097
835.373	2994
835.511	3066
835.65	3013
835.788	3009
835.926	2891
836.064	2811
836.202	2880
836.34	3135
836.478	3214
836.615	3097
836.753	3116
836.891	3222
837.029	3222
837.167	3116
837.305	3104
837.443	3100
837.58	3005
837.718	3127
837.856	3104
837.993	3077
838.131	3192
838.269	3176
838.406	3142
838.544	3135
838.681	2952
838.819	2937
838.956	2819
839.094	2914
839.231	2975
839.369	3028
839.506	3401
839.643	3253
839.781	2994
839.918	3013
840.055	3135
840.193	3077
840.33	3089
840.467	3146
840.604	3180
840.742	3458
840.879	3085
841.016	3066
841.153	3154
841.29	3393
841.427	3370
841.564	3344
841.701	3306
841.838	3260
841.975	3222
842.112	3294
842.249	3097
842.385	3123
842.522	3321
842.659	3116
842.796	3093
842.933	3169
843.069	3074
843.206	3047
843.343	3253
843.479	3104
843.616	3176
843.752	2967
843.889	2929
844.025	3081
844.162	2868
844.298	3104
844.435	2982
844.571	2963
844.708	3104
844.844	3230
844.98	3264
845.117	3207
845.253	3077
845.389	3058
845.525	3131
845.661	3150
845.798	3070
845.934	3173
846.07	3093
846.206	3275
846.342	3336
846.478	3279
846.614	3131
846.75	3081
846.886	3066
847.022	3298
847.158	3157
847.294	3249
847.429	3310
847.565	3214
847.701	3519
847.837	3055
847.972	3039
848.108	3214
848.244	3184
848.379	2994
848.515	2952
848.65	2979
848.786	2986
848.921	3039
849.057	3176
849.192	3207
849.328	3085
849.463	3146
849.598	3043
849.734	3081
849.869	3024
850.004	2918
850.14	3001
850.275	2918
850.41	2902
850.545	2941
850.68	2944
850.815	3001
850.95	3001
851.085	3176
851.22	3135
851.355	3104
851.49	3020
851.625	2982
851.76	3036
851.895	2975
852.03	2933
852.165	3036
852.299	3116
852.434	3214
852.569	3150
852.703	3207
852.838	3268
852.973	3374
853.107	3367
853.242	3184
853.376	3104
853.511	3020
853.645	3089
853.78	3256
853.914	3146
854.048	3157
854.183	3123
854.317	3211
854.451	3332
854.585	3100
854.72	3116
854.854	3264
854.988	3104
855.122	3100
855.256	3005
855.39	3169
855.524	3241
855.658	3211
855.792	3195
855.926	3169
856.06	3283
856.194	3287
856.327	3176
856.461	3123
856.595	3085
856.729	3116
856.862	3218
856.996	3180
857.13	3233
857.263	3275
857.397	3294
857.53	3173
857.664	3245
857.797	3298
857.931	3275
858.064	3184
858.197	3253
858.331	3184
858.464	3138
858.597	3005
858.731	3203
858.864	3131
858.997	3123
859.13	3184
859.263	3222
859.396	3226
859.529	3119
859.662	3112
859.795	3070
859.928	3169
860.061	3294
860.194	3310
860.327	3150
860.46	3093
860.592	3264
860.725	3268
860.858	3256
860.99	3138
861.123	3085
861.256	3077
861.388	3184
861.521	3949
861.653	3077
861.786	3020
861.918	3051
862.05	3077
862.183	3116
862.315	3157
862.447	3253
862.58	3100
862.712	2971
862.844	2899
862.976	3013
863.108	3032
863.24	3363
863.372	2864
863.504	3001
863.636	2982
863.768	3062
863.9	3005
864.032	2922
864.164	2975
864.296	3051
864.428	3112
864.559	3108
864.691	3108
864.823	3119
864.954	3055
865.086	3066
865.217	3001
865.349	2994
865.48	3020
865.612	3039
865.743	3138
865.875	3005
866.006	2971
866.137	2998
866.269	2967
866.4	2979
866.531	2956
866.662	2914
866.793	2925
866.924	2910
867.055	2986
867.186	2941
867.317	2914
867.448	2849
867.579	2895
867.71	2864
867.841	2883
867.972	2956
868.103	2960
868.233	2956
868.364	2906
868.495	2948
868.625	3074
868.756	3176
868.886	2994
869.017	3039
869.147	3188
869.278	3184
869.408	3055
869.539	3051
869.669	3093
869.799	3058
869.929	3138
870.06	3127
870.19	3367
870.32	3283
870.45	3340
870.58	3397
870.71	3485
870.84	3481
870.97	3340
871.1	3321
871.23	3530
871.36	3488
871.489	3389
871.619	3450
871.749	3439
871.879	3481
872.008	3492
872.138	3370
872.267	3321
872.397	3131
872.526	3100
872.656	3032
872.785	3097
872.915	3253
873.044	3363
873.173	3222
873.303	3218
873.432	3268
873.561	3275
873.69	3184
873.819	3165
873.948	3214
874.077	3131
874.206	3066
874.335	3100
874.464	3218
874.593	3329
874.722	3256
874.851	3409
874.979	3393
875.108	3336
875.237	3218
875.365	3176
875.494	3203
875.623	3283
875.751	3123
875.88	3112
876.008	3203
876.136	3264
876.265	3389
876.393	3545
876.521	3416
876.65	3420
876.778	3336
876.906	3275
877.034	3233
877.162	3241
877.29	3169
877.418	3298
877.546	3253
877.674	3283
877.802	3226
877.93	3241
878.058	3180
878.185	3157
878.313	3222
878.441	3253
878.568	3104
878.696	3192
878.824	3256
878.951	3302
879.079	3504
879.206	3633
879.333	3454
879.461	3348
879.588	3386
879.715	3507
879.842	3629
879.97	3424
880.097	3207
880.224	3150
880.351	3222
880.478	3256
880.605	3253
880.732	3199
880.859	3511
880.986	3332
881.112	3367
881.239	3199
881.366	3100
881.493	3051
881.619	3070
881.746	3070
881.872	3116
881.999	3104
882.125	3146
882.252	3264
882.378	3329
882.505	3447
882.631	3336
882.757	3173
882.883	3275
883.01	3245
883.136	3203
883.262	3093
883.388	3104
883.514	3310
883.64	3412
883.766	3351
883.892	3188
884.018	3268
884.143	3431
884.269	3610
884.395	3203
884.52	3188
884.646	3207
884.772	3135
884.897	3146
885.023	3233
885.148	3355
885.274	3435
885.399	3401
885.524	3287
885.65	3298
885.775	3325
885.9	3317
886.025	3481
886.15	3374
886.275	3351
886.4	3237
886.525	3329
886.65	3298
886.775	3279
886.9	3519
887.025	3618
887.149	3416
887.274	3264
887.399	3237
887.523	3214
887.648	3211
887.773	3233
887.897	3389
888.021	3416
888.146	3332
888.27	3481
888.395	3564
888.519	3412
888.643	3424
888.767	3466
888.891	3340
889.015	3241
889.139	3302
889.263	3241
889.387	3416
889.511	3500
889.635	3477
889.759	3302
889.883	3302
890.006	3393
890.13	3500
890.254	3279
890.377	3344
890.501	3245
890.624	3199
890.748	3317
890.871	3222
890.995	3135
891.118	3089
891.241	3195
891.364	3249
891.488	3336
891.611	3184
891.734	3272
891.857	3298
891.98	3264
892.103	3348
892.226	3302
892.349	3241
892.471	3154
892.594	3260
892.717	3313
892.839	3294
892.962	3302
893.085	3393
893.207	3306
893.33	3173
893.452	3245
893.575	3359
893.697	3253
893.819	3450
893.941	3549
894.064	3488
894.186	3302
894.308	3317
894.43	3443
894.552	3519
894.674	3485
894.796	3287
894.918	3310
895.04	3348
895.161	3462
895.283	3401
895.405	3359
895.526	3397
895.648	3428
895.769	3397
895.891	3454
896.012	3519
896.134	3477
896.255	3454
896.376	3393
896.498	3382
896.619	3420
896.74	3378
896.861	3386
896.982	3686
897.103	3876
897.224	3580
897.345	3519
897.466	3462
897.587	3488
897.708	3591
897.828	3606
897.949	3469
898.07	3355
898.19	3424
898.311	3629
898.431	3481
898.552	3526
898.672	3644
898.792	3584
898.913	3561
899.033	3481
899.153	3321
899.273	3211
899.393	3291
899.513	3313
899.633	3336
899.753	3348
899.873	3325
899.993	3378
900.113	3321
900.232	3405
900.352	3294
900.472	3291
900.591	3211
900.711	3340
900.83	3249
900.95	3435
901.069	3538
901.189	3332
901.308	3195
901.427	3142
901.546	3195
901.665	3313
901.784	3340
901.904	3195
902.023	3119
902.141	3020
902.26	2998
902.379	3146
902.498	3089
902.617	3047
902.735	3230
902.854	3272
902.973	3192
903.091	3055
903.21	3070
903.328	3169
903.446	3100
903.565	3097
903.683	3245
903.801	3123
903.919	3272
904.038	3325
904.156	3203
904.274	3291
904.392	3283
904.51	3287
904.627	3348
904.745	3458
904.863	3553
904.981	3249
905.098	3184
905.216	3230
905.334	3329
905.451	3332
905.569	3317
905.686	3412
905.803	3469
905.921	3310
906.038	3443
906.155	3374
906.272	3268
906.389	3378
906.506	3237
906.623	3256
906.74	3279
906.857	3230
906.974	3272
907.091	3447
907.208	3538
907.324	3481
907.441	3405
907.557	3264
907.674	3249
907.79	3214
907.907	3329
908.023	3359
908.139	3378
908.256	3363
908.372	3386
908.488	3351
908.604	3253
908.72	3230
908.836	3287
908.952	3283
909.068	3329
909.184	3496
909.3	3405
909.415	3454
909.531	3439
909.647	3313
909.762	3321
909.878	3260
909.993	3336
910.108	3374
910.224	3359
910.339	3435
910.454	3336
910.57	3306
910.685	3264
910.8	3587
910.915	3538
911.03	3443
911.145	3313
911.259	3283
911.374	3321
911.489	3226
911.604	3272
911.718	3104
911.833	3142
911.947	3028
912.062	2990
912.176	3138
912.291	3173
912.405	3241
912.519	3462
912.633	3507
912.748	3340
912.862	3340
912.976	3203
913.09	3097
913.204	3173
913.318	3207
913.431	3332
913.545	3317
913.659	3393
913.772	3321
913.886	3237
914	3230
914.113	3374
914.226	3428
914.34	3370
914.453	3222
914.566	3397
914.68	3268
914.793	3310
914.906	3104
915.019	3104
915.132	3066
915.245	3195
915.358	3207
915.47	3260
915.583	3275
915.696	3310
915.809	3401
915.921	3428
916.034	3306
916.146	3253
916.259	3241
916.371	3424
916.483	3374
916.595	3298
916.708	3367
916.82	3336
916.932	3367
917.044	3355
917.156	3340
917.268	3214
917.38	3310
917.491	3283
917.603	3386
917.715	3428
917.826	3469
917.938	3405
918.049	3283
918.161	3424
918.272	3538
918.384	3557
918.495	3519
918.606	3317
918.717	3310
918.828	3374
918.939	3412
919.05	3313
919.161	3386
919.272	3195
919.383	3268
919.494	3504
919.604	3656
919.715	3469
919.826	3431
919.936	3469
920.047	3595
920.157	3523
920.267	3762
920.378	3591
920.488	3587
920.598	3827
920.708	3979
920.818	3865
920.928	3816
921.038	3983
921.148	3983
921.258	3698
921.368	3671
921.477	3545
921.587	3568
921.697	3469
921.806	3618
921.916	3500
922.025	3386
922.134	3382
922.244	3329
922.353	3424
922.462	3260
922.571	3230
922.68	3108
922.789	3112
922.898	3169
923.007	3089
923.116	3195
923.224	3192
923.333	3222
923.442	3085
923.55	3077
923.659	3138
923.767	3214
923.876	3104
923.984	3249
924.092	3108
924.201	3237
924.309	3233
924.417	3272
924.525	3211
924.633	3237
924.741	4063
924.849	3070
924.956	3222
925.064	3116
925.172	3074
925.279	3112
925.387	3207
925.494	3233
925.602	3359
925.709	3298
925.816	3207
925.924	3291
926.031	3351
926.138	3363
926.245	3355
926.352	3272
926.459	3428
926.566	3458
926.673	3348
926.779	3245
926.886	3264
926.993	3157
927.099	3154
927.206	3119
927.312	3116
927.419	3203
927.525	3211
927.631	3272
927.737	3165
927.843	3131
927.95	3009
928.056	3157
928.162	3176
928.267	3245
928.373	3781
928.479	3302
928.585	3108
928.69	3218
928.796	3287
928.901	3157
929.007	3020
929.112	3180
929.218	3188
929.323	3154
929.428	3112
929.533	3321
929.638	3180
929.743	3142
929.848	3249
929.953	3184
930.058	3165
930.163	3055
930.267	3051
930.372	3241
930.477	2982
930.581	3344
930.685	3207
930.79	3024
930.894	3176
930.998	3097
931.103	3253
931.207	2982
931.311	2948
931.415	2948
931.519	2750
931.623	2815
