Data from test_V78500241_920.txt Node
Date: Fri Mar 25 16:21:34 CST 2022
User: usil
Spectrometer: V785-0024
Trigger mode: 0
Integration Time (sec): 4.000000E-1
Scans to average: 1
Nonlinearity correction enabled: false
Boxcar width: 0
Storing dark spectrum: false
XAxis mode: Wavelengths
Number of Pixels in Spectrum: 1024
>>>>>Begin Spectral Data<<<<<
801.071	2918
801.214	2948
801.356	2876
801.499	2887
801.641	2887
801.783	2902
801.926	3081
802.068	2982
802.211	3005
802.353	3036
802.496	2956
802.638	3039
802.78	3047
802.923	3100
803.065	3017
803.208	2922
803.35	2906
803.492	2952
803.635	2899
803.777	2758
803.919	2910
804.061	3184
804.204	2918
804.346	2925
804.488	2853
804.63	2990
804.773	2880
804.915	2941
805.057	3074
805.199	2906
805.341	3001
805.483	3032
805.626	3001
805.768	2971
805.91	3043
806.052	3104
806.194	3005
806.336	3233
806.478	3009
806.62	2937
806.762	3013
806.904	3070
807.046	3195
807.188	2963
807.33	2899
807.472	3032
807.614	2902
807.756	3013
807.898	2880
808.04	2883
808.182	2952
808.324	2944
808.465	2868
808.607	2868
808.749	2766
808.891	2868
809.033	2963
809.174	2967
809.316	2883
809.458	2834
809.6	2762
809.741	2769
809.883	2773
810.025	2849
810.166	2830
810.308	2845
810.45	2849
810.591	2788
810.733	2773
810.875	2830
811.016	2807
811.158	2743
811.299	2811
811.441	2918
811.582	2864
811.724	2804
811.865	2845
812.007	2883
812.148	2902
812.29	2834
812.431	2883
812.573	2906
812.714	2948
812.855	3039
812.997	3081
813.138	3108
813.279	3013
813.421	2963
813.562	2925
813.703	2876
813.845	2861
813.986	2746
814.127	2750
814.268	2781
814.41	2838
814.551	2830
814.692	2868
814.833	2826
814.974	2891
815.115	2948
815.256	2842
815.397	2823
815.539	2891
815.68	2804
815.821	2758
815.962	2990
816.103	2906
816.244	2853
816.385	2853
816.526	2990
816.666	2906
816.807	2724
816.948	2883
817.089	2883
817.23	2823
817.371	2788
817.512	2754
817.653	2857
817.793	2823
817.934	2872
818.075	2956
818.216	2956
818.356	3028
818.497	2887
818.638	2792
818.778	2830
818.919	2788
819.06	2750
819.2	2880
819.341	2796
819.481	2777
819.622	2937
819.762	3097
819.903	3066
820.043	2914
820.184	2883
820.324	2906
820.465	3036
820.605	3036
820.746	3013
820.886	2937
821.026	3123
821.167	3142
821.307	3275
821.447	3302
821.588	3249
821.728	3222
821.868	3222
822.008	3085
822.149	3169
822.289	3268
822.429	3085
822.569	3116
822.709	3233
822.849	3039
822.99	3108
823.13	3192
823.27	3192
823.41	3127
823.55	3184
823.69	3195
823.83	3241
823.97	3165
824.11	3032
824.25	3020
824.389	3089
824.529	3157
824.669	3085
824.809	3230
824.949	3294
825.089	3272
825.228	3214
825.368	3043
825.508	2979
825.648	3005
825.787	3047
825.927	3051
826.067	3024
826.206	2956
826.346	3081
826.485	3123
826.625	3123
826.765	3310
826.904	3279
827.044	2994
827.183	2986
827.323	2956
827.462	3039
827.601	2960
827.741	2971
827.88	3001
828.02	2880
828.159	2986
828.298	3039
828.437	3150
828.577	3085
828.716	3268
828.855	3081
828.994	2944
829.134	2925
829.273	2922
829.412	2948
829.551	2906
829.69	2948
829.829	3043
829.968	3165
830.107	3055
830.246	3051
830.385	2975
830.524	2918
830.663	2834
830.802	2788
830.941	2670
831.08	2682
831.219	2823
831.357	2792
831.496	2982
831.635	2746
831.774	2625
831.913	2697
832.051	2564
832.19	2617
832.329	2712
832.467	2560
832.606	2511
832.744	2617
832.883	2659
833.022	2648
833.16	2674
833.299	2731
833.437	2743
833.576	2746
833.714	2735
833.852	2739
833.991	2792
834.129	2880
834.267	2868
834.406	2804
834.544	2941
834.682	2925
834.821	2845
834.959	3108
835.097	2933
835.235	3066
835.373	3020
835.511	3116
835.65	2944
835.788	2994
835.926	2853
836.064	2845
836.202	2891
836.34	3135
836.478	3203
836.615	3085
836.753	3180
836.891	3230
837.029	3192
837.167	3127
837.305	3070
837.443	3100
837.58	3001
837.718	3161
837.856	3085
837.993	3112
838.131	3138
838.269	3138
838.406	3138
838.544	3142
838.681	2948
838.819	2937
838.956	2819
839.094	2838
839.231	2952
839.369	3047
839.506	3382
839.643	3245
839.781	3085
839.918	3024
840.055	3062
840.193	3089
840.33	3100
840.467	3150
840.604	3173
840.742	3405
840.879	3097
841.016	3077
841.153	3180
841.29	3336
841.427	3363
841.564	3291
841.701	3332
841.838	3253
841.975	3173
842.112	3245
842.249	3085
842.385	3100
842.522	3287
842.659	3081
842.796	3089
842.933	3135
843.069	3093
843.206	3024
843.343	3218
843.479	3097
843.616	3161
843.752	2910
843.889	2880
844.025	3089
844.162	2922
844.298	3116
844.435	2979
844.571	2925
844.708	3150
844.844	3222
844.98	3272
845.117	3195
845.253	3058
845.389	3017
845.525	3127
845.661	3123
845.798	3047
845.934	3123
846.07	3100
846.206	3245
846.342	3332
846.478	3256
846.614	3108
846.75	3093
846.886	3039
847.022	3211
847.158	3146
847.294	3226
847.429	3233
847.565	3214
847.701	3549
847.837	3047
847.972	3013
848.108	3218
848.244	3192
848.379	3009
848.515	2986
848.65	2979
848.786	2967
848.921	3047
849.057	3116
849.192	3180
849.328	3116
849.463	3131
849.598	3085
849.734	3062
849.869	2986
850.004	2944
850.14	2986
850.275	2990
850.41	2857
850.545	2868
850.68	2979
850.815	2963
850.95	2990
851.085	3211
851.22	3138
851.355	3043
851.49	2990
851.625	3024
851.76	3032
851.895	2960
852.03	2975
852.165	3093
852.299	3142
852.434	3176
852.569	3161
852.703	3195
852.838	3264
852.973	3389
853.107	3382
853.242	3180
853.376	3146
853.511	3020
853.645	3062
853.78	3226
853.914	3157
854.048	3131
854.183	3100
854.317	3135
854.451	3325
854.585	3131
854.72	3127
854.854	3226
854.988	3066
855.122	3116
855.256	3013
855.39	3131
855.524	3264
855.658	3230
855.792	3116
855.926	3241
856.06	3249
856.194	3294
856.327	3192
856.461	3093
856.595	3104
856.729	3119
856.862	3222
856.996	3173
857.13	3253
857.263	3233
857.397	3325
857.53	3173
857.664	3214
857.797	3313
857.931	3275
858.064	3157
858.197	3253
858.331	3165
858.464	3123
858.597	3055
858.731	3184
858.864	3146
858.997	3138
859.13	3161
859.263	3176
859.396	3226
859.529	3074
859.662	3100
859.795	3039
859.928	3176
860.061	3310
860.194	3302
860.327	3138
860.46	3116
860.592	3302
860.725	3268
860.858	3279
860.99	3161
861.123	3077
861.256	3081
861.388	3180
861.521	3846
861.653	3028
861.786	3020
861.918	3024
862.05	3093
862.183	3127
862.315	3169
862.447	3188
862.58	3077
862.712	3013
862.844	2910
862.976	3051
863.108	3009
863.24	3302
863.372	2910
863.504	2994
863.636	2937
863.768	3005
863.9	3013
864.032	2910
864.164	2979
864.296	3017
864.428	3142
864.559	3100
864.691	3089
864.823	3062
864.954	3024
865.086	3051
865.217	2975
865.349	2975
865.48	2990
865.612	3020
865.743	3146
865.875	3043
866.006	2967
866.137	2982
866.269	2979
866.4	2975
866.531	2937
866.662	2895
866.793	2891
866.924	2944
867.055	2971
867.186	2952
867.317	2899
867.448	2876
867.579	2891
867.71	2899
867.841	2834
867.972	2918
868.103	2963
868.233	2906
868.364	2891
868.495	2925
868.625	3097
868.756	3199
868.886	3001
869.017	3043
869.147	3176
869.278	3146
869.408	3051
869.539	3028
869.669	3077
869.799	3066
869.929	3116
870.06	3089
870.19	3317
870.32	3321
870.45	3279
870.58	3344
870.71	3466
870.84	3466
870.97	3298
871.1	3253
871.23	3507
871.36	3519
871.489	3367
871.619	3363
871.749	3424
871.879	3420
872.008	3519
872.138	3370
872.267	3291
872.397	3150
872.526	3089
872.656	3055
872.785	3108
872.915	3275
873.044	3336
873.173	3237
873.303	3291
873.432	3253
873.561	3283
873.69	3188
873.819	3142
873.948	3180
874.077	3116
874.206	3055
874.335	3123
874.464	3249
874.593	3386
874.722	3256
874.851	3382
874.979	3355
875.108	3317
875.237	3226
875.365	3180
875.494	3173
875.623	3253
875.751	3116
875.88	3161
876.008	3203
876.136	3298
876.265	3378
876.393	3481
876.521	3409
876.65	3420
876.778	3340
876.906	3245
877.034	3253
877.162	3233
877.29	3211
877.418	3287
877.546	3249
877.674	3226
877.802	3253
877.93	3253
878.058	3150
878.185	3135
878.313	3199
878.441	3249
878.568	3047
878.696	3180
878.824	3287
878.951	3325
879.079	3443
879.206	3622
879.333	3488
879.461	3344
879.588	3374
879.715	3473
879.842	3603
879.97	3416
880.097	3131
880.224	3131
880.351	3218
880.478	3226
880.605	3218
880.732	3184
880.859	3526
880.986	3317
881.112	3302
881.239	3176
881.366	3104
881.493	3043
881.619	3028
881.746	3081
881.872	3089
881.999	3081
882.125	3154
882.252	3260
882.378	3355
882.505	3424
882.631	3268
882.757	3154
882.883	3214
883.01	3275
883.136	3192
883.262	3123
883.388	3131
883.514	3298
883.64	3397
883.766	3329
883.892	3199
884.018	3241
884.143	3450
884.269	3549
884.395	3207
884.52	3138
884.646	3184
884.772	3165
884.897	3123
885.023	3218
885.148	3374
885.274	3439
885.399	3401
885.524	3287
885.65	3264
885.775	3317
885.9	3310
886.025	3435
886.15	3340
886.275	3321
886.4	3237
886.525	3317
886.65	3272
886.775	3245
886.9	3515
887.025	3614
887.149	3428
887.274	3230
887.399	3180
887.523	3173
887.648	3207
887.773	3192
887.897	3412
888.021	3412
888.146	3306
888.27	3462
888.395	3496
888.519	3416
888.643	3473
888.767	3466
888.891	3351
889.015	3268
889.139	3310
889.263	3241
889.387	3416
889.511	3492
889.635	3412
889.759	3329
889.883	3321
890.006	3363
890.13	3523
890.254	3249
890.377	3332
890.501	3192
890.624	3192
890.748	3264
890.871	3192
890.995	3108
891.118	3081
891.241	3192
891.364	3218
891.488	3310
891.611	3195
891.734	3211
891.857	3291
891.98	3253
892.103	3298
892.226	3283
892.349	3222
892.471	3138
892.594	3237
892.717	3310
892.839	3302
892.962	3313
893.085	3329
893.207	3317
893.33	3176
893.452	3222
893.575	3363
893.697	3226
893.819	3485
893.941	3473
894.064	3443
894.186	3302
894.308	3264
894.43	3431
894.552	3568
894.674	3507
894.796	3272
894.918	3348
895.04	3298
895.161	3435
895.283	3420
895.405	3313
895.526	3420
895.648	3447
895.769	3447
895.891	3428
896.012	3466
896.134	3450
896.255	3443
896.376	3393
896.498	3344
896.619	3428
896.74	3363
896.861	3393
896.982	3679
897.103	3865
897.224	3591
897.345	3561
897.466	3431
897.587	3511
897.708	3610
897.828	3564
897.949	3439
898.07	3367
898.19	3458
898.311	3629
898.431	3507
898.552	3511
898.672	3652
898.792	3580
898.913	3500
899.033	3435
899.153	3291
899.273	3264
899.393	3260
899.513	3310
899.633	3294
899.753	3344
899.873	3329
899.993	3397
900.113	3336
900.232	3389
900.352	3329
900.472	3279
900.591	3226
900.711	3306
900.83	3230
900.95	3401
901.069	3496
901.189	3336
901.308	3184
901.427	3150
901.546	3207
901.665	3291
901.784	3355
901.904	3214
902.023	3138
902.141	2998
902.26	2990
902.379	3131
902.498	3116
902.617	3062
902.735	3218
902.854	3241
902.973	3180
903.091	3047
903.21	3051
903.328	3108
903.446	3131
903.565	3081
903.683	3211
903.801	3131
903.919	3256
904.038	3332
904.156	3176
904.274	3294
904.392	3260
904.51	3291
904.627	3336
904.745	3439
904.863	3481
904.981	3237
905.098	3173
905.216	3230
905.334	3272
905.451	3306
905.569	3272
905.686	3477
905.803	3485
905.921	3306
906.038	3416
906.155	3367
906.272	3268
906.389	3389
906.506	3253
906.623	3222
906.74	3253
906.857	3211
906.974	3233
907.091	3428
907.208	3595
907.324	3431
907.441	3420
907.557	3260
907.674	3222
907.79	3233
907.907	3264
908.023	3355
908.139	3378
908.256	3317
908.372	3374
908.488	3367
908.604	3279
908.72	3264
908.836	3287
908.952	3275
909.068	3325
909.184	3473
909.3	3382
909.415	3485
909.531	3469
909.647	3264
909.762	3310
909.878	3241
909.993	3405
910.108	3332
910.224	3340
910.339	3435
910.454	3321
910.57	3298
910.685	3256
910.8	3568
910.915	3523
911.03	3428
911.145	3272
911.259	3287
911.374	3348
911.489	3279
911.604	3272
911.718	3150
911.833	3176
911.947	3055
912.062	2967
912.176	3150
912.291	3199
912.405	3233
912.519	3443
912.633	3485
912.748	3329
912.862	3287
912.976	3165
913.09	3070
913.204	3108
913.318	3233
913.431	3359
913.545	3378
913.659	3405
913.772	3329
913.886	3218
914	3192
914.113	3393
914.226	3405
914.34	3363
914.453	3199
914.566	3431
914.68	3336
914.793	3291
914.906	3184
915.019	3138
915.132	3058
915.245	3169
915.358	3199
915.47	3230
915.583	3294
915.696	3302
915.809	3450
915.921	3416
916.034	3264
916.146	3245
916.259	3199
916.371	3405
916.483	3405
916.595	3272
916.708	3321
916.82	3332
916.932	3287
917.044	3363
917.156	3363
917.268	3226
917.38	3298
917.491	3298
917.603	3355
917.715	3443
917.826	3504
917.938	3370
918.049	3264
918.161	3435
918.272	3549
918.384	3614
918.495	3477
918.606	3310
918.717	3332
918.828	3363
918.939	3405
919.05	3298
919.161	3325
919.272	3222
919.383	3291
919.494	3496
919.604	3686
919.715	3435
919.826	3416
919.936	3454
920.047	3599
920.157	3545
920.267	3740
920.378	3553
920.488	3561
920.598	3774
920.708	3960
920.818	3850
920.928	3842
921.038	3998
921.148	4002
921.258	3736
921.368	3637
921.477	3584
921.587	3534
921.697	3466
921.806	3648
921.916	3500
922.025	3374
922.134	3332
922.244	3332
922.353	3409
922.462	3279
922.571	3222
922.68	3085
922.789	3062
922.898	3138
923.007	3100
923.116	3230
923.224	3165
923.333	3230
923.442	3093
923.55	3085
923.659	3123
923.767	3203
923.876	3138
923.984	3241
924.092	3127
924.201	3199
924.309	3237
924.417	3253
924.525	3142
924.633	3233
924.741	4169
924.849	3085
924.956	3275
925.064	3161
925.172	3066
925.279	3097
925.387	3169
925.494	3218
925.602	3359
925.709	3306
925.816	3180
925.924	3249
926.031	3367
926.138	3344
926.245	3325
926.352	3249
926.459	3428
926.566	3439
926.673	3332
926.779	3268
926.886	3287
926.993	3169
927.099	3135
927.206	3100
927.312	3146
927.419	3253
927.525	3211
927.631	3287
927.737	3135
927.843	3116
927.95	3062
928.056	3131
928.162	3222
928.267	3214
928.373	3831
928.479	3321
928.585	3051
928.69	3218
928.796	3272
928.901	3203
929.007	3024
929.112	3222
929.218	3203
929.323	3127
929.428	3169
929.533	3294
929.638	3116
929.743	3218
929.848	3279
929.953	3176
930.058	3127
930.163	3017
930.267	3058
930.372	3188
930.477	3077
930.581	3310
930.685	3180
930.79	3062
930.894	3104
930.998	3081
931.103	3283
931.207	2933
931.311	2952
931.415	2944
931.519	2773
931.623	2796
