Data from test_V78500241_715.txt Node
Date: Fri Mar 25 16:20:09 CST 2022
User: usil
Spectrometer: V785-0024
Trigger mode: 0
Integration Time (sec): 4.000000E-1
Scans to average: 1
Nonlinearity correction enabled: false
Boxcar width: 0
Storing dark spectrum: false
XAxis mode: Wavelengths
Number of Pixels in Spectrum: 1024
>>>>>Begin Spectral Data<<<<<
801.071	2956
801.214	2979
801.356	2910
801.499	2929
801.641	2899
801.783	2971
801.926	3089
802.068	3020
802.211	3009
802.353	3093
802.496	2952
802.638	3039
802.78	3089
802.923	3074
803.065	3032
803.208	2899
803.35	2967
803.492	2918
803.635	2948
803.777	2769
803.919	2864
804.061	3165
804.204	2971
804.346	2899
804.488	2857
804.63	3020
804.773	2853
804.915	2914
805.057	3085
805.199	2944
805.341	2986
805.483	3047
805.626	3009
805.768	2975
805.91	3100
806.052	3104
806.194	3043
806.336	3245
806.478	3043
806.62	2963
806.762	2990
806.904	3055
807.046	3199
807.188	3020
807.33	2956
807.472	3032
807.614	2948
807.756	3001
807.898	2937
808.04	2944
808.182	2998
808.324	2975
808.465	2895
808.607	2918
808.749	2826
808.891	2857
809.033	2979
809.174	2963
809.316	2914
809.458	2925
809.6	2792
809.741	2785
809.883	2766
810.025	2887
810.166	2895
810.308	2880
810.45	2899
810.591	2781
810.733	2807
810.875	2815
811.016	2788
811.158	2788
811.299	2819
811.441	2956
811.582	2883
811.724	2845
811.865	2861
812.007	2963
812.148	2902
812.29	2857
812.431	2899
812.573	2952
812.714	3001
812.855	3051
812.997	3077
813.138	3138
813.279	3036
813.421	2982
813.562	2967
813.703	2864
813.845	2887
813.986	2819
814.127	2754
814.268	2845
814.41	2883
814.551	2857
814.692	2914
814.833	2857
814.974	2925
815.115	3020
815.256	2864
815.397	2834
815.539	2880
815.68	2807
815.821	2781
815.962	2933
816.103	2925
816.244	2906
816.385	2880
816.526	3013
816.666	2929
816.807	2731
816.948	2876
817.089	2933
817.23	2868
817.371	2773
817.512	2853
817.653	2906
817.793	2853
817.934	2918
818.075	2990
818.216	3028
818.356	3024
818.497	2872
818.638	2834
818.778	2868
818.919	2826
819.06	2792
819.2	2925
819.341	2842
819.481	2811
819.622	2944
819.762	3100
819.903	3043
820.043	2937
820.184	2952
820.324	2933
820.465	3032
820.605	3009
820.746	3047
820.886	2922
821.026	3116
821.167	3233
821.307	3302
821.447	3279
821.588	3260
821.728	3195
821.868	3237
822.008	3058
822.149	3222
822.289	3230
822.429	3116
822.569	3112
822.709	3211
822.849	3104
822.99	3104
823.13	3142
823.27	3226
823.41	3104
823.55	3180
823.69	3165
823.83	3199
823.97	3123
824.11	3024
824.25	3009
824.389	3085
824.529	3100
824.669	3081
824.809	3211
824.949	3310
825.089	3264
825.228	3184
825.368	3036
825.508	2998
825.648	2990
825.787	3028
825.927	3055
826.067	2967
826.206	2971
826.346	3058
826.485	3093
826.625	3169
826.765	3298
826.904	3222
827.044	2994
827.183	2929
827.323	2899
827.462	3020
827.601	2967
827.741	2967
827.88	2971
828.02	2880
828.159	2975
828.298	3051
828.437	3150
828.577	3043
828.716	3233
828.855	3100
828.994	2922
829.134	2895
829.273	2922
829.412	2887
829.551	2883
829.69	2891
829.829	3017
829.968	3180
830.107	3032
830.246	3036
830.385	2941
830.524	2872
830.663	2853
830.802	2739
830.941	2651
831.08	2655
831.219	2731
831.357	2796
831.496	2963
831.635	2735
831.774	2663
831.913	2693
832.051	2602
832.19	2606
832.329	2689
832.467	2568
832.606	2507
832.744	2587
832.883	2598
833.022	2613
833.16	2667
833.299	2705
833.437	2705
833.576	2724
833.714	2750
833.852	2739
833.991	2754
834.129	2857
834.267	2838
834.406	2811
834.544	2906
834.682	2887
834.821	2891
834.959	3051
835.097	2922
835.235	3047
835.373	3009
835.511	3032
835.65	2971
835.788	2975
835.926	2842
836.064	2781
836.202	2872
836.34	3058
836.478	3142
836.615	3081
836.753	3165
836.891	3218
837.029	3154
837.167	3104
837.305	3066
837.443	3066
837.58	2948
837.718	3138
837.856	3112
837.993	3066
838.131	3123
838.269	3131
838.406	3100
838.544	3085
838.681	2941
838.819	2895
838.956	2849
839.094	2838
839.231	2971
839.369	3024
839.506	3397
839.643	3199
839.781	2994
839.918	2982
840.055	3081
840.193	3036
840.33	3081
840.467	3150
840.604	3180
840.742	3420
840.879	3077
841.016	3074
841.153	3116
841.29	3348
841.427	3359
841.564	3272
841.701	3325
841.838	3226
841.975	3173
842.112	3184
842.249	3062
842.385	3036
842.522	3279
842.659	3104
842.796	3047
842.933	3150
843.069	3039
843.206	3047
843.343	3176
843.479	3081
843.616	3150
843.752	2925
843.889	2880
844.025	3104
844.162	2902
844.298	3100
844.435	2952
844.571	2910
844.708	3089
844.844	3241
844.98	3195
845.117	3203
845.253	3043
845.389	3043
845.525	3112
845.661	3150
845.798	2982
845.934	3104
846.07	3081
846.206	3214
846.342	3287
846.478	3195
846.614	3070
846.75	3051
846.886	3043
847.022	3253
847.158	3176
847.294	3184
847.429	3275
847.565	3241
847.701	3481
847.837	3024
847.972	2971
848.108	3154
848.244	3173
848.379	2994
848.515	2979
848.65	2948
848.786	2982
848.921	3013
849.057	3123
849.192	3157
849.328	3081
849.463	3131
849.598	3085
849.734	3047
849.869	3001
850.004	2937
850.14	2990
850.275	2918
850.41	2849
850.545	2933
850.68	2941
850.815	3020
850.95	2982
851.085	3233
851.22	3097
851.355	3062
851.49	3028
851.625	3055
851.76	3036
851.895	2948
852.03	2925
852.165	3097
852.299	3150
852.434	3214
852.569	3188
852.703	3241
852.838	3264
852.973	3393
853.107	3332
853.242	3173
853.376	3146
853.511	3036
853.645	3085
853.78	3264
853.914	3157
854.048	3123
854.183	3150
854.317	3195
854.451	3336
854.585	3173
854.72	3119
854.854	3268
854.988	3116
855.122	3131
855.256	3013
855.39	3138
855.524	3272
855.658	3230
855.792	3230
855.926	3253
856.06	3272
856.194	3313
856.327	3180
856.461	3127
856.595	3116
856.729	3116
856.862	3268
856.996	3173
857.13	3218
857.263	3256
857.397	3287
857.53	3142
857.664	3203
857.797	3256
857.931	3283
858.064	3199
858.197	3294
858.331	3157
858.464	3112
858.597	3047
858.731	3154
858.864	3150
858.997	3131
859.13	3199
859.263	3218
859.396	3207
859.529	3119
859.662	3123
859.795	3085
859.928	3146
860.061	3321
860.194	3332
860.327	3146
860.46	3119
860.592	3291
860.725	3298
860.858	3302
860.99	3135
861.123	3104
861.256	3070
861.388	3157
861.521	3991
861.653	3047
861.786	3039
861.918	3032
862.05	3047
862.183	3150
862.315	3157
862.447	3233
862.58	3135
862.712	3009
862.844	2933
862.976	3032
863.108	2990
863.24	3439
863.372	2910
863.504	2982
863.636	3039
863.768	3070
863.9	3020
864.032	2929
864.164	2998
864.296	3066
864.428	3146
864.559	3119
864.691	3070
864.823	3070
864.954	3062
865.086	3093
865.217	3005
865.349	3017
865.48	3024
865.612	3081
865.743	3195
865.875	2975
866.006	2948
866.137	3013
866.269	2994
866.4	2982
866.531	2960
866.662	2906
866.793	2914
866.924	2925
867.055	3020
867.186	2956
867.317	2902
867.448	2868
867.579	2849
867.71	2849
867.841	2857
867.972	2887
868.103	2944
868.233	2914
868.364	2891
868.495	2956
868.625	3081
868.756	3173
868.886	3005
869.017	3077
869.147	3222
869.278	3203
869.408	3100
869.539	3074
869.669	3123
869.799	3062
869.929	3154
870.06	3169
870.19	3363
870.32	3351
870.45	3302
870.58	3386
870.71	3488
870.84	3542
870.97	3329
871.1	3279
871.23	3553
871.36	3447
871.489	3409
871.619	3405
871.749	3450
871.879	3507
872.008	3511
872.138	3420
872.267	3340
872.397	3169
872.526	3123
872.656	3017
872.785	3142
872.915	3294
873.044	3409
873.173	3283
873.303	3306
873.432	3294
873.561	3283
873.69	3150
873.819	3214
873.948	3195
874.077	3150
874.206	3066
874.335	3108
874.464	3253
874.593	3382
874.722	3272
874.851	3439
874.979	3424
875.108	3351
875.237	3233
875.365	3180
875.494	3180
875.623	3283
875.751	3116
875.88	3112
876.008	3214
876.136	3260
876.265	3454
876.393	3534
876.521	3447
876.65	3393
876.778	3370
876.906	3275
877.034	3249
877.162	3283
877.29	3199
877.418	3264
877.546	3294
877.674	3241
877.802	3249
877.93	3245
878.058	3169
878.185	3131
878.313	3199
878.441	3241
878.568	3097
878.696	3188
878.824	3249
878.951	3317
879.079	3466
879.206	3629
879.333	3458
879.461	3348
879.588	3370
879.715	3466
879.842	3603
879.97	3428
880.097	3233
880.224	3157
880.351	3222
880.478	3264
880.605	3233
880.732	3218
880.859	3564
880.986	3355
881.112	3336
881.239	3222
881.366	3100
881.493	3062
881.619	3032
881.746	3093
881.872	3127
881.999	3135
882.125	3138
882.252	3245
882.378	3359
882.505	3469
882.631	3294
882.757	3142
882.883	3283
883.01	3245
883.136	3195
883.262	3146
883.388	3100
883.514	3340
883.64	3420
883.766	3325
883.892	3169
884.018	3298
884.143	3416
884.269	3538
884.395	3264
884.52	3211
884.646	3207
884.772	3180
884.897	3146
885.023	3180
885.148	3325
885.274	3443
885.399	3378
885.524	3264
885.65	3298
885.775	3344
885.9	3302
886.025	3435
886.15	3397
886.275	3294
886.4	3245
886.525	3329
886.65	3313
886.775	3275
886.9	3542
887.025	3652
887.149	3443
887.274	3268
887.399	3211
887.523	3275
887.648	3184
887.773	3218
887.897	3397
888.021	3435
888.146	3325
888.27	3458
888.395	3595
888.519	3488
888.643	3477
888.767	3496
888.891	3363
889.015	3256
889.139	3283
889.263	3249
889.387	3424
889.511	3466
889.635	3431
889.759	3321
889.883	3332
890.006	3367
890.13	3538
890.254	3287
890.377	3389
890.501	3218
890.624	3203
890.748	3370
890.871	3218
890.995	3108
891.118	3089
891.241	3207
891.364	3245
891.488	3306
891.611	3188
891.734	3237
891.857	3325
891.98	3287
892.103	3325
892.226	3256
892.349	3226
892.471	3135
892.594	3313
892.717	3321
892.839	3275
892.962	3317
893.085	3382
893.207	3291
893.33	3176
893.452	3287
893.575	3401
893.697	3264
893.819	3515
893.941	3542
894.064	3435
894.186	3283
894.308	3332
894.43	3507
894.552	3561
894.674	3504
894.796	3313
894.918	3321
895.04	3302
895.161	3462
895.283	3450
895.405	3302
895.526	3367
895.648	3473
895.769	3435
895.891	3473
896.012	3454
896.134	3500
896.255	3447
896.376	3397
896.498	3424
896.619	3431
896.74	3344
896.861	3435
896.982	3724
897.103	3831
897.224	3633
897.345	3572
897.466	3431
897.587	3519
897.708	3652
897.828	3561
897.949	3450
898.07	3359
898.19	3389
898.311	3599
898.431	3469
898.552	3515
898.672	3622
898.792	3603
898.913	3519
899.033	3416
899.153	3325
899.273	3260
899.393	3321
899.513	3340
899.633	3306
899.753	3405
899.873	3329
899.993	3405
900.113	3340
900.232	3416
900.352	3344
900.472	3302
900.591	3241
900.711	3313
900.83	3275
900.95	3447
901.069	3538
901.189	3393
901.308	3233
901.427	3154
901.546	3214
901.665	3279
901.784	3355
901.904	3249
902.023	3146
902.141	3047
902.26	3009
902.379	3154
902.498	3104
902.617	3066
902.735	3256
902.854	3230
902.973	3154
903.091	3081
903.21	3104
903.328	3169
903.446	3135
903.565	3150
903.683	3218
903.801	3104
903.919	3272
904.038	3302
904.156	3135
904.274	3298
904.392	3279
904.51	3275
904.627	3363
904.745	3450
904.863	3534
904.981	3291
905.098	3203
905.216	3245
905.334	3325
905.451	3310
905.569	3317
905.686	3405
905.803	3473
905.921	3256
906.038	3424
906.155	3386
906.272	3287
906.389	3374
906.506	3211
906.623	3249
906.74	3272
906.857	3245
906.974	3275
907.091	3458
907.208	3584
907.324	3496
907.441	3409
907.557	3256
907.674	3245
907.79	3230
907.907	3291
908.023	3370
908.139	3378
908.256	3344
908.372	3378
908.488	3393
908.604	3260
908.72	3245
908.836	3325
908.952	3310
909.068	3351
909.184	3519
909.3	3393
909.415	3469
909.531	3450
909.647	3298
909.762	3310
909.878	3268
909.993	3378
910.108	3329
910.224	3344
910.339	3420
910.454	3355
910.57	3287
910.685	3230
910.8	3572
910.915	3538
911.03	3439
911.145	3268
911.259	3329
911.374	3313
911.489	3287
911.604	3245
911.718	3089
911.833	3195
911.947	3043
912.062	2963
912.176	3142
912.291	3233
912.405	3203
912.519	3439
912.633	3477
912.748	3359
912.862	3298
912.976	3180
913.09	3070
913.204	3176
913.318	3195
913.431	3313
913.545	3329
913.659	3397
913.772	3351
913.886	3237
914	3226
914.113	3378
914.226	3431
914.34	3431
914.453	3222
914.566	3439
914.68	3298
914.793	3310
914.906	3154
915.019	3116
915.132	3093
915.245	3180
915.358	3218
915.47	3241
915.583	3283
915.696	3313
915.809	3428
915.921	3447
916.034	3245
916.146	3260
916.259	3245
916.371	3370
916.483	3409
916.595	3298
916.708	3329
916.82	3336
916.932	3367
917.044	3344
917.156	3355
917.268	3249
917.38	3298
917.491	3275
917.603	3370
917.715	3454
917.826	3462
917.938	3389
918.049	3260
918.161	3458
918.272	3595
918.384	3553
918.495	3507
918.606	3325
918.717	3253
918.828	3386
918.939	3424
919.05	3268
919.161	3412
919.272	3218
919.383	3237
919.494	3523
919.604	3637
919.715	3488
919.826	3416
919.936	3424
920.047	3644
920.157	3553
920.267	3751
920.378	3625
920.488	3561
920.598	3793
920.708	3918
920.818	3873
920.928	3819
921.038	4013
921.148	3968
921.258	3751
921.368	3648
921.477	3614
921.587	3542
921.697	3477
921.806	3656
921.916	3557
922.025	3359
922.134	3374
922.244	3344
922.353	3412
922.462	3264
922.571	3253
922.68	3085
922.789	3089
922.898	3184
923.007	3116
923.116	3199
923.224	3188
923.333	3188
923.442	3123
923.55	3093
923.659	3161
923.767	3226
923.876	3127
923.984	3256
924.092	3131
924.201	3192
924.309	3230
924.417	3245
924.525	3165
924.633	3226
924.741	4150
924.849	3020
924.956	3291
925.064	3066
925.172	3028
925.279	3074
925.387	3207
925.494	3184
925.602	3382
925.709	3325
925.816	3188
925.924	3283
926.031	3351
926.138	3332
926.245	3389
926.352	3256
926.459	3397
926.566	3443
926.673	3325
926.779	3253
926.886	3253
926.993	3119
927.099	3173
927.206	3116
927.312	3093
927.419	3211
927.525	3199
927.631	3256
927.737	3203
927.843	3154
927.95	3043
928.056	3112
928.162	3199
928.267	3226
928.373	3873
928.479	3321
928.585	3058
928.69	3188
928.796	3241
928.901	3192
929.007	3032
929.112	3199
929.218	3161
929.323	3135
929.428	3146
929.533	3310
929.638	3116
929.743	3165
929.848	3264
929.953	3230
930.058	3127
930.163	3013
930.267	3047
930.372	3195
930.477	3051
930.581	3298
930.685	3173
930.79	3047
930.894	3119
930.998	3131
931.103	3275
931.207	2998
931.311	2979
931.415	2948
931.519	2777
931.623	2819
