Data from test_V78500241_1032.txt Node
Date: Fri Mar 25 16:22:21 CST 2022
User: usil
Spectrometer: V785-0024
Trigger mode: 0
Integration Time (sec): 4.000000E-1
Scans to average: 1
Nonlinearity correction enabled: false
Boxcar width: 0
Storing dark spectrum: false
XAxis mode: Wavelengths
Number of Pixels in Spectrum: 1024
>>>>>Begin Spectral Data<<<<<
801.071	2887
801.214	2933
801.356	2876
801.499	2876
801.641	2845
801.783	2906
801.926	3032
802.068	2925
802.211	3013
802.353	3013
802.496	2944
802.638	2990
802.78	3017
802.923	3039
803.065	2982
803.208	2906
803.35	2925
803.492	2933
803.635	2990
803.777	2754
803.919	2876
804.061	3203
804.204	2937
804.346	2929
804.488	2819
804.63	2982
804.773	2872
804.915	2880
805.057	3074
805.199	2914
805.341	2971
805.483	3039
805.626	2971
805.768	2979
805.91	3104
806.052	3089
806.194	3058
806.336	3226
806.478	3085
806.62	2998
806.762	2994
806.904	3066
807.046	3180
807.188	3009
807.33	2944
807.472	3017
807.614	2891
807.756	3028
807.898	2944
808.04	2967
808.182	3009
808.324	2982
808.465	2910
808.607	2880
808.749	2842
808.891	2880
809.033	2982
809.174	2986
809.316	2906
809.458	2933
809.6	2792
809.741	2804
809.883	2781
810.025	2868
810.166	2887
810.308	2845
810.45	2864
810.591	2811
810.733	2804
810.875	2872
811.016	2823
811.158	2792
811.299	2872
811.441	2948
811.582	2952
811.724	2864
811.865	2838
812.007	2952
812.148	2887
812.29	2891
812.431	2899
812.573	2944
812.714	2994
812.855	3058
812.997	3089
813.138	3135
813.279	3028
813.421	3043
813.562	3017
813.703	2895
813.845	2952
813.986	2815
814.127	2754
814.268	2826
814.41	2861
814.551	2876
814.692	2925
814.833	2826
814.974	2918
815.115	2994
815.256	2853
815.397	2864
815.539	2891
815.68	2853
815.821	2804
815.962	2960
816.103	2956
816.244	2910
816.385	2902
816.526	2998
816.666	2929
816.807	2785
816.948	2918
817.089	2941
817.23	2861
817.371	2811
817.512	2807
817.653	2880
817.793	2864
817.934	2929
818.075	3005
818.216	3009
818.356	3024
818.497	2925
818.638	2804
818.778	2830
818.919	2804
819.06	2785
819.2	2899
819.341	2861
819.481	2845
819.622	2929
819.762	3146
819.903	3085
820.043	2952
820.184	2960
820.324	2937
820.465	3051
820.605	3028
820.746	3066
820.886	2937
821.026	3100
821.167	3176
821.307	3302
821.447	3275
821.588	3287
821.728	3211
821.868	3214
822.008	3108
822.149	3211
822.289	3294
822.429	3119
822.569	3127
822.709	3207
822.849	3051
822.99	3081
823.13	3188
823.27	3222
823.41	3116
823.55	3188
823.69	3173
823.83	3211
823.97	3104
824.11	3017
824.25	3043
824.389	3081
824.529	3116
824.669	3047
824.809	3226
824.949	3298
825.089	3245
825.228	3176
825.368	3024
825.508	2944
825.648	3013
825.787	3032
825.927	3036
826.067	2986
826.206	2994
826.346	3077
826.485	3093
826.625	3135
826.765	3283
826.904	3233
827.044	3032
827.183	2975
827.323	2857
827.462	3043
827.601	2906
827.741	2929
827.88	2971
828.02	2853
828.159	3009
828.298	3066
828.437	3116
828.577	3062
828.716	3264
828.855	3100
828.994	2914
829.134	2876
829.273	2952
829.412	2887
829.551	2887
829.69	2933
829.829	2990
829.968	3138
830.107	3020
830.246	3009
830.385	2960
830.524	2883
830.663	2834
830.802	2762
830.941	2708
831.08	2678
831.219	2785
831.357	2796
831.496	2994
831.635	2735
831.774	2674
831.913	2689
832.051	2556
832.19	2587
832.329	2701
832.467	2556
832.606	2492
832.744	2602
832.883	2606
833.022	2613
833.16	2689
833.299	2701
833.437	2724
833.576	2720
833.714	2762
833.852	2777
833.991	2750
834.129	2830
834.267	2838
834.406	2792
834.544	2883
834.682	2922
834.821	2929
834.959	3093
835.097	2906
835.235	3074
835.373	3028
835.511	3097
835.65	2975
835.788	3009
835.926	2853
836.064	2826
836.202	2868
836.34	3138
836.478	3157
836.615	3085
836.753	3176
836.891	3245
837.029	3188
837.167	3138
837.305	3097
837.443	3070
837.58	3013
837.718	3135
837.856	3119
837.993	3077
838.131	3116
838.269	3135
838.406	3135
838.544	3116
838.681	2979
838.819	2925
838.956	2826
839.094	2872
839.231	2929
839.369	3051
839.506	3348
839.643	3256
839.781	3097
839.918	2982
840.055	3093
840.193	3074
840.33	3077
840.467	3108
840.604	3131
840.742	3428
840.879	3100
841.016	3093
841.153	3150
841.29	3397
841.427	3332
841.564	3264
841.701	3313
841.838	3268
841.975	3207
842.112	3222
842.249	3108
842.385	3062
842.522	3275
842.659	3089
842.796	3108
842.933	3100
843.069	3039
843.206	3070
843.343	3222
843.479	3138
843.616	3176
843.752	2914
843.889	2895
844.025	3085
844.162	2902
844.298	3093
844.435	2944
844.571	2910
844.708	3070
844.844	3203
844.98	3233
845.117	3207
845.253	3036
845.389	3055
845.525	3116
845.661	3104
845.798	2998
845.934	3157
846.07	3077
846.206	3249
846.342	3367
846.478	3241
846.614	3123
846.75	3081
846.886	3051
847.022	3291
847.158	3150
847.294	3203
847.429	3298
847.565	3184
847.701	3481
847.837	3051
847.972	3013
848.108	3214
848.244	3157
848.379	3032
848.515	2941
848.65	2960
848.786	2982
848.921	3017
849.057	3112
849.192	3169
849.328	3089
849.463	3135
849.598	3100
849.734	3077
849.869	2982
850.004	2929
850.14	2963
850.275	2956
850.41	2864
850.545	2902
850.68	2941
850.815	2963
850.95	2986
851.085	3188
851.22	3081
851.355	3062
851.49	2994
851.625	3032
851.76	3051
851.895	2944
852.03	2922
852.165	3047
852.299	3142
852.434	3218
852.569	3131
852.703	3165
852.838	3275
852.973	3348
853.107	3378
853.242	3161
853.376	3131
853.511	2979
853.645	3028
853.78	3253
853.914	3161
854.048	3108
854.183	3081
854.317	3184
854.451	3302
854.585	3165
854.72	3093
854.854	3230
854.988	3097
855.122	3058
855.256	2990
855.39	3116
855.524	3253
855.658	3188
855.792	3161
855.926	3207
856.06	3218
856.194	3256
856.327	3169
856.461	3085
856.595	3077
856.729	3070
856.862	3226
856.996	3211
857.13	3199
857.263	3237
857.397	3275
857.53	3138
857.664	3237
857.797	3230
857.931	3249
858.064	3176
858.197	3287
858.331	3112
858.464	3112
858.597	3001
858.731	3142
858.864	3097
858.997	3116
859.13	3180
859.263	3203
859.396	3199
859.529	3108
859.662	3097
859.795	3085
859.928	3199
860.061	3294
860.194	3268
860.327	3180
860.46	3112
860.592	3264
860.725	3260
860.858	3279
860.99	3135
861.123	3070
861.256	3074
861.388	3135
861.521	3835
861.653	3001
861.786	3009
861.918	3020
862.05	3093
862.183	3112
862.315	3184
862.447	3218
862.58	3116
862.712	2971
862.844	2891
862.976	3036
863.108	3028
863.24	3443
863.372	2918
863.504	2948
863.636	2944
863.768	3058
863.9	3005
864.032	2948
864.164	2963
864.296	3039
864.428	3135
864.559	3142
864.691	3127
864.823	3074
864.954	3020
865.086	3074
865.217	3009
865.349	2956
865.48	3036
865.612	3024
865.743	3146
865.875	3001
866.006	2975
866.137	2998
866.269	2944
866.4	2971
866.531	2910
866.662	2929
866.793	2895
866.924	2895
867.055	2990
867.186	2944
867.317	2918
867.448	2842
867.579	2891
867.71	2861
867.841	2807
867.972	2922
868.103	2895
868.233	2922
868.364	2902
868.495	2922
868.625	3097
868.756	3165
868.886	3013
869.017	3043
869.147	3203
869.278	3214
869.408	3093
869.539	3043
869.669	3093
869.799	3055
869.929	3127
870.06	3097
870.19	3329
870.32	3306
870.45	3264
870.58	3370
870.71	3450
870.84	3428
870.97	3325
871.1	3275
871.23	3526
871.36	3454
871.489	3310
871.619	3412
871.749	3443
871.879	3473
872.008	3488
872.138	3363
872.267	3279
872.397	3112
872.526	3119
872.656	3036
872.785	3104
872.915	3272
873.044	3336
873.173	3226
873.303	3249
873.432	3230
873.561	3283
873.69	3161
873.819	3146
873.948	3207
874.077	3116
874.206	3047
874.335	3097
874.464	3249
874.593	3378
874.722	3241
874.851	3409
874.979	3351
875.108	3374
875.237	3211
875.365	3165
875.494	3207
875.623	3222
875.751	3070
875.88	3131
876.008	3184
876.136	3241
876.265	3393
876.393	3530
876.521	3462
876.65	3409
876.778	3340
876.906	3249
877.034	3230
877.162	3230
877.29	3195
877.418	3264
877.546	3268
877.674	3272
877.802	3253
877.93	3180
878.058	3157
878.185	3112
878.313	3222
878.441	3237
878.568	3074
878.696	3161
878.824	3272
878.951	3298
879.079	3492
879.206	3629
879.333	3462
879.461	3367
879.588	3367
879.715	3500
879.842	3606
879.97	3405
880.097	3226
880.224	3165
880.351	3226
880.478	3249
880.605	3230
880.732	3211
880.859	3500
880.986	3329
881.112	3374
881.239	3253
881.366	3077
881.493	3085
881.619	2998
881.746	3161
881.872	3123
881.999	3154
882.125	3180
882.252	3268
882.378	3332
882.505	3454
882.631	3298
882.757	3226
882.883	3260
883.01	3275
883.136	3199
883.262	3138
883.388	3157
883.514	3397
883.64	3409
883.766	3363
883.892	3253
884.018	3317
884.143	3488
884.269	3595
884.395	3268
884.52	3226
884.646	3218
884.772	3154
884.897	3135
885.023	3237
885.148	3412
885.274	3481
885.399	3424
885.524	3298
885.65	3348
885.775	3374
885.9	3306
886.025	3481
886.15	3389
886.275	3329
886.4	3329
886.525	3340
886.65	3348
886.775	3298
886.9	3557
887.025	3679
887.149	3473
887.274	3294
887.399	3207
887.523	3253
887.648	3230
887.773	3222
887.897	3412
888.021	3454
888.146	3340
888.27	3488
888.395	3538
888.519	3469
888.643	3526
888.767	3519
888.891	3351
889.015	3287
889.139	3348
889.263	3287
889.387	3428
889.511	3523
889.635	3496
889.759	3321
889.883	3336
890.006	3412
890.13	3523
890.254	3275
890.377	3420
890.501	3218
890.624	3222
890.748	3348
890.871	3260
890.995	3203
891.118	3093
891.241	3268
891.364	3237
891.488	3359
891.611	3233
891.734	3253
891.857	3298
891.98	3268
892.103	3386
892.226	3351
892.349	3230
892.471	3131
892.594	3306
892.717	3332
892.839	3283
892.962	3348
893.085	3386
893.207	3378
893.33	3222
893.452	3268
893.575	3374
893.697	3256
893.819	3526
893.941	3542
894.064	3515
894.186	3291
894.308	3332
894.43	3481
894.552	3549
894.674	3542
894.796	3321
894.918	3336
895.04	3310
895.161	3473
895.283	3409
895.405	3306
895.526	3420
895.648	3462
895.769	3443
895.891	3485
896.012	3534
896.134	3511
896.255	3424
896.376	3431
896.498	3382
896.619	3435
896.74	3386
896.861	3420
896.982	3713
897.103	3838
897.224	3599
897.345	3523
897.466	3466
897.587	3526
897.708	3625
897.828	3591
897.949	3462
898.07	3374
898.19	3462
898.311	3625
898.431	3469
898.552	3526
898.672	3625
898.792	3618
898.913	3591
899.033	3473
899.153	3355
899.273	3245
899.393	3313
899.513	3382
899.633	3374
899.753	3397
899.873	3325
899.993	3443
900.113	3370
900.232	3412
900.352	3393
900.472	3325
900.591	3249
900.711	3336
900.83	3294
900.95	3473
901.069	3515
901.189	3382
901.308	3199
901.427	3173
901.546	3218
901.665	3355
901.784	3340
901.904	3279
902.023	3169
902.141	3051
902.26	3051
902.379	3188
902.498	3085
902.617	3085
902.735	3226
902.854	3287
902.973	3245
903.091	3108
903.21	3051
903.328	3161
903.446	3135
903.565	3127
903.683	3226
903.801	3165
903.919	3287
904.038	3332
904.156	3203
904.274	3336
904.392	3287
904.51	3294
904.627	3355
904.745	3481
904.863	3572
904.981	3268
905.098	3192
905.216	3256
905.334	3332
905.451	3332
905.569	3351
905.686	3500
905.803	3477
905.921	3306
906.038	3454
906.155	3409
906.272	3310
906.389	3393
906.506	3230
906.623	3302
906.74	3321
906.857	3203
906.974	3283
907.091	3481
907.208	3603
907.324	3492
907.441	3409
907.557	3245
907.674	3230
907.79	3233
907.907	3294
908.023	3389
908.139	3393
908.256	3344
908.372	3409
908.488	3416
908.604	3287
908.72	3294
908.836	3287
908.952	3291
909.068	3378
909.184	3523
909.3	3412
909.415	3496
909.531	3515
909.647	3306
909.762	3340
909.878	3260
909.993	3405
910.108	3336
910.224	3317
910.339	3443
910.454	3367
910.57	3336
910.685	3264
910.8	3625
910.915	3549
911.03	3447
911.145	3302
911.259	3283
911.374	3332
911.489	3256
911.604	3260
911.718	3112
911.833	3169
911.947	3085
912.062	2994
912.176	3214
912.291	3222
912.405	3241
912.519	3454
912.633	3507
912.748	3351
912.862	3351
912.976	3161
913.09	3093
913.204	3173
913.318	3218
913.431	3382
913.545	3363
913.659	3428
913.772	3348
913.886	3272
914	3226
914.113	3363
914.226	3428
914.34	3428
914.453	3268
914.566	3454
914.68	3370
914.793	3329
914.906	3173
915.019	3119
915.132	3058
915.245	3199
915.358	3222
915.47	3272
915.583	3275
915.696	3306
915.809	3424
915.921	3492
916.034	3237
916.146	3294
916.259	3230
916.371	3409
916.483	3420
916.595	3272
916.708	3367
916.82	3321
916.932	3348
917.044	3370
917.156	3363
917.268	3272
917.38	3298
917.491	3317
917.603	3401
917.715	3469
917.826	3504
917.938	3409
918.049	3268
918.161	3435
918.272	3610
918.384	3603
918.495	3500
918.606	3386
918.717	3294
918.828	3386
918.939	3435
919.05	3332
919.161	3367
919.272	3180
919.383	3291
919.494	3496
919.604	3743
919.715	3515
919.826	3405
919.936	3462
920.047	3648
920.157	3584
920.267	3759
920.378	3682
920.488	3553
920.598	3812
920.708	3964
920.818	3857
920.928	3846
921.038	4044
921.148	3983
921.258	3747
921.368	3671
921.477	3591
921.587	3557
921.697	3515
921.806	3633
921.916	3507
922.025	3363
922.134	3359
922.244	3351
922.353	3431
922.462	3275
922.571	3237
922.68	3123
922.789	3089
922.898	3135
923.007	3142
923.116	3249
923.224	3211
923.333	3218
923.442	3116
923.55	3123
923.659	3138
923.767	3241
923.876	3123
923.984	3294
924.092	3150
924.201	3195
924.309	3233
924.417	3283
924.525	3237
924.633	3283
924.741	4204
924.849	3104
924.956	3275
925.064	3100
925.172	3051
925.279	3123
925.387	3222
925.494	3211
925.602	3348
925.709	3359
925.816	3222
925.924	3279
926.031	3416
926.138	3336
926.245	3370
926.352	3294
926.459	3420
926.566	3450
926.673	3340
926.779	3260
926.886	3268
926.993	3173
927.099	3127
927.206	3146
927.312	3116
927.419	3260
927.525	3188
927.631	3287
927.737	3173
927.843	3173
927.95	3066
928.056	3184
928.162	3192
928.267	3264
928.373	3876
928.479	3294
928.585	3077
928.69	3230
928.796	3298
928.901	3176
929.007	3028
929.112	3237
929.218	3195
929.323	3135
929.428	3165
929.533	3336
929.638	3138
929.743	3146
929.848	3253
929.953	3256
930.058	3161
930.163	3005
930.267	3077
930.372	3211
930.477	3085
930.581	3306
930.685	3199
930.79	3089
930.894	3127
930.998	3093
931.103	3275
931.207	2986
931.311	2979
931.415	2990
931.519	2819
931.623	2823
