Data from test_V78500241_1172.txt Node
Date: Fri Mar 25 16:23:19 CST 2022
User: usil
Spectrometer: V785-0024
Trigger mode: 0
Integration Time (sec): 4.000000E-1
Scans to average: 1
Nonlinearity correction enabled: false
Boxcar width: 0
Storing dark spectrum: false
XAxis mode: Wavelengths
Number of Pixels in Spectrum: 1024
>>>>>Begin Spectral Data<<<<<
801.071	2956
801.214	2975
801.356	2864
801.499	2914
801.641	2895
801.783	2956
801.926	3070
802.068	2982
802.211	3009
802.353	3058
802.496	2967
802.638	3009
802.78	3062
802.923	3089
803.065	3047
803.208	2906
803.35	2922
803.492	2956
803.635	2937
803.777	2792
803.919	2857
804.061	3184
804.204	2937
804.346	2902
804.488	2849
804.63	2963
804.773	2902
804.915	2944
805.057	3081
805.199	2952
805.341	2986
805.483	3043
805.626	3005
805.768	2975
805.91	3077
806.052	3127
806.194	3017
806.336	3253
806.478	3020
806.62	2952
806.762	2982
806.904	3074
807.046	3161
807.188	3001
807.33	2906
807.472	2975
807.614	2933
807.756	2967
807.898	2941
808.04	2906
808.182	2963
808.324	2956
808.465	2906
808.607	2883
808.749	2785
808.891	2834
809.033	2948
809.174	2952
809.316	2868
809.458	2902
809.6	2785
809.741	2792
809.883	2716
810.025	2838
810.166	2857
810.308	2823
810.45	2861
810.591	2781
810.733	2769
810.875	2826
811.016	2819
811.158	2758
811.299	2815
811.441	2941
811.582	2899
811.724	2826
811.865	2819
812.007	2918
812.148	2861
812.29	2838
812.431	2872
812.573	2933
812.714	2952
812.855	2990
812.997	3062
813.138	3116
813.279	2994
813.421	2982
813.562	2944
813.703	2868
813.845	2895
813.986	2788
814.127	2727
814.268	2807
814.41	2823
814.551	2830
814.692	2864
814.833	2796
814.974	2853
815.115	2960
815.256	2834
815.397	2807
815.539	2838
815.68	2773
815.821	2773
815.962	2929
816.103	2941
816.244	2864
816.385	2849
816.526	2948
816.666	2864
816.807	2762
816.948	2819
817.089	2891
817.23	2842
817.371	2769
817.512	2777
817.653	2826
817.793	2830
817.934	2853
818.075	2971
818.216	2967
818.356	3001
818.497	2861
818.638	2769
818.778	2781
818.919	2785
819.06	2807
819.2	2834
819.341	2819
819.481	2815
819.622	2906
819.762	3081
819.903	3070
820.043	2925
820.184	2914
820.324	2876
820.465	3017
820.605	3005
820.746	3036
820.886	2944
821.026	3123
821.167	3100
821.307	3272
821.447	3256
821.588	3230
821.728	3199
821.868	3161
822.008	3085
822.149	3195
822.289	3203
822.429	3089
822.569	3089
822.709	3180
822.849	3024
822.99	3077
823.13	3173
823.27	3195
823.41	3089
823.55	3169
823.69	3173
823.83	3192
823.97	3135
824.11	3032
824.25	2990
824.389	3100
824.529	3138
824.669	3119
824.809	3214
824.949	3287
825.089	3222
825.228	3135
825.368	3074
825.508	2971
825.648	3001
825.787	3047
825.927	3062
826.067	3032
826.206	3009
826.346	3074
826.485	3093
826.625	3127
826.765	3294
826.904	3264
827.044	3005
827.183	2975
827.323	2895
827.462	3036
827.601	2929
827.741	2963
827.88	2994
828.02	2883
828.159	3001
828.298	3074
828.437	3165
828.577	3097
828.716	3298
828.855	3123
828.994	2910
829.134	2906
829.273	2944
829.412	2868
829.551	2868
829.69	2975
829.829	3024
829.968	3176
830.107	3024
830.246	3104
830.385	2948
830.524	2902
830.663	2838
830.802	2766
830.941	2693
831.08	2705
831.219	2804
831.357	2804
831.496	3001
831.635	2754
831.774	2693
831.913	2739
832.051	2571
832.19	2594
832.329	2727
832.467	2564
832.606	2522
832.744	2648
832.883	2621
833.022	2625
833.16	2686
833.299	2693
833.437	2746
833.576	2746
833.714	2762
833.852	2781
833.991	2819
834.129	2864
834.267	2880
834.406	2857
834.544	2899
834.682	2902
834.821	2929
834.959	3127
835.097	2963
835.235	3074
835.373	3017
835.511	3032
835.65	2998
835.788	2975
835.926	2868
836.064	2857
836.202	2849
836.34	3112
836.478	3192
836.615	3058
836.753	3165
836.891	3214
837.029	3207
837.167	3146
837.305	3108
837.443	3093
837.58	2982
837.718	3138
837.856	3093
837.993	3055
838.131	3116
838.269	3150
838.406	3112
838.544	3142
838.681	2944
838.819	2975
838.956	2815
839.094	2868
839.231	2933
839.369	3024
839.506	3389
839.643	3249
839.781	3032
839.918	2975
840.055	3070
840.193	3097
840.33	3039
840.467	3142
840.604	3169
840.742	3416
840.879	3036
841.016	3093
841.153	3104
841.29	3367
841.427	3336
841.564	3313
841.701	3340
841.838	3279
841.975	3188
842.112	3226
842.249	3085
842.385	3058
842.522	3268
842.659	3142
842.796	3081
842.933	3119
843.069	3062
843.206	3085
843.343	3203
843.479	3173
843.616	3142
843.752	2887
843.889	2883
844.025	3112
844.162	2891
844.298	3077
844.435	3020
844.571	2925
844.708	3108
844.844	3230
844.98	3275
845.117	3241
845.253	3074
845.389	3028
845.525	3142
845.661	3131
845.798	3028
845.934	3184
846.07	3093
846.206	3268
846.342	3329
846.478	3222
846.614	3089
846.75	3074
846.886	3062
847.022	3245
847.158	3127
847.294	3218
847.429	3268
847.565	3226
847.701	3515
847.837	3077
847.972	3036
848.108	3218
848.244	3184
848.379	2971
848.515	2982
848.65	2918
848.786	3017
848.921	3013
849.057	3154
849.192	3161
849.328	3074
849.463	3108
849.598	3100
849.734	3062
849.869	3001
850.004	2941
850.14	2963
850.275	2899
850.41	2857
850.545	2891
850.68	2956
850.815	3005
850.95	2975
851.085	3230
851.22	3104
851.355	3051
851.49	2994
851.625	3017
851.76	3001
851.895	2975
852.03	2914
852.165	3051
852.299	3165
852.434	3192
852.569	3131
852.703	3180
852.838	3264
852.973	3351
853.107	3310
853.242	3188
853.376	3112
853.511	3032
853.645	3043
853.78	3245
853.914	3131
854.048	3112
854.183	3116
854.317	3142
854.451	3302
854.585	3146
854.72	3104
854.854	3253
854.988	3077
855.122	3112
855.256	2998
855.39	3138
855.524	3237
855.658	3207
855.792	3150
855.926	3218
856.06	3214
856.194	3256
856.327	3169
856.461	3081
856.595	3108
856.729	3077
856.862	3230
856.996	3176
857.13	3192
857.263	3253
857.397	3294
857.53	3150
857.664	3203
857.797	3241
857.931	3260
858.064	3173
858.197	3199
858.331	3154
858.464	3131
858.597	3051
858.731	3123
858.864	3142
858.997	3089
859.13	3207
859.263	3203
859.396	3199
859.529	3104
859.662	3112
859.795	3055
859.928	3135
860.061	3310
860.194	3325
860.327	3119
860.46	3104
860.592	3253
860.725	3256
860.858	3249
860.99	3146
861.123	3081
861.256	3077
861.388	3142
861.521	3701
861.653	3043
861.786	3028
861.918	3020
862.05	3062
862.183	3116
862.315	3195
862.447	3233
862.58	3074
862.712	2982
862.844	2906
862.976	3055
863.108	3043
863.24	3355
863.372	2929
863.504	2948
863.636	2982
863.768	3051
863.9	3009
864.032	2948
864.164	2971
864.296	3043
864.428	3116
864.559	3104
864.691	3074
864.823	3070
864.954	3055
865.086	3055
865.217	2998
865.349	2982
865.48	3013
865.612	3051
865.743	3150
865.875	2982
866.006	2975
866.137	2975
866.269	2929
866.4	2952
866.531	2918
866.662	2937
866.793	2952
866.924	2895
867.055	3028
867.186	2906
867.317	2929
867.448	2876
867.579	2864
867.71	2899
867.841	2838
867.972	2918
868.103	2918
868.233	2891
868.364	2891
868.495	2922
868.625	3097
868.756	3169
868.886	3001
869.017	3005
869.147	3154
869.278	3180
869.408	3066
869.539	3036
869.669	3093
869.799	3051
869.929	3176
870.06	3119
870.19	3351
870.32	3306
870.45	3344
870.58	3397
870.71	3447
870.84	3519
870.97	3298
871.1	3222
871.23	3477
871.36	3515
871.489	3389
871.619	3401
871.749	3431
871.879	3458
872.008	3488
872.138	3389
872.267	3283
872.397	3173
872.526	3135
872.656	3055
872.785	3097
872.915	3241
873.044	3325
873.173	3207
873.303	3275
873.432	3218
873.561	3268
873.69	3157
873.819	3146
873.948	3161
874.077	3116
874.206	3062
874.335	3108
874.464	3264
874.593	3359
874.722	3241
874.851	3386
874.979	3386
875.108	3332
875.237	3253
875.365	3142
875.494	3222
875.623	3302
875.751	3066
875.88	3123
876.008	3214
876.136	3222
876.265	3382
876.393	3553
876.521	3458
876.65	3424
876.778	3332
876.906	3287
877.034	3237
877.162	3222
877.29	3199
877.418	3298
877.546	3279
877.674	3264
877.802	3253
877.93	3230
878.058	3173
878.185	3131
878.313	3203
878.441	3245
878.568	3123
878.696	3214
878.824	3275
878.951	3302
879.079	3481
879.206	3652
879.333	3458
879.461	3355
879.588	3401
879.715	3481
879.842	3568
879.97	3382
880.097	3173
880.224	3146
880.351	3161
880.478	3211
880.605	3188
880.732	3180
880.859	3485
880.986	3306
881.112	3355
881.239	3226
881.366	3104
881.493	3055
881.619	3039
881.746	3093
881.872	3131
881.999	3116
882.125	3146
882.252	3313
882.378	3313
882.505	3450
882.631	3294
882.757	3154
882.883	3222
883.01	3226
883.136	3192
883.262	3131
883.388	3135
883.514	3367
883.64	3378
883.766	3344
883.892	3207
884.018	3245
884.143	3428
884.269	3538
884.395	3230
884.52	3180
884.646	3199
884.772	3146
884.897	3089
885.023	3214
885.148	3310
885.274	3382
885.399	3351
885.524	3287
885.65	3279
885.775	3359
885.9	3291
886.025	3435
886.15	3382
886.275	3310
886.4	3226
886.525	3306
886.65	3294
886.775	3287
886.9	3534
887.025	3652
887.149	3424
887.274	3287
887.399	3176
887.523	3192
887.648	3203
887.773	3188
887.897	3378
888.021	3389
888.146	3272
888.27	3469
888.395	3526
888.519	3443
888.643	3424
888.767	3466
888.891	3325
889.015	3230
889.139	3279
889.263	3283
889.387	3420
889.511	3519
889.635	3488
889.759	3313
889.883	3317
890.006	3374
890.13	3511
890.254	3291
890.377	3340
890.501	3245
890.624	3283
890.748	3287
890.871	3195
890.995	3097
891.118	3081
891.241	3192
891.364	3253
891.488	3332
891.611	3192
891.734	3233
891.857	3264
891.98	3264
892.103	3332
892.226	3298
892.349	3233
892.471	3146
892.594	3253
892.717	3298
892.839	3321
892.962	3329
893.085	3317
893.207	3351
893.33	3176
893.452	3237
893.575	3359
893.697	3249
893.819	3492
893.941	3504
894.064	3462
894.186	3283
894.308	3260
894.43	3458
894.552	3568
894.674	3526
894.796	3253
894.918	3317
895.04	3283
895.161	3416
895.283	3393
895.405	3325
895.526	3386
895.648	3401
895.769	3397
895.891	3488
896.012	3485
896.134	3469
896.255	3416
896.376	3351
896.498	3382
896.619	3397
896.74	3344
896.861	3397
896.982	3667
897.103	3835
897.224	3599
897.345	3545
897.466	3431
897.587	3511
897.708	3652
897.828	3549
897.949	3435
898.07	3313
898.19	3393
898.311	3572
898.431	3435
898.552	3557
898.672	3584
898.792	3580
898.913	3538
899.033	3428
899.153	3298
899.273	3192
899.393	3332
899.513	3355
899.633	3310
899.753	3351
899.873	3340
899.993	3374
900.113	3332
900.232	3382
900.352	3351
900.472	3294
900.591	3214
900.711	3317
900.83	3256
900.95	3401
901.069	3507
901.189	3382
901.308	3161
901.427	3112
901.546	3195
901.665	3260
901.784	3321
901.904	3237
902.023	3142
902.141	3009
902.26	3020
902.379	3146
902.498	3066
902.617	3043
902.735	3184
902.854	3268
902.973	3222
903.091	3043
903.21	3036
903.328	3161
903.446	3108
903.565	3077
903.683	3214
903.801	3157
903.919	3241
904.038	3275
904.156	3154
904.274	3298
904.392	3253
904.51	3310
904.627	3351
904.745	3428
904.863	3511
904.981	3245
905.098	3199
905.216	3237
905.334	3279
905.451	3332
905.569	3294
905.686	3412
905.803	3450
905.921	3268
906.038	3386
906.155	3355
906.272	3253
906.389	3355
906.506	3199
906.623	3237
906.74	3272
906.857	3214
906.974	3245
907.091	3454
907.208	3584
907.324	3485
907.441	3389
907.557	3237
907.674	3222
907.79	3245
907.907	3321
908.023	3393
908.139	3359
908.256	3287
908.372	3359
908.488	3359
908.604	3268
908.72	3230
908.836	3287
908.952	3283
909.068	3313
909.184	3477
909.3	3386
909.415	3504
909.531	3473
909.647	3260
909.762	3260
909.878	3230
909.993	3340
910.108	3332
910.224	3313
910.339	3401
910.454	3340
910.57	3272
910.685	3256
910.8	3599
910.915	3534
911.03	3401
911.145	3279
911.259	3245
911.374	3340
911.489	3268
911.604	3245
911.718	3100
911.833	3135
911.947	3066
912.062	2994
912.176	3154
912.291	3184
912.405	3260
912.519	3405
912.633	3500
912.748	3310
912.862	3283
912.976	3138
913.09	3055
913.204	3131
913.318	3222
913.431	3344
913.545	3317
913.659	3393
913.772	3382
913.886	3195
914	3226
914.113	3336
914.226	3378
914.34	3401
914.453	3195
914.566	3428
914.68	3332
914.793	3298
914.906	3131
915.019	3131
915.132	3077
915.245	3188
915.358	3146
915.47	3226
915.583	3275
915.696	3302
915.809	3359
915.921	3435
916.034	3230
916.146	3214
916.259	3211
916.371	3401
916.483	3397
916.595	3275
916.708	3317
916.82	3321
916.932	3351
917.044	3363
917.156	3325
917.268	3249
917.38	3275
917.491	3306
917.603	3363
917.715	3443
917.826	3488
917.938	3370
918.049	3256
918.161	3428
918.272	3538
918.384	3568
918.495	3485
918.606	3313
918.717	3294
918.828	3370
918.939	3386
919.05	3294
919.161	3355
919.272	3173
919.383	3253
919.494	3511
919.604	3675
919.715	3466
919.826	3412
919.936	3435
920.047	3557
920.157	3542
920.267	3747
920.378	3618
920.488	3584
920.598	3804
920.708	3960
920.818	3850
920.928	3778
921.038	4021
921.148	3979
921.258	3698
921.368	3625
921.477	3618
921.587	3553
921.697	3458
921.806	3633
921.916	3481
922.025	3351
922.134	3348
922.244	3332
922.353	3401
922.462	3256
922.571	3188
922.68	3127
922.789	3097
922.898	3157
923.007	3089
923.116	3207
923.224	3184
923.333	3192
923.442	3108
923.55	3085
923.659	3138
923.767	3173
923.876	3112
923.984	3230
924.092	3097
924.201	3173
924.309	3222
924.417	3233
924.525	3195
924.633	3245
924.741	4010
924.849	3036
924.956	3256
925.064	3089
925.172	3017
925.279	3062
925.387	3192
925.494	3214
925.602	3332
925.709	3336
925.816	3184
925.924	3264
926.031	3378
926.138	3344
926.245	3344
926.352	3245
926.459	3443
926.566	3477
926.673	3298
926.779	3245
926.886	3230
926.993	3180
927.099	3108
927.206	3108
927.312	3097
927.419	3199
927.525	3203
927.631	3249
927.737	3123
927.843	3112
927.95	3043
928.056	3146
928.162	3146
928.267	3249
928.373	3819
928.479	3332
928.585	3055
928.69	3180
928.796	3275
928.901	3154
929.007	3020
929.112	3195
929.218	3192
929.323	3154
929.428	3138
929.533	3306
929.638	3119
929.743	3165
929.848	3241
929.953	3199
930.058	3150
930.163	2982
930.267	3017
930.372	3173
930.477	2994
930.581	3283
930.685	3192
930.79	3039
930.894	3089
930.998	3100
931.103	3287
931.207	2937
931.311	2948
931.415	2914
931.519	2804
931.623	2792
