Data from test_V78500241_200.txt Node
Date: Fri Mar 25 16:16:35 CST 2022
User: usil
Spectrometer: V785-0024
Trigger mode: 0
Integration Time (sec): 4.000000E-1
Scans to average: 1
Nonlinearity correction enabled: false
Boxcar width: 0
Storing dark spectrum: false
XAxis mode: Wavelengths
Number of Pixels in Spectrum: 1024
>>>>>Begin Spectral Data<<<<<
801.071	2956
801.214	2956
801.356	2868
801.499	2902
801.641	2895
801.783	2914
801.926	3039
802.068	2975
802.211	3005
802.353	3024
802.496	2971
802.638	2967
802.78	3039
802.923	3062
803.065	3055
803.208	2880
803.35	2933
803.492	2948
803.635	2941
803.777	2746
803.919	2899
804.061	3218
804.204	2967
804.346	2929
804.488	2842
804.63	3001
804.773	2906
804.915	2918
805.057	3074
805.199	2922
805.341	2929
805.483	3051
805.626	2986
805.768	2975
805.91	3081
806.052	3135
806.194	3039
806.336	3264
806.478	3058
806.62	2982
806.762	2998
806.904	3089
807.046	3150
807.188	2975
807.33	2902
807.472	3043
807.614	2887
807.756	2998
807.898	2883
808.04	2868
808.182	2986
808.324	2979
808.465	2895
808.607	2887
808.749	2815
808.891	2845
809.033	3005
809.174	2994
809.316	2887
809.458	2933
809.6	2777
809.741	2800
809.883	2788
810.025	2868
810.166	2845
810.308	2861
810.45	2842
810.591	2800
810.733	2800
810.875	2842
811.016	2788
811.158	2766
811.299	2845
811.441	2929
811.582	2902
811.724	2857
811.865	2842
812.007	2880
812.148	2902
812.29	2857
812.431	2902
812.573	2952
812.714	2979
812.855	3028
812.997	3043
813.138	3138
813.279	3013
813.421	3074
813.562	2960
813.703	2876
813.845	2910
813.986	2823
814.127	2743
814.268	2872
814.41	2864
814.551	2796
814.692	2918
814.833	2830
814.974	2918
815.115	2963
815.256	2849
815.397	2819
815.539	2883
815.68	2785
815.821	2800
815.962	2914
816.103	2933
816.244	2876
816.385	2891
816.526	2963
816.666	2929
816.807	2743
816.948	2914
817.089	2906
817.23	2838
817.371	2785
817.512	2823
817.653	2826
817.793	2800
817.934	2887
818.075	2967
818.216	2971
818.356	3032
818.497	2899
818.638	2815
818.778	2819
818.919	2796
819.06	2815
819.2	2906
819.341	2861
819.481	2819
819.622	2937
819.762	3135
819.903	3051
820.043	2967
820.184	2918
820.324	2891
820.465	3039
820.605	3036
820.746	3009
820.886	2937
821.026	3127
821.167	3203
821.307	3283
821.447	3279
821.588	3264
821.728	3222
821.868	3218
822.008	3074
822.149	3176
822.289	3226
822.429	3119
822.569	3150
822.709	3203
822.849	3066
822.99	3051
823.13	3184
823.27	3211
823.41	3116
823.55	3176
823.69	3131
823.83	3211
823.97	3097
824.11	2971
824.25	3028
824.389	3051
824.529	3142
824.669	3066
824.809	3218
824.949	3302
825.089	3245
825.228	3173
825.368	3024
825.508	2986
825.648	2979
825.787	3017
825.927	3013
826.067	2963
826.206	2979
826.346	3032
826.485	3108
826.625	3116
826.765	3298
826.904	3237
827.044	2982
827.183	2956
827.323	2868
827.462	2979
827.601	2918
827.741	2929
827.88	2944
828.02	2876
828.159	2952
828.298	3066
828.437	3142
828.577	3039
828.716	3275
828.855	3112
828.994	2922
829.134	2899
829.273	2925
829.412	2880
829.551	2883
829.69	2895
829.829	3020
829.968	3146
830.107	3055
830.246	3032
830.385	2941
830.524	2906
830.663	2796
830.802	2739
830.941	2667
831.08	2636
831.219	2777
831.357	2796
831.496	2941
831.635	2735
831.774	2632
831.913	2667
832.051	2541
832.19	2587
832.329	2689
832.467	2564
832.606	2476
832.744	2564
832.883	2560
833.022	2613
833.16	2667
833.299	2697
833.437	2697
833.576	2720
833.714	2720
833.852	2762
833.991	2758
834.129	2853
834.267	2823
834.406	2807
834.544	2834
834.682	2891
834.821	2899
834.959	3081
835.097	2918
835.235	3024
835.373	2982
835.511	3009
835.65	2998
835.788	2979
835.926	2796
836.064	2872
836.202	2861
836.34	3131
836.478	3150
836.615	3058
836.753	3138
836.891	3211
837.029	3188
837.167	3062
837.305	3051
837.443	3051
837.58	2971
837.718	3157
837.856	3085
837.993	3066
838.131	3138
838.269	3138
838.406	3123
838.544	3089
838.681	2963
838.819	2906
838.956	2857
839.094	2849
839.231	2910
839.369	3077
839.506	3355
839.643	3226
839.781	3028
839.918	3001
840.055	3028
840.193	3039
840.33	3100
840.467	3112
840.604	3138
840.742	3386
840.879	3070
841.016	3081
841.153	3131
841.29	3351
841.427	3302
841.564	3253
841.701	3370
841.838	3233
841.975	3157
842.112	3207
842.249	3077
842.385	3085
842.522	3260
842.659	3100
842.796	3085
842.933	3116
843.069	3062
843.206	3024
843.343	3192
843.479	3127
843.616	3150
843.752	2883
843.889	2876
844.025	3089
844.162	2906
844.298	3070
844.435	2956
844.571	2941
844.708	3089
844.844	3192
844.98	3275
845.117	3173
845.253	3055
845.389	3047
845.525	3108
845.661	3093
845.798	2986
845.934	3119
846.07	3093
846.206	3253
846.342	3302
846.478	3222
846.614	3089
846.75	3093
846.886	3077
847.022	3237
847.158	3127
847.294	3207
847.429	3245
847.565	3199
847.701	3500
847.837	3047
847.972	3017
848.108	3169
848.244	3131
848.379	2990
848.515	2963
848.65	2906
848.786	3009
848.921	3020
849.057	3100
849.192	3176
849.328	3074
849.463	3097
849.598	3051
849.734	3017
849.869	2982
850.004	2948
850.14	2990
850.275	2952
850.41	2842
850.545	2883
850.68	2963
850.815	2948
850.95	2982
851.085	3222
851.22	3150
851.355	3039
851.49	2960
851.625	2990
851.76	3020
851.895	2937
852.03	2880
852.165	3058
852.299	3108
852.434	3184
852.569	3135
852.703	3211
852.838	3272
852.973	3374
853.107	3340
853.242	3173
853.376	3116
853.511	2998
853.645	3058
853.78	3253
853.914	3150
854.048	3135
854.183	3097
854.317	3150
854.451	3310
854.585	3161
854.72	3119
854.854	3226
854.988	3070
855.122	3146
855.256	2990
855.39	3116
855.524	3291
855.658	3226
855.792	3176
855.926	3222
856.06	3230
856.194	3294
856.327	3207
856.461	3097
856.595	3104
856.729	3108
856.862	3233
856.996	3161
857.13	3211
857.263	3218
857.397	3272
857.53	3100
857.664	3192
857.797	3260
857.931	3211
858.064	3192
858.197	3226
858.331	3150
858.464	3108
858.597	3047
858.731	3127
858.864	3131
858.997	3085
859.13	3161
859.263	3192
859.396	3195
859.529	3081
859.662	3062
859.795	3066
859.928	3142
860.061	3260
860.194	3291
860.327	3138
860.46	3116
860.592	3264
860.725	3268
860.858	3203
860.99	3093
861.123	3062
861.256	3032
861.388	3138
861.521	3896
861.653	3005
861.786	3017
861.918	2990
862.05	3104
862.183	3142
862.315	3176
862.447	3169
862.58	3112
862.712	2952
862.844	2914
862.976	3085
863.108	3009
863.24	3272
863.372	2864
863.504	2990
863.636	2948
863.768	3047
863.9	2963
864.032	2883
864.164	2960
864.296	3039
864.428	3074
864.559	3123
864.691	3074
864.823	3055
864.954	3032
865.086	3066
865.217	3036
865.349	2960
865.48	3005
865.612	3020
865.743	3169
865.875	3009
866.006	2929
866.137	2986
866.269	2937
866.4	2948
866.531	2956
866.662	2902
866.793	2876
866.924	2933
867.055	2967
867.186	2944
867.317	2887
867.448	2849
867.579	2823
867.71	2838
867.841	2826
867.972	2910
868.103	2910
868.233	2880
868.364	2910
868.495	2899
868.625	3093
868.756	3165
868.886	2994
869.017	3036
869.147	3150
869.278	3138
869.408	3070
869.539	3058
869.669	3066
869.799	3047
869.929	3142
870.06	3135
870.19	3336
870.32	3291
870.45	3275
870.58	3439
870.71	3462
870.84	3469
870.97	3294
871.1	3275
871.23	3526
871.36	3447
871.489	3363
871.619	3443
871.749	3397
871.879	3431
872.008	3454
872.138	3378
872.267	3294
872.397	3161
872.526	3108
872.656	2986
872.785	3127
872.915	3268
873.044	3340
873.173	3230
873.303	3287
873.432	3283
873.561	3249
873.69	3138
873.819	3180
873.948	3241
874.077	3123
874.206	3062
874.335	3100
874.464	3207
874.593	3317
874.722	3279
874.851	3401
874.979	3340
875.108	3325
875.237	3211
875.365	3176
875.494	3157
875.623	3268
875.751	3089
875.88	3100
876.008	3165
876.136	3249
876.265	3370
876.393	3530
876.521	3447
876.65	3428
876.778	3359
876.906	3253
877.034	3226
877.162	3230
877.29	3214
877.418	3264
877.546	3283
877.674	3272
877.802	3279
877.93	3249
878.058	3146
878.185	3131
878.313	3207
878.441	3195
878.568	3085
878.696	3161
878.824	3237
878.951	3325
879.079	3454
879.206	3610
879.333	3469
879.461	3359
879.588	3344
879.715	3485
879.842	3610
879.97	3370
880.097	3169
880.224	3119
880.351	3173
880.478	3230
880.605	3192
880.732	3157
880.859	3469
880.986	3340
881.112	3351
881.239	3207
881.366	3123
881.493	3036
881.619	3047
881.746	3058
881.872	3119
881.999	3108
882.125	3146
882.252	3241
882.378	3283
882.505	3447
882.631	3317
882.757	3169
882.883	3214
883.01	3241
883.136	3180
883.262	3135
883.388	3108
883.514	3306
883.64	3405
883.766	3317
883.892	3169
884.018	3226
884.143	3431
884.269	3564
884.395	3214
884.52	3142
884.646	3184
884.772	3188
884.897	3146
885.023	3192
885.148	3310
885.274	3462
885.399	3355
885.524	3279
885.65	3317
885.775	3344
885.9	3260
886.025	3450
886.15	3378
886.275	3348
886.4	3260
886.525	3321
886.65	3283
886.775	3275
886.9	3485
887.025	3663
887.149	3431
887.274	3287
887.399	3207
887.523	3207
887.648	3230
887.773	3184
887.897	3374
888.021	3382
888.146	3302
888.27	3454
888.395	3542
888.519	3431
888.643	3447
888.767	3481
888.891	3317
889.015	3272
889.139	3291
889.263	3230
889.387	3416
889.511	3504
889.635	3473
889.759	3340
889.883	3313
890.006	3416
890.13	3515
890.254	3298
890.377	3382
890.501	3211
890.624	3176
890.748	3298
890.871	3195
890.995	3108
891.118	3112
891.241	3199
891.364	3241
891.488	3325
891.611	3188
891.734	3218
891.857	3306
891.98	3233
892.103	3348
892.226	3253
892.349	3256
892.471	3131
892.594	3222
892.717	3253
892.839	3272
892.962	3291
893.085	3344
893.207	3321
893.33	3157
893.452	3218
893.575	3374
893.697	3313
893.819	3473
893.941	3504
894.064	3488
894.186	3298
894.308	3287
894.43	3447
894.552	3507
894.674	3447
894.796	3275
894.918	3351
895.04	3279
895.161	3447
895.283	3401
895.405	3310
895.526	3393
895.648	3466
895.769	3439
895.891	3458
896.012	3519
896.134	3469
896.255	3443
896.376	3405
896.498	3378
896.619	3420
896.74	3370
896.861	3401
896.982	3694
897.103	3873
897.224	3614
897.345	3534
897.466	3409
897.587	3500
897.708	3587
897.828	3587
897.949	3420
898.07	3336
898.19	3401
898.311	3595
898.431	3492
898.552	3542
898.672	3633
898.792	3587
898.913	3564
899.033	3431
899.153	3317
899.273	3199
899.393	3294
899.513	3313
899.633	3317
899.753	3351
899.873	3336
899.993	3386
900.113	3363
900.232	3401
900.352	3359
900.472	3302
900.591	3233
900.711	3367
900.83	3241
900.95	3420
901.069	3526
901.189	3363
901.308	3173
901.427	3165
901.546	3188
901.665	3329
901.784	3329
901.904	3203
902.023	3180
902.141	3055
902.26	2998
902.379	3150
902.498	3066
902.617	3051
902.735	3249
902.854	3237
902.973	3176
903.091	3081
903.21	3074
903.328	3169
903.446	3104
903.565	3116
903.683	3226
903.801	3127
903.919	3283
904.038	3329
904.156	3188
904.274	3321
904.392	3264
904.51	3321
904.627	3348
904.745	3435
904.863	3507
904.981	3272
905.098	3180
905.216	3256
905.334	3291
905.451	3310
905.569	3298
905.686	3450
905.803	3488
905.921	3268
906.038	3428
906.155	3359
906.272	3283
906.389	3340
906.506	3222
906.623	3256
906.74	3287
906.857	3203
906.974	3268
907.091	3462
907.208	3572
907.324	3439
907.441	3386
907.557	3272
907.674	3268
907.79	3230
907.907	3275
908.023	3409
908.139	3393
908.256	3340
908.372	3359
908.488	3374
908.604	3294
908.72	3260
908.836	3325
908.952	3291
909.068	3351
909.184	3519
909.3	3420
909.415	3538
909.531	3450
909.647	3310
909.762	3287
909.878	3275
909.993	3405
910.108	3367
910.224	3355
910.339	3439
910.454	3363
910.57	3298
910.685	3237
910.8	3641
910.915	3519
911.03	3477
911.145	3226
911.259	3291
911.374	3363
911.489	3287
911.604	3264
911.718	3154
911.833	3142
911.947	3058
912.062	2994
912.176	3176
912.291	3211
912.405	3169
912.519	3477
912.633	3462
912.748	3332
912.862	3313
912.976	3180
913.09	3081
913.204	3131
913.318	3230
913.431	3363
913.545	3329
913.659	3450
913.772	3348
913.886	3218
914	3211
914.113	3340
914.226	3401
914.34	3393
914.453	3222
914.566	3405
914.68	3310
914.793	3310
914.906	3161
915.019	3146
915.132	3097
915.245	3226
915.358	3230
915.47	3256
915.583	3279
915.696	3329
915.809	3447
915.921	3435
916.034	3298
916.146	3272
916.259	3241
916.371	3454
916.483	3409
916.595	3264
916.708	3283
916.82	3370
916.932	3374
917.044	3363
917.156	3367
917.268	3279
917.38	3332
917.491	3325
917.603	3397
917.715	3462
917.826	3454
917.938	3389
918.049	3325
918.161	3450
918.272	3614
918.384	3580
918.495	3511
918.606	3325
918.717	3321
918.828	3443
918.939	3454
919.05	3321
919.161	3340
919.272	3214
919.383	3279
919.494	3504
919.604	3690
919.715	3530
919.826	3420
919.936	3496
920.047	3549
920.157	3549
920.267	3812
920.378	3648
920.488	3606
920.598	3785
920.708	4002
920.818	3800
920.928	3842
921.038	4036
921.148	3987
921.258	3694
921.368	3679
921.477	3584
921.587	3568
921.697	3507
921.806	3641
921.916	3507
922.025	3374
922.134	3401
922.244	3302
922.353	3424
922.462	3291
922.571	3233
922.68	3089
922.789	3123
922.898	3142
923.007	3138
923.116	3199
923.224	3180
923.333	3214
923.442	3089
923.55	3066
923.659	3157
923.767	3287
923.876	3195
923.984	3249
924.092	3112
924.201	3241
924.309	3226
924.417	3279
924.525	3230
924.633	3222
924.741	4150
924.849	3062
924.956	3298
925.064	3112
925.172	3039
925.279	3127
925.387	3237
925.494	3226
925.602	3401
925.709	3351
925.816	3195
925.924	3256
926.031	3401
926.138	3359
926.245	3348
926.352	3233
926.459	3389
926.566	3435
926.673	3344
926.779	3302
926.886	3268
926.993	3135
927.099	3138
927.206	3150
927.312	3135
927.419	3222
927.525	3195
927.631	3291
927.737	3127
927.843	3146
927.95	3036
928.056	3154
928.162	3184
928.267	3272
928.373	3869
928.479	3294
928.585	3085
928.69	3233
928.796	3306
928.901	3199
929.007	3077
929.112	3233
929.218	3207
929.323	3135
929.428	3184
929.533	3306
929.638	3161
929.743	3195
929.848	3264
929.953	3199
930.058	3154
930.163	2960
930.267	3070
930.372	3222
930.477	3024
930.581	3321
930.685	3165
930.79	3058
930.894	3108
930.998	3112
931.103	3294
931.207	2979
931.311	2948
931.415	2902
931.519	2796
931.623	2815
