Data from test_V78500241_2035.txt Node
Date: Fri Mar 25 16:29:18 CST 2022
User: usil
Spectrometer: V785-0024
Trigger mode: 0
Integration Time (sec): 4.000000E-1
Scans to average: 1
Nonlinearity correction enabled: false
Boxcar width: 0
Storing dark spectrum: false
XAxis mode: Wavelengths
Number of Pixels in Spectrum: 1024
>>>>>Begin Spectral Data<<<<<
801.071	2891
801.214	2952
801.356	2849
801.499	2914
801.641	2891
801.783	2910
801.926	3066
802.068	2994
802.211	3005
802.353	3032
802.496	2952
802.638	3036
802.78	3043
802.923	3070
803.065	2982
803.208	2933
803.35	2937
803.492	2876
803.635	2899
803.777	2739
803.919	2842
804.061	3176
804.204	2952
804.346	2880
804.488	2880
804.63	2963
804.773	2864
804.915	2902
805.057	3055
805.199	2918
805.341	2948
805.483	3036
805.626	3047
805.768	2952
805.91	3051
806.052	3093
806.194	2994
806.336	3233
806.478	3005
806.62	2929
806.762	2944
806.904	3024
807.046	3127
807.188	2975
807.33	2906
807.472	2982
807.614	2891
807.756	2982
807.898	2891
808.04	2872
808.182	2975
808.324	2960
808.465	2891
808.607	2842
808.749	2800
808.891	2823
809.033	2963
809.174	2967
809.316	2895
809.458	2872
809.6	2758
809.741	2781
809.883	2773
810.025	2887
810.166	2838
810.308	2815
810.45	2876
810.591	2785
810.733	2777
810.875	2823
811.016	2800
811.158	2766
811.299	2777
811.441	2948
811.582	2910
811.724	2811
811.865	2849
812.007	2922
812.148	2880
812.29	2857
812.431	2891
812.573	2941
812.714	2941
812.855	3081
812.997	3055
813.138	3138
813.279	2994
813.421	2956
813.562	2929
813.703	2883
813.845	2842
813.986	2777
814.127	2720
814.268	2838
814.41	2834
814.551	2785
814.692	2876
814.833	2823
814.974	2880
815.115	2948
815.256	2861
815.397	2819
815.539	2849
815.68	2800
815.821	2792
815.962	2891
816.103	2960
816.244	2864
816.385	2864
816.526	2960
816.666	2906
816.807	2758
816.948	2891
817.089	2929
817.23	2842
817.371	2777
817.512	2777
817.653	2834
817.793	2830
817.934	2899
818.075	2941
818.216	2979
818.356	3024
818.497	2876
818.638	2785
818.778	2785
818.919	2819
819.06	2750
819.2	2887
819.341	2800
819.481	2788
819.622	2891
819.762	3104
819.903	3024
820.043	2937
820.184	2880
820.324	2868
820.465	3005
820.605	3005
820.746	3051
820.886	2914
821.026	3077
821.167	3146
821.307	3249
821.447	3306
821.588	3218
821.728	3195
821.868	3184
822.008	3085
822.149	3146
822.289	3222
822.429	3093
822.569	3104
822.709	3154
822.849	3032
822.99	3066
823.13	3104
823.27	3218
823.41	3100
823.55	3131
823.69	3146
823.83	3218
823.97	3070
824.11	3032
824.25	3001
824.389	3055
824.529	3108
824.669	3097
824.809	3176
824.949	3249
825.089	3176
825.228	3157
825.368	2979
825.508	2979
825.648	2956
825.787	3039
825.927	2982
826.067	2998
826.206	2948
826.346	3058
826.485	3062
826.625	3123
826.765	3230
826.904	3192
827.044	3009
827.183	2910
827.323	2845
827.462	2994
827.601	2922
827.741	2883
827.88	2933
828.02	2861
828.159	2986
828.298	3039
828.437	3112
828.577	3062
828.716	3272
828.855	3089
828.994	2899
829.134	2876
829.273	2941
829.412	2834
829.551	2842
829.69	2857
829.829	2960
829.968	3116
830.107	2998
830.246	3024
830.385	2948
830.524	2868
830.663	2804
830.802	2712
830.941	2648
831.08	2621
831.219	2758
831.357	2731
831.496	2918
831.635	2701
831.774	2629
831.913	2610
832.051	2526
832.19	2552
832.329	2659
832.467	2537
832.606	2480
832.744	2575
832.883	2556
833.022	2571
833.16	2648
833.299	2674
833.437	2651
833.576	2724
833.714	2697
833.852	2689
833.991	2750
834.129	2830
834.267	2800
834.406	2781
834.544	2857
834.682	2849
834.821	2868
834.959	3066
835.097	2906
835.235	3081
835.373	2982
835.511	3013
835.65	2960
835.788	2975
835.926	2819
836.064	2804
836.202	2830
836.34	3100
836.478	3146
836.615	3074
836.753	3150
836.891	3222
837.029	3161
837.167	3112
837.305	3089
837.443	3039
837.58	2922
837.718	3093
837.856	3036
837.993	3024
838.131	3116
838.269	3055
838.406	3112
838.544	3062
838.681	2925
838.819	2933
838.956	2823
839.094	2868
839.231	2906
839.369	3051
839.506	3401
839.643	3176
839.781	3024
839.918	2963
840.055	3039
840.193	3047
840.33	3028
840.467	3077
840.604	3146
840.742	3397
840.879	3051
841.016	3036
841.153	3077
841.29	3294
841.427	3279
841.564	3260
841.701	3268
841.838	3256
841.975	3188
842.112	3173
842.249	3066
842.385	2990
842.522	3233
842.659	3036
842.796	3036
842.933	3108
843.069	3024
843.206	2990
843.343	3150
843.479	3089
843.616	3135
843.752	2902
843.889	2853
844.025	3089
844.162	2872
844.298	3024
844.435	2910
844.571	2918
844.708	3066
844.844	3173
844.98	3214
845.117	3195
845.253	3055
845.389	2956
845.525	3093
845.661	3070
845.798	2998
845.934	3119
846.07	3058
846.206	3199
846.342	3310
846.478	3226
846.614	3116
846.75	3051
846.886	3039
847.022	3230
847.158	3131
847.294	3199
847.429	3241
847.565	3207
847.701	3488
847.837	3036
847.972	3028
848.108	3154
848.244	3157
848.379	2998
848.515	2960
848.65	2952
848.786	2971
848.921	2986
849.057	3097
849.192	3131
849.328	3100
849.463	3077
849.598	3051
849.734	2990
849.869	2998
850.004	2902
850.14	2925
850.275	2872
850.41	2845
850.545	2929
850.68	2925
850.815	2941
850.95	2941
851.085	3157
851.22	3097
851.355	3047
851.49	2994
851.625	3013
851.76	2982
851.895	2937
852.03	2883
852.165	3043
852.299	3077
852.434	3150
852.569	3154
852.703	3214
852.838	3207
852.973	3321
853.107	3313
853.242	3146
853.376	3081
853.511	2960
853.645	3009
853.78	3226
853.914	3089
854.048	3077
854.183	3093
854.317	3142
854.451	3313
854.585	3097
854.72	3123
854.854	3180
854.988	3039
855.122	3093
855.256	2975
855.39	3112
855.524	3230
855.658	3138
855.792	3142
855.926	3184
856.06	3214
856.194	3256
856.327	3157
856.461	3066
856.595	3093
856.729	3081
856.862	3211
856.996	3112
857.13	3192
857.263	3233
857.397	3249
857.53	3123
857.664	3230
857.797	3226
857.931	3207
858.064	3150
858.197	3192
858.331	3127
858.464	3077
858.597	3020
858.731	3112
858.864	3142
858.997	3081
859.13	3173
859.263	3161
859.396	3188
859.529	3119
859.662	3047
859.795	3036
859.928	3138
860.061	3275
860.194	3264
860.327	3161
860.46	3058
860.592	3207
860.725	3260
860.858	3249
860.99	3077
861.123	3058
861.256	3017
861.388	3127
861.521	3854
861.653	2998
861.786	3020
861.918	2998
862.05	3036
862.183	3100
862.315	3127
862.447	3184
862.58	3100
862.712	2963
862.844	2842
862.976	3005
863.108	2986
863.24	3306
863.372	2864
863.504	2929
863.636	2971
863.768	3005
863.9	2979
864.032	2910
864.164	2971
864.296	2967
864.428	3066
864.559	3081
864.691	3097
864.823	3104
864.954	3051
865.086	3028
865.217	3001
865.349	2956
865.48	2994
865.612	3032
865.743	3131
865.875	2971
866.006	2891
866.137	2975
866.269	2929
866.4	2929
866.531	2933
866.662	2899
866.793	2906
866.924	2872
867.055	2914
867.186	2914
867.317	2872
867.448	2826
867.579	2826
867.71	2838
867.841	2788
867.972	2891
868.103	2876
868.233	2845
868.364	2864
868.495	2887
868.625	3108
868.756	3142
868.886	2960
869.017	3009
869.147	3176
869.278	3142
869.408	3017
869.539	3032
869.669	3085
869.799	3032
869.929	3100
870.06	3097
870.19	3321
870.32	3256
870.45	3275
870.58	3367
870.71	3443
870.84	3443
870.97	3279
871.1	3241
871.23	3496
871.36	3454
871.489	3374
871.619	3424
871.749	3393
871.879	3412
872.008	3488
872.138	3374
872.267	3253
872.397	3150
872.526	3089
872.656	3024
872.785	3097
872.915	3237
873.044	3336
873.173	3214
873.303	3249
873.432	3233
873.561	3218
873.69	3119
873.819	3165
873.948	3188
874.077	3116
874.206	3036
874.335	3108
874.464	3211
874.593	3344
874.722	3222
874.851	3374
874.979	3329
875.108	3294
875.237	3176
875.365	3119
875.494	3157
875.623	3203
875.751	3112
875.88	3089
876.008	3184
876.136	3256
876.265	3340
876.393	3485
876.521	3393
876.65	3424
876.778	3306
876.906	3264
877.034	3211
877.162	3260
877.29	3161
877.418	3230
877.546	3233
877.674	3249
877.802	3222
877.93	3176
878.058	3165
878.185	3081
878.313	3195
878.441	3207
878.568	3077
878.696	3135
878.824	3230
878.951	3283
879.079	3458
879.206	3614
879.333	3420
879.461	3348
879.588	3313
879.715	3507
879.842	3618
879.97	3397
880.097	3169
880.224	3104
880.351	3195
880.478	3233
880.605	3184
880.732	3169
880.859	3485
880.986	3306
881.112	3370
881.239	3176
881.366	3077
881.493	3013
881.619	2986
881.746	3058
881.872	3077
881.999	3100
882.125	3157
882.252	3260
882.378	3294
882.505	3424
882.631	3325
882.757	3169
882.883	3233
883.01	3214
883.136	3161
883.262	3123
883.388	3097
883.514	3264
883.64	3336
883.766	3294
883.892	3146
884.018	3253
884.143	3412
884.269	3530
884.395	3207
884.52	3146
884.646	3154
884.772	3089
884.897	3097
885.023	3211
885.148	3340
885.274	3374
885.399	3351
885.524	3294
885.65	3279
885.775	3317
885.9	3249
886.025	3412
886.15	3332
886.275	3283
886.4	3222
886.525	3287
886.65	3272
886.775	3264
886.9	3488
887.025	3637
887.149	3374
887.274	3245
887.399	3131
887.523	3222
887.648	3188
887.773	3150
887.897	3389
888.021	3393
888.146	3275
888.27	3428
888.395	3538
888.519	3443
888.643	3443
888.767	3485
888.891	3325
889.015	3214
889.139	3268
889.263	3241
889.387	3409
889.511	3488
889.635	3450
889.759	3302
889.883	3302
890.006	3348
890.13	3473
890.254	3256
890.377	3344
890.501	3211
890.624	3188
890.748	3275
890.871	3161
890.995	3146
891.118	3047
891.241	3218
891.364	3199
891.488	3310
891.611	3157
891.734	3222
891.857	3264
891.98	3241
892.103	3344
892.226	3275
892.349	3237
892.471	3108
892.594	3207
892.717	3302
892.839	3302
892.962	3310
893.085	3351
893.207	3294
893.33	3165
893.452	3214
893.575	3321
893.697	3264
893.819	3466
893.941	3504
894.064	3439
894.186	3241
894.308	3294
894.43	3454
894.552	3526
894.674	3443
894.796	3268
894.918	3291
895.04	3302
895.161	3424
895.283	3378
895.405	3298
895.526	3325
895.648	3439
895.769	3420
895.891	3458
896.012	3439
896.134	3469
896.255	3393
896.376	3363
896.498	3355
896.619	3435
896.74	3340
896.861	3412
896.982	3656
897.103	3816
897.224	3614
897.345	3526
897.466	3428
897.587	3519
897.708	3610
897.828	3557
897.949	3401
898.07	3310
898.19	3344
898.311	3618
898.431	3431
898.552	3488
898.672	3568
898.792	3561
898.913	3504
899.033	3412
899.153	3310
899.273	3233
899.393	3256
899.513	3291
899.633	3302
899.753	3351
899.873	3291
899.993	3363
900.113	3374
900.232	3389
900.352	3310
900.472	3287
900.591	3195
900.711	3268
900.83	3241
900.95	3393
901.069	3507
901.189	3321
901.308	3199
901.427	3150
901.546	3173
901.665	3294
901.784	3340
901.904	3211
902.023	3165
902.141	2990
902.26	2986
902.379	3127
902.498	3062
902.617	3066
902.735	3226
902.854	3249
902.973	3165
903.091	3013
903.21	3066
903.328	3138
903.446	3116
903.565	3097
903.683	3157
903.801	3112
903.919	3218
904.038	3294
904.156	3180
904.274	3275
904.392	3207
904.51	3264
904.627	3359
904.745	3454
904.863	3523
904.981	3264
905.098	3173
905.216	3226
905.334	3321
905.451	3283
905.569	3275
905.686	3447
905.803	3454
905.921	3279
906.038	3424
906.155	3321
906.272	3298
906.389	3302
906.506	3226
906.623	3268
906.74	3256
906.857	3165
906.974	3207
907.091	3447
907.208	3599
907.324	3458
907.441	3435
907.557	3253
907.674	3230
907.79	3180
907.907	3279
908.023	3359
908.139	3378
908.256	3344
908.372	3344
908.488	3348
908.604	3241
908.72	3218
908.836	3279
908.952	3245
909.068	3348
909.184	3477
909.3	3412
909.415	3511
909.531	3492
909.647	3279
909.762	3264
909.878	3283
909.993	3336
910.108	3340
910.224	3363
910.339	3412
910.454	3378
910.57	3317
910.685	3218
910.8	3603
910.915	3557
911.03	3450
911.145	3264
911.259	3256
911.374	3306
911.489	3260
911.604	3253
911.718	3116
911.833	3169
911.947	3028
912.062	3009
912.176	3165
912.291	3218
912.405	3199
912.519	3477
912.633	3454
912.748	3340
912.862	3275
912.976	3146
913.09	3062
913.204	3135
913.318	3245
913.431	3325
913.545	3321
913.659	3386
913.772	3386
913.886	3211
914	3222
914.113	3344
914.226	3389
914.34	3348
914.453	3207
914.566	3416
914.68	3245
914.793	3283
914.906	3165
915.019	3085
915.132	3051
915.245	3161
915.358	3237
915.47	3249
915.583	3283
915.696	3287
915.809	3386
915.921	3450
916.034	3249
916.146	3279
916.259	3245
916.371	3393
916.483	3355
916.595	3275
916.708	3367
916.82	3313
916.932	3367
917.044	3329
917.156	3378
917.268	3241
917.38	3287
917.491	3294
917.603	3367
917.715	3439
917.826	3431
917.938	3409
918.049	3268
918.161	3397
918.272	3576
918.384	3553
918.495	3450
918.606	3329
918.717	3317
918.828	3386
918.939	3393
919.05	3302
919.161	3348
919.272	3154
919.383	3279
919.494	3466
919.604	3663
919.715	3469
919.826	3416
919.936	3439
920.047	3572
920.157	3561
920.267	3770
920.378	3610
920.488	3568
920.598	3759
920.708	3991
920.818	3857
920.928	3850
921.038	3987
921.148	3994
921.258	3713
921.368	3633
921.477	3625
921.587	3507
921.697	3428
921.806	3591
921.916	3481
922.025	3370
922.134	3355
922.244	3310
922.353	3450
922.462	3256
922.571	3195
922.68	3089
922.789	3108
922.898	3135
923.007	3093
923.116	3180
923.224	3188
923.333	3199
923.442	3097
923.55	3097
923.659	3108
923.767	3188
923.876	3127
923.984	3230
924.092	3104
924.201	3157
924.309	3192
924.417	3211
924.525	3195
924.633	3237
924.741	4109
924.849	3032
924.956	3233
925.064	3108
925.172	3009
925.279	3089
925.387	3188
925.494	3176
925.602	3329
925.709	3302
925.816	3173
925.924	3249
926.031	3363
926.138	3291
926.245	3370
926.352	3256
926.459	3409
926.566	3458
926.673	3302
926.779	3268
926.886	3218
926.993	3157
927.099	3123
927.206	3108
927.312	3123
927.419	3230
927.525	3214
927.631	3298
927.737	3108
927.843	3104
927.95	3028
928.056	3157
928.162	3226
928.267	3233
928.373	3899
928.479	3302
928.585	3089
928.69	3203
928.796	3268
928.901	3138
929.007	3093
929.112	3207
929.218	3237
929.323	3100
929.428	3077
929.533	3310
929.638	3097
929.743	3123
929.848	3249
929.953	3203
930.058	3146
930.163	3055
930.267	3036
930.372	3184
930.477	3020
930.581	3302
930.685	3176
930.79	3062
930.894	3142
930.998	3116
931.103	3260
931.207	2963
931.311	2933
931.415	2902
931.519	2762
931.623	2807
