Data from test_V78500241_191.txt Node
Date: Fri Mar 25 16:16:31 CST 2022
User: usil
Spectrometer: V785-0024
Trigger mode: 0
Integration Time (sec): 4.000000E-1
Scans to average: 1
Nonlinearity correction enabled: false
Boxcar width: 0
Storing dark spectrum: false
XAxis mode: Wavelengths
Number of Pixels in Spectrum: 1024
>>>>>Begin Spectral Data<<<<<
801.071	2925
801.214	2952
801.356	2864
801.499	2933
801.641	2895
801.783	2952
801.926	3062
802.068	2971
802.211	3017
802.353	3017
802.496	2963
802.638	3028
802.78	3058
802.923	3085
803.065	3032
803.208	2933
803.35	2948
803.492	2971
803.635	2937
803.777	2804
803.919	2902
804.061	3226
804.204	2941
804.346	2948
804.488	2823
804.63	2990
804.773	2899
804.915	2944
805.057	3119
805.199	2941
805.341	3005
805.483	3066
805.626	3032
805.768	3001
805.91	3112
806.052	3123
806.194	3070
806.336	3233
806.478	3066
806.62	2979
806.762	2990
806.904	3116
807.046	3192
807.188	3039
807.33	2975
807.472	3001
807.614	2922
807.756	3036
807.898	2922
808.04	2899
808.182	3017
808.324	2956
808.465	2929
808.607	2857
808.749	2830
808.891	2933
809.033	2994
809.174	2998
809.316	2906
809.458	2952
809.6	2769
809.741	2826
809.883	2807
810.025	2861
810.166	2891
810.308	2887
810.45	2883
810.591	2785
810.733	2769
810.875	2849
811.016	2807
811.158	2804
811.299	2849
811.441	2975
811.582	2914
811.724	2845
811.865	2842
812.007	2948
812.148	2910
812.29	2899
812.431	2914
812.573	2944
812.714	2986
812.855	3058
812.997	3085
813.138	3146
813.279	3043
813.421	2979
813.562	2960
813.703	2895
813.845	2906
813.986	2807
814.127	2701
814.268	2845
814.41	2845
814.551	2823
814.692	2880
814.833	2834
814.974	2944
815.115	2998
815.256	2872
815.397	2849
815.539	2861
815.68	2823
815.821	2823
815.962	2994
816.103	2971
816.244	2861
816.385	2918
816.526	2986
816.666	2929
816.807	2792
816.948	2876
817.089	2899
817.23	2891
817.371	2819
817.512	2807
817.653	2876
817.793	2845
817.934	2906
818.075	3005
818.216	3043
818.356	3024
818.497	2918
818.638	2823
818.778	2830
818.919	2819
819.06	2804
819.2	2902
819.341	2861
819.481	2834
819.622	2982
819.762	3135
819.903	3062
820.043	2914
820.184	2941
820.324	2922
820.465	3051
820.605	3017
820.746	3039
820.886	2952
821.026	3135
821.167	3169
821.307	3279
821.447	3302
821.588	3283
821.728	3256
821.868	3226
822.008	3112
822.149	3222
822.289	3253
822.429	3142
822.569	3097
822.709	3192
822.849	3077
822.99	3116
823.13	3199
823.27	3195
823.41	3100
823.55	3146
823.69	3146
823.83	3237
823.97	3116
824.11	3051
824.25	3047
824.389	3108
824.529	3127
824.669	3104
824.809	3253
824.949	3302
825.089	3253
825.228	3192
825.368	3032
825.508	2990
825.648	2944
825.787	3036
825.927	3047
826.067	2982
826.206	2979
826.346	3085
826.485	3104
826.625	3104
826.765	3264
826.904	3233
827.044	2998
827.183	2929
827.323	2902
827.462	2986
827.601	2918
827.741	2960
827.88	2986
828.02	2868
828.159	2975
828.298	3070
828.437	3169
828.577	3039
828.716	3237
828.855	3093
828.994	2937
829.134	2872
829.273	2986
829.412	2868
829.551	2876
829.69	2914
829.829	2979
829.968	3146
830.107	3013
830.246	3062
830.385	2963
830.524	2842
830.663	2830
830.802	2792
830.941	2693
831.08	2663
831.219	2766
831.357	2773
831.496	3013
831.635	2693
831.774	2648
831.913	2678
832.051	2571
832.19	2598
832.329	2697
832.467	2556
832.606	2492
832.744	2587
832.883	2587
833.022	2587
833.16	2632
833.299	2697
833.437	2689
833.576	2731
833.714	2720
833.852	2754
833.991	2788
834.129	2861
834.267	2849
834.406	2815
834.544	2906
834.682	2902
834.821	2876
834.959	3077
835.097	2902
835.235	3108
835.373	3028
835.511	3036
835.65	2986
835.788	2948
835.926	2864
836.064	2830
836.202	2880
836.34	3131
836.478	3138
836.615	3043
836.753	3116
836.891	3253
837.029	3180
837.167	3127
837.305	3074
837.443	3055
837.58	2975
837.718	3127
837.856	3070
837.993	3093
838.131	3135
838.269	3135
838.406	3112
838.544	3112
838.681	2963
838.819	2941
838.956	2849
839.094	2842
839.231	2902
839.369	3017
839.506	3389
839.643	3264
839.781	3005
839.918	2986
840.055	3081
840.193	3070
840.33	3116
840.467	3135
840.604	3135
840.742	3424
840.879	3024
841.016	3058
841.153	3146
841.29	3355
841.427	3306
841.564	3329
841.701	3348
841.838	3230
841.975	3184
842.112	3249
842.249	3104
842.385	3051
842.522	3298
842.659	3100
842.796	3089
842.933	3089
843.069	3081
843.206	3074
843.343	3176
843.479	3116
843.616	3146
843.752	2918
843.889	2868
844.025	3085
844.162	2880
844.298	3058
844.435	2944
844.571	2967
844.708	3085
844.844	3199
844.98	3249
845.117	3207
845.253	3051
845.389	3009
845.525	3154
845.661	3131
845.798	3028
845.934	3173
846.07	3066
846.206	3218
846.342	3291
846.478	3253
846.614	3100
846.75	3066
846.886	3013
847.022	3291
847.158	3169
847.294	3211
847.429	3256
847.565	3241
847.701	3515
847.837	3070
847.972	3039
848.108	3169
848.244	3150
848.379	3020
848.515	2948
848.65	2990
848.786	2986
848.921	3009
849.057	3135
849.192	3146
849.328	3081
849.463	3089
849.598	3089
849.734	3062
849.869	2979
850.004	2918
850.14	2990
850.275	2918
850.41	2826
850.545	2872
850.68	2971
850.815	2986
850.95	2979
851.085	3207
851.22	3142
851.355	3032
851.49	2994
851.625	2994
851.76	3020
851.895	2960
852.03	2922
852.165	3043
852.299	3108
852.434	3218
852.569	3138
852.703	3180
852.838	3249
852.973	3336
853.107	3317
853.242	3165
853.376	3097
853.511	3013
853.645	3036
853.78	3283
853.914	3146
854.048	3154
854.183	3104
854.317	3169
854.451	3310
854.585	3146
854.72	3097
854.854	3211
854.988	3032
855.122	3100
855.256	2944
855.39	3161
855.524	3264
855.658	3211
855.792	3184
855.926	3173
856.06	3211
856.194	3237
856.327	3154
856.461	3077
856.595	3116
856.729	3119
856.862	3203
856.996	3188
857.13	3245
857.263	3256
857.397	3291
857.53	3123
857.664	3226
857.797	3256
857.931	3268
858.064	3161
858.197	3264
858.331	3146
858.464	3119
858.597	3055
858.731	3157
858.864	3142
858.997	3116
859.13	3157
859.263	3241
859.396	3211
859.529	3142
859.662	3085
859.795	3062
859.928	3123
860.061	3321
860.194	3298
860.327	3150
860.46	3104
860.592	3253
860.725	3283
860.858	3283
860.99	3127
861.123	3020
861.256	3097
861.388	3192
861.521	3797
861.653	3024
861.786	3001
861.918	3036
862.05	3093
862.183	3093
862.315	3150
862.447	3241
862.58	3135
862.712	2952
862.844	2887
862.976	3005
863.108	3036
863.24	3302
863.372	2883
863.504	2960
863.636	2948
863.768	3055
863.9	2982
864.032	2948
864.164	2979
864.296	3028
864.428	3116
864.559	3104
864.691	3055
864.823	3066
864.954	3036
865.086	3051
865.217	3013
865.349	2990
865.48	3009
865.612	3047
865.743	3127
865.875	3005
866.006	2979
866.137	2967
866.269	3013
866.4	2937
866.531	2967
866.662	2899
866.793	2902
866.924	2922
867.055	3020
867.186	2952
867.317	2925
867.448	2842
867.579	2902
867.71	2883
867.841	2853
867.972	2895
868.103	2952
868.233	2906
868.364	2925
868.495	2929
868.625	3097
868.756	3192
868.886	3005
869.017	3017
869.147	3199
869.278	3127
869.408	3093
869.539	3020
869.669	3123
869.799	3055
869.929	3142
870.06	3131
870.19	3344
870.32	3298
870.45	3298
870.58	3355
870.71	3466
870.84	3454
870.97	3302
871.1	3275
871.23	3515
871.36	3488
871.489	3340
871.619	3416
871.749	3405
871.879	3454
872.008	3519
872.138	3412
872.267	3268
872.397	3123
872.526	3131
872.656	3051
872.785	3127
872.915	3249
873.044	3351
873.173	3218
873.303	3275
873.432	3249
873.561	3264
873.69	3180
873.819	3173
873.948	3230
874.077	3123
874.206	3055
874.335	3093
874.464	3245
874.593	3359
874.722	3283
874.851	3393
874.979	3374
875.108	3340
875.237	3169
875.365	3169
875.494	3180
875.623	3233
875.751	3097
875.88	3100
876.008	3199
876.136	3199
876.265	3359
876.393	3534
876.521	3443
876.65	3428
876.778	3370
876.906	3272
877.034	3218
877.162	3237
877.29	3214
877.418	3233
877.546	3283
877.674	3233
877.802	3218
877.93	3249
878.058	3157
878.185	3108
878.313	3218
878.441	3226
878.568	3085
878.696	3165
878.824	3256
878.951	3310
879.079	3469
879.206	3644
879.333	3443
879.461	3336
879.588	3374
879.715	3515
879.842	3584
879.97	3393
880.097	3154
880.224	3119
880.351	3199
880.478	3214
880.605	3230
880.732	3233
880.859	3523
880.986	3313
881.112	3294
881.239	3176
881.366	3089
881.493	3028
881.619	3047
881.746	3066
881.872	3100
881.999	3116
882.125	3135
882.252	3233
882.378	3317
882.505	3420
882.631	3294
882.757	3104
882.883	3241
883.01	3214
883.136	3157
883.262	3097
883.388	3142
883.514	3321
883.64	3340
883.766	3310
883.892	3188
884.018	3241
884.143	3439
884.269	3534
884.395	3203
884.52	3180
884.646	3188
884.772	3131
884.897	3089
885.023	3199
885.148	3378
885.274	3389
885.399	3374
885.524	3283
885.65	3272
885.775	3317
885.9	3294
886.025	3473
886.15	3340
886.275	3294
886.4	3249
886.525	3359
886.65	3283
886.775	3321
886.9	3492
887.025	3644
887.149	3416
887.274	3260
887.399	3218
887.523	3241
887.648	3192
887.773	3222
887.897	3389
888.021	3420
888.146	3317
888.27	3447
888.395	3542
888.519	3454
888.643	3409
888.767	3462
888.891	3302
889.015	3298
889.139	3306
889.263	3279
889.387	3420
889.511	3523
889.635	3485
889.759	3260
889.883	3294
890.006	3386
890.13	3507
890.254	3275
890.377	3367
890.501	3199
890.624	3188
890.748	3313
890.871	3173
890.995	3085
891.118	3039
891.241	3211
891.364	3237
891.488	3332
891.611	3184
891.734	3241
891.857	3294
891.98	3230
892.103	3302
892.226	3291
892.349	3268
892.471	3150
892.594	3237
892.717	3302
892.839	3275
892.962	3306
893.085	3389
893.207	3317
893.33	3150
893.452	3195
893.575	3332
893.697	3310
893.819	3462
893.941	3507
894.064	3447
894.186	3291
894.308	3249
894.43	3458
894.552	3542
894.674	3492
894.796	3256
894.918	3344
895.04	3283
895.161	3466
895.283	3382
895.405	3317
895.526	3374
895.648	3447
895.769	3462
895.891	3458
896.012	3458
896.134	3477
896.255	3416
896.376	3386
896.498	3374
896.619	3458
896.74	3348
896.861	3420
896.982	3694
897.103	3865
897.224	3644
897.345	3507
897.466	3420
897.587	3488
897.708	3637
897.828	3542
897.949	3412
898.07	3329
898.19	3450
898.311	3595
898.431	3447
898.552	3542
898.672	3580
898.792	3587
898.913	3534
899.033	3454
899.153	3321
899.273	3222
899.393	3306
899.513	3389
899.633	3321
899.753	3344
899.873	3313
899.993	3355
900.113	3321
900.232	3405
900.352	3336
900.472	3317
900.591	3214
900.711	3332
900.83	3256
900.95	3416
901.069	3507
901.189	3363
901.308	3199
901.427	3161
901.546	3180
901.665	3283
901.784	3344
901.904	3176
902.023	3154
902.141	3024
902.26	2979
902.379	3154
902.498	3100
902.617	3058
902.735	3203
902.854	3214
902.973	3192
903.091	3039
903.21	3066
903.328	3180
903.446	3119
903.565	3116
903.683	3203
903.801	3154
903.919	3279
904.038	3313
904.156	3192
904.274	3291
904.392	3241
904.51	3291
904.627	3336
904.745	3412
904.863	3523
904.981	3260
905.098	3173
905.216	3237
905.334	3317
905.451	3317
905.569	3325
905.686	3469
905.803	3477
905.921	3291
906.038	3443
906.155	3355
906.272	3275
906.389	3351
906.506	3253
906.623	3253
906.74	3287
906.857	3226
906.974	3298
907.091	3462
907.208	3591
907.324	3462
907.441	3393
907.557	3245
907.674	3233
907.79	3214
907.907	3298
908.023	3401
908.139	3412
908.256	3321
908.372	3386
908.488	3401
908.604	3253
908.72	3237
908.836	3294
908.952	3332
909.068	3382
909.184	3458
909.3	3393
909.415	3504
909.531	3500
909.647	3310
909.762	3298
909.878	3302
909.993	3378
910.108	3363
910.224	3370
910.339	3443
910.454	3359
910.57	3306
910.685	3245
910.8	3618
910.915	3561
911.03	3435
911.145	3237
911.259	3310
911.374	3367
911.489	3256
911.604	3241
911.718	3154
911.833	3199
911.947	3055
912.062	3013
912.176	3192
912.291	3188
912.405	3214
912.519	3447
912.633	3477
912.748	3363
912.862	3272
912.976	3169
913.09	3081
913.204	3161
913.318	3245
913.431	3370
913.545	3332
913.659	3466
913.772	3329
913.886	3241
914	3176
914.113	3412
914.226	3466
914.34	3340
914.453	3222
914.566	3424
914.68	3306
914.793	3332
914.906	3165
915.019	3135
915.132	3077
915.245	3195
915.358	3260
915.47	3249
915.583	3302
915.696	3321
915.809	3439
915.921	3447
916.034	3237
916.146	3294
916.259	3245
916.371	3363
916.483	3363
916.595	3325
916.708	3359
916.82	3374
916.932	3340
917.044	3386
917.156	3405
917.268	3268
917.38	3317
917.491	3321
917.603	3386
917.715	3450
917.826	3439
917.938	3378
918.049	3329
918.161	3450
918.272	3576
918.384	3625
918.495	3534
918.606	3336
918.717	3298
918.828	3363
918.939	3462
919.05	3283
919.161	3397
919.272	3184
919.383	3332
919.494	3507
919.604	3732
919.715	3561
919.826	3428
919.936	3492
920.047	3606
920.157	3622
920.267	3759
920.378	3629
920.488	3614
920.598	3823
920.708	3972
920.818	3838
920.928	3869
921.038	4063
921.148	3960
921.258	3724
921.368	3667
921.477	3580
921.587	3580
921.697	3450
921.806	3641
921.916	3564
922.025	3363
922.134	3378
922.244	3329
922.353	3454
922.462	3306
922.571	3256
922.68	3138
922.789	3097
922.898	3157
923.007	3142
923.116	3233
923.224	3184
923.333	3222
923.442	3119
923.55	3119
923.659	3157
923.767	3245
923.876	3154
923.984	3253
924.092	3104
924.201	3192
924.309	3283
924.417	3256
924.525	3165
924.633	3230
924.741	4234
924.849	3081
924.956	3283
925.064	3104
925.172	3062
925.279	3108
925.387	3192
925.494	3180
925.602	3374
925.709	3370
925.816	3230
925.924	3340
926.031	3428
926.138	3370
926.245	3344
926.352	3264
926.459	3416
926.566	3481
926.673	3355
926.779	3268
926.886	3294
926.993	3192
927.099	3195
927.206	3138
927.312	3119
927.419	3275
927.525	3245
927.631	3272
927.737	3150
927.843	3142
927.95	3020
928.056	3138
928.162	3195
928.267	3268
928.373	3880
928.479	3351
928.585	3108
928.69	3203
928.796	3306
928.901	3176
929.007	3051
929.112	3218
929.218	3188
929.323	3138
929.428	3131
929.533	3302
929.638	3138
929.743	3214
929.848	3260
929.953	3230
930.058	3142
930.163	3062
930.267	3058
930.372	3207
930.477	3074
930.581	3310
930.685	3199
930.79	3032
930.894	3123
930.998	3116
931.103	3272
931.207	2990
931.311	2952
931.415	2967
931.519	2819
931.623	2815
