Data from test_V78500241_1192.txt Node
Date: Fri Mar 25 16:23:27 CST 2022
User: usil
Spectrometer: V785-0024
Trigger mode: 0
Integration Time (sec): 4.000000E-1
Scans to average: 1
Nonlinearity correction enabled: false
Boxcar width: 0
Storing dark spectrum: false
XAxis mode: Wavelengths
Number of Pixels in Spectrum: 1024
>>>>>Begin Spectral Data<<<<<
801.071	2910
801.214	2925
801.356	2887
801.499	2902
801.641	2872
801.783	2906
801.926	3020
802.068	2971
802.211	2990
802.353	3032
802.496	2963
802.638	3009
802.78	3024
802.923	3085
803.065	2986
803.208	2922
803.35	2906
803.492	2902
803.635	2922
803.777	2777
803.919	2861
804.061	3157
804.204	2929
804.346	2922
804.488	2872
804.63	2963
804.773	2849
804.915	2906
805.057	3062
805.199	2922
805.341	2960
805.483	3039
805.626	3009
805.768	2956
805.91	3066
806.052	3070
806.194	3036
806.336	3222
806.478	3013
806.62	2952
806.762	2975
806.904	3013
807.046	3165
807.188	2979
807.33	2891
807.472	2963
807.614	2902
807.756	2975
807.898	2952
808.04	2891
808.182	2963
808.324	2960
808.465	2864
808.607	2849
808.749	2823
808.891	2849
809.033	2975
809.174	2979
809.316	2880
809.458	2895
809.6	2758
809.741	2754
809.883	2781
810.025	2804
810.166	2864
810.308	2845
810.45	2857
810.591	2781
810.733	2777
810.875	2872
811.016	2758
811.158	2758
811.299	2792
811.441	2891
811.582	2895
811.724	2815
811.865	2834
812.007	2891
812.148	2834
812.29	2857
812.431	2906
812.573	2963
812.714	2963
812.855	3001
812.997	3085
813.138	3108
813.279	3024
813.421	2963
813.562	2933
813.703	2834
813.845	2899
813.986	2746
814.127	2724
814.268	2811
814.41	2819
814.551	2834
814.692	2887
814.833	2769
814.974	2899
815.115	2918
815.256	2845
815.397	2811
815.539	2880
815.68	2781
815.821	2773
815.962	2925
816.103	2925
816.244	2906
816.385	2853
816.526	2975
816.666	2914
816.807	2724
816.948	2902
817.089	2872
817.23	2872
817.371	2788
817.512	2792
817.653	2880
817.793	2807
817.934	2891
818.075	2960
818.216	3009
818.356	3039
818.497	2906
818.638	2781
818.778	2815
818.919	2811
819.06	2731
819.2	2880
819.341	2781
819.481	2773
819.622	2880
819.762	3039
819.903	3036
820.043	2937
820.184	2891
820.324	2899
820.465	3039
820.605	2998
820.746	2956
820.886	2941
821.026	3085
821.167	3180
821.307	3222
821.447	3283
821.588	3207
821.728	3230
821.868	3150
822.008	3097
822.149	3157
822.289	3207
822.429	3066
822.569	3055
822.709	3146
822.849	3043
822.99	3074
823.13	3161
823.27	3188
823.41	3062
823.55	3119
823.69	3154
823.83	3127
823.97	3081
824.11	2998
824.25	2998
824.389	3051
824.529	3081
824.669	3047
824.809	3138
824.949	3233
825.089	3218
825.228	3188
825.368	3001
825.508	2944
825.648	2994
825.787	2998
825.927	2990
826.067	2956
826.206	2948
826.346	3055
826.485	3036
826.625	3123
826.765	3264
826.904	3211
827.044	2982
827.183	2933
827.323	2845
827.462	2960
827.601	2952
827.741	2967
827.88	2948
828.02	2880
828.159	2979
828.298	3036
828.437	3135
828.577	3028
828.716	3222
828.855	3097
828.994	2929
829.134	2864
829.273	2906
829.412	2868
829.551	2861
829.69	2883
829.829	2990
829.968	3108
830.107	3001
830.246	3013
830.385	2914
830.524	2864
830.663	2804
830.802	2758
830.941	2640
831.08	2651
831.219	2739
831.357	2739
831.496	2906
831.635	2746
831.774	2640
831.913	2644
832.051	2522
832.19	2526
832.329	2693
832.467	2518
832.606	2495
832.744	2602
832.883	2556
833.022	2560
833.16	2674
833.299	2648
833.437	2670
833.576	2689
833.714	2686
833.852	2724
833.991	2773
834.129	2876
834.267	2823
834.406	2750
834.544	2823
834.682	2891
834.821	2864
834.959	3081
835.097	2922
835.235	3043
835.373	2960
835.511	3017
835.65	2925
835.788	2956
835.926	2804
836.064	2815
836.202	2830
836.34	3074
836.478	3138
836.615	3017
836.753	3100
836.891	3142
837.029	3150
837.167	3077
837.305	3036
837.443	3058
837.58	2956
837.718	3119
837.856	3047
837.993	3020
838.131	3108
838.269	3089
838.406	3097
838.544	3066
838.681	2910
838.819	2880
838.956	2796
839.094	2811
839.231	2883
839.369	2986
839.506	3313
839.643	3253
839.781	2994
839.918	2963
840.055	3036
840.193	3032
840.33	3074
840.467	3100
840.604	3135
840.742	3367
840.879	3024
841.016	3058
841.153	3074
841.29	3306
841.427	3294
841.564	3275
841.701	3302
841.838	3165
841.975	3192
842.112	3184
842.249	3039
842.385	3032
842.522	3211
842.659	3066
842.796	3055
842.933	3112
843.069	3001
843.206	3043
843.343	3173
843.479	3070
843.616	3116
843.752	2872
843.889	2849
844.025	3066
844.162	2868
844.298	3047
844.435	2967
844.571	2929
844.708	3081
844.844	3154
844.98	3226
845.117	3165
845.253	3062
845.389	2990
845.525	3123
845.661	3093
845.798	3001
845.934	3131
846.07	3043
846.206	3195
846.342	3294
846.478	3256
846.614	3074
846.75	3055
846.886	3039
847.022	3218
847.158	3127
847.294	3207
847.429	3268
847.565	3188
847.701	3466
847.837	3005
847.972	2998
848.108	3131
848.244	3135
848.379	3009
848.515	2952
848.65	2925
848.786	2956
848.921	2990
849.057	3123
849.192	3138
849.328	3093
849.463	3089
849.598	3089
849.734	3028
849.869	2971
850.004	2902
850.14	2956
850.275	2910
850.41	2823
850.545	2880
850.68	2880
850.815	2960
850.95	2975
851.085	3214
851.22	3112
851.355	3055
851.49	2986
851.625	2979
851.76	3020
851.895	2880
852.03	2902
852.165	3017
852.299	3116
852.434	3154
852.569	3135
852.703	3203
852.838	3256
852.973	3340
853.107	3302
853.242	3127
853.376	3058
853.511	2967
853.645	3005
853.78	3233
853.914	3108
854.048	3093
854.183	3066
854.317	3138
854.451	3306
854.585	3135
854.72	3066
854.854	3157
854.988	3055
855.122	3104
855.256	2986
855.39	3066
855.524	3192
855.658	3157
855.792	3089
855.926	3192
856.06	3203
856.194	3253
856.327	3135
856.461	3089
856.595	3055
856.729	3077
856.862	3207
856.996	3135
857.13	3184
857.263	3203
857.397	3256
857.53	3108
857.664	3207
857.797	3199
857.931	3268
858.064	3150
858.197	3226
858.331	3138
858.464	3043
858.597	2990
858.731	3123
858.864	3131
858.997	3077
859.13	3131
859.263	3142
859.396	3222
859.529	3104
859.662	3077
859.795	3058
859.928	3135
860.061	3230
860.194	3298
860.327	3127
860.46	3032
860.592	3207
860.725	3222
860.858	3211
860.99	3089
861.123	3043
861.256	3032
861.388	3135
861.521	3660
861.653	2998
861.786	2986
861.918	2963
862.05	3020
862.183	3119
862.315	3157
862.447	3180
862.58	3070
862.712	2982
862.844	2883
862.976	3009
863.108	2975
863.24	3340
863.372	2891
863.504	2933
863.636	2952
863.768	2986
863.9	2982
864.032	2895
864.164	2960
864.296	3001
864.428	3077
864.559	3100
864.691	3036
864.823	3043
864.954	3043
865.086	3039
865.217	2982
865.349	2944
865.48	2944
865.612	3039
865.743	3150
865.875	2967
866.006	2944
866.137	2998
866.269	2937
866.4	2922
866.531	2925
866.662	2857
866.793	2864
866.924	2891
867.055	3017
867.186	2895
867.317	2857
867.448	2845
867.579	2883
867.71	2834
867.841	2781
867.972	2902
868.103	2887
868.233	2906
868.364	2861
868.495	2883
868.625	3062
868.756	3154
868.886	2967
869.017	3028
869.147	3176
869.278	3161
869.408	3024
869.539	3013
869.669	3074
869.799	3047
869.929	3138
870.06	3081
870.19	3363
870.32	3302
870.45	3294
870.58	3386
870.71	3424
870.84	3428
870.97	3283
871.1	3241
871.23	3450
871.36	3469
871.489	3351
871.619	3389
871.749	3393
871.879	3416
872.008	3507
872.138	3355
872.267	3317
872.397	3127
872.526	3066
872.656	3009
872.785	3093
872.915	3237
873.044	3321
873.173	3199
873.303	3230
873.432	3211
873.561	3256
873.69	3154
873.819	3104
873.948	3176
874.077	3100
874.206	3047
874.335	3066
874.464	3203
874.593	3325
874.722	3222
874.851	3393
874.979	3351
875.108	3287
875.237	3192
875.365	3142
875.494	3146
875.623	3222
875.751	3081
875.88	3123
876.008	3176
876.136	3222
876.265	3336
876.393	3511
876.521	3397
876.65	3389
876.778	3325
876.906	3268
877.034	3161
877.162	3218
877.29	3138
877.418	3253
877.546	3245
877.674	3241
877.802	3214
877.93	3214
878.058	3157
878.185	3135
878.313	3203
878.441	3192
878.568	3055
878.696	3127
878.824	3260
878.951	3256
879.079	3393
879.206	3549
879.333	3409
879.461	3291
879.588	3329
879.715	3450
879.842	3580
879.97	3405
880.097	3169
880.224	3097
880.351	3199
880.478	3237
880.605	3165
880.732	3195
880.859	3431
880.986	3298
881.112	3329
881.239	3199
881.366	3089
881.493	3043
881.619	3001
881.746	3066
881.872	3104
881.999	3104
882.125	3142
882.252	3245
882.378	3283
882.505	3439
882.631	3253
882.757	3169
882.883	3230
883.01	3195
883.136	3146
883.262	3051
883.388	3112
883.514	3310
883.64	3370
883.766	3283
883.892	3195
884.018	3226
884.143	3351
884.269	3519
884.395	3222
884.52	3165
884.646	3188
884.772	3154
884.897	3085
885.023	3207
885.148	3325
885.274	3405
885.399	3397
885.524	3260
885.65	3253
885.775	3264
885.9	3264
886.025	3424
886.15	3378
886.275	3268
886.4	3230
886.525	3260
886.65	3291
886.775	3272
886.9	3519
887.025	3629
887.149	3382
887.274	3226
887.399	3169
887.523	3199
887.648	3188
887.773	3161
887.897	3336
888.021	3409
888.146	3310
888.27	3424
888.395	3545
888.519	3409
888.643	3412
888.767	3397
888.891	3325
889.015	3218
889.139	3260
889.263	3199
889.387	3393
889.511	3416
889.635	3439
889.759	3272
889.883	3294
890.006	3393
890.13	3492
890.254	3268
890.377	3310
890.501	3199
890.624	3157
890.748	3310
890.871	3146
890.995	3112
891.118	3028
891.241	3173
891.364	3230
891.488	3310
891.611	3180
891.734	3226
891.857	3317
891.98	3226
892.103	3313
892.226	3268
892.349	3192
892.471	3097
892.594	3211
892.717	3291
892.839	3279
892.962	3291
893.085	3340
893.207	3306
893.33	3112
893.452	3199
893.575	3348
893.697	3226
893.819	3466
893.941	3496
894.064	3435
894.186	3233
894.308	3272
894.43	3393
894.552	3500
894.674	3488
894.796	3256
894.918	3275
895.04	3260
895.161	3412
895.283	3378
895.405	3310
895.526	3351
895.648	3435
895.769	3393
895.891	3458
896.012	3450
896.134	3500
896.255	3382
896.376	3351
896.498	3374
896.619	3428
896.74	3363
896.861	3382
896.982	3660
897.103	3816
897.224	3561
897.345	3481
897.466	3424
897.587	3500
897.708	3545
897.828	3564
897.949	3420
898.07	3329
898.19	3382
898.311	3523
898.431	3469
898.552	3530
898.672	3580
898.792	3576
898.913	3545
899.033	3374
899.153	3264
899.273	3226
899.393	3249
899.513	3310
899.633	3317
899.753	3313
899.873	3310
899.993	3389
900.113	3344
900.232	3435
900.352	3310
900.472	3260
900.591	3188
900.711	3321
900.83	3256
900.95	3382
901.069	3500
901.189	3382
901.308	3154
901.427	3089
901.546	3195
901.665	3268
901.784	3325
901.904	3192
902.023	3142
902.141	2990
902.26	2990
902.379	3135
902.498	3081
902.617	3013
902.735	3207
902.854	3241
902.973	3176
903.091	3070
903.21	3039
903.328	3093
903.446	3142
903.565	3127
903.683	3199
903.801	3154
903.919	3230
904.038	3294
904.156	3138
904.274	3268
904.392	3241
904.51	3313
904.627	3359
904.745	3420
904.863	3485
904.981	3275
905.098	3176
905.216	3207
905.334	3256
905.451	3272
905.569	3291
905.686	3435
905.803	3424
905.921	3253
906.038	3428
906.155	3348
906.272	3291
906.389	3344
906.506	3264
906.623	3241
906.74	3268
906.857	3188
906.974	3233
907.091	3447
907.208	3523
907.324	3469
907.441	3348
907.557	3218
907.674	3253
907.79	3249
907.907	3256
908.023	3351
908.139	3351
908.256	3298
908.372	3325
908.488	3329
908.604	3241
908.72	3226
908.836	3256
908.952	3264
909.068	3325
909.184	3458
909.3	3386
909.415	3473
909.531	3473
909.647	3283
909.762	3302
909.878	3256
909.993	3325
910.108	3336
910.224	3336
910.339	3405
910.454	3359
910.57	3283
910.685	3230
910.8	3549
910.915	3488
911.03	3420
911.145	3245
911.259	3294
911.374	3268
911.489	3233
911.604	3203
911.718	3123
911.833	3123
911.947	3043
912.062	2948
912.176	3173
912.291	3214
912.405	3176
912.519	3450
912.633	3454
912.748	3321
912.862	3249
912.976	3165
913.09	3058
913.204	3116
913.318	3207
913.431	3329
913.545	3329
913.659	3409
913.772	3317
913.886	3233
914	3218
914.113	3336
914.226	3428
914.34	3374
914.453	3230
914.566	3397
914.68	3291
914.793	3283
914.906	3165
915.019	3093
915.132	3089
915.245	3135
915.358	3203
915.47	3241
915.583	3275
915.696	3313
915.809	3363
915.921	3397
916.034	3207
916.146	3237
916.259	3230
916.371	3370
916.483	3363
916.595	3245
916.708	3321
916.82	3298
916.932	3355
917.044	3348
917.156	3348
917.268	3245
917.38	3283
917.491	3272
917.603	3359
917.715	3431
917.826	3428
917.938	3367
918.049	3279
918.161	3439
918.272	3557
918.384	3564
918.495	3481
918.606	3291
918.717	3279
918.828	3344
918.939	3409
919.05	3275
919.161	3336
919.272	3180
919.383	3256
919.494	3473
919.604	3679
919.715	3485
919.826	3393
919.936	3443
920.047	3610
920.157	3545
920.267	3755
920.378	3614
920.488	3572
920.598	3762
920.708	3956
920.818	3846
920.928	3892
921.038	3987
921.148	3987
921.258	3641
921.368	3648
921.477	3561
921.587	3538
921.697	3496
921.806	3614
921.916	3504
922.025	3329
922.134	3378
922.244	3283
922.353	3412
922.462	3253
922.571	3233
922.68	3119
922.789	3085
922.898	3138
923.007	3119
923.116	3157
923.224	3157
923.333	3176
923.442	3097
923.55	3074
923.659	3146
923.767	3199
923.876	3150
923.984	3195
924.092	3131
924.201	3188
924.309	3222
924.417	3268
924.525	3199
924.633	3241
924.741	4017
924.849	3043
924.956	3245
925.064	3123
925.172	3024
925.279	3081
925.387	3176
925.494	3173
925.602	3321
925.709	3302
925.816	3207
925.924	3272
926.031	3405
926.138	3325
926.245	3332
926.352	3256
926.459	3420
926.566	3454
926.673	3340
926.779	3211
926.886	3218
926.993	3165
927.099	3089
927.206	3100
927.312	3142
927.419	3161
927.525	3192
927.631	3264
927.737	3154
927.843	3104
927.95	3013
928.056	3131
928.162	3131
928.267	3233
928.373	3861
928.479	3260
928.585	3104
928.69	3195
928.796	3268
928.901	3173
929.007	3055
929.112	3211
929.218	3176
929.323	3135
929.428	3119
929.533	3317
929.638	3112
929.743	3173
929.848	3291
929.953	3207
930.058	3142
930.163	2975
930.267	3051
930.372	3214
930.477	3028
930.581	3317
930.685	3211
930.79	3043
930.894	3146
930.998	3070
931.103	3272
931.207	2937
931.311	2937
931.415	2925
931.519	2773
931.623	2807
