Data from test_V78500241_632.txt Node
Date: Fri Mar 25 16:19:34 CST 2022
User: usil
Spectrometer: V785-0024
Trigger mode: 0
Integration Time (sec): 4.000000E-1
Scans to average: 1
Nonlinearity correction enabled: false
Boxcar width: 0
Storing dark spectrum: false
XAxis mode: Wavelengths
Number of Pixels in Spectrum: 1024
>>>>>Begin Spectral Data<<<<<
801.071	2948
801.214	2925
801.356	2880
801.499	2914
801.641	2887
801.783	2925
801.926	3070
802.068	2967
802.211	3028
802.353	3028
802.496	2998
802.638	3020
802.78	3066
802.923	3062
803.065	3013
803.208	2899
803.35	2925
803.492	2918
803.635	2956
803.777	2792
803.919	2853
804.061	3207
804.204	2971
804.346	2902
804.488	2861
804.63	3013
804.773	2868
804.915	2937
805.057	3097
805.199	2937
805.341	3009
805.483	3062
805.626	3009
805.768	2963
805.91	3119
806.052	3127
806.194	3024
806.336	3199
806.478	3058
806.62	2979
806.762	2994
806.904	3043
807.046	3150
807.188	2952
807.33	2933
807.472	2975
807.614	2933
807.756	2975
807.898	2914
808.04	2944
808.182	2986
808.324	2967
808.465	2891
808.607	2883
808.749	2773
808.891	2823
809.033	3024
809.174	2975
809.316	2887
809.458	2963
809.6	2781
809.741	2781
809.883	2777
810.025	2849
810.166	2845
810.308	2857
810.45	2849
810.591	2777
810.733	2773
810.875	2853
811.016	2823
811.158	2773
811.299	2804
811.441	2937
811.582	2902
811.724	2872
811.865	2849
812.007	2899
812.148	2861
812.29	2845
812.431	2918
812.573	2922
812.714	2952
812.855	3013
812.997	3070
813.138	3116
813.279	2990
813.421	2967
813.562	2967
813.703	2876
813.845	2845
813.986	2781
814.127	2712
814.268	2792
814.41	2842
814.551	2788
814.692	2902
814.833	2826
814.974	2914
815.115	2933
815.256	2823
815.397	2830
815.539	2845
815.68	2785
815.821	2781
815.962	2910
816.103	2887
816.244	2834
816.385	2853
816.526	2982
816.666	2899
816.807	2724
816.948	2872
817.089	2887
817.23	2864
817.371	2807
817.512	2826
817.653	2777
817.793	2807
817.934	2868
818.075	2967
818.216	2994
818.356	3001
818.497	2868
818.638	2842
818.778	2815
818.919	2785
819.06	2743
819.2	2876
819.341	2792
819.481	2823
819.622	2922
819.762	3077
819.903	3009
820.043	2963
820.184	2899
820.324	2906
820.465	3028
820.605	3043
820.746	3013
820.886	2933
821.026	3097
821.167	3173
821.307	3264
821.447	3325
821.588	3214
821.728	3199
821.868	3237
822.008	3116
822.149	3226
822.289	3249
822.429	3085
822.569	3066
822.709	3195
822.849	3081
822.99	3089
823.13	3211
823.27	3211
823.41	3165
823.55	3192
823.69	3180
823.83	3230
823.97	3131
824.11	3013
824.25	3051
824.389	3138
824.529	3104
824.669	3116
824.809	3233
824.949	3275
825.089	3253
825.228	3199
825.368	3074
825.508	2994
825.648	3028
825.787	3043
825.927	3062
826.067	3005
826.206	2998
826.346	3043
826.485	3123
826.625	3131
826.765	3260
826.904	3268
827.044	3055
827.183	3001
827.323	2933
827.462	3005
827.601	2952
827.741	2975
827.88	2990
828.02	2876
828.159	3005
828.298	3119
828.437	3161
828.577	3081
828.716	3294
828.855	3150
828.994	2944
829.134	2952
829.273	2967
829.412	2910
829.551	2910
829.69	2948
829.829	3028
829.968	3150
830.107	3081
830.246	3066
830.385	3005
830.524	2918
830.663	2857
830.802	2788
830.941	2708
831.08	2682
831.219	2811
831.357	2777
831.496	2998
831.635	2781
831.774	2678
831.913	2686
832.051	2579
832.19	2617
832.329	2724
832.467	2571
832.606	2522
832.744	2617
832.883	2617
833.022	2632
833.16	2682
833.299	2720
833.437	2705
833.576	2724
833.714	2762
833.852	2735
833.991	2815
834.129	2861
834.267	2861
834.406	2830
834.544	2861
834.682	2902
834.821	2895
834.959	3093
835.097	2929
835.235	3097
835.373	3051
835.511	3077
835.65	2982
835.788	2998
835.926	2838
836.064	2853
836.202	2918
836.34	3188
836.478	3150
836.615	3077
836.753	3154
836.891	3222
837.029	3184
837.167	3184
837.305	3085
837.443	3100
837.58	2998
837.718	3180
837.856	3123
837.993	3017
838.131	3119
838.269	3127
838.406	3142
838.544	3100
838.681	2979
838.819	2998
838.956	2868
839.094	2849
839.231	2906
839.369	3047
839.506	3397
839.643	3260
839.781	3051
839.918	3013
840.055	3066
840.193	3070
840.33	3089
840.467	3123
840.604	3154
840.742	3450
840.879	3051
841.016	3089
841.153	3131
841.29	3370
841.427	3306
841.564	3264
841.701	3332
841.838	3241
841.975	3230
842.112	3256
842.249	3108
842.385	3032
842.522	3310
842.659	3116
842.796	3081
842.933	3116
843.069	3055
843.206	3062
843.343	3230
843.479	3154
843.616	3165
843.752	2937
843.889	2941
844.025	3116
844.162	2902
844.298	3089
844.435	2967
844.571	2914
844.708	3108
844.844	3222
844.98	3264
845.117	3207
845.253	3085
845.389	3047
845.525	3119
845.661	3077
845.798	3055
845.934	3138
846.07	3074
846.206	3264
846.342	3298
846.478	3218
846.614	3070
846.75	3085
846.886	3028
847.022	3291
847.158	3131
847.294	3211
847.429	3294
847.565	3195
847.701	3534
847.837	3070
847.972	3017
848.108	3195
848.244	3173
848.379	3032
848.515	2967
848.65	2929
848.786	2990
848.921	2990
849.057	3127
849.192	3161
849.328	3097
849.463	3142
849.598	3085
849.734	3051
849.869	3017
850.004	2910
850.14	3005
850.275	2914
850.41	2830
850.545	2914
850.68	2956
850.815	2975
850.95	2979
851.085	3184
851.22	3112
851.355	3089
851.49	3005
851.625	3028
851.76	3032
851.895	2975
852.03	2937
852.165	3047
852.299	3135
852.434	3214
852.569	3165
852.703	3192
852.838	3283
852.973	3370
853.107	3386
853.242	3192
853.376	3081
853.511	3009
853.645	3062
853.78	3256
853.914	3135
854.048	3184
854.183	3116
854.317	3150
854.451	3329
854.585	3142
854.72	3085
854.854	3237
854.988	3089
855.122	3104
855.256	3017
855.39	3142
855.524	3291
855.658	3180
855.792	3154
855.926	3199
856.06	3268
856.194	3241
856.327	3165
856.461	3100
856.595	3123
856.729	3131
856.862	3245
856.996	3176
857.13	3226
857.263	3241
857.397	3310
857.53	3154
857.664	3222
857.797	3275
857.931	3275
858.064	3169
858.197	3249
858.331	3146
858.464	3138
858.597	3009
858.731	3108
858.864	3123
858.997	3085
859.13	3157
859.263	3233
859.396	3245
859.529	3112
859.662	3093
859.795	3070
859.928	3169
860.061	3275
860.194	3329
860.327	3142
860.46	3112
860.592	3256
860.725	3279
860.858	3275
860.99	3093
861.123	3089
861.256	3081
861.388	3161
861.521	3709
861.653	3032
861.786	3024
861.918	2990
862.05	3066
862.183	3123
862.315	3169
862.447	3207
862.58	3077
862.712	2982
862.844	2899
862.976	3043
863.108	3024
863.24	3443
863.372	2891
863.504	2971
863.636	2948
863.768	3085
863.9	2998
864.032	2887
864.164	2933
864.296	3081
864.428	3089
864.559	3089
864.691	3089
864.823	3116
864.954	3058
865.086	3009
865.217	3039
865.349	3005
865.48	3001
865.612	3055
865.743	3169
865.875	3001
866.006	2883
866.137	3001
866.269	2960
866.4	2956
866.531	2929
866.662	2918
866.793	2880
866.924	2883
867.055	2998
867.186	2975
867.317	2910
867.448	2826
867.579	2883
867.71	2887
867.841	2872
867.972	2887
868.103	2929
868.233	2902
868.364	2922
868.495	2929
868.625	3093
868.756	3188
868.886	2986
869.017	3070
869.147	3192
869.278	3173
869.408	3028
869.539	3074
869.669	3116
869.799	3089
869.929	3131
870.06	3097
870.19	3321
870.32	3310
870.45	3256
870.58	3420
870.71	3439
870.84	3488
870.97	3306
871.1	3256
871.23	3507
871.36	3504
871.489	3363
871.619	3409
871.749	3424
871.879	3443
872.008	3515
872.138	3389
872.267	3275
872.397	3192
872.526	3123
872.656	3047
872.785	3104
872.915	3268
873.044	3351
873.173	3268
873.303	3268
873.432	3249
873.561	3256
873.69	3138
873.819	3188
873.948	3180
874.077	3150
874.206	3081
874.335	3112
874.464	3180
874.593	3378
874.722	3272
874.851	3386
874.979	3336
875.108	3306
875.237	3203
875.365	3188
875.494	3154
875.623	3291
875.751	3146
875.88	3138
876.008	3188
876.136	3241
876.265	3389
876.393	3511
876.521	3439
876.65	3439
876.778	3370
876.906	3275
877.034	3188
877.162	3260
877.29	3222
877.418	3287
877.546	3275
877.674	3233
877.802	3249
877.93	3237
878.058	3192
878.185	3138
878.313	3169
878.441	3260
878.568	3093
878.696	3188
878.824	3253
878.951	3294
879.079	3450
879.206	3610
879.333	3454
879.461	3344
879.588	3374
879.715	3481
879.842	3599
879.97	3431
880.097	3214
880.224	3165
880.351	3203
880.478	3256
880.605	3214
880.732	3226
880.859	3507
880.986	3294
881.112	3310
881.239	3184
881.366	3058
881.493	3058
881.619	3047
881.746	3058
881.872	3131
881.999	3116
882.125	3184
882.252	3211
882.378	3325
882.505	3439
882.631	3287
882.757	3188
882.883	3226
883.01	3275
883.136	3150
883.262	3119
883.388	3135
883.514	3336
883.64	3401
883.766	3329
883.892	3192
884.018	3298
884.143	3393
884.269	3545
884.395	3192
884.52	3138
884.646	3184
884.772	3127
884.897	3108
885.023	3214
885.148	3351
885.274	3409
885.399	3409
885.524	3260
885.65	3279
885.775	3344
885.9	3294
886.025	3447
886.15	3428
886.275	3313
886.4	3245
886.525	3317
886.65	3291
886.775	3291
886.9	3469
887.025	3629
887.149	3420
887.274	3287
887.399	3203
887.523	3188
887.648	3165
887.773	3218
887.897	3363
888.021	3420
888.146	3329
888.27	3450
888.395	3530
888.519	3473
888.643	3458
888.767	3485
888.891	3306
889.015	3272
889.139	3291
889.263	3260
889.387	3428
889.511	3500
889.635	3447
889.759	3298
889.883	3325
890.006	3431
890.13	3515
890.254	3306
890.377	3389
890.501	3226
890.624	3157
890.748	3306
890.871	3146
890.995	3138
891.118	3074
891.241	3237
891.364	3230
891.488	3325
891.611	3214
891.734	3218
891.857	3310
891.98	3253
892.103	3351
892.226	3287
892.349	3226
892.471	3089
892.594	3260
892.717	3325
892.839	3268
892.962	3298
893.085	3329
893.207	3317
893.33	3199
893.452	3233
893.575	3348
893.697	3226
893.819	3492
893.941	3500
894.064	3431
894.186	3287
894.308	3279
894.43	3416
894.552	3549
894.674	3534
894.796	3298
894.918	3310
895.04	3302
895.161	3439
895.283	3378
895.405	3291
895.526	3386
895.648	3431
895.769	3409
895.891	3477
896.012	3469
896.134	3492
896.255	3431
896.376	3374
896.498	3359
896.619	3485
896.74	3370
896.861	3386
896.982	3717
897.103	3865
897.224	3591
897.345	3500
897.466	3454
897.587	3580
897.708	3618
897.828	3545
897.949	3435
898.07	3321
898.19	3351
898.311	3595
898.431	3454
898.552	3500
898.672	3584
898.792	3599
898.913	3511
899.033	3466
899.153	3294
899.273	3222
899.393	3291
899.513	3306
899.633	3359
899.753	3344
899.873	3329
899.993	3374
900.113	3329
900.232	3405
900.352	3370
900.472	3313
900.591	3214
900.711	3287
900.83	3237
900.95	3439
901.069	3462
901.189	3367
901.308	3207
901.427	3131
901.546	3195
901.665	3321
901.784	3310
901.904	3211
902.023	3146
902.141	2998
902.26	2998
902.379	3142
902.498	3081
902.617	3032
902.735	3199
902.854	3268
902.973	3214
903.091	3074
903.21	3055
903.328	3173
903.446	3108
903.565	3108
903.683	3226
903.801	3135
903.919	3233
904.038	3313
904.156	3138
904.274	3283
904.392	3203
904.51	3268
904.627	3294
904.745	3431
904.863	3523
904.981	3283
905.098	3188
905.216	3241
905.334	3310
905.451	3317
905.569	3340
905.686	3447
905.803	3435
905.921	3317
906.038	3409
906.155	3386
906.272	3279
906.389	3336
906.506	3207
906.623	3294
906.74	3283
906.857	3207
906.974	3253
907.091	3488
907.208	3561
907.324	3469
907.441	3382
907.557	3214
907.674	3260
907.79	3195
907.907	3279
908.023	3382
908.139	3435
908.256	3329
908.372	3405
908.488	3348
908.604	3245
908.72	3230
908.836	3291
908.952	3294
909.068	3340
909.184	3492
909.3	3355
909.415	3492
909.531	3462
909.647	3272
909.762	3272
909.878	3256
909.993	3382
910.108	3321
910.224	3355
910.339	3412
910.454	3359
910.57	3313
910.685	3268
910.8	3561
910.915	3519
911.03	3428
911.145	3275
911.259	3275
911.374	3325
911.489	3211
911.604	3241
911.718	3135
911.833	3161
911.947	3013
912.062	2971
912.176	3188
912.291	3203
912.405	3222
912.519	3439
912.633	3466
912.748	3321
912.862	3291
912.976	3180
913.09	3051
913.204	3127
913.318	3226
913.431	3355
913.545	3336
913.659	3401
913.772	3332
913.886	3260
914	3214
914.113	3374
914.226	3382
914.34	3393
914.453	3226
914.566	3382
914.68	3310
914.793	3348
914.906	3161
915.019	3112
915.132	3058
915.245	3176
915.358	3230
915.47	3192
915.583	3291
915.696	3348
915.809	3420
915.921	3397
916.034	3287
916.146	3237
916.259	3272
916.371	3412
916.483	3401
916.595	3306
916.708	3351
916.82	3321
916.932	3291
917.044	3344
917.156	3325
917.268	3287
917.38	3272
917.491	3294
917.603	3355
917.715	3439
917.826	3447
917.938	3401
918.049	3279
918.161	3469
918.272	3557
918.384	3553
918.495	3477
918.606	3302
918.717	3237
918.828	3378
918.939	3389
919.05	3279
919.161	3367
919.272	3211
919.383	3306
919.494	3504
919.604	3679
919.715	3492
919.826	3401
919.936	3428
920.047	3595
920.157	3557
920.267	3747
920.378	3599
920.488	3587
920.598	3747
920.708	3979
920.818	3854
920.928	3846
921.038	4017
921.148	3998
921.258	3709
921.368	3606
921.477	3564
921.587	3507
921.697	3466
921.806	3663
921.916	3557
922.025	3412
922.134	3359
922.244	3310
922.353	3424
922.462	3283
922.571	3214
922.68	3135
922.789	3055
922.898	3131
923.007	3100
923.116	3173
923.224	3199
923.333	3176
923.442	3138
923.55	3100
923.659	3161
923.767	3245
923.876	3119
923.984	3241
924.092	3127
924.201	3207
924.309	3222
924.417	3214
924.525	3195
924.633	3230
924.741	4021
924.849	3085
924.956	3272
925.064	3131
925.172	3070
925.279	3123
925.387	3192
925.494	3264
925.602	3332
925.709	3332
925.816	3211
925.924	3317
926.031	3374
926.138	3310
926.245	3344
926.352	3256
926.459	3454
926.566	3496
926.673	3332
926.779	3249
926.886	3256
926.993	3123
927.099	3142
927.206	3074
927.312	3089
927.419	3237
927.525	3184
927.631	3268
927.737	3146
927.843	3119
927.95	3005
928.056	3123
928.162	3165
928.267	3272
928.373	3778
928.479	3344
928.585	3047
928.69	3214
928.796	3283
928.901	3157
929.007	3043
929.112	3184
929.218	3199
929.323	3165
929.428	3146
929.533	3279
929.638	3093
929.743	3169
929.848	3264
929.953	3207
930.058	3146
930.163	2971
930.267	3051
930.372	3188
930.477	3017
930.581	3329
930.685	3180
930.79	3051
930.894	3116
930.998	3097
931.103	3256
931.207	2944
931.311	2963
931.415	2941
931.519	2804
931.623	2811
