Data from test_V78500241_1636.txt Node
Date: Fri Mar 25 16:26:32 CST 2022
User: usil
Spectrometer: V785-0024
Trigger mode: 0
Integration Time (sec): 4.000000E-1
Scans to average: 1
Nonlinearity correction enabled: false
Boxcar width: 0
Storing dark spectrum: false
XAxis mode: Wavelengths
Number of Pixels in Spectrum: 1024
>>>>>Begin Spectral Data<<<<<
801.071	2899
801.214	2952
801.356	2906
801.499	2906
801.641	2891
801.783	2948
801.926	3043
802.068	2982
802.211	2982
802.353	3028
802.496	2922
802.638	3020
802.78	3055
802.923	3097
803.065	3009
803.208	2910
803.35	2929
803.492	2933
803.635	2971
803.777	2792
803.919	2876
804.061	3173
804.204	2941
804.346	2925
804.488	2842
804.63	3009
804.773	2902
804.915	2895
805.057	3077
805.199	2937
805.341	3001
805.483	3028
805.626	2979
805.768	2971
805.91	3077
806.052	3100
806.194	3020
806.336	3226
806.478	3024
806.62	2937
806.762	2956
806.904	2994
807.046	3154
807.188	3009
807.33	2925
807.472	2994
807.614	2891
807.756	2956
807.898	2922
808.04	2948
808.182	2937
808.324	2971
808.465	2857
808.607	2887
808.749	2804
808.891	2887
809.033	2971
809.174	3001
809.316	2887
809.458	2906
809.6	2781
809.741	2754
809.883	2762
810.025	2864
810.166	2891
810.308	2861
810.45	2857
810.591	2807
810.733	2754
810.875	2838
811.016	2766
811.158	2766
811.299	2834
811.441	2948
811.582	2925
811.724	2864
811.865	2823
812.007	2929
812.148	2876
812.29	2807
812.431	2880
812.573	2971
812.714	2963
812.855	3020
812.997	3058
813.138	3131
813.279	3009
813.421	2990
813.562	2944
813.703	2880
813.845	2887
813.986	2773
814.127	2743
814.268	2819
814.41	2838
814.551	2823
814.692	2868
814.833	2838
814.974	2876
815.115	2929
815.256	2853
815.397	2804
815.539	2868
815.68	2807
815.821	2762
815.962	2963
816.103	2880
816.244	2887
816.385	2842
816.526	2929
816.666	2941
816.807	2720
816.948	2880
817.089	2933
817.23	2876
817.371	2743
817.512	2800
817.653	2842
817.793	2838
817.934	2857
818.075	2975
818.216	2944
818.356	3055
818.497	2899
818.638	2800
818.778	2792
818.919	2769
819.06	2788
819.2	2891
819.341	2796
819.481	2807
819.622	2906
819.762	3100
819.903	3005
820.043	2895
820.184	2887
820.324	2883
820.465	2986
820.605	3001
820.746	3028
820.886	2967
821.026	3074
821.167	3142
821.307	3279
821.447	3272
821.588	3241
821.728	3188
821.868	3203
822.008	3097
822.149	3203
822.289	3233
822.429	3058
822.569	3089
822.709	3173
822.849	3005
822.99	3062
823.13	3176
823.27	3173
823.41	3085
823.55	3154
823.69	3184
823.83	3176
823.97	3055
824.11	3005
824.25	3047
824.389	3077
824.529	3135
824.669	3055
824.809	3188
824.949	3253
825.089	3249
825.228	3188
825.368	3020
825.508	3005
825.648	2990
825.787	3039
825.927	3058
826.067	2971
826.206	2994
826.346	3100
826.485	3112
826.625	3135
826.765	3294
826.904	3253
827.044	3028
827.183	2990
827.323	2910
827.462	3009
827.601	2933
827.741	2922
827.88	2994
828.02	2891
828.159	3039
828.298	3058
828.437	3127
828.577	3074
828.716	3283
828.855	3047
828.994	2971
829.134	2937
829.273	2967
829.412	2910
829.551	2925
829.69	2979
829.829	3013
829.968	3150
830.107	3070
830.246	3062
830.385	2986
830.524	2895
830.663	2883
830.802	2743
830.941	2686
831.08	2670
831.219	2823
831.357	2773
831.496	2998
831.635	2766
831.774	2663
831.913	2686
832.051	2613
832.19	2632
832.329	2727
832.467	2579
832.606	2514
832.744	2640
832.883	2648
833.022	2636
833.16	2667
833.299	2754
833.437	2762
833.576	2731
833.714	2746
833.852	2750
833.991	2823
834.129	2861
834.267	2857
834.406	2853
834.544	2910
834.682	2914
834.821	2925
834.959	3077
835.097	2925
835.235	3066
835.373	2990
835.511	3055
835.65	3005
835.788	3009
835.926	2857
836.064	2842
836.202	2883
836.34	3119
836.478	3176
836.615	3097
836.753	3176
836.891	3211
837.029	3203
837.167	3119
837.305	3119
837.443	3100
837.58	2982
837.718	3180
837.856	3146
837.993	3070
838.131	3127
838.269	3154
838.406	3116
838.544	3108
838.681	2990
838.819	2963
838.956	2849
839.094	2857
839.231	2948
839.369	3005
839.506	3412
839.643	3230
839.781	3074
839.918	3005
840.055	3108
840.193	3074
840.33	3066
840.467	3123
840.604	3188
840.742	3424
840.879	3116
841.016	3104
841.153	3169
841.29	3359
841.427	3344
841.564	3291
841.701	3313
841.838	3279
841.975	3195
842.112	3226
842.249	3123
842.385	3089
842.522	3245
842.659	3123
842.796	3070
842.933	3108
843.069	3047
843.206	3051
843.343	3233
843.479	3119
843.616	3176
843.752	2899
843.889	2891
844.025	3112
844.162	2929
844.298	3089
844.435	3020
844.571	2925
844.708	3089
844.844	3226
844.98	3272
845.117	3233
845.253	3074
845.389	3036
845.525	3089
845.661	3104
845.798	3020
845.934	3142
846.07	3077
846.206	3253
846.342	3336
846.478	3272
846.614	3127
846.75	3093
846.886	3066
847.022	3272
847.158	3138
847.294	3222
847.429	3268
847.565	3211
847.701	3496
847.837	3089
847.972	3009
848.108	3222
848.244	3214
848.379	2994
848.515	2979
848.65	2941
848.786	3009
848.921	3055
849.057	3157
849.192	3173
849.328	3131
849.463	3123
849.598	3085
849.734	3074
849.869	3028
850.004	2956
850.14	2979
850.275	2963
850.41	2864
850.545	2918
850.68	2952
850.815	2941
850.95	2986
851.085	3211
851.22	3131
851.355	3093
851.49	3028
851.625	3036
851.76	3020
851.895	2963
852.03	2956
852.165	3058
852.299	3131
852.434	3222
852.569	3150
852.703	3226
852.838	3260
852.973	3336
853.107	3351
853.242	3135
853.376	3100
853.511	3013
853.645	3039
853.78	3264
853.914	3138
854.048	3100
854.183	3123
854.317	3218
854.451	3348
854.585	3180
854.72	3116
854.854	3241
854.988	3077
855.122	3112
855.256	2982
855.39	3142
855.524	3214
855.658	3184
855.792	3184
855.926	3214
856.06	3256
856.194	3325
856.327	3214
856.461	3104
856.595	3104
856.729	3157
856.862	3260
856.996	3195
857.13	3211
857.263	3253
857.397	3310
857.53	3146
857.664	3230
857.797	3264
857.931	3302
858.064	3180
858.197	3230
858.331	3135
858.464	3138
858.597	3024
858.731	3135
858.864	3157
858.997	3116
859.13	3173
859.263	3207
859.396	3230
859.529	3116
859.662	3089
859.795	3070
859.928	3173
860.061	3306
860.194	3317
860.327	3161
860.46	3131
860.592	3260
860.725	3241
860.858	3291
860.99	3119
861.123	3100
861.256	3039
861.388	3142
861.521	3903
861.653	3039
861.786	2994
861.918	3009
862.05	3097
862.183	3127
862.315	3173
862.447	3199
862.58	3138
862.712	2971
862.844	2880
862.976	3036
863.108	3032
863.24	3450
863.372	2925
863.504	2979
863.636	2979
863.768	3051
863.9	3005
864.032	2895
864.164	3005
864.296	3043
864.428	3112
864.559	3081
864.691	3116
864.823	3066
864.954	3036
865.086	3051
865.217	3032
865.349	2998
865.48	3017
865.612	3085
865.743	3173
865.875	3001
866.006	3024
866.137	2967
866.269	2998
866.4	2975
866.531	2948
866.662	2933
866.793	2891
866.924	2918
867.055	3001
867.186	2975
867.317	2918
867.448	2861
867.579	2872
867.71	2883
867.841	2842
867.972	2982
868.103	2941
868.233	2880
868.364	2910
868.495	2929
868.625	3089
868.756	3222
868.886	3001
869.017	3036
869.147	3199
869.278	3188
869.408	3055
869.539	3062
869.669	3135
869.799	3039
869.929	3165
870.06	3135
870.19	3363
870.32	3291
870.45	3302
870.58	3374
870.71	3485
870.84	3485
870.97	3336
871.1	3245
871.23	3466
871.36	3462
871.489	3389
871.619	3416
871.749	3439
871.879	3439
872.008	3492
872.138	3378
872.267	3317
872.397	3165
872.526	3123
872.656	3013
872.785	3127
872.915	3260
873.044	3344
873.173	3233
873.303	3245
873.432	3256
873.561	3310
873.69	3165
873.819	3154
873.948	3207
874.077	3104
874.206	3055
874.335	3123
874.464	3233
874.593	3359
874.722	3317
874.851	3401
874.979	3336
875.108	3313
875.237	3192
875.365	3169
875.494	3135
875.623	3241
875.751	3119
875.88	3161
876.008	3195
876.136	3253
876.265	3393
876.393	3458
876.521	3450
876.65	3420
876.778	3351
876.906	3264
877.034	3249
877.162	3268
877.29	3188
877.418	3268
877.546	3272
877.674	3279
877.802	3195
877.93	3264
878.058	3165
878.185	3108
878.313	3203
878.441	3268
878.568	3097
878.696	3214
878.824	3245
878.951	3294
879.079	3466
879.206	3648
879.333	3435
879.461	3363
879.588	3382
879.715	3496
879.842	3603
879.97	3389
880.097	3184
880.224	3154
880.351	3214
880.478	3249
880.605	3192
880.732	3233
880.859	3500
880.986	3340
881.112	3317
881.239	3188
881.366	3116
881.493	3058
881.619	3043
881.746	3085
881.872	3138
881.999	3100
882.125	3150
882.252	3272
882.378	3298
882.505	3409
882.631	3298
882.757	3180
882.883	3230
883.01	3222
883.136	3176
883.262	3116
883.388	3165
883.514	3310
883.64	3393
883.766	3317
883.892	3230
884.018	3291
884.143	3420
884.269	3564
884.395	3241
884.52	3169
884.646	3207
884.772	3176
884.897	3066
885.023	3207
885.148	3340
885.274	3435
885.399	3359
885.524	3279
885.65	3287
885.775	3329
885.9	3306
886.025	3469
886.15	3393
886.275	3336
886.4	3241
886.525	3332
886.65	3317
886.775	3313
886.9	3534
887.025	3610
887.149	3447
887.274	3241
887.399	3195
887.523	3222
887.648	3173
887.773	3218
887.897	3405
888.021	3409
888.146	3287
888.27	3458
888.395	3523
888.519	3485
888.643	3473
888.767	3485
888.891	3336
889.015	3245
889.139	3275
889.263	3287
889.387	3412
889.511	3496
889.635	3443
889.759	3268
889.883	3302
890.006	3416
890.13	3519
890.254	3306
890.377	3397
890.501	3211
890.624	3207
890.748	3291
890.871	3207
890.995	3089
891.118	3089
891.241	3180
891.364	3283
891.488	3325
891.611	3188
891.734	3275
891.857	3283
891.98	3253
892.103	3351
892.226	3294
892.349	3188
892.471	3066
892.594	3199
892.717	3275
892.839	3279
892.962	3325
893.085	3367
893.207	3283
893.33	3146
893.452	3226
893.575	3336
893.697	3245
893.819	3488
893.941	3507
894.064	3424
894.186	3272
894.308	3283
894.43	3477
894.552	3542
894.674	3492
894.796	3268
894.918	3313
895.04	3298
895.161	3458
895.283	3420
895.405	3310
895.526	3370
895.648	3420
895.769	3409
895.891	3481
896.012	3500
896.134	3477
896.255	3458
896.376	3382
896.498	3393
896.619	3428
896.74	3412
896.861	3412
896.982	3663
897.103	3865
897.224	3603
897.345	3534
897.466	3412
897.587	3507
897.708	3610
897.828	3538
897.949	3477
898.07	3367
898.19	3420
898.311	3576
898.431	3500
898.552	3504
898.672	3622
898.792	3580
898.913	3530
899.033	3409
899.153	3310
899.273	3230
899.393	3279
899.513	3321
899.633	3317
899.753	3321
899.873	3283
899.993	3389
900.113	3351
900.232	3401
900.352	3351
900.472	3291
900.591	3222
900.711	3310
900.83	3233
900.95	3435
901.069	3507
901.189	3393
901.308	3188
901.427	3154
901.546	3230
901.665	3283
901.784	3355
901.904	3207
902.023	3146
902.141	3043
902.26	3013
902.379	3154
902.498	3051
902.617	3058
902.735	3222
902.854	3283
902.973	3192
903.091	3066
903.21	3051
903.328	3135
903.446	3100
903.565	3104
903.683	3207
903.801	3161
903.919	3245
904.038	3272
904.156	3150
904.274	3298
904.392	3264
904.51	3294
904.627	3340
904.745	3488
904.863	3469
904.981	3256
905.098	3207
905.216	3260
905.334	3348
905.451	3291
905.569	3310
905.686	3405
905.803	3447
905.921	3264
906.038	3431
906.155	3351
906.272	3294
906.389	3336
906.506	3283
906.623	3275
906.74	3264
906.857	3241
906.974	3268
907.091	3462
907.208	3568
907.324	3462
907.441	3424
907.557	3241
907.674	3268
907.79	3226
907.907	3275
908.023	3374
908.139	3378
908.256	3325
908.372	3382
908.488	3359
908.604	3268
908.72	3249
908.836	3287
908.952	3287
909.068	3313
909.184	3507
909.3	3378
909.415	3458
909.531	3492
909.647	3298
909.762	3249
909.878	3279
909.993	3378
910.108	3340
910.224	3348
910.339	3420
910.454	3370
910.57	3268
910.685	3230
910.8	3572
910.915	3519
911.03	3412
911.145	3283
911.259	3310
911.374	3321
911.489	3264
911.604	3218
911.718	3089
911.833	3165
911.947	3036
912.062	2986
912.176	3150
912.291	3161
912.405	3199
912.519	3439
912.633	3492
912.748	3344
912.862	3268
912.976	3176
913.09	3100
913.204	3127
913.318	3214
913.431	3344
913.545	3336
913.659	3443
913.772	3302
913.886	3230
914	3188
914.113	3351
914.226	3412
914.34	3367
914.453	3211
914.566	3420
914.68	3306
914.793	3306
914.906	3123
915.019	3112
915.132	3093
915.245	3184
915.358	3233
915.47	3230
915.583	3241
915.696	3317
915.809	3382
915.921	3447
916.034	3249
916.146	3249
916.259	3249
916.371	3409
916.483	3370
916.595	3249
916.708	3321
916.82	3317
916.932	3332
917.044	3351
917.156	3367
917.268	3272
917.38	3302
917.491	3306
917.603	3393
917.715	3435
917.826	3488
917.938	3374
918.049	3283
918.161	3447
918.272	3580
918.384	3576
918.495	3481
918.606	3367
918.717	3291
918.828	3416
918.939	3393
919.05	3264
919.161	3424
919.272	3154
919.383	3283
919.494	3496
919.604	3720
919.715	3496
919.826	3416
919.936	3469
920.047	3610
920.157	3523
920.267	3759
920.378	3580
920.488	3576
920.598	3804
920.708	3975
920.818	3854
920.928	3823
921.038	4021
921.148	3987
921.258	3686
921.368	3606
921.477	3599
921.587	3576
921.697	3458
921.806	3637
921.916	3485
922.025	3378
922.134	3370
922.244	3310
922.353	3428
922.462	3272
922.571	3230
922.68	3127
922.789	3123
922.898	3154
923.007	3085
923.116	3218
923.224	3188
923.333	3192
923.442	3100
923.55	3036
923.659	3138
923.767	3230
923.876	3142
923.984	3218
924.092	3142
924.201	3199
924.309	3199
924.417	3268
924.525	3192
924.633	3222
924.741	4162
924.849	3036
924.956	3256
925.064	3119
925.172	3020
925.279	3119
925.387	3180
925.494	3218
925.602	3367
925.709	3344
925.816	3154
925.924	3272
926.031	3370
926.138	3306
926.245	3298
926.352	3272
926.459	3401
926.566	3462
926.673	3332
926.779	3245
926.886	3253
926.993	3150
927.099	3146
927.206	3100
927.312	3119
927.419	3218
927.525	3192
927.631	3268
927.737	3142
927.843	3150
927.95	3039
928.056	3135
928.162	3169
928.267	3226
928.373	3892
928.479	3310
928.585	3058
928.69	3211
928.796	3291
928.901	3211
929.007	3047
929.112	3188
929.218	3188
929.323	3127
929.428	3123
929.533	3294
929.638	3104
929.743	3169
929.848	3222
929.953	3256
930.058	3169
930.163	3017
930.267	3066
930.372	3176
930.477	3051
930.581	3332
930.685	3188
930.79	3062
930.894	3135
930.998	3093
931.103	3283
931.207	2914
931.311	2933
931.415	2918
931.519	2777
931.623	2800
