Data from test_V78500241_1993.txt Node
Date: Fri Mar 25 16:29:00 CST 2022
User: usil
Spectrometer: V785-0024
Trigger mode: 0
Integration Time (sec): 4.000000E-1
Scans to average: 1
Nonlinearity correction enabled: false
Boxcar width: 0
Storing dark spectrum: false
XAxis mode: Wavelengths
Number of Pixels in Spectrum: 1024
>>>>>Begin Spectral Data<<<<<
801.071	2906
801.214	2982
801.356	2883
801.499	2899
801.641	2891
801.783	2910
801.926	3062
802.068	2960
802.211	3005
802.353	3039
802.496	3013
802.638	2998
802.78	3024
802.923	3085
803.065	2975
803.208	2906
803.35	2880
803.492	2933
803.635	2963
803.777	2766
803.919	2872
804.061	3169
804.204	2944
804.346	2933
804.488	2845
804.63	3009
804.773	2868
804.915	2861
805.057	3093
805.199	2929
805.341	2941
805.483	3058
805.626	2963
805.768	3005
805.91	3081
806.052	3108
806.194	3058
806.336	3253
806.478	3005
806.62	2944
806.762	3009
806.904	3036
807.046	3142
807.188	2990
807.33	2906
807.472	3013
807.614	2914
807.756	2941
807.898	2937
808.04	2887
808.182	2982
808.324	2933
808.465	2910
808.607	2883
808.749	2777
808.891	2845
809.033	2979
809.174	2982
809.316	2849
809.458	2902
809.6	2773
809.741	2766
809.883	2750
810.025	2861
810.166	2887
810.308	2876
810.45	2853
810.591	2766
810.733	2762
810.875	2826
811.016	2777
811.158	2773
811.299	2796
811.441	2925
811.582	2876
811.724	2834
811.865	2823
812.007	2899
812.148	2876
812.29	2853
812.431	2899
812.573	2922
812.714	2941
812.855	3005
812.997	3051
813.138	3131
813.279	3017
813.421	2956
813.562	2971
813.703	2845
813.845	2876
813.986	2754
814.127	2724
814.268	2792
814.41	2861
814.551	2811
814.692	2864
814.833	2830
814.974	2922
815.115	2963
815.256	2838
815.397	2845
815.539	2853
815.68	2766
815.821	2796
815.962	2922
816.103	2929
816.244	2853
816.385	2853
816.526	2914
816.666	2929
816.807	2735
816.948	2864
817.089	2902
817.23	2845
817.371	2819
817.512	2796
817.653	2830
817.793	2811
817.934	2883
818.075	3005
818.216	3017
818.356	3017
818.497	2864
818.638	2777
818.778	2838
818.919	2792
819.06	2735
819.2	2861
819.341	2811
819.481	2777
819.622	2941
819.762	3112
819.903	3066
820.043	2918
820.184	2872
820.324	2887
820.465	3017
820.605	3043
820.746	3005
820.886	2933
821.026	3081
821.167	3180
821.307	3264
821.447	3275
821.588	3237
821.728	3214
821.868	3157
822.008	3066
822.149	3203
822.289	3226
822.429	3089
822.569	3062
822.709	3165
822.849	3017
822.99	3043
823.13	3112
823.27	3218
823.41	3112
823.55	3127
823.69	3154
823.83	3203
823.97	3093
824.11	3001
824.25	3020
824.389	3062
824.529	3127
824.669	3043
824.809	3176
824.949	3268
825.089	3214
825.228	3146
825.368	3009
825.508	2982
825.648	2967
825.787	2982
825.927	3001
826.067	2960
826.206	2941
826.346	3020
826.485	3036
826.625	3112
826.765	3211
826.904	3214
827.044	3001
827.183	2944
827.323	2861
827.462	2956
827.601	2906
827.741	2872
827.88	2944
828.02	2861
828.159	2956
828.298	3028
828.437	3123
828.577	3047
828.716	3256
828.855	3085
828.994	2891
829.134	2880
829.273	2933
829.412	2891
829.551	2857
829.69	2880
829.829	2979
829.968	3146
830.107	3020
830.246	3039
830.385	2937
830.524	2902
830.663	2800
830.802	2731
830.941	2674
831.08	2625
831.219	2750
831.357	2746
831.496	2960
831.635	2678
831.774	2644
831.913	2670
832.051	2541
832.19	2587
832.329	2701
832.467	2507
832.606	2503
832.744	2564
832.883	2606
833.022	2556
833.16	2655
833.299	2674
833.437	2701
833.576	2689
833.714	2686
833.852	2708
833.991	2731
834.129	2807
834.267	2845
834.406	2823
834.544	2887
834.682	2861
834.821	2872
834.959	3058
835.097	2876
835.235	3051
835.373	2982
835.511	3017
835.65	2948
835.788	2922
835.926	2823
836.064	2792
836.202	2857
836.34	3062
836.478	3142
836.615	3051
836.753	3123
836.891	3161
837.029	3131
837.167	3100
837.305	3070
837.443	3036
837.58	2941
837.718	3108
837.856	3058
837.993	3043
838.131	3119
838.269	3058
838.406	3100
838.544	3097
838.681	2960
838.819	2891
838.956	2804
839.094	2830
839.231	2929
839.369	2982
839.506	3329
839.643	3230
839.781	3001
839.918	2941
840.055	3055
840.193	3036
840.33	3055
840.467	3116
840.604	3119
840.742	3386
840.879	3055
841.016	3062
841.153	3093
841.29	3313
841.427	3287
841.564	3226
841.701	3302
841.838	3218
841.975	3176
842.112	3203
842.249	3070
842.385	3036
842.522	3233
842.659	3077
842.796	3039
842.933	3093
843.069	3077
843.206	3077
843.343	3214
843.479	3100
843.616	3119
843.752	2902
843.889	2891
844.025	3039
844.162	2883
844.298	3081
844.435	2956
844.571	2891
844.708	3077
844.844	3207
844.98	3199
845.117	3195
845.253	3039
845.389	2982
845.525	3119
845.661	3093
845.798	3024
845.934	3104
846.07	3024
846.206	3195
846.342	3279
846.478	3199
846.614	3093
846.75	3085
846.886	2994
847.022	3249
847.158	3108
847.294	3157
847.429	3195
847.565	3188
847.701	3443
847.837	3001
847.972	2994
848.108	3150
848.244	3150
848.379	3001
848.515	2933
848.65	2952
848.786	2948
848.921	2982
849.057	3097
849.192	3176
849.328	3070
849.463	3047
849.598	3005
849.734	3039
849.869	2979
850.004	2925
850.14	2948
850.275	2902
850.41	2826
850.545	2857
850.68	2914
850.815	2967
850.95	2941
851.085	3184
851.22	3131
851.355	3024
851.49	2963
851.625	2975
851.76	2986
851.895	2933
852.03	2899
852.165	3043
852.299	3112
852.434	3199
852.569	3123
852.703	3138
852.838	3264
852.973	3294
853.107	3363
853.242	3127
853.376	3100
853.511	2971
853.645	3028
853.78	3253
853.914	3112
854.048	3081
854.183	3112
854.317	3180
854.451	3268
854.585	3119
854.72	3093
854.854	3207
854.988	3028
855.122	3062
855.256	2986
855.39	3108
855.524	3230
855.658	3154
855.792	3161
855.926	3214
856.06	3157
856.194	3279
856.327	3161
856.461	3085
856.595	3066
856.729	3062
856.862	3188
856.996	3127
857.13	3199
857.263	3211
857.397	3294
857.53	3161
857.664	3184
857.797	3222
857.931	3256
858.064	3146
858.197	3188
858.331	3135
858.464	3100
858.597	3047
858.731	3116
858.864	3108
858.997	3051
859.13	3176
859.263	3184
859.396	3188
859.529	3104
859.662	3058
859.795	3043
859.928	3108
860.061	3275
860.194	3291
860.327	3131
860.46	3116
860.592	3260
860.725	3241
860.858	3214
860.99	3085
861.123	3066
861.256	3039
861.388	3135
861.521	3880
861.653	3024
861.786	2990
861.918	2998
862.05	3070
862.183	3089
862.315	3150
862.447	3157
862.58	3108
862.712	2918
862.844	2849
862.976	2967
863.108	3005
863.24	3412
863.372	2853
863.504	2952
863.636	2944
863.768	3047
863.9	2963
864.032	2876
864.164	2967
864.296	3001
864.428	3085
864.559	3104
864.691	3062
864.823	3093
864.954	3036
865.086	3039
865.217	2994
865.349	2941
865.48	2948
865.612	3032
865.743	3180
865.875	3039
866.006	2925
866.137	3001
866.269	2933
866.4	2960
866.531	2910
866.662	2902
866.793	2864
866.924	2891
867.055	2944
867.186	2895
867.317	2883
867.448	2842
867.579	2861
867.71	2823
867.841	2842
867.972	2918
868.103	2902
868.233	2864
868.364	2868
868.495	2914
868.625	3066
868.756	3169
868.886	2971
869.017	2998
869.147	3161
869.278	3176
869.408	3005
869.539	3001
869.669	3097
869.799	3032
869.929	3146
870.06	3116
870.19	3291
870.32	3321
870.45	3302
870.58	3378
870.71	3435
870.84	3454
870.97	3283
871.1	3192
871.23	3462
871.36	3466
871.489	3355
871.619	3386
871.749	3378
871.879	3424
872.008	3466
872.138	3329
872.267	3283
872.397	3119
872.526	3112
872.656	3028
872.785	3062
872.915	3249
873.044	3268
873.173	3146
873.303	3245
873.432	3207
873.561	3230
873.69	3169
873.819	3131
873.948	3192
874.077	3085
874.206	3020
874.335	3051
874.464	3188
874.593	3298
874.722	3211
874.851	3416
874.979	3313
875.108	3253
875.237	3184
875.365	3157
875.494	3135
875.623	3226
875.751	3070
875.88	3123
876.008	3176
876.136	3192
876.265	3401
876.393	3534
876.521	3397
876.65	3382
876.778	3370
876.906	3233
877.034	3188
877.162	3211
877.29	3176
877.418	3253
877.546	3214
877.674	3260
877.802	3241
877.93	3199
878.058	3173
878.185	3093
878.313	3176
878.441	3237
878.568	3074
878.696	3154
878.824	3249
878.951	3279
879.079	3450
879.206	3587
879.333	3424
879.461	3298
879.588	3325
879.715	3485
879.842	3591
879.97	3325
880.097	3135
880.224	3138
880.351	3199
880.478	3237
880.605	3211
880.732	3154
880.859	3473
880.986	3283
881.112	3340
881.239	3218
881.366	3119
881.493	3058
881.619	3028
881.746	3074
881.872	3089
881.999	3081
882.125	3154
882.252	3237
882.378	3313
882.505	3401
882.631	3279
882.757	3146
882.883	3184
883.01	3188
883.136	3135
883.262	3093
883.388	3093
883.514	3310
883.64	3367
883.766	3294
883.892	3192
884.018	3256
884.143	3389
884.269	3576
884.395	3214
884.52	3169
884.646	3184
884.772	3108
884.897	3097
885.023	3211
885.148	3344
885.274	3397
885.399	3374
885.524	3275
885.65	3287
885.775	3272
885.9	3226
886.025	3431
886.15	3329
886.275	3279
886.4	3256
886.525	3313
886.65	3245
886.775	3287
886.9	3492
887.025	3595
887.149	3424
887.274	3260
887.399	3131
887.523	3176
887.648	3150
887.773	3169
887.897	3401
888.021	3397
888.146	3321
888.27	3401
888.395	3507
888.519	3466
888.643	3420
888.767	3477
888.891	3249
889.015	3226
889.139	3298
889.263	3253
889.387	3374
889.511	3485
889.635	3450
889.759	3283
889.883	3291
890.006	3363
890.13	3477
890.254	3260
890.377	3306
890.501	3195
890.624	3180
890.748	3275
890.871	3188
890.995	3116
891.118	3013
891.241	3176
891.364	3203
891.488	3291
891.611	3142
891.734	3199
891.857	3249
891.98	3260
892.103	3363
892.226	3291
892.349	3233
892.471	3077
892.594	3207
892.717	3306
892.839	3245
892.962	3298
893.085	3325
893.207	3306
893.33	3154
893.452	3211
893.575	3355
893.697	3218
893.819	3485
893.941	3469
894.064	3454
894.186	3256
894.308	3275
894.43	3405
894.552	3515
894.674	3454
894.796	3256
894.918	3313
895.04	3291
895.161	3389
895.283	3393
895.405	3279
895.526	3325
895.648	3386
895.769	3405
895.891	3447
896.012	3462
896.134	3477
896.255	3389
896.376	3386
896.498	3348
896.619	3443
896.74	3344
896.861	3363
896.982	3675
897.103	3838
897.224	3629
897.345	3469
897.466	3443
897.587	3477
897.708	3591
897.828	3584
897.949	3443
898.07	3340
898.19	3431
898.311	3587
898.431	3454
898.552	3511
898.672	3614
898.792	3584
898.913	3488
899.033	3412
899.153	3294
899.273	3203
899.393	3260
899.513	3291
899.633	3348
899.753	3321
899.873	3294
899.993	3405
900.113	3302
900.232	3367
900.352	3336
900.472	3302
900.591	3233
900.711	3291
900.83	3237
900.95	3401
901.069	3431
901.189	3367
901.308	3195
901.427	3123
901.546	3207
901.665	3287
901.784	3325
901.904	3218
902.023	3127
902.141	3043
902.26	2990
902.379	3150
902.498	3089
902.617	3081
902.735	3237
902.854	3256
902.973	3176
903.091	3024
903.21	3028
903.328	3127
903.446	3100
903.565	3093
903.683	3176
903.801	3135
903.919	3218
904.038	3260
904.156	3169
904.274	3245
904.392	3226
904.51	3291
904.627	3302
904.745	3450
904.863	3477
904.981	3245
905.098	3173
905.216	3256
905.334	3336
905.451	3298
905.569	3306
905.686	3412
905.803	3420
905.921	3260
906.038	3416
906.155	3325
906.272	3268
906.389	3336
906.506	3222
906.623	3268
906.74	3283
906.857	3188
906.974	3222
907.091	3416
907.208	3568
907.324	3469
907.441	3363
907.557	3230
907.674	3192
907.79	3184
907.907	3275
908.023	3386
908.139	3363
908.256	3302
908.372	3348
908.488	3340
908.604	3306
908.72	3253
908.836	3272
908.952	3283
909.068	3340
909.184	3507
909.3	3359
909.415	3507
909.531	3458
909.647	3264
909.762	3233
909.878	3279
909.993	3313
910.108	3344
910.224	3329
910.339	3424
910.454	3344
910.57	3272
910.685	3230
910.8	3580
910.915	3526
911.03	3439
911.145	3192
911.259	3291
911.374	3302
911.489	3241
911.604	3188
911.718	3142
911.833	3157
911.947	3058
912.062	3005
912.176	3176
912.291	3184
912.405	3180
912.519	3401
912.633	3454
912.748	3302
912.862	3294
912.976	3146
913.09	3062
913.204	3131
913.318	3218
913.431	3321
913.545	3317
913.659	3409
913.772	3367
913.886	3218
914	3199
914.113	3355
914.226	3443
914.34	3336
914.453	3180
914.566	3405
914.68	3332
914.793	3329
914.906	3108
915.019	3169
915.132	3089
915.245	3173
915.358	3222
915.47	3176
915.583	3272
915.696	3302
915.809	3412
915.921	3424
916.034	3264
916.146	3249
916.259	3226
916.371	3359
916.483	3370
916.595	3256
916.708	3329
916.82	3321
916.932	3321
917.044	3348
917.156	3355
917.268	3230
917.38	3317
917.491	3279
917.603	3370
917.715	3450
917.826	3458
917.938	3359
918.049	3272
918.161	3435
918.272	3549
918.384	3553
918.495	3435
918.606	3340
918.717	3287
918.828	3378
918.939	3443
919.05	3344
919.161	3382
919.272	3173
919.383	3287
919.494	3481
919.604	3633
919.715	3458
919.826	3382
919.936	3443
920.047	3572
920.157	3500
920.267	3698
920.378	3660
920.488	3568
920.598	3778
920.708	3949
920.818	3785
920.928	3823
921.038	3994
921.148	3960
921.258	3686
921.368	3625
921.477	3545
921.587	3496
921.697	3466
921.806	3610
921.916	3523
922.025	3302
922.134	3382
922.244	3313
922.353	3382
922.462	3253
922.571	3230
922.68	3100
922.789	3074
922.898	3108
923.007	3104
923.116	3176
923.224	3184
923.333	3157
923.442	3104
923.55	3085
923.659	3138
923.767	3230
923.876	3104
923.984	3214
924.092	3074
924.201	3188
924.309	3222
924.417	3264
924.525	3169
924.633	3245
924.741	4177
924.849	3062
924.956	3253
925.064	3081
925.172	3062
925.279	3085
925.387	3180
925.494	3184
925.602	3344
925.709	3344
925.816	3195
925.924	3279
926.031	3397
926.138	3294
926.245	3355
926.352	3272
926.459	3393
926.566	3458
926.673	3298
926.779	3256
926.886	3249
926.993	3154
927.099	3119
927.206	3108
927.312	3112
927.419	3249
927.525	3184
927.631	3287
927.737	3154
927.843	3104
927.95	3017
928.056	3135
928.162	3184
928.267	3256
928.373	3873
928.479	3317
928.585	3043
928.69	3218
928.796	3275
928.901	3157
929.007	3020
929.112	3192
929.218	3154
929.323	3131
929.428	3127
929.533	3291
929.638	3138
929.743	3146
929.848	3241
929.953	3222
930.058	3192
930.163	3009
930.267	3039
930.372	3161
930.477	3062
930.581	3272
930.685	3184
930.79	3066
930.894	3127
930.998	3104
931.103	3249
931.207	2971
931.311	2960
931.415	2918
931.519	2766
931.623	2754
