Data from test_V78500241_818.txt Node
Date: Fri Mar 25 16:20:52 CST 2022
User: usil
Spectrometer: V785-0024
Trigger mode: 0
Integration Time (sec): 4.000000E-1
Scans to average: 1
Nonlinearity correction enabled: false
Boxcar width: 0
Storing dark spectrum: false
XAxis mode: Wavelengths
Number of Pixels in Spectrum: 1024
>>>>>Begin Spectral Data<<<<<
801.071	2929
801.214	2922
801.356	2891
801.499	2872
801.641	2826
801.783	2895
801.926	3020
802.068	2975
802.211	2986
802.353	3036
802.496	2937
802.638	2967
802.78	3032
802.923	3104
803.065	3005
803.208	2891
803.35	2944
803.492	2922
803.635	2925
803.777	2758
803.919	2880
804.061	3192
804.204	2967
804.346	2929
804.488	2811
804.63	2979
804.773	2872
804.915	2906
805.057	3093
805.199	2952
805.341	2971
805.483	3013
805.626	3013
805.768	2952
805.91	3100
806.052	3097
806.194	3032
806.336	3211
806.478	3009
806.62	2963
806.762	2998
806.904	3062
807.046	3199
807.188	2998
807.33	2918
807.472	3032
807.614	2899
807.756	2971
807.898	2956
808.04	2902
808.182	3013
808.324	2975
808.465	2883
808.607	2902
808.749	2796
808.891	2826
809.033	2990
809.174	2998
809.316	2857
809.458	2902
809.6	2796
809.741	2815
809.883	2796
810.025	2838
810.166	2883
810.308	2868
810.45	2891
810.591	2769
810.733	2731
810.875	2853
811.016	2766
811.158	2750
811.299	2815
811.441	2925
811.582	2910
811.724	2834
811.865	2838
812.007	2914
812.148	2899
812.29	2834
812.431	2906
812.573	2933
812.714	2960
812.855	3047
812.997	3028
813.138	3150
813.279	3024
813.421	2963
813.562	2925
813.703	2887
813.845	2895
813.986	2792
814.127	2743
814.268	2800
814.41	2807
814.551	2864
814.692	2872
814.833	2823
814.974	2914
815.115	2979
815.256	2849
815.397	2857
815.539	2861
815.68	2777
815.821	2815
815.962	2941
816.103	2922
816.244	2895
816.385	2857
816.526	2963
816.666	2937
816.807	2746
816.948	2891
817.089	2918
817.23	2861
817.371	2781
817.512	2781
817.653	2815
817.793	2838
817.934	2861
818.075	2975
818.216	3028
818.356	3009
818.497	2857
818.638	2785
818.778	2823
818.919	2804
819.06	2777
819.2	2845
819.341	2823
819.481	2830
819.622	2891
819.762	3112
819.903	3032
820.043	2914
820.184	2880
820.324	2880
820.465	3017
820.605	3017
820.746	3032
820.886	2944
821.026	3138
821.167	3146
821.307	3207
821.447	3272
821.588	3230
821.728	3180
821.868	3199
822.008	3089
822.149	3173
822.289	3245
822.429	3081
822.569	3097
822.709	3142
822.849	3020
822.99	3055
823.13	3161
823.27	3195
823.41	3070
823.55	3157
823.69	3157
823.83	3161
823.97	3097
824.11	2994
824.25	2998
824.389	3055
824.529	3142
824.669	3051
824.809	3161
824.949	3272
825.089	3214
825.228	3173
825.368	3024
825.508	2941
825.648	2952
825.787	2960
825.927	3001
826.067	2956
826.206	2975
826.346	3055
826.485	3043
826.625	3116
826.765	3256
826.904	3173
827.044	2986
827.183	2963
827.323	2864
827.462	2986
827.601	2941
827.741	2944
827.88	2952
828.02	2857
828.159	2944
828.298	3032
828.437	3116
828.577	3032
828.716	3211
828.855	3066
828.994	2914
829.134	2895
829.273	2956
829.412	2880
829.551	2857
829.69	2902
829.829	2963
829.968	3146
830.107	3013
830.246	2979
830.385	2941
830.524	2876
830.663	2804
830.802	2716
830.941	2678
831.08	2667
831.219	2769
831.357	2739
831.496	2937
831.635	2724
831.774	2648
831.913	2651
832.051	2545
832.19	2571
832.329	2689
832.467	2518
832.606	2480
832.744	2560
832.883	2571
833.022	2583
833.16	2667
833.299	2670
833.437	2686
833.576	2686
833.714	2705
833.852	2724
833.991	2785
834.129	2838
834.267	2811
834.406	2777
834.544	2864
834.682	2895
834.821	2876
834.959	3062
835.097	2864
835.235	3058
835.373	2956
835.511	2990
835.65	2944
835.788	2975
835.926	2815
836.064	2830
836.202	2857
836.34	3097
836.478	3146
836.615	3028
836.753	3119
836.891	3211
837.029	3157
837.167	3108
837.305	3055
837.443	3051
837.58	2952
837.718	3108
837.856	3043
837.993	3032
838.131	3116
838.269	3058
838.406	3089
838.544	3097
838.681	2937
838.819	2933
838.956	2838
839.094	2807
839.231	2891
839.369	3009
839.506	3336
839.643	3203
839.781	2986
839.918	2963
840.055	3032
840.193	3043
840.33	3066
840.467	3108
840.604	3119
840.742	3405
840.879	3036
841.016	3062
841.153	3127
841.29	3336
841.427	3332
841.564	3275
841.701	3313
841.838	3203
841.975	3146
842.112	3211
842.249	3058
842.385	3058
842.522	3264
842.659	3081
842.796	3058
842.933	3085
843.069	3024
843.206	3036
843.343	3203
843.479	3100
843.616	3138
843.752	2910
843.889	2864
844.025	3058
844.162	2895
844.298	3062
844.435	2941
844.571	2914
844.708	3066
844.844	3184
844.98	3188
845.117	3195
845.253	3047
845.389	3036
845.525	3119
845.661	3077
845.798	3047
845.934	3104
846.07	3028
846.206	3226
846.342	3302
846.478	3207
846.614	3047
846.75	3047
846.886	3039
847.022	3218
847.158	3150
847.294	3237
847.429	3253
847.565	3214
847.701	3492
847.837	3047
847.972	2975
848.108	3108
848.244	3131
848.379	2994
848.515	2910
848.65	2941
848.786	3001
848.921	3005
849.057	3108
849.192	3131
849.328	3081
849.463	3127
849.598	3081
849.734	3089
849.869	2971
850.004	2922
850.14	2963
850.275	2906
850.41	2834
850.545	2872
850.68	2963
850.815	2910
850.95	2952
851.085	3176
851.22	3089
851.355	2982
851.49	3020
851.625	2971
851.76	3028
851.895	2933
852.03	2918
852.165	3017
852.299	3119
852.434	3184
852.569	3154
852.703	3131
852.838	3249
852.973	3351
853.107	3317
853.242	3150
853.376	3074
853.511	3005
853.645	2994
853.78	3233
853.914	3131
854.048	3104
854.183	3066
854.317	3119
854.451	3283
854.585	3131
854.72	3047
854.854	3180
854.988	3024
855.122	3097
855.256	2979
855.39	3097
855.524	3222
855.658	3165
855.792	3142
855.926	3173
856.06	3203
856.194	3283
856.327	3157
856.461	3104
856.595	3062
856.729	3081
856.862	3230
856.996	3131
857.13	3207
857.263	3241
857.397	3287
857.53	3150
857.664	3199
857.797	3241
857.931	3253
858.064	3154
858.197	3214
858.331	3097
858.464	3074
858.597	3017
858.731	3154
858.864	3123
858.997	3085
859.13	3176
859.263	3199
859.396	3207
859.529	3047
859.662	3077
859.795	3020
859.928	3116
860.061	3260
860.194	3283
860.327	3161
860.46	3066
860.592	3199
860.725	3230
860.858	3268
860.99	3093
861.123	3081
861.256	3062
861.388	3116
861.521	3945
861.653	3032
861.786	2979
861.918	3036
862.05	3062
862.183	3093
862.315	3154
862.447	3203
862.58	3108
862.712	2941
862.844	2895
862.976	3001
863.108	2956
863.24	3302
863.372	2902
863.504	2963
863.636	2925
863.768	3020
863.9	2963
864.032	2891
864.164	2941
864.296	2990
864.428	3085
864.559	3085
864.691	3085
864.823	3062
864.954	3032
865.086	3043
865.217	2998
865.349	2933
865.48	2963
865.612	2986
865.743	3173
865.875	3009
866.006	2967
866.137	2960
866.269	2960
866.4	2952
866.531	2918
866.662	2899
866.793	2906
866.924	2910
867.055	2960
867.186	2918
867.317	2906
867.448	2857
867.579	2861
867.71	2845
867.841	2823
867.972	2933
868.103	2838
868.233	2868
868.364	2834
868.495	2933
868.625	3116
868.756	3138
868.886	2979
869.017	3017
869.147	3176
869.278	3211
869.408	3039
869.539	3013
869.669	3062
869.799	3043
869.929	3123
870.06	3116
870.19	3321
870.32	3264
870.45	3275
870.58	3359
870.71	3424
870.84	3458
870.97	3264
871.1	3260
871.23	3458
871.36	3481
871.489	3359
871.619	3443
871.749	3393
871.879	3428
872.008	3485
872.138	3329
872.267	3260
872.397	3123
872.526	3097
872.656	2998
872.785	3119
872.915	3233
873.044	3298
873.173	3188
873.303	3272
873.432	3245
873.561	3226
873.69	3165
873.819	3104
873.948	3199
874.077	3089
874.206	3032
874.335	3097
874.464	3195
874.593	3348
874.722	3272
874.851	3370
874.979	3294
875.108	3306
875.237	3192
875.365	3157
875.494	3142
875.623	3249
875.751	3085
875.88	3100
876.008	3195
876.136	3226
876.265	3344
876.393	3488
876.521	3386
876.65	3416
876.778	3313
876.906	3233
877.034	3176
877.162	3241
877.29	3184
877.418	3222
877.546	3214
877.674	3218
877.802	3256
877.93	3214
878.058	3135
878.185	3089
878.313	3184
878.441	3207
878.568	3116
878.696	3138
878.824	3241
878.951	3306
879.079	3439
879.206	3595
879.333	3431
879.461	3310
879.588	3332
879.715	3481
879.842	3599
879.97	3374
880.097	3135
880.224	3169
880.351	3176
880.478	3203
880.605	3165
880.732	3169
880.859	3485
880.986	3310
881.112	3321
881.239	3188
881.366	3108
881.493	3058
881.619	3047
881.746	3104
881.872	3085
881.999	3058
882.125	3131
882.252	3245
882.378	3306
882.505	3447
882.631	3287
882.757	3154
882.883	3214
883.01	3207
883.136	3176
883.262	3123
883.388	3108
883.514	3325
883.64	3370
883.766	3332
883.892	3192
884.018	3203
884.143	3397
884.269	3534
884.395	3211
884.52	3138
884.646	3211
884.772	3108
884.897	3123
885.023	3211
885.148	3325
885.274	3420
885.399	3370
885.524	3291
885.65	3256
885.775	3321
885.9	3272
886.025	3386
886.15	3374
886.275	3317
886.4	3237
886.525	3313
886.65	3233
886.775	3291
886.9	3492
887.025	3656
887.149	3409
887.274	3241
887.399	3214
887.523	3207
887.648	3180
887.773	3195
887.897	3363
888.021	3397
888.146	3272
888.27	3431
888.395	3488
888.519	3409
888.643	3443
888.767	3447
888.891	3325
889.015	3237
889.139	3287
889.263	3222
889.387	3435
889.511	3496
889.635	3473
889.759	3317
889.883	3268
890.006	3401
890.13	3473
890.254	3306
890.377	3351
890.501	3195
890.624	3173
890.748	3275
890.871	3199
890.995	3100
891.118	3055
891.241	3192
891.364	3203
891.488	3302
891.611	3165
891.734	3214
891.857	3287
891.98	3275
892.103	3344
892.226	3264
892.349	3230
892.471	3131
892.594	3256
892.717	3294
892.839	3226
892.962	3291
893.085	3344
893.207	3306
893.33	3180
893.452	3214
893.575	3370
893.697	3279
893.819	3462
893.941	3462
894.064	3428
894.186	3230
894.308	3233
894.43	3420
894.552	3526
894.674	3424
894.796	3264
894.918	3260
895.04	3287
895.161	3416
895.283	3363
895.405	3283
895.526	3386
895.648	3428
895.769	3428
895.891	3443
896.012	3443
896.134	3454
896.255	3420
896.376	3393
896.498	3382
896.619	3405
896.74	3332
896.861	3389
896.982	3671
897.103	3835
897.224	3580
897.345	3469
897.466	3420
897.587	3469
897.708	3595
897.828	3511
897.949	3412
898.07	3336
898.19	3447
898.311	3587
898.431	3389
898.552	3526
898.672	3599
898.792	3610
898.913	3526
899.033	3439
899.153	3298
899.273	3253
899.393	3317
899.513	3317
899.633	3321
899.753	3302
899.873	3313
899.993	3370
900.113	3340
900.232	3397
900.352	3329
900.472	3287
900.591	3199
900.711	3321
900.83	3237
900.95	3424
901.069	3473
901.189	3344
901.308	3154
901.427	3138
901.546	3207
901.665	3294
901.784	3355
901.904	3176
902.023	3127
902.141	3020
902.26	3032
902.379	3112
902.498	3077
902.617	3070
902.735	3226
902.854	3226
902.973	3180
903.091	3070
903.21	3051
903.328	3108
903.446	3074
903.565	3089
903.683	3188
903.801	3097
903.919	3253
904.038	3340
904.156	3138
904.274	3279
904.392	3233
904.51	3321
904.627	3367
904.745	3424
904.863	3462
904.981	3294
905.098	3161
905.216	3218
905.334	3264
905.451	3313
905.569	3279
905.686	3409
905.803	3428
905.921	3283
906.038	3412
906.155	3348
906.272	3287
906.389	3294
906.506	3192
906.623	3253
906.74	3214
906.857	3188
906.974	3283
907.091	3435
907.208	3545
907.324	3481
907.441	3382
907.557	3211
907.674	3203
907.79	3230
907.907	3279
908.023	3370
908.139	3344
908.256	3359
908.372	3382
908.488	3306
908.604	3256
908.72	3207
908.836	3279
908.952	3226
909.068	3317
909.184	3473
909.3	3416
909.415	3519
909.531	3488
909.647	3294
909.762	3279
909.878	3256
909.993	3340
910.108	3340
910.224	3332
910.339	3401
910.454	3306
910.57	3348
910.685	3230
910.8	3568
910.915	3507
911.03	3389
911.145	3283
911.259	3279
911.374	3348
911.489	3230
911.604	3218
911.718	3127
911.833	3176
911.947	3024
912.062	2963
912.176	3135
912.291	3207
912.405	3211
912.519	3447
912.633	3485
912.748	3340
912.862	3253
912.976	3176
913.09	3028
913.204	3119
913.318	3226
913.431	3306
913.545	3317
913.659	3393
913.772	3325
913.886	3218
914	3203
914.113	3367
914.226	3389
914.34	3382
914.453	3256
914.566	3424
914.68	3302
914.793	3272
914.906	3157
915.019	3089
915.132	3055
915.245	3146
915.358	3192
915.47	3233
915.583	3275
915.696	3306
915.809	3447
915.921	3428
916.034	3233
916.146	3283
916.259	3211
916.371	3393
916.483	3348
916.595	3260
916.708	3298
916.82	3321
916.932	3306
917.044	3389
917.156	3317
917.268	3253
917.38	3291
917.491	3275
917.603	3367
917.715	3443
917.826	3447
917.938	3370
918.049	3245
918.161	3439
918.272	3584
918.384	3576
918.495	3488
918.606	3351
918.717	3268
918.828	3416
918.939	3424
919.05	3264
919.161	3348
919.272	3195
919.383	3272
919.494	3519
919.604	3644
919.715	3511
919.826	3382
919.936	3447
920.047	3572
920.157	3519
920.267	3770
920.378	3599
920.488	3603
920.598	3762
920.708	3960
920.818	3835
920.928	3819
921.038	4006
921.148	3979
921.258	3701
921.368	3606
921.477	3561
921.587	3485
921.697	3466
921.806	3622
921.916	3477
922.025	3340
922.134	3317
922.244	3325
922.353	3447
922.462	3279
922.571	3233
922.68	3100
922.789	3055
922.898	3150
923.007	3081
923.116	3211
923.224	3157
923.333	3176
923.442	3119
923.55	3108
923.659	3161
923.767	3195
923.876	3116
923.984	3241
924.092	3104
924.201	3203
924.309	3256
924.417	3249
924.525	3222
924.633	3253
924.741	4200
924.849	3039
924.956	3245
925.064	3074
925.172	3043
925.279	3108
925.387	3173
925.494	3207
925.602	3359
925.709	3306
925.816	3207
925.924	3279
926.031	3378
926.138	3291
926.245	3355
926.352	3222
926.459	3397
926.566	3473
926.673	3294
926.779	3256
926.886	3291
926.993	3192
927.099	3169
927.206	3119
927.312	3131
927.419	3253
927.525	3211
927.631	3336
927.737	3161
927.843	3150
927.95	3009
928.056	3104
928.162	3131
928.267	3237
928.373	3759
928.479	3325
928.585	3051
928.69	3218
928.796	3294
928.901	3154
929.007	3036
929.112	3226
929.218	3188
929.323	3154
929.428	3154
929.533	3302
929.638	3108
929.743	3146
929.848	3268
929.953	3226
930.058	3157
930.163	3024
930.267	3024
930.372	3230
930.477	3020
930.581	3340
930.685	3199
930.79	3070
930.894	3123
930.998	3097
931.103	3283
931.207	2960
931.311	2971
931.415	2941
931.519	2811
931.623	2819
