Data from test_V78500241_1141.txt Node
Date: Fri Mar 25 16:23:06 CST 2022
User: usil
Spectrometer: V785-0024
Trigger mode: 0
Integration Time (sec): 4.000000E-1
Scans to average: 1
Nonlinearity correction enabled: false
Boxcar width: 0
Storing dark spectrum: false
XAxis mode: Wavelengths
Number of Pixels in Spectrum: 1024
>>>>>Begin Spectral Data<<<<<
801.071	2910
801.214	2941
801.356	2864
801.499	2944
801.641	2868
801.783	2952
801.926	3036
802.068	2960
802.211	2971
802.353	3051
802.496	2933
802.638	3020
802.78	3024
802.923	3097
803.065	2971
803.208	2902
803.35	2895
803.492	2925
803.635	2880
803.777	2766
803.919	2838
804.061	3203
804.204	2941
804.346	2880
804.488	2853
804.63	2952
804.773	2868
804.915	2948
805.057	3112
805.199	2922
805.341	2952
805.483	3036
805.626	2979
805.768	2956
805.91	3081
806.052	3142
806.194	3074
806.336	3222
806.478	3020
806.62	2933
806.762	2948
806.904	3051
807.046	3127
807.188	2963
807.33	2899
807.472	2971
807.614	2929
807.756	3005
807.898	2922
808.04	2868
808.182	2979
808.324	2941
808.465	2891
808.607	2883
808.749	2777
808.891	2823
809.033	2941
809.174	2948
809.316	2895
809.458	2883
809.6	2788
809.741	2754
809.883	2777
810.025	2853
810.166	2838
810.308	2807
810.45	2842
810.591	2746
810.733	2769
810.875	2815
811.016	2785
811.158	2781
811.299	2788
811.441	2937
811.582	2883
811.724	2819
811.865	2792
812.007	2914
812.148	2887
812.29	2872
812.431	2857
812.573	2937
812.714	2910
812.855	3089
812.997	3020
813.138	3112
813.279	3017
813.421	3020
813.562	2941
813.703	2902
813.845	2887
813.986	2766
814.127	2735
814.268	2842
814.41	2845
814.551	2830
814.692	2887
814.833	2796
814.974	2864
815.115	2895
815.256	2849
815.397	2811
815.539	2880
815.68	2769
815.821	2762
815.962	2971
816.103	2880
816.244	2853
816.385	2872
816.526	2941
816.666	2891
816.807	2750
816.948	2899
817.089	2910
817.23	2819
817.371	2788
817.512	2762
817.653	2853
817.793	2815
817.934	2891
818.075	2944
818.216	2994
818.356	3028
818.497	2887
818.638	2788
818.778	2807
818.919	2762
819.06	2766
819.2	2891
819.341	2792
819.481	2800
819.622	2872
819.762	3089
819.903	3051
820.043	2933
820.184	2891
820.324	2876
820.465	3005
820.605	2979
820.746	3020
820.886	2902
821.026	3104
821.167	3146
821.307	3287
821.447	3287
821.588	3249
821.728	3207
821.868	3199
822.008	3036
822.149	3157
822.289	3222
822.429	3100
822.569	3077
822.709	3188
822.849	3001
822.99	3032
823.13	3161
823.27	3199
823.41	3112
823.55	3150
823.69	3127
823.83	3161
823.97	3123
824.11	2960
824.25	2952
824.389	3058
824.529	3119
824.669	3062
824.809	3188
824.949	3226
825.089	3214
825.228	3123
825.368	2994
825.508	2979
825.648	2971
825.787	3043
825.927	3017
826.067	2967
826.206	2990
826.346	3036
826.485	3070
826.625	3066
826.765	3256
826.904	3211
827.044	2990
827.183	2918
827.323	2868
827.462	2986
827.601	2891
827.741	2925
827.88	2952
828.02	2834
828.159	2971
828.298	3020
828.437	3097
828.577	3055
828.716	3264
828.855	3020
828.994	2887
829.134	2872
829.273	2887
829.412	2887
829.551	2842
829.69	2864
829.829	2975
829.968	3116
830.107	3013
830.246	3024
830.385	2891
830.524	2876
830.663	2804
830.802	2724
830.941	2648
831.08	2670
831.219	2762
831.357	2731
831.496	2925
831.635	2750
831.774	2613
831.913	2659
832.051	2545
832.19	2552
832.329	2686
832.467	2537
832.606	2484
832.744	2571
832.883	2579
833.022	2598
833.16	2632
833.299	2686
833.437	2697
833.576	2667
833.714	2754
833.852	2731
833.991	2773
834.129	2830
834.267	2819
834.406	2773
834.544	2819
834.682	2880
834.821	2853
834.959	3039
835.097	2891
835.235	3005
835.373	2994
835.511	3005
835.65	2975
835.788	2933
835.926	2826
836.064	2815
836.202	2815
836.34	3062
836.478	3142
836.615	3036
836.753	3097
836.891	3203
837.029	3142
837.167	3100
837.305	3028
837.443	3070
837.58	2933
837.718	3135
837.856	3036
837.993	3043
838.131	3116
838.269	3066
838.406	3051
838.544	3051
838.681	2922
838.819	2883
838.956	2811
839.094	2823
839.231	2941
839.369	3017
839.506	3351
839.643	3211
839.781	2982
839.918	2967
840.055	3039
840.193	3017
840.33	3085
840.467	3047
840.604	3127
840.742	3409
840.879	3036
841.016	3017
841.153	3123
841.29	3336
841.427	3233
841.564	3260
841.701	3287
841.838	3188
841.975	3154
842.112	3211
842.249	3055
842.385	3058
842.522	3268
842.659	3093
842.796	3020
842.933	3055
843.069	3047
843.206	3013
843.343	3180
843.479	3062
843.616	3100
843.752	2895
843.889	2830
844.025	3081
844.162	2834
844.298	3104
844.435	2967
844.571	2918
844.708	3081
844.844	3192
844.98	3211
845.117	3165
845.253	3036
845.389	3020
845.525	3108
845.661	3112
845.798	3020
845.934	3104
846.07	3051
846.206	3211
846.342	3321
846.478	3253
846.614	3074
846.75	3036
846.886	2990
847.022	3226
847.158	3097
847.294	3195
847.429	3192
847.565	3188
847.701	3507
847.837	3020
847.972	2971
848.108	3176
848.244	3154
848.379	2979
848.515	2922
848.65	2906
848.786	2933
848.921	3001
849.057	3066
849.192	3097
849.328	3066
849.463	3127
849.598	3055
849.734	3009
849.869	2979
850.004	2902
850.14	2960
850.275	2929
850.41	2845
850.545	2861
850.68	2925
850.815	2956
850.95	2960
851.085	3192
851.22	3081
851.355	2990
851.49	2986
851.625	2990
851.76	3013
851.895	2922
852.03	2925
852.165	3020
852.299	3108
852.434	3169
852.569	3131
852.703	3161
852.838	3226
852.973	3294
853.107	3302
853.242	3165
853.376	3112
853.511	2975
853.645	3032
853.78	3233
853.914	3108
854.048	3089
854.183	3085
854.317	3146
854.451	3260
854.585	3176
854.72	3100
854.854	3233
854.988	3051
855.122	3089
855.256	2986
855.39	3112
855.524	3230
855.658	3161
855.792	3131
855.926	3203
856.06	3192
856.194	3279
856.327	3157
856.461	3051
856.595	3070
856.729	3093
856.862	3199
856.996	3169
857.13	3214
857.263	3226
857.397	3233
857.53	3131
857.664	3173
857.797	3211
857.931	3222
858.064	3169
858.197	3214
858.331	3112
858.464	3104
858.597	2998
858.731	3135
858.864	3165
858.997	3100
859.13	3154
859.263	3173
859.396	3192
859.529	3074
859.662	3043
859.795	3058
859.928	3131
860.061	3237
860.194	3306
860.327	3119
860.46	3081
860.592	3249
860.725	3218
860.858	3249
860.99	3077
861.123	3081
861.256	3062
861.388	3131
861.521	3743
861.653	3024
861.786	2982
861.918	2971
862.05	3020
862.183	3093
862.315	3146
862.447	3169
862.58	3104
862.712	2925
862.844	2845
862.976	3013
863.108	3024
863.24	3306
863.372	2891
863.504	2963
863.636	2944
863.768	3032
863.9	2929
864.032	2906
864.164	2963
864.296	3024
864.428	3077
864.559	3116
864.691	3097
864.823	3066
864.954	3005
865.086	3028
865.217	2922
865.349	2956
865.48	2975
865.612	3017
865.743	3169
865.875	2982
866.006	2925
866.137	2967
866.269	2902
866.4	2922
866.531	2902
866.662	2872
866.793	2872
866.924	2864
867.055	2956
867.186	2914
867.317	2891
867.448	2842
867.579	2826
867.71	2845
867.841	2804
867.972	2887
868.103	2868
868.233	2868
868.364	2876
868.495	2872
868.625	3055
868.756	3138
868.886	2956
869.017	3001
869.147	3135
869.278	3127
869.408	3047
869.539	3043
869.669	3077
869.799	3001
869.929	3112
870.06	3108
870.19	3321
870.32	3321
870.45	3351
870.58	3317
870.71	3443
870.84	3435
870.97	3298
871.1	3207
871.23	3473
871.36	3481
871.489	3329
871.619	3401
871.749	3420
871.879	3447
872.008	3462
872.138	3370
872.267	3245
872.397	3150
872.526	3093
872.656	2990
872.785	3081
872.915	3233
873.044	3294
873.173	3214
873.303	3222
873.432	3230
873.561	3226
873.69	3100
873.819	3127
873.948	3184
874.077	3112
874.206	3020
874.335	3062
874.464	3165
874.593	3367
874.722	3233
874.851	3382
874.979	3355
875.108	3283
875.237	3188
875.365	3199
875.494	3180
875.623	3230
875.751	3074
875.88	3116
876.008	3161
876.136	3207
876.265	3344
876.393	3511
876.521	3447
876.65	3389
876.778	3340
876.906	3241
877.034	3203
877.162	3230
877.29	3192
877.418	3253
877.546	3241
877.674	3226
877.802	3226
877.93	3222
878.058	3157
878.185	3074
878.313	3207
878.441	3192
878.568	3066
878.696	3146
878.824	3241
878.951	3272
879.079	3431
879.206	3576
879.333	3435
879.461	3336
879.588	3344
879.715	3450
879.842	3614
879.97	3359
880.097	3146
880.224	3119
880.351	3218
880.478	3226
880.605	3214
880.732	3169
880.859	3469
880.986	3306
881.112	3340
881.239	3188
881.366	3100
881.493	2994
881.619	3032
881.746	3077
881.872	3066
881.999	3135
882.125	3138
882.252	3226
882.378	3272
882.505	3397
882.631	3291
882.757	3123
882.883	3230
883.01	3211
883.136	3157
883.262	3085
883.388	3108
883.514	3306
883.64	3359
883.766	3298
883.892	3184
884.018	3237
884.143	3386
884.269	3557
884.395	3176
884.52	3157
884.646	3207
884.772	3100
884.897	3093
885.023	3199
885.148	3332
885.274	3405
885.399	3389
885.524	3272
885.65	3241
885.775	3313
885.9	3275
886.025	3431
886.15	3351
886.275	3317
886.4	3222
886.525	3283
886.65	3233
886.775	3249
886.9	3485
887.025	3660
887.149	3405
887.274	3272
887.399	3154
887.523	3233
887.648	3142
887.773	3157
887.897	3386
888.021	3386
888.146	3283
888.27	3439
888.395	3534
888.519	3431
888.643	3428
888.767	3435
888.891	3306
889.015	3230
889.139	3275
889.263	3249
889.387	3374
889.511	3492
889.635	3409
889.759	3329
889.883	3294
890.006	3389
890.13	3458
890.254	3272
890.377	3291
890.501	3218
890.624	3157
890.748	3260
890.871	3199
890.995	3123
891.118	3024
891.241	3180
891.364	3245
891.488	3306
891.611	3157
891.734	3253
891.857	3306
891.98	3195
892.103	3386
892.226	3291
892.349	3211
892.471	3100
892.594	3214
892.717	3256
892.839	3291
892.962	3313
893.085	3344
893.207	3283
893.33	3150
893.452	3218
893.575	3374
893.697	3245
893.819	3431
893.941	3507
894.064	3469
894.186	3256
894.308	3264
894.43	3439
894.552	3526
894.674	3462
894.796	3233
894.918	3313
895.04	3291
895.161	3382
895.283	3401
895.405	3256
895.526	3389
895.648	3416
895.769	3416
895.891	3443
896.012	3450
896.134	3466
896.255	3382
896.376	3382
896.498	3344
896.619	3439
896.74	3374
896.861	3393
896.982	3679
897.103	3857
897.224	3564
897.345	3469
897.466	3428
897.587	3458
897.708	3641
897.828	3549
897.949	3458
898.07	3348
898.19	3412
898.311	3610
898.431	3443
898.552	3519
898.672	3591
898.792	3538
898.913	3542
899.033	3386
899.153	3268
899.273	3241
899.393	3294
899.513	3279
899.633	3313
899.753	3355
899.873	3298
899.993	3393
900.113	3325
900.232	3370
900.352	3351
900.472	3310
900.591	3157
900.711	3291
900.83	3230
900.95	3397
901.069	3477
901.189	3359
901.308	3192
901.427	3119
901.546	3150
901.665	3287
901.784	3348
901.904	3180
902.023	3108
902.141	3001
902.26	2979
902.379	3093
902.498	3066
902.617	3077
902.735	3218
902.854	3207
902.973	3161
903.091	3032
903.21	3058
903.328	3123
903.446	3108
903.565	3093
903.683	3226
903.801	3116
903.919	3237
904.038	3268
904.156	3161
904.274	3279
904.392	3233
904.51	3275
904.627	3325
904.745	3481
904.863	3492
904.981	3222
905.098	3165
905.216	3226
905.334	3283
905.451	3233
905.569	3291
905.686	3420
905.803	3393
905.921	3272
906.038	3462
906.155	3348
906.272	3275
906.389	3294
906.506	3188
906.623	3245
906.74	3226
906.857	3195
906.974	3272
907.091	3469
907.208	3557
907.324	3462
907.441	3397
907.557	3226
907.674	3211
907.79	3199
907.907	3256
908.023	3340
908.139	3332
908.256	3317
908.372	3420
908.488	3370
908.604	3245
908.72	3237
908.836	3264
908.952	3241
909.068	3363
909.184	3504
909.3	3378
909.415	3488
909.531	3458
909.647	3291
909.762	3287
909.878	3249
909.993	3374
910.108	3332
910.224	3340
910.339	3332
910.454	3313
910.57	3256
910.685	3253
910.8	3568
910.915	3519
911.03	3469
911.145	3272
911.259	3272
911.374	3275
911.489	3241
911.604	3230
911.718	3077
911.833	3119
911.947	3020
912.062	2975
912.176	3180
912.291	3222
912.405	3226
912.519	3412
912.633	3481
912.748	3340
912.862	3283
912.976	3184
913.09	3028
913.204	3100
913.318	3199
913.431	3340
913.545	3344
913.659	3386
913.772	3355
913.886	3211
914	3199
914.113	3359
914.226	3412
914.34	3374
914.453	3214
914.566	3443
914.68	3317
914.793	3279
914.906	3119
915.019	3138
915.132	3066
915.245	3157
915.358	3169
915.47	3214
915.583	3245
915.696	3287
915.809	3424
915.921	3351
916.034	3272
916.146	3222
916.259	3222
916.371	3405
916.483	3363
916.595	3291
916.708	3313
916.82	3298
916.932	3306
917.044	3325
917.156	3313
917.268	3214
917.38	3268
917.491	3298
917.603	3374
917.715	3473
917.826	3420
917.938	3351
918.049	3253
918.161	3416
918.272	3568
918.384	3572
918.495	3473
918.606	3317
918.717	3302
918.828	3370
918.939	3378
919.05	3329
919.161	3329
919.272	3161
919.383	3272
919.494	3511
919.604	3667
919.715	3469
919.826	3409
919.936	3481
920.047	3603
920.157	3584
920.267	3766
920.378	3622
920.488	3545
920.598	3778
920.708	3953
920.818	3854
920.928	3812
921.038	4040
921.148	3968
921.258	3713
921.368	3606
921.477	3606
921.587	3561
921.697	3466
921.806	3595
921.916	3564
922.025	3378
922.134	3336
922.244	3275
922.353	3420
922.462	3264
922.571	3214
922.68	3104
922.789	3116
922.898	3165
923.007	3058
923.116	3233
923.224	3176
923.333	3188
923.442	3058
923.55	3097
923.659	3127
923.767	3279
923.876	3119
923.984	3195
924.092	3093
924.201	3195
924.309	3226
924.417	3256
924.525	3184
924.633	3230
924.741	4002
924.849	3047
924.956	3245
925.064	3097
925.172	3024
925.279	3081
925.387	3195
925.494	3222
925.602	3340
925.709	3310
925.816	3157
925.924	3279
926.031	3321
926.138	3336
926.245	3359
926.352	3279
926.459	3378
926.566	3507
926.673	3340
926.779	3283
926.886	3253
926.993	3203
927.099	3116
927.206	3146
927.312	3074
927.419	3214
927.525	3211
927.631	3237
927.737	3127
927.843	3108
927.95	2994
928.056	3131
928.162	3173
928.267	3279
928.373	3865
928.479	3287
928.585	3070
928.69	3203
928.796	3291
928.901	3192
929.007	3043
929.112	3184
929.218	3169
929.323	3127
929.428	3127
929.533	3313
929.638	3116
929.743	3123
929.848	3272
929.953	3203
930.058	3154
930.163	3009
930.267	3043
930.372	3192
930.477	3032
930.581	3294
930.685	3199
930.79	3081
930.894	3127
930.998	3108
931.103	3241
931.207	2937
931.311	2975
931.415	2929
931.519	2766
931.623	2823
