Data from test_V78500241_801.txt Node
Date: Fri Mar 25 16:20:45 CST 2022
User: usil
Spectrometer: V785-0024
Trigger mode: 0
Integration Time (sec): 4.000000E-1
Scans to average: 1
Nonlinearity correction enabled: false
Boxcar width: 0
Storing dark spectrum: false
XAxis mode: Wavelengths
Number of Pixels in Spectrum: 1024
>>>>>Begin Spectral Data<<<<<
801.071	2998
801.214	2986
801.356	2922
801.499	2952
801.641	2910
801.783	2979
801.926	3127
802.068	3055
802.211	3028
802.353	3074
802.496	3020
802.638	3066
802.78	3070
802.923	3142
803.065	3036
803.208	2918
803.35	2975
803.492	2967
803.635	2952
803.777	2762
803.919	2937
804.061	3226
804.204	3013
804.346	2956
804.488	2891
804.63	3036
804.773	2899
804.915	2975
805.057	3112
805.199	2941
805.341	3017
805.483	3058
805.626	3062
805.768	2975
805.91	3154
806.052	3135
806.194	3066
806.336	3264
806.478	3055
806.62	2986
806.762	2971
806.904	3047
807.046	3241
807.188	3020
807.33	2952
807.472	3009
807.614	2937
807.756	2998
807.898	2990
808.04	2922
808.182	2982
808.324	2982
808.465	2948
808.607	2929
808.749	2826
808.891	2864
809.033	2998
809.174	3039
809.316	2937
809.458	2937
809.6	2788
809.741	2773
809.883	2823
810.025	2883
810.166	2872
810.308	2895
810.45	2899
810.591	2811
810.733	2796
810.875	2830
811.016	2819
811.158	2811
811.299	2823
811.441	2960
811.582	2914
811.724	2872
811.865	2880
812.007	2922
812.148	2925
812.29	2868
812.431	2933
812.573	2979
812.714	3013
812.855	3077
812.997	3051
813.138	3180
813.279	3066
813.421	2986
813.562	2986
813.703	2891
813.845	2925
813.986	2766
814.127	2769
814.268	2830
814.41	2861
814.551	2853
814.692	2902
814.833	2845
814.974	2899
815.115	2967
815.256	2861
815.397	2826
815.539	2910
815.68	2777
815.821	2811
815.962	2975
816.103	2979
816.244	2883
816.385	2891
816.526	2998
816.666	2937
816.807	2777
816.948	2914
817.089	2925
817.23	2861
817.371	2819
817.512	2826
817.653	2883
817.793	2902
817.934	2918
818.075	2990
818.216	3005
818.356	2994
818.497	2922
818.638	2815
818.778	2826
818.919	2807
819.06	2766
819.2	2922
819.341	2830
819.481	2826
819.622	2948
819.762	3097
819.903	3081
820.043	2948
820.184	2937
820.324	2937
820.465	3036
820.605	3032
820.746	3039
820.886	2952
821.026	3108
821.167	3214
821.307	3241
821.447	3294
821.588	3275
821.728	3214
821.868	3199
822.008	3097
822.149	3188
822.289	3233
822.429	3142
822.569	3116
822.709	3180
822.849	3013
822.99	3116
823.13	3214
823.27	3237
823.41	3138
823.55	3176
823.69	3195
823.83	3188
823.97	3127
824.11	3039
824.25	3013
824.389	3089
824.529	3100
824.669	3070
824.809	3214
824.949	3264
825.089	3222
825.228	3230
825.368	3024
825.508	2956
825.648	2994
825.787	3013
825.927	2998
826.067	2998
826.206	2975
826.346	3097
826.485	3085
826.625	3142
826.765	3283
826.904	3233
827.044	3005
827.183	2971
827.323	2864
827.462	2971
827.601	2933
827.741	2941
827.88	3005
828.02	2880
828.159	2971
828.298	3020
828.437	3131
828.577	3081
828.716	3279
828.855	3135
828.994	2937
829.134	2887
829.273	2933
829.412	2872
829.551	2872
829.69	2922
829.829	3024
829.968	3188
830.107	3055
830.246	3020
830.385	2941
830.524	2906
830.663	2842
830.802	2781
830.941	2670
831.08	2716
831.219	2785
831.357	2750
831.496	2982
831.635	2693
831.774	2712
831.913	2689
832.051	2556
832.19	2606
832.329	2705
832.467	2552
832.606	2511
832.744	2621
832.883	2617
833.022	2606
833.16	2667
833.299	2693
833.437	2766
833.576	2739
833.714	2746
833.852	2746
833.991	2781
834.129	2823
834.267	2834
834.406	2796
834.544	2895
834.682	2914
834.821	2880
834.959	3058
835.097	2918
835.235	3066
835.373	3013
835.511	3062
835.65	2952
835.788	2960
835.926	2872
836.064	2826
836.202	2891
836.34	3142
836.478	3150
836.615	3070
836.753	3135
836.891	3203
837.029	3176
837.167	3081
837.305	3093
837.443	3074
837.58	2990
837.718	3173
837.856	3108
837.993	3028
838.131	3180
838.269	3116
838.406	3138
838.544	3081
838.681	2948
838.819	2941
838.956	2823
839.094	2864
839.231	2941
839.369	3032
839.506	3420
839.643	3199
839.781	3001
839.918	3039
840.055	3047
840.193	3081
840.33	3066
840.467	3097
840.604	3150
840.742	3435
840.879	3055
841.016	3055
841.153	3142
841.29	3355
841.427	3302
841.564	3313
841.701	3351
841.838	3241
841.975	3173
842.112	3203
842.249	3112
842.385	3097
842.522	3233
842.659	3131
842.796	3077
842.933	3081
843.069	3081
843.206	3047
843.343	3222
843.479	3108
843.616	3161
843.752	2933
843.889	2872
844.025	3097
844.162	2880
844.298	3077
844.435	2975
844.571	2933
844.708	3093
844.844	3199
844.98	3230
845.117	3203
845.253	3097
845.389	3036
845.525	3127
845.661	3085
845.798	3047
845.934	3176
846.07	3066
846.206	3249
846.342	3336
846.478	3222
846.614	3100
846.75	3074
846.886	3074
847.022	3260
847.158	3123
847.294	3199
847.429	3253
847.565	3218
847.701	3462
847.837	3055
847.972	2986
848.108	3188
848.244	3173
848.379	2975
848.515	2925
848.65	2967
848.786	3001
848.921	3032
849.057	3074
849.192	3127
849.328	3097
849.463	3112
849.598	3085
849.734	3036
849.869	3009
850.004	2963
850.14	3001
850.275	2899
850.41	2868
850.545	2872
850.68	2933
850.815	2986
850.95	2990
851.085	3249
851.22	3089
851.355	3051
851.49	3017
851.625	2986
851.76	2994
851.895	2944
852.03	2899
852.165	3074
852.299	3154
852.434	3184
852.569	3195
852.703	3180
852.838	3245
852.973	3351
853.107	3313
853.242	3180
853.376	3119
853.511	2982
853.645	3051
853.78	3207
853.914	3146
854.048	3100
854.183	3108
854.317	3207
854.451	3332
854.585	3112
854.72	3081
854.854	3218
854.988	3085
855.122	3093
855.256	2975
855.39	3135
855.524	3275
855.658	3207
855.792	3188
855.926	3226
856.06	3192
856.194	3253
856.327	3146
856.461	3089
856.595	3142
856.729	3123
856.862	3256
856.996	3173
857.13	3195
857.263	3287
857.397	3241
857.53	3142
857.664	3195
857.797	3245
857.931	3313
858.064	3188
858.197	3230
858.331	3154
858.464	3127
858.597	2994
858.731	3100
858.864	3150
858.997	3093
859.13	3127
859.263	3184
859.396	3173
859.529	3081
859.662	3081
859.795	3077
859.928	3154
860.061	3283
860.194	3272
860.327	3123
860.46	3100
860.592	3222
860.725	3260
860.858	3256
860.99	3100
861.123	3039
861.256	3066
861.388	3127
861.521	3968
861.653	3005
861.786	3001
861.918	3028
862.05	3070
862.183	3112
862.315	3173
862.447	3207
862.58	3131
862.712	2967
862.844	2853
862.976	3024
863.108	3005
863.24	3317
863.372	2910
863.504	2967
863.636	2922
863.768	3013
863.9	2963
864.032	2922
864.164	2941
864.296	3024
864.428	3119
864.559	3119
864.691	3100
864.823	3066
864.954	3051
865.086	3066
865.217	3005
865.349	2975
865.48	2971
865.612	3005
865.743	3142
865.875	3017
866.006	2960
866.137	2994
866.269	2982
866.4	2925
866.531	2944
866.662	2895
866.793	2902
866.924	2929
867.055	2979
867.186	2937
867.317	2880
867.448	2853
867.579	2857
867.71	2849
867.841	2842
867.972	2937
868.103	2914
868.233	2876
868.364	2880
868.495	2899
868.625	3123
868.756	3176
868.886	2971
869.017	3028
869.147	3169
869.278	3146
869.408	3039
869.539	3058
869.669	3055
869.799	3047
869.929	3150
870.06	3081
870.19	3348
870.32	3268
870.45	3340
870.58	3370
870.71	3466
870.84	3466
870.97	3256
871.1	3237
871.23	3469
871.36	3431
871.489	3340
871.619	3439
871.749	3420
871.879	3443
872.008	3401
872.138	3348
872.267	3264
872.397	3131
872.526	3081
872.656	3009
872.785	3131
872.915	3230
873.044	3317
873.173	3222
873.303	3256
873.432	3279
873.561	3306
873.69	3176
873.819	3161
873.948	3203
874.077	3112
874.206	3077
874.335	3097
874.464	3233
874.593	3344
874.722	3226
874.851	3424
874.979	3363
875.108	3310
875.237	3207
875.365	3195
875.494	3161
875.623	3256
875.751	3074
875.88	3097
876.008	3161
876.136	3207
876.265	3389
876.393	3488
876.521	3420
876.65	3389
876.778	3389
876.906	3287
877.034	3214
877.162	3260
877.29	3230
877.418	3264
877.546	3249
877.674	3245
877.802	3237
877.93	3188
878.058	3169
878.185	3074
878.313	3222
878.441	3214
878.568	3108
878.696	3165
878.824	3214
878.951	3306
879.079	3431
879.206	3618
879.333	3416
879.461	3355
879.588	3332
879.715	3485
879.842	3595
879.97	3393
880.097	3150
880.224	3131
880.351	3207
880.478	3180
880.605	3207
880.732	3230
880.859	3507
880.986	3298
881.112	3317
881.239	3218
881.366	3100
881.493	3039
881.619	3036
881.746	3081
881.872	3085
881.999	3112
882.125	3116
882.252	3249
882.378	3348
882.505	3412
882.631	3237
882.757	3146
882.883	3199
883.01	3214
883.136	3173
883.262	3093
883.388	3100
883.514	3321
883.64	3340
883.766	3294
883.892	3192
884.018	3218
884.143	3397
884.269	3587
884.395	3222
884.52	3142
884.646	3188
884.772	3154
884.897	3089
885.023	3184
885.148	3340
885.274	3409
885.399	3389
885.524	3291
885.65	3256
885.775	3310
885.9	3294
886.025	3424
886.15	3359
886.275	3306
886.4	3260
886.525	3317
886.65	3268
886.775	3313
886.9	3477
887.025	3584
887.149	3401
887.274	3253
887.399	3176
887.523	3207
887.648	3184
887.773	3169
887.897	3386
888.021	3420
888.146	3313
888.27	3412
888.395	3530
888.519	3431
888.643	3473
888.767	3473
888.891	3294
889.015	3256
889.139	3294
889.263	3241
889.387	3367
889.511	3507
889.635	3405
889.759	3306
889.883	3272
890.006	3370
890.13	3561
890.254	3294
890.377	3329
890.501	3233
890.624	3188
890.748	3287
890.871	3161
890.995	3077
891.118	3066
891.241	3165
891.364	3233
891.488	3310
891.611	3161
891.734	3230
891.857	3294
891.98	3226
892.103	3306
892.226	3256
892.349	3188
892.471	3081
892.594	3264
892.717	3317
892.839	3230
892.962	3306
893.085	3351
893.207	3294
893.33	3123
893.452	3184
893.575	3367
893.697	3253
893.819	3458
893.941	3511
894.064	3473
894.186	3272
894.308	3260
894.43	3420
894.552	3485
894.674	3424
894.796	3294
894.918	3310
895.04	3272
895.161	3409
895.283	3397
895.405	3313
895.526	3412
895.648	3458
895.769	3435
895.891	3447
896.012	3473
896.134	3496
896.255	3431
896.376	3344
896.498	3389
896.619	3462
896.74	3363
896.861	3405
896.982	3682
897.103	3869
897.224	3534
897.345	3545
897.466	3450
897.587	3534
897.708	3606
897.828	3542
897.949	3447
898.07	3348
898.19	3389
898.311	3599
898.431	3424
898.552	3534
898.672	3576
898.792	3591
898.913	3549
899.033	3435
899.153	3317
899.273	3203
899.393	3310
899.513	3310
899.633	3310
899.753	3306
899.873	3306
899.993	3340
900.113	3336
900.232	3397
900.352	3340
900.472	3298
900.591	3207
900.711	3344
900.83	3233
900.95	3412
901.069	3473
901.189	3351
901.308	3195
901.427	3150
901.546	3233
901.665	3249
901.784	3294
901.904	3165
902.023	3154
902.141	3009
902.26	2998
902.379	3146
902.498	3097
902.617	3055
902.735	3199
902.854	3195
902.973	3203
903.091	3017
903.21	3070
903.328	3119
903.446	3108
903.565	3085
903.683	3222
903.801	3112
903.919	3230
904.038	3275
904.156	3169
904.274	3256
904.392	3260
904.51	3336
904.627	3332
904.745	3424
904.863	3473
904.981	3241
905.098	3157
905.216	3192
905.334	3275
905.451	3272
905.569	3310
905.686	3412
905.803	3409
905.921	3348
906.038	3435
906.155	3340
906.272	3264
906.389	3344
906.506	3222
906.623	3245
906.74	3275
906.857	3226
906.974	3245
907.091	3447
907.208	3572
907.324	3450
907.441	3397
907.557	3218
907.674	3241
907.79	3180
907.907	3275
908.023	3374
908.139	3378
908.256	3298
908.372	3370
908.488	3363
908.604	3256
908.72	3233
908.836	3283
908.952	3291
909.068	3340
909.184	3466
909.3	3378
909.415	3488
909.531	3477
909.647	3268
909.762	3287
909.878	3249
909.993	3389
910.108	3340
910.224	3378
910.339	3431
910.454	3363
910.57	3291
910.685	3249
910.8	3568
910.915	3542
911.03	3439
911.145	3287
911.259	3241
911.374	3329
911.489	3226
911.604	3222
911.718	3146
911.833	3173
911.947	3032
912.062	3017
912.176	3150
912.291	3184
912.405	3192
912.519	3412
912.633	3462
912.748	3332
912.862	3287
912.976	3131
913.09	3055
913.204	3119
913.318	3192
913.431	3348
913.545	3348
913.659	3397
913.772	3321
913.886	3211
914	3253
914.113	3310
914.226	3428
914.34	3355
914.453	3230
914.566	3435
914.68	3275
914.793	3302
914.906	3157
915.019	3112
915.132	3066
915.245	3184
915.358	3207
915.47	3214
915.583	3275
915.696	3298
915.809	3389
915.921	3428
916.034	3264
916.146	3256
916.259	3233
916.371	3370
916.483	3370
916.595	3264
916.708	3348
916.82	3355
916.932	3336
917.044	3340
917.156	3340
917.268	3245
917.38	3256
917.491	3336
917.603	3359
917.715	3447
917.826	3473
917.938	3428
918.049	3256
918.161	3416
918.272	3542
918.384	3580
918.495	3454
918.606	3302
918.717	3298
918.828	3382
918.939	3428
919.05	3321
919.161	3355
919.272	3184
919.383	3279
919.494	3469
919.604	3675
919.715	3500
919.826	3397
919.936	3469
920.047	3603
920.157	3557
920.267	3743
920.378	3622
920.488	3553
920.598	3797
920.708	3949
920.818	3827
920.928	3827
921.038	4029
921.148	4044
921.258	3682
921.368	3618
921.477	3557
921.587	3542
921.697	3439
921.806	3614
921.916	3496
922.025	3370
922.134	3359
922.244	3325
922.353	3389
922.462	3275
922.571	3287
922.68	3119
922.789	3089
922.898	3150
923.007	3093
923.116	3173
923.224	3116
923.333	3195
923.442	3097
923.55	3127
923.659	3154
923.767	3253
923.876	3097
923.984	3233
924.092	3085
924.201	3184
924.309	3199
924.417	3226
924.525	3184
924.633	3226
924.741	4227
924.849	3036
924.956	3256
925.064	3093
925.172	3036
925.279	3104
925.387	3226
925.494	3199
925.602	3351
925.709	3336
925.816	3207
925.924	3294
926.031	3386
926.138	3283
926.245	3321
926.352	3237
926.459	3424
926.566	3462
926.673	3317
926.779	3233
926.886	3275
926.993	3150
927.099	3116
927.206	3047
927.312	3135
927.419	3233
927.525	3226
927.631	3253
927.737	3157
927.843	3116
927.95	3039
928.056	3142
928.162	3131
928.267	3291
928.373	3751
928.479	3283
928.585	3051
928.69	3218
928.796	3294
928.901	3154
929.007	3009
929.112	3184
929.218	3150
929.323	3135
929.428	3157
929.533	3310
929.638	3146
929.743	3173
929.848	3237
929.953	3222
930.058	3104
930.163	2979
930.267	3013
930.372	3161
930.477	3036
930.581	3321
930.685	3184
930.79	3028
930.894	3150
930.998	3135
931.103	3230
931.207	2963
931.311	2952
931.415	2910
931.519	2766
931.623	2800
