Data from test_V78500241_1289.txt Node
Date: Fri Mar 25 16:24:08 CST 2022
User: usil
Spectrometer: V785-0024
Trigger mode: 0
Integration Time (sec): 4.000000E-1
Scans to average: 1
Nonlinearity correction enabled: false
Boxcar width: 0
Storing dark spectrum: false
XAxis mode: Wavelengths
Number of Pixels in Spectrum: 1024
>>>>>Begin Spectral Data<<<<<
801.071	2910
801.214	2956
801.356	2868
801.499	2899
801.641	2861
801.783	2933
801.926	3024
802.068	2941
802.211	2982
802.353	3009
802.496	2967
802.638	3020
802.78	3062
802.923	3093
803.065	3013
803.208	2899
803.35	2944
803.492	2891
803.635	2910
803.777	2758
803.919	2838
804.061	3173
804.204	2941
804.346	2918
804.488	2800
804.63	2990
804.773	2883
804.915	2891
805.057	3062
805.199	2944
805.341	2956
805.483	3017
805.626	3028
805.768	3001
805.91	3089
806.052	3089
806.194	3043
806.336	3222
806.478	3013
806.62	2944
806.762	2975
806.904	3051
807.046	3176
807.188	3013
807.33	2906
807.472	2967
807.614	2914
807.756	2948
807.898	2937
808.04	2872
808.182	2952
808.324	2952
808.465	2887
808.607	2895
808.749	2788
808.891	2853
809.033	2967
809.174	2956
809.316	2895
809.458	2883
809.6	2766
809.741	2731
809.883	2777
810.025	2834
810.166	2864
810.308	2864
810.45	2834
810.591	2746
810.733	2811
810.875	2819
811.016	2788
811.158	2743
811.299	2773
811.441	2910
811.582	2883
811.724	2819
811.865	2842
812.007	2895
812.148	2834
812.29	2838
812.431	2887
812.573	2941
812.714	2925
812.855	3047
812.997	3055
813.138	3119
813.279	3001
813.421	2998
813.562	2937
813.703	2891
813.845	2857
813.986	2781
814.127	2682
814.268	2849
814.41	2861
814.551	2834
814.692	2872
814.833	2826
814.974	2895
815.115	2925
815.256	2853
815.397	2807
815.539	2826
815.68	2777
815.821	2792
815.962	2956
816.103	2899
816.244	2842
816.385	2842
816.526	2944
816.666	2925
816.807	2731
816.948	2899
817.089	2883
817.23	2842
817.371	2758
817.512	2781
817.653	2849
817.793	2834
817.934	2861
818.075	2971
818.216	3009
818.356	3058
818.497	2876
818.638	2796
818.778	2823
818.919	2788
819.06	2762
819.2	2857
819.341	2826
819.481	2796
819.622	2952
819.762	3089
819.903	3036
820.043	2887
820.184	2868
820.324	2891
820.465	2956
820.605	2982
820.746	3009
820.886	2952
821.026	3058
821.167	3173
821.307	3233
821.447	3283
821.588	3256
821.728	3138
821.868	3195
822.008	3077
822.149	3165
822.289	3214
822.429	3074
822.569	3085
822.709	3203
822.849	2998
822.99	3097
823.13	3104
823.27	3203
823.41	3070
823.55	3169
823.69	3146
823.83	3188
823.97	3089
824.11	2979
824.25	3005
824.389	3058
824.529	3150
824.669	3070
824.809	3150
824.949	3230
825.089	3207
825.228	3173
825.368	2986
825.508	2929
825.648	2971
825.787	2967
825.927	3013
826.067	2967
826.206	2998
826.346	3017
826.485	3074
826.625	3097
826.765	3241
826.904	3150
827.044	2941
827.183	2895
827.323	2895
827.462	2944
827.601	2937
827.741	2933
827.88	2937
828.02	2842
828.159	2979
828.298	3013
828.437	3119
828.577	3058
828.716	3233
828.855	3100
828.994	2899
829.134	2864
829.273	2895
829.412	2853
829.551	2838
829.69	2872
829.829	2975
829.968	3116
830.107	3017
830.246	3036
830.385	2914
830.524	2872
830.663	2830
830.802	2701
830.941	2617
831.08	2632
831.219	2746
831.357	2754
831.496	2948
831.635	2697
831.774	2636
831.913	2686
832.051	2568
832.19	2571
832.329	2682
832.467	2552
832.606	2484
832.744	2571
832.883	2549
833.022	2575
833.16	2678
833.299	2727
833.437	2693
833.576	2674
833.714	2724
833.852	2720
833.991	2766
834.129	2826
834.267	2861
834.406	2800
834.544	2883
834.682	2899
834.821	2883
834.959	3055
835.097	2883
835.235	3058
835.373	2986
835.511	3009
835.65	2948
835.788	2952
835.926	2815
836.064	2792
836.202	2830
836.34	3112
836.478	3138
836.615	3051
836.753	3169
836.891	3165
837.029	3135
837.167	3108
837.305	3055
837.443	3047
837.58	2948
837.718	3112
837.856	3062
837.993	3020
838.131	3112
838.269	3085
838.406	3097
838.544	3081
838.681	2929
838.819	2899
838.956	2788
839.094	2823
839.231	2895
839.369	2990
839.506	3367
839.643	3214
839.781	3024
839.918	2929
840.055	3028
840.193	3020
840.33	3077
840.467	3055
840.604	3176
840.742	3389
840.879	3051
841.016	3043
841.153	3108
841.29	3332
841.427	3287
841.564	3245
841.701	3313
841.838	3184
841.975	3195
842.112	3188
842.249	3062
842.385	2998
842.522	3260
842.659	3085
842.796	3039
842.933	3104
843.069	3024
843.206	3013
843.343	3199
843.479	3112
843.616	3116
843.752	2918
843.889	2861
844.025	3024
844.162	2883
844.298	3032
844.435	2933
844.571	2910
844.708	3070
844.844	3195
844.98	3222
845.117	3169
845.253	3039
845.389	2990
845.525	3142
845.661	3081
845.798	3013
845.934	3104
846.07	3085
846.206	3230
846.342	3321
846.478	3214
846.614	3062
846.75	3017
846.886	3058
847.022	3249
847.158	3112
847.294	3188
847.429	3256
847.565	3207
847.701	3450
847.837	3028
847.972	2944
848.108	3150
848.244	3169
848.379	2967
848.515	2922
848.65	2910
848.786	2933
848.921	3024
849.057	3074
849.192	3142
849.328	3081
849.463	3100
849.598	3085
849.734	3024
849.869	2948
850.004	2902
850.14	2979
850.275	2880
850.41	2853
850.545	2868
850.68	2952
850.815	2944
850.95	2944
851.085	3195
851.22	3112
851.355	3028
851.49	2986
851.625	2979
851.76	2994
851.895	2929
852.03	2914
852.165	3009
852.299	3142
852.434	3188
852.569	3070
852.703	3176
852.838	3237
852.973	3294
853.107	3321
853.242	3157
853.376	3074
853.511	2979
853.645	3058
853.78	3237
853.914	3066
854.048	3097
854.183	3089
854.317	3104
854.451	3306
854.585	3093
854.72	3077
854.854	3218
854.988	3043
855.122	3058
855.256	2979
855.39	3138
855.524	3222
855.658	3165
855.792	3131
855.926	3176
856.06	3211
856.194	3264
856.327	3154
856.461	3070
856.595	3032
856.729	3070
856.862	3222
856.996	3173
857.13	3173
857.263	3203
857.397	3264
857.53	3085
857.664	3176
857.797	3222
857.931	3298
858.064	3176
858.197	3192
858.331	3104
858.464	3100
858.597	2994
858.731	3112
858.864	3142
858.997	3097
859.13	3161
859.263	3211
859.396	3188
859.529	3070
859.662	3066
859.795	3024
859.928	3146
860.061	3249
860.194	3291
860.327	3138
860.46	3077
860.592	3233
860.725	3249
860.858	3222
860.99	3112
861.123	3051
861.256	3032
861.388	3135
861.521	3656
861.653	3001
861.786	2941
861.918	2975
862.05	3066
862.183	3104
862.315	3157
862.447	3154
862.58	3077
862.712	2941
862.844	2861
862.976	3039
863.108	3009
863.24	3367
863.372	2849
863.504	2963
863.636	2914
863.768	3009
863.9	2967
864.032	2891
864.164	2933
864.296	3013
864.428	3039
864.559	3081
864.691	3074
864.823	3100
864.954	2994
865.086	2986
865.217	2998
865.349	2914
865.48	2975
865.612	2998
865.743	3131
865.875	2967
866.006	2941
866.137	3001
866.269	2918
866.4	2914
866.531	2933
866.662	2872
866.793	2872
866.924	2922
867.055	2944
867.186	2906
867.317	2872
867.448	2857
867.579	2857
867.71	2826
867.841	2792
867.972	2899
868.103	2914
868.233	2864
868.364	2845
868.495	2902
868.625	3112
868.756	3142
868.886	2998
869.017	2990
869.147	3176
869.278	3135
869.408	3024
869.539	3017
869.669	3070
869.799	3013
869.929	3119
870.06	3119
870.19	3329
870.32	3283
870.45	3302
870.58	3321
870.71	3428
870.84	3454
870.97	3283
871.1	3249
871.23	3435
871.36	3481
871.489	3351
871.619	3389
871.749	3393
871.879	3416
872.008	3492
872.138	3378
872.267	3245
872.397	3176
872.526	3097
872.656	3001
872.785	3135
872.915	3237
873.044	3302
873.173	3199
873.303	3256
873.432	3211
873.561	3176
873.69	3165
873.819	3150
873.948	3176
874.077	3093
874.206	3009
874.335	3104
874.464	3230
874.593	3310
874.722	3253
874.851	3389
874.979	3370
875.108	3351
875.237	3176
875.365	3119
875.494	3154
875.623	3233
875.751	3055
875.88	3062
876.008	3173
876.136	3222
876.265	3340
876.393	3515
876.521	3382
876.65	3363
876.778	3348
876.906	3245
877.034	3211
877.162	3192
877.29	3184
877.418	3237
877.546	3253
877.674	3230
877.802	3222
877.93	3184
878.058	3138
878.185	3058
878.313	3218
878.441	3222
878.568	3074
878.696	3142
878.824	3230
878.951	3298
879.079	3416
879.206	3553
879.333	3424
879.461	3329
879.588	3378
879.715	3500
879.842	3572
879.97	3393
880.097	3154
880.224	3142
880.351	3165
880.478	3222
880.605	3176
880.732	3211
880.859	3485
880.986	3310
881.112	3332
881.239	3203
881.366	3074
881.493	3020
881.619	3009
881.746	3047
881.872	3085
881.999	3089
882.125	3127
882.252	3230
882.378	3275
882.505	3420
882.631	3264
882.757	3138
882.883	3188
883.01	3249
883.136	3154
883.262	3074
883.388	3104
883.514	3302
883.64	3374
883.766	3317
883.892	3173
884.018	3199
884.143	3370
884.269	3496
884.395	3199
884.52	3184
884.646	3169
884.772	3093
884.897	3097
885.023	3199
885.148	3344
885.274	3393
885.399	3355
885.524	3313
885.65	3245
885.775	3268
885.9	3272
886.025	3439
886.15	3359
886.275	3256
886.4	3233
886.525	3310
886.65	3272
886.775	3264
886.9	3519
887.025	3618
887.149	3370
887.274	3218
887.399	3142
887.523	3195
887.648	3176
887.773	3207
887.897	3374
888.021	3386
888.146	3275
888.27	3363
888.395	3515
888.519	3450
888.643	3454
888.767	3454
888.891	3279
889.015	3253
889.139	3275
889.263	3237
889.387	3431
889.511	3504
889.635	3420
889.759	3275
889.883	3291
890.006	3389
890.13	3485
890.254	3279
890.377	3378
890.501	3188
890.624	3154
890.748	3306
890.871	3169
890.995	3142
891.118	3047
891.241	3176
891.364	3226
891.488	3298
891.611	3116
891.734	3222
891.857	3306
891.98	3245
892.103	3332
892.226	3283
892.349	3203
892.471	3085
892.594	3218
892.717	3268
892.839	3279
892.962	3272
893.085	3344
893.207	3279
893.33	3104
893.452	3214
893.575	3336
893.697	3241
893.819	3466
893.941	3450
894.064	3439
894.186	3253
894.308	3230
894.43	3439
894.552	3481
894.674	3420
894.796	3211
894.918	3313
895.04	3268
895.161	3462
895.283	3386
895.405	3291
895.526	3287
895.648	3386
895.769	3405
895.891	3447
896.012	3431
896.134	3424
896.255	3389
896.376	3370
896.498	3359
896.619	3409
896.74	3332
896.861	3378
896.982	3667
897.103	3838
897.224	3576
897.345	3500
897.466	3409
897.587	3435
897.708	3591
897.828	3507
897.949	3401
898.07	3302
898.19	3409
898.311	3603
898.431	3416
898.552	3507
898.672	3580
898.792	3553
898.913	3538
899.033	3424
899.153	3279
899.273	3180
899.393	3310
899.513	3317
899.633	3313
899.753	3332
899.873	3313
899.993	3355
900.113	3340
900.232	3386
900.352	3336
900.472	3291
900.591	3222
900.711	3291
900.83	3230
900.95	3370
901.069	3492
901.189	3420
901.308	3176
901.427	3165
901.546	3180
901.665	3317
901.784	3321
901.904	3237
902.023	3142
902.141	3005
902.26	3013
902.379	3146
902.498	3119
902.617	3089
902.735	3226
902.854	3253
902.973	3226
903.091	3093
903.21	3085
903.328	3188
903.446	3146
903.565	3157
903.683	3218
903.801	3157
903.919	3302
904.038	3348
904.156	3169
904.274	3313
904.392	3283
904.51	3336
904.627	3340
904.745	3477
904.863	3496
904.981	3291
905.098	3211
905.216	3241
905.334	3287
905.451	3370
905.569	3355
905.686	3492
905.803	3469
905.921	3332
906.038	3447
906.155	3382
906.272	3298
906.389	3378
906.506	3253
906.623	3313
906.74	3325
906.857	3226
906.974	3325
907.091	3492
907.208	3614
907.324	3504
907.441	3424
907.557	3260
907.674	3310
907.79	3272
907.907	3332
908.023	3412
908.139	3389
908.256	3367
908.372	3409
908.488	3382
908.604	3302
908.72	3249
908.836	3310
908.952	3306
909.068	3378
909.184	3500
909.3	3405
909.415	3545
909.531	3500
909.647	3279
909.762	3363
909.878	3313
909.993	3401
910.108	3401
910.224	3370
910.339	3458
910.454	3359
910.57	3321
910.685	3329
910.8	3614
910.915	3568
911.03	3458
911.145	3310
911.259	3283
911.374	3321
911.489	3272
911.604	3287
911.718	3195
911.833	3154
911.947	3051
912.062	3005
912.176	3218
912.291	3256
912.405	3222
912.519	3485
912.633	3526
912.748	3351
912.862	3351
912.976	3184
913.09	3112
913.204	3146
913.318	3222
913.431	3393
913.545	3359
913.659	3477
913.772	3340
913.886	3237
914	3260
914.113	3363
914.226	3428
914.34	3439
914.453	3237
914.566	3454
914.68	3313
914.793	3317
914.906	3173
915.019	3161
915.132	3127
915.245	3188
915.358	3226
915.47	3260
915.583	3272
915.696	3325
915.809	3397
915.921	3428
916.034	3268
916.146	3268
916.259	3256
916.371	3424
916.483	3382
916.595	3317
916.708	3367
916.82	3367
916.932	3359
917.044	3355
917.156	3401
917.268	3233
917.38	3344
917.491	3302
917.603	3386
917.715	3477
917.826	3485
917.938	3416
918.049	3317
918.161	3443
918.272	3591
918.384	3572
918.495	3519
918.606	3359
918.717	3283
918.828	3409
918.939	3462
919.05	3325
919.161	3393
919.272	3218
919.383	3348
919.494	3526
919.604	3705
919.715	3534
919.826	3420
919.936	3447
920.047	3591
920.157	3591
920.267	3816
920.378	3610
920.488	3587
920.598	3797
920.708	4010
920.818	3873
920.928	3804
921.038	4055
921.148	4029
921.258	3778
921.368	3633
921.477	3614
921.587	3557
921.697	3473
921.806	3656
921.916	3549
922.025	3431
922.134	3370
922.244	3348
922.353	3439
922.462	3313
922.571	3287
922.68	3165
922.789	3070
922.898	3142
923.007	3116
923.116	3211
923.224	3188
923.333	3241
923.442	3142
923.55	3131
923.659	3176
923.767	3226
923.876	3165
923.984	3272
924.092	3127
924.201	3218
924.309	3283
924.417	3245
924.525	3226
924.633	3294
924.741	4025
924.849	3108
924.956	3298
925.064	3154
925.172	3051
925.279	3150
925.387	3195
925.494	3233
925.602	3370
925.709	3363
925.816	3195
925.924	3336
926.031	3424
926.138	3336
926.245	3412
926.352	3283
926.459	3431
926.566	3500
926.673	3313
926.779	3260
926.886	3275
926.993	3214
927.099	3108
927.206	3146
927.312	3131
927.419	3272
927.525	3218
927.631	3310
927.737	3173
927.843	3127
927.95	3077
928.056	3188
928.162	3218
928.267	3279
928.373	3941
928.479	3340
928.585	3100
928.69	3249
928.796	3283
928.901	3233
929.007	3070
929.112	3287
929.218	3176
929.323	3184
929.428	3192
929.533	3344
929.638	3142
929.743	3192
929.848	3279
929.953	3214
930.058	3180
930.163	3009
930.267	3089
930.372	3214
930.477	3104
930.581	3294
930.685	3150
930.79	3066
930.894	3135
930.998	3138
931.103	3291
931.207	2960
931.311	2975
931.415	2982
931.519	2792
931.623	2849
