Data from test_V78500241_1310.txt Node
Date: Fri Mar 25 16:24:16 CST 2022
User: usil
Spectrometer: V785-0024
Trigger mode: 0
Integration Time (sec): 4.000000E-1
Scans to average: 1
Nonlinearity correction enabled: false
Boxcar width: 0
Storing dark spectrum: false
XAxis mode: Wavelengths
Number of Pixels in Spectrum: 1024
>>>>>Begin Spectral Data<<<<<
801.071	2918
801.214	2944
801.356	2876
801.499	2918
801.641	2883
801.783	2963
801.926	3039
802.068	2979
802.211	3013
802.353	3032
802.496	2967
802.638	3085
802.78	3047
802.923	3055
803.065	3032
803.208	2906
803.35	2922
803.492	2952
803.635	2933
803.777	2766
803.919	2868
804.061	3176
804.204	2971
804.346	2899
804.488	2838
804.63	3017
804.773	2925
804.915	2880
805.057	3058
805.199	2937
805.341	3013
805.483	3036
805.626	3028
805.768	2982
805.91	3097
806.052	3119
806.194	3058
806.336	3268
806.478	3036
806.62	2933
806.762	2998
806.904	3066
807.046	3169
807.188	3009
807.33	2918
807.472	2952
807.614	2906
807.756	2998
807.898	2941
808.04	2914
808.182	3017
808.324	2982
808.465	2929
808.607	2872
808.749	2811
808.891	2872
809.033	2944
809.174	2990
809.316	2872
809.458	2864
809.6	2750
809.741	2758
809.883	2785
810.025	2883
810.166	2849
810.308	2857
810.45	2872
810.591	2788
810.733	2796
810.875	2807
811.016	2766
811.158	2785
811.299	2838
811.441	2918
811.582	2918
811.724	2811
811.865	2826
812.007	2902
812.148	2876
812.29	2819
812.431	2906
812.573	2906
812.714	2994
812.855	3066
812.997	3081
813.138	3104
813.279	3009
813.421	2948
813.562	3001
813.703	2895
813.845	2861
813.986	2762
814.127	2731
814.268	2861
814.41	2857
814.551	2838
814.692	2864
814.833	2811
814.974	2922
815.115	2952
815.256	2830
815.397	2826
815.539	2876
815.68	2781
815.821	2826
815.962	2960
816.103	2925
816.244	2876
816.385	2872
816.526	2960
816.666	2906
816.807	2735
816.948	2906
817.089	2929
817.23	2868
817.371	2739
817.512	2796
817.653	2819
817.793	2815
817.934	2922
818.075	2891
818.216	2982
818.356	3051
818.497	2887
818.638	2804
818.778	2838
818.919	2796
819.06	2773
819.2	2845
819.341	2823
819.481	2815
819.622	2929
819.762	3100
819.903	3043
820.043	2918
820.184	2914
820.324	2910
820.465	3001
820.605	3001
820.746	3024
820.886	2922
821.026	3062
821.167	3184
821.307	3233
821.447	3264
821.588	3249
821.728	3192
821.868	3173
822.008	3097
822.149	3169
822.289	3211
822.429	3093
822.569	3123
822.709	3203
822.849	3005
822.99	3047
823.13	3161
823.27	3222
823.41	3104
823.55	3161
823.69	3119
823.83	3184
823.97	3135
824.11	2994
824.25	3009
824.389	3024
824.529	3123
824.669	3062
824.809	3222
824.949	3264
825.089	3176
825.228	3150
825.368	3039
825.508	2998
825.648	2986
825.787	3047
825.927	2994
826.067	2944
826.206	2948
826.346	3051
826.485	3081
826.625	3142
826.765	3256
826.904	3192
827.044	2994
827.183	2944
827.323	2849
827.462	2990
827.601	2933
827.741	2952
827.88	2933
828.02	2857
828.159	2944
828.298	3066
828.437	3100
828.577	3036
828.716	3253
828.855	3116
828.994	2872
829.134	2883
829.273	2933
829.412	2857
829.551	2864
829.69	2914
829.829	2990
829.968	3097
830.107	3013
830.246	3062
830.385	2895
830.524	2876
830.663	2811
830.802	2731
830.941	2644
831.08	2617
831.219	2781
831.357	2750
831.496	2944
831.635	2739
831.774	2617
831.913	2678
832.051	2564
832.19	2552
832.329	2689
832.467	2522
832.606	2492
832.744	2598
832.883	2602
833.022	2587
833.16	2701
833.299	2651
833.437	2724
833.576	2705
833.714	2731
833.852	2743
833.991	2716
834.129	2823
834.267	2861
834.406	2781
834.544	2849
834.682	2880
834.821	2864
834.959	3077
835.097	2902
835.235	3036
835.373	3017
835.511	3001
835.65	2952
835.788	2952
835.926	2800
836.064	2834
836.202	2845
836.34	3055
836.478	3135
836.615	3047
836.753	3127
836.891	3226
837.029	3154
837.167	3123
837.305	3043
837.443	3062
837.58	2941
837.718	3131
837.856	3055
837.993	3028
838.131	3085
838.269	3127
838.406	3127
838.544	3112
838.681	2933
838.819	2933
838.956	2823
839.094	2815
839.231	2880
839.369	3024
839.506	3363
839.643	3222
839.781	3074
839.918	2971
840.055	3020
840.193	3017
840.33	3077
840.467	3112
840.604	3142
840.742	3412
840.879	3032
841.016	3032
841.153	3097
841.29	3340
841.427	3332
841.564	3264
841.701	3283
841.838	3218
841.975	3150
842.112	3188
842.249	3066
842.385	3039
842.522	3199
842.659	3093
842.796	3055
842.933	3097
843.069	3024
843.206	3024
843.343	3173
843.479	3100
843.616	3131
843.752	2906
843.889	2845
844.025	3062
844.162	2887
844.298	3039
844.435	2914
844.571	2918
844.708	3100
844.844	3180
844.98	3253
845.117	3165
845.253	3051
845.389	3001
845.525	3138
845.661	3097
845.798	3043
845.934	3100
846.07	3020
846.206	3169
846.342	3291
846.478	3226
846.614	3097
846.75	3058
846.886	3020
847.022	3226
847.158	3150
847.294	3146
847.429	3279
847.565	3184
847.701	3450
847.837	3032
847.972	2967
848.108	3154
848.244	3127
848.379	2944
848.515	2929
848.65	2910
848.786	2952
848.921	2990
849.057	3131
849.192	3154
849.328	3017
849.463	3123
849.598	3039
849.734	3009
849.869	2956
850.004	2906
850.14	2967
850.275	2895
850.41	2838
850.545	2880
850.68	2872
850.815	2986
850.95	2990
851.085	3173
851.22	3116
851.355	3028
851.49	2990
851.625	2998
851.76	3020
851.895	2914
852.03	2864
852.165	3020
852.299	3085
852.434	3176
852.569	3150
852.703	3146
852.838	3237
852.973	3336
853.107	3321
853.242	3146
853.376	3085
853.511	2990
853.645	3051
853.78	3214
853.914	3127
854.048	3108
854.183	3100
854.317	3135
854.451	3279
854.585	3116
854.72	3070
854.854	3184
854.988	3055
855.122	3085
855.256	2971
855.39	3085
855.524	3260
855.658	3142
855.792	3142
855.926	3161
856.06	3245
856.194	3279
856.327	3142
856.461	3058
856.595	3093
856.729	3077
856.862	3195
856.996	3131
857.13	3207
857.263	3199
857.397	3279
857.53	3123
857.664	3214
857.797	3279
857.931	3207
858.064	3142
858.197	3256
858.331	3150
858.464	3100
858.597	2982
858.731	3062
858.864	3131
858.997	3066
859.13	3123
859.263	3180
859.396	3214
859.529	3085
859.662	3055
859.795	3043
859.928	3157
860.061	3264
860.194	3260
860.327	3161
860.46	3100
860.592	3237
860.725	3256
860.858	3214
860.99	3089
861.123	3055
861.256	3028
861.388	3108
861.521	3701
861.653	2975
861.786	2967
861.918	2994
862.05	3085
862.183	3085
862.315	3127
862.447	3180
862.58	3077
862.712	2933
862.844	2868
862.976	3009
863.108	3013
863.24	3313
863.372	2861
863.504	3005
863.636	2902
863.768	2994
863.9	3009
864.032	2906
864.164	2937
864.296	3001
864.428	3047
864.559	3089
864.691	3100
864.823	3039
864.954	3009
865.086	3020
865.217	2986
865.349	2952
865.48	2986
865.612	3009
865.743	3142
865.875	2971
866.006	2922
866.137	2982
866.269	2929
866.4	2922
866.531	2891
866.662	2853
866.793	2861
866.924	2887
867.055	3001
867.186	2922
867.317	2918
867.448	2853
867.579	2861
867.71	2826
867.841	2826
867.972	2883
868.103	2914
868.233	2883
868.364	2861
868.495	2857
868.625	3070
868.756	3173
868.886	2960
869.017	3009
869.147	3199
869.278	3142
869.408	3028
869.539	3009
869.669	3112
869.799	3013
869.929	3108
870.06	3077
870.19	3313
870.32	3291
870.45	3230
870.58	3355
870.71	3428
870.84	3454
870.97	3260
871.1	3226
871.23	3469
871.36	3466
871.489	3359
871.619	3412
871.749	3416
871.879	3397
872.008	3469
872.138	3340
872.267	3237
872.397	3097
872.526	3070
872.656	2998
872.785	3085
872.915	3211
873.044	3344
873.173	3260
873.303	3310
873.432	3275
873.561	3268
873.69	3131
873.819	3169
873.948	3207
874.077	3077
874.206	3036
874.335	3104
874.464	3199
874.593	3340
874.722	3211
874.851	3397
874.979	3344
875.108	3272
875.237	3218
875.365	3127
875.494	3127
875.623	3245
875.751	3077
875.88	3055
876.008	3157
876.136	3195
876.265	3367
876.393	3469
876.521	3424
876.65	3374
876.778	3317
876.906	3256
877.034	3211
877.162	3214
877.29	3184
877.418	3230
877.546	3233
877.674	3218
877.802	3230
877.93	3218
878.058	3142
878.185	3066
878.313	3169
878.441	3176
878.568	3089
878.696	3135
878.824	3249
878.951	3275
879.079	3428
879.206	3572
879.333	3420
879.461	3294
879.588	3321
879.715	3473
879.842	3591
879.97	3397
880.097	3161
880.224	3097
880.351	3199
880.478	3230
880.605	3222
880.732	3157
880.859	3507
880.986	3325
881.112	3329
881.239	3203
881.366	3116
881.493	3009
881.619	2998
881.746	3074
881.872	3085
881.999	3119
882.125	3146
882.252	3245
882.378	3291
882.505	3435
882.631	3279
882.757	3154
882.883	3207
883.01	3241
883.136	3157
883.262	3070
883.388	3142
883.514	3268
883.64	3355
883.766	3298
883.892	3233
884.018	3222
884.143	3416
884.269	3500
884.395	3184
884.52	3146
884.646	3180
884.772	3165
884.897	3077
885.023	3207
885.148	3344
885.274	3386
885.399	3367
885.524	3256
885.65	3233
885.775	3306
885.9	3283
886.025	3435
886.15	3389
886.275	3313
886.4	3230
886.525	3291
886.65	3268
886.775	3313
886.9	3515
887.025	3637
887.149	3374
887.274	3237
887.399	3230
887.523	3176
887.648	3195
887.773	3154
887.897	3351
888.021	3431
888.146	3294
888.27	3428
888.395	3477
888.519	3428
888.643	3420
888.767	3488
888.891	3325
889.015	3241
889.139	3256
889.263	3268
889.387	3405
889.511	3504
889.635	3431
889.759	3256
889.883	3256
890.006	3367
890.13	3492
890.254	3268
890.377	3313
890.501	3211
890.624	3157
890.748	3279
890.871	3192
890.995	3116
891.118	3017
891.241	3188
891.364	3218
891.488	3317
891.611	3173
891.734	3173
891.857	3226
891.98	3245
892.103	3332
892.226	3245
892.349	3233
892.471	3077
892.594	3241
892.717	3249
892.839	3253
892.962	3268
893.085	3363
893.207	3283
893.33	3142
893.452	3211
893.575	3325
893.697	3260
893.819	3454
893.941	3447
894.064	3450
894.186	3279
894.308	3256
894.43	3416
894.552	3496
894.674	3447
894.796	3272
894.918	3279
895.04	3275
895.161	3412
895.283	3374
895.405	3321
895.526	3359
895.648	3412
895.769	3428
895.891	3443
896.012	3496
896.134	3450
896.255	3393
896.376	3340
896.498	3344
896.619	3416
896.74	3351
896.861	3412
896.982	3663
897.103	3846
897.224	3599
897.345	3511
897.466	3462
897.587	3500
897.708	3591
897.828	3504
897.949	3428
898.07	3340
898.19	3374
898.311	3591
898.431	3462
898.552	3481
898.672	3572
898.792	3584
898.913	3519
899.033	3420
899.153	3279
899.273	3230
899.393	3253
899.513	3298
899.633	3351
899.753	3340
899.873	3329
899.993	3367
900.113	3275
900.232	3382
900.352	3348
900.472	3268
900.591	3184
900.711	3268
900.83	3214
900.95	3382
901.069	3458
901.189	3355
901.308	3173
901.427	3119
901.546	3173
901.665	3249
901.784	3310
901.904	3226
902.023	3146
902.141	2998
902.26	3013
902.379	3127
902.498	3028
902.617	3039
902.735	3214
902.854	3218
902.973	3161
903.091	3001
903.21	2994
903.328	3157
903.446	3097
903.565	3097
903.683	3154
903.801	3138
903.919	3249
904.038	3245
904.156	3180
904.274	3249
904.392	3268
904.51	3268
904.627	3317
904.745	3477
904.863	3504
904.981	3249
905.098	3150
905.216	3241
905.334	3272
905.451	3291
905.569	3287
905.686	3389
905.803	3439
905.921	3253
906.038	3477
906.155	3310
906.272	3245
906.389	3332
906.506	3226
906.623	3226
906.74	3272
906.857	3146
906.974	3241
907.091	3424
907.208	3557
907.324	3466
907.441	3389
907.557	3199
907.674	3214
907.79	3214
907.907	3291
908.023	3370
908.139	3374
908.256	3317
908.372	3389
908.488	3325
908.604	3256
908.72	3226
908.836	3272
908.952	3272
909.068	3325
909.184	3485
909.3	3374
909.415	3511
909.531	3435
909.647	3268
909.762	3294
909.878	3241
909.993	3367
910.108	3298
910.224	3294
910.339	3424
910.454	3329
910.57	3253
910.685	3222
910.8	3587
910.915	3530
911.03	3424
911.145	3249
911.259	3233
911.374	3313
911.489	3256
911.604	3222
911.718	3131
911.833	3093
911.947	3036
912.062	2960
912.176	3161
912.291	3180
912.405	3161
912.519	3401
912.633	3462
912.748	3317
912.862	3291
912.976	3146
913.09	3077
913.204	3135
913.318	3169
913.431	3340
913.545	3336
913.659	3370
913.772	3279
913.886	3245
914	3184
914.113	3321
914.226	3386
914.34	3336
914.453	3184
914.566	3412
914.68	3325
914.793	3275
914.906	3127
915.019	3085
915.132	3093
915.245	3161
915.358	3214
915.47	3218
915.583	3253
915.696	3287
915.809	3443
915.921	3454
916.034	3226
916.146	3245
916.259	3256
916.371	3397
916.483	3355
916.595	3291
916.708	3382
916.82	3336
916.932	3336
917.044	3348
917.156	3397
917.268	3253
917.38	3325
917.491	3336
917.603	3370
917.715	3458
917.826	3488
917.938	3428
918.049	3313
918.161	3439
918.272	3568
918.384	3641
918.495	3515
918.606	3378
918.717	3329
918.828	3405
918.939	3462
919.05	3348
919.161	3351
919.272	3207
919.383	3344
919.494	3564
919.604	3698
919.715	3496
919.826	3454
919.936	3469
920.047	3572
920.157	3614
920.267	3808
920.378	3610
920.488	3606
920.598	3804
920.708	3998
920.818	3888
920.928	3823
921.038	4021
921.148	4036
921.258	3743
921.368	3682
921.477	3637
921.587	3576
921.697	3500
921.806	3690
921.916	3542
922.025	3382
922.134	3382
922.244	3382
922.353	3481
922.462	3310
922.571	3249
922.68	3169
922.789	3097
922.898	3192
923.007	3123
923.116	3245
923.224	3222
923.333	3176
923.442	3135
923.55	3150
923.659	3173
923.767	3241
923.876	3135
923.984	3268
924.092	3169
924.201	3203
924.309	3275
924.417	3291
924.525	3222
924.633	3291
924.741	4048
924.849	3097
924.956	3283
925.064	3165
925.172	3085
925.279	3157
925.387	3253
925.494	3268
925.602	3378
925.709	3359
925.816	3279
925.924	3340
926.031	3393
926.138	3351
926.245	3420
926.352	3272
926.459	3435
926.566	3542
926.673	3370
926.779	3310
926.886	3306
926.993	3184
927.099	3184
927.206	3150
927.312	3165
927.419	3268
927.525	3233
927.631	3275
927.737	3199
927.843	3138
927.95	3036
928.056	3138
928.162	3241
928.267	3291
928.373	3888
928.479	3340
928.585	3081
928.69	3207
928.796	3302
928.901	3161
929.007	3070
929.112	3230
929.218	3211
929.323	3184
929.428	3211
929.533	3332
929.638	3142
929.743	3173
929.848	3332
929.953	3245
930.058	3173
930.163	3028
930.267	3089
930.372	3203
930.477	3047
930.581	3367
930.685	3192
930.79	3070
930.894	3127
930.998	3097
931.103	3310
931.207	2971
931.311	3001
931.415	2956
931.519	2792
931.623	2823
