Data from test_V78500241_1681.txt Node
Date: Fri Mar 25 16:26:50 CST 2022
User: usil
Spectrometer: V785-0024
Trigger mode: 0
Integration Time (sec): 4.000000E-1
Scans to average: 1
Nonlinearity correction enabled: false
Boxcar width: 0
Storing dark spectrum: false
XAxis mode: Wavelengths
Number of Pixels in Spectrum: 1024
>>>>>Begin Spectral Data<<<<<
801.071	2922
801.214	2922
801.356	2864
801.499	2868
801.641	2861
801.783	2918
801.926	3043
802.068	2971
802.211	2967
802.353	3009
802.496	2960
802.638	2986
802.78	3013
802.923	3058
803.065	3017
803.208	2876
803.35	2914
803.492	2941
803.635	2891
803.777	2769
803.919	2845
804.061	3226
804.204	2864
804.346	2902
804.488	2826
804.63	2979
804.773	2853
804.915	2929
805.057	3062
805.199	2914
805.341	2975
805.483	3028
805.626	2994
805.768	2963
805.91	3085
806.052	3138
806.194	3047
806.336	3253
806.478	3013
806.62	2963
806.762	2948
806.904	3039
807.046	3207
807.188	2975
807.33	2864
807.472	2975
807.614	2910
807.756	2971
807.898	2914
808.04	2872
808.182	2982
808.324	2914
808.465	2868
808.607	2868
808.749	2762
808.891	2823
809.033	2971
809.174	2948
809.316	2906
809.458	2872
809.6	2781
809.741	2754
809.883	2750
810.025	2804
810.166	2830
810.308	2845
810.45	2857
810.591	2750
810.733	2773
810.875	2807
811.016	2750
811.158	2705
811.299	2826
811.441	2929
811.582	2868
811.724	2811
811.865	2800
812.007	2918
812.148	2853
812.29	2838
812.431	2880
812.573	2918
812.714	2944
812.855	3013
812.997	3039
813.138	3093
813.279	2975
813.421	2982
813.562	2948
813.703	2804
813.845	2857
813.986	2781
814.127	2708
814.268	2834
814.41	2872
814.551	2788
814.692	2868
814.833	2811
814.974	2868
815.115	2922
815.256	2826
815.397	2804
815.539	2876
815.68	2777
815.821	2807
815.962	2944
816.103	2925
816.244	2872
816.385	2845
816.526	2998
816.666	2922
816.807	2750
816.948	2906
817.089	2922
817.23	2845
817.371	2807
817.512	2807
817.653	2826
817.793	2804
817.934	2872
818.075	2891
818.216	2967
818.356	2998
818.497	2876
818.638	2823
818.778	2815
818.919	2758
819.06	2773
819.2	2872
819.341	2800
819.481	2792
819.622	2929
819.762	3081
819.903	3001
820.043	2902
820.184	2902
820.324	2914
820.465	2998
820.605	2998
820.746	3028
820.886	2963
821.026	3062
821.167	3135
821.307	3256
821.447	3241
821.588	3222
821.728	3249
821.868	3199
822.008	3039
822.149	3169
822.289	3211
822.429	3112
822.569	3036
822.709	3180
822.849	3005
822.99	3039
823.13	3214
823.27	3176
823.41	3112
823.55	3154
823.69	3207
823.83	3131
823.97	3100
824.11	2986
824.25	2990
824.389	3077
824.529	3104
824.669	3051
824.809	3146
824.949	3264
825.089	3211
825.228	3142
825.368	2998
825.508	2922
825.648	2979
825.787	2982
825.927	3032
826.067	2941
826.206	2960
826.346	3039
826.485	3055
826.625	3108
826.765	3260
826.904	3249
827.044	2975
827.183	2895
827.323	2861
827.462	2998
827.601	2902
827.741	2895
827.88	2944
828.02	2830
828.159	2967
828.298	3020
828.437	3077
828.577	2979
828.716	3237
828.855	3074
828.994	2914
829.134	2857
829.273	2910
829.412	2849
829.551	2880
829.69	2880
829.829	2967
829.968	3093
830.107	2986
830.246	3024
830.385	2910
830.524	2853
830.663	2777
830.802	2705
830.941	2663
831.08	2632
831.219	2754
831.357	2754
831.496	2933
831.635	2689
831.774	2663
831.913	2640
832.051	2556
832.19	2568
832.329	2686
832.467	2526
832.606	2476
832.744	2545
832.883	2575
833.022	2545
833.16	2629
833.299	2648
833.437	2670
833.576	2697
833.714	2754
833.852	2754
833.991	2766
834.129	2796
834.267	2788
834.406	2762
834.544	2838
834.682	2853
834.821	2861
834.959	3047
835.097	2880
835.235	3009
835.373	2986
835.511	3032
835.65	2982
835.788	2948
835.926	2826
836.064	2811
836.202	2849
836.34	3104
836.478	3154
836.615	3093
836.753	3142
836.891	3199
837.029	3184
837.167	3100
837.305	3070
837.443	3043
837.58	2967
837.718	3116
837.856	3043
837.993	3001
838.131	3100
838.269	3077
838.406	3036
838.544	3074
838.681	2948
838.819	2910
838.956	2823
839.094	2849
839.231	2922
839.369	3017
839.506	3344
839.643	3169
839.781	3009
839.918	2929
840.055	3043
840.193	3043
840.33	3104
840.467	3108
840.604	3127
840.742	3416
840.879	3043
841.016	3017
841.153	3123
841.29	3370
841.427	3268
841.564	3272
841.701	3275
841.838	3233
841.975	3211
842.112	3211
842.249	3043
842.385	2990
842.522	3233
842.659	3089
842.796	3070
842.933	3043
843.069	3055
843.206	2982
843.343	3169
843.479	3093
843.616	3127
843.752	2887
843.889	2845
844.025	3081
844.162	2845
844.298	3055
844.435	2933
844.571	2910
844.708	3070
844.844	3135
844.98	3207
845.117	3157
845.253	3043
845.389	3017
845.525	3119
845.661	3062
845.798	3017
845.934	3085
846.07	3039
846.206	3214
846.342	3275
846.478	3184
846.614	3058
846.75	3036
846.886	3017
847.022	3203
847.158	3085
847.294	3169
847.429	3249
847.565	3195
847.701	3504
847.837	3017
847.972	2975
848.108	3161
848.244	3119
848.379	2929
848.515	2895
848.65	2918
848.786	2975
848.921	2967
849.057	3039
849.192	3108
849.328	3055
849.463	3085
849.598	3055
849.734	3024
849.869	2937
850.004	2937
850.14	2963
850.275	2899
850.41	2830
850.545	2887
850.68	2910
850.815	2910
850.95	2929
851.085	3180
851.22	3051
851.355	3039
851.49	2975
851.625	2975
851.76	2998
851.895	2895
852.03	2914
852.165	3005
852.299	3112
852.434	3123
852.569	3089
852.703	3135
852.838	3237
852.973	3340
853.107	3329
853.242	3112
853.376	3070
853.511	2960
853.645	3013
853.78	3199
853.914	3093
854.048	3089
854.183	3017
854.317	3116
854.451	3272
854.585	3100
854.72	3085
854.854	3188
854.988	3066
855.122	3108
855.256	2975
855.39	3097
855.524	3199
855.658	3142
855.792	3142
855.926	3203
856.06	3180
856.194	3237
856.327	3169
856.461	3112
856.595	3097
856.729	3100
856.862	3241
856.996	3146
857.13	3241
857.263	3226
857.397	3317
857.53	3116
857.664	3237
857.797	3279
857.931	3268
858.064	3199
858.197	3283
858.331	3116
858.464	3104
858.597	3028
858.731	3146
858.864	3169
858.997	3058
859.13	3138
859.263	3203
859.396	3192
859.529	3100
859.662	3081
859.795	3108
859.928	3138
860.061	3272
860.194	3268
860.327	3157
860.46	3089
860.592	3268
860.725	3275
860.858	3256
860.99	3138
861.123	3104
861.256	3112
861.388	3218
861.521	3880
861.653	3036
861.786	3017
861.918	3043
862.05	3112
862.183	3165
862.315	3188
862.447	3222
862.58	3176
862.712	2982
862.844	2895
862.976	3077
863.108	3028
863.24	3447
863.372	2883
863.504	2998
863.636	3005
863.768	3089
863.9	3001
864.032	2918
864.164	2975
864.296	3055
864.428	3112
864.559	3146
864.691	3085
864.823	3081
864.954	3062
865.086	3085
865.217	3013
865.349	3005
865.48	3043
865.612	3032
865.743	3218
865.875	3009
866.006	3001
866.137	3005
866.269	2982
866.4	2952
866.531	2967
866.662	2925
866.793	2906
866.924	2944
867.055	3020
867.186	2998
867.317	2952
867.448	2876
867.579	2929
867.71	2906
867.841	2861
867.972	2944
868.103	2944
868.233	2925
868.364	2891
868.495	2933
868.625	3131
868.756	3214
868.886	3024
869.017	3062
869.147	3222
869.278	3188
869.408	3074
869.539	3055
869.669	3161
869.799	3043
869.929	3173
870.06	3142
870.19	3351
870.32	3336
870.45	3279
870.58	3416
870.71	3450
870.84	3481
870.97	3340
871.1	3279
871.23	3519
871.36	3477
871.489	3340
871.619	3428
871.749	3447
871.879	3443
872.008	3488
872.138	3401
872.267	3283
872.397	3203
872.526	3081
872.656	3032
872.785	3093
872.915	3249
873.044	3344
873.173	3241
873.303	3272
873.432	3264
873.561	3253
873.69	3184
873.819	3226
873.948	3184
874.077	3131
874.206	3074
874.335	3089
874.464	3218
874.593	3332
874.722	3249
874.851	3424
874.979	3382
875.108	3340
875.237	3195
875.365	3192
875.494	3195
875.623	3313
875.751	3093
875.88	3131
876.008	3230
876.136	3260
876.265	3405
876.393	3492
876.521	3420
876.65	3447
876.778	3321
876.906	3287
877.034	3207
877.162	3245
877.29	3192
877.418	3287
877.546	3237
877.674	3294
877.802	3230
877.93	3241
878.058	3207
878.185	3116
878.313	3222
878.441	3230
878.568	3131
878.696	3150
878.824	3275
878.951	3332
879.079	3481
879.206	3599
879.333	3466
879.461	3348
879.588	3401
879.715	3534
879.842	3622
879.97	3401
880.097	3188
880.224	3173
880.351	3237
880.478	3264
880.605	3237
880.732	3237
880.859	3553
880.986	3302
881.112	3355
881.239	3233
881.366	3127
881.493	3081
881.619	3047
881.746	3100
881.872	3119
881.999	3127
882.125	3150
882.252	3279
882.378	3321
882.505	3458
882.631	3325
882.757	3188
882.883	3245
883.01	3230
883.136	3165
883.262	3150
883.388	3165
883.514	3344
883.64	3397
883.766	3344
883.892	3230
884.018	3256
884.143	3435
884.269	3568
884.395	3237
884.52	3207
884.646	3195
884.772	3184
884.897	3104
885.023	3237
885.148	3344
885.274	3401
885.399	3420
885.524	3313
885.65	3302
885.775	3321
885.9	3351
886.025	3439
886.15	3401
886.275	3321
886.4	3291
886.525	3363
886.65	3306
886.775	3313
886.9	3511
887.025	3679
887.149	3420
887.274	3310
887.399	3283
887.523	3226
887.648	3241
887.773	3188
887.897	3374
888.021	3420
888.146	3340
888.27	3458
888.395	3553
888.519	3439
888.643	3466
888.767	3500
888.891	3389
889.015	3279
889.139	3291
889.263	3291
889.387	3435
889.511	3549
889.635	3523
889.759	3336
889.883	3291
890.006	3447
890.13	3519
890.254	3313
890.377	3389
890.501	3272
890.624	3195
890.748	3336
890.871	3203
890.995	3173
891.118	3074
891.241	3230
891.364	3230
891.488	3374
891.611	3211
891.734	3283
891.857	3275
891.98	3275
892.103	3382
892.226	3260
892.349	3218
892.471	3127
892.594	3237
892.717	3306
892.839	3310
892.962	3321
893.085	3382
893.207	3332
893.33	3192
893.452	3207
893.575	3374
893.697	3253
893.819	3454
893.941	3538
894.064	3488
894.186	3260
894.308	3264
894.43	3462
894.552	3542
894.674	3492
894.796	3283
894.918	3336
895.04	3313
895.161	3435
895.283	3386
895.405	3332
895.526	3389
895.648	3443
895.769	3428
895.891	3424
896.012	3504
896.134	3481
896.255	3447
896.376	3424
896.498	3420
896.619	3454
896.74	3306
896.861	3462
896.982	3698
897.103	3896
897.224	3610
897.345	3492
897.466	3458
897.587	3477
897.708	3622
897.828	3591
897.949	3435
898.07	3351
898.19	3454
898.311	3603
898.431	3450
898.552	3515
898.672	3606
898.792	3614
898.913	3534
899.033	3435
899.153	3313
899.273	3222
899.393	3287
899.513	3310
899.633	3279
899.753	3336
899.873	3325
899.993	3386
900.113	3329
900.232	3401
900.352	3344
900.472	3321
900.591	3253
900.711	3313
900.83	3279
900.95	3401
901.069	3515
901.189	3393
901.308	3207
901.427	3161
901.546	3169
901.665	3313
901.784	3344
901.904	3253
902.023	3150
902.141	3047
902.26	3005
902.379	3135
902.498	3112
902.617	3081
902.735	3233
902.854	3253
902.973	3218
903.091	3047
903.21	3085
903.328	3146
903.446	3135
903.565	3100
903.683	3192
903.801	3173
903.919	3237
904.038	3310
904.156	3211
904.274	3283
904.392	3230
904.51	3340
904.627	3336
904.745	3428
904.863	3507
904.981	3291
905.098	3165
905.216	3203
905.334	3359
905.451	3348
905.569	3321
905.686	3450
905.803	3428
905.921	3264
906.038	3416
906.155	3374
906.272	3272
906.389	3351
906.506	3268
906.623	3283
906.74	3264
906.857	3226
906.974	3321
907.091	3458
907.208	3568
907.324	3466
907.441	3412
907.557	3256
907.674	3275
907.79	3222
907.907	3336
908.023	3416
908.139	3382
908.256	3317
908.372	3393
908.488	3370
908.604	3275
908.72	3256
908.836	3306
908.952	3294
909.068	3359
909.184	3466
909.3	3393
909.415	3496
909.531	3481
909.647	3272
909.762	3310
909.878	3260
909.993	3389
910.108	3351
910.224	3351
910.339	3443
910.454	3348
910.57	3306
910.685	3245
910.8	3591
910.915	3496
911.03	3439
911.145	3287
911.259	3298
911.374	3294
911.489	3256
911.604	3241
911.718	3146
911.833	3131
911.947	3017
912.062	3005
912.176	3180
912.291	3211
912.405	3230
912.519	3447
912.633	3496
912.748	3382
912.862	3279
912.976	3192
913.09	3081
913.204	3123
913.318	3188
913.431	3374
913.545	3355
913.659	3420
913.772	3344
913.886	3230
914	3195
914.113	3374
914.226	3397
914.34	3370
914.453	3230
914.566	3416
914.68	3291
914.793	3306
914.906	3135
915.019	3161
915.132	3074
915.245	3203
915.358	3249
915.47	3195
915.583	3268
915.696	3348
915.809	3401
915.921	3424
916.034	3226
916.146	3264
916.259	3230
916.371	3393
916.483	3355
916.595	3298
916.708	3378
916.82	3355
916.932	3325
917.044	3363
917.156	3382
917.268	3294
917.38	3325
917.491	3313
917.603	3389
917.715	3439
917.826	3485
917.938	3397
918.049	3241
918.161	3462
918.272	3572
918.384	3545
918.495	3466
918.606	3321
918.717	3321
918.828	3397
918.939	3405
919.05	3302
919.161	3348
919.272	3161
919.383	3287
919.494	3549
919.604	3671
919.715	3466
919.826	3389
919.936	3458
920.047	3599
920.157	3542
920.267	3781
920.378	3606
920.488	3545
920.598	3774
920.708	3972
920.818	3846
920.928	3827
921.038	3983
921.148	3987
921.258	3713
921.368	3648
921.477	3572
921.587	3591
921.697	3447
921.806	3633
921.916	3549
922.025	3393
922.134	3363
922.244	3291
922.353	3447
922.462	3275
922.571	3192
922.68	3112
922.789	3070
922.898	3135
923.007	3116
923.116	3184
923.224	3176
923.333	3173
923.442	3131
923.55	3112
923.659	3154
923.767	3241
923.876	3157
923.984	3211
924.092	3112
924.201	3222
924.309	3222
924.417	3264
924.525	3233
924.633	3253
924.741	4154
924.849	3051
924.956	3272
925.064	3123
925.172	3051
925.279	3123
925.387	3226
925.494	3222
925.602	3382
925.709	3389
925.816	3214
925.924	3340
926.031	3405
926.138	3359
926.245	3420
926.352	3264
926.459	3462
926.566	3492
926.673	3355
926.779	3268
926.886	3287
926.993	3188
927.099	3199
927.206	3165
927.312	3157
927.419	3237
927.525	3203
927.631	3302
927.737	3192
927.843	3173
927.95	3081
928.056	3195
928.162	3199
928.267	3325
928.373	3945
928.479	3363
928.585	3097
928.69	3275
928.796	3310
928.901	3241
929.007	3093
929.112	3264
929.218	3222
929.323	3192
929.428	3222
929.533	3336
929.638	3161
929.743	3195
929.848	3291
929.953	3260
930.058	3180
930.163	3081
930.267	3081
930.372	3302
930.477	3093
930.581	3367
930.685	3222
930.79	3108
930.894	3150
930.998	3169
931.103	3313
931.207	3020
931.311	3001
931.415	2971
931.519	2823
931.623	2891
