Data from test_V78500241_1888.txt Node
Date: Fri Mar 25 16:28:16 CST 2022
User: usil
Spectrometer: V785-0024
Trigger mode: 0
Integration Time (sec): 4.000000E-1
Scans to average: 1
Nonlinearity correction enabled: false
Boxcar width: 0
Storing dark spectrum: false
XAxis mode: Wavelengths
Number of Pixels in Spectrum: 1024
>>>>>Begin Spectral Data<<<<<
801.071	2933
801.214	2994
801.356	2883
801.499	2914
801.641	2880
801.783	2925
801.926	3070
802.068	2971
802.211	3013
802.353	3020
802.496	2975
802.638	3001
802.78	3020
802.923	3093
803.065	3024
803.208	2941
803.35	2895
803.492	2952
803.635	2944
803.777	2743
803.919	2830
804.061	3195
804.204	2982
804.346	2929
804.488	2845
804.63	2982
804.773	2902
804.915	2906
805.057	3116
805.199	2937
805.341	2994
805.483	3032
805.626	2971
805.768	2971
805.91	3070
806.052	3077
806.194	3039
806.336	3253
806.478	3039
806.62	2963
806.762	2990
806.904	3055
807.046	3146
807.188	2963
807.33	2937
807.472	3032
807.614	2944
807.756	2956
807.898	2918
808.04	2887
808.182	3001
808.324	2963
808.465	2868
808.607	2872
808.749	2788
808.891	2834
809.033	2963
809.174	2982
809.316	2872
809.458	2891
809.6	2746
809.741	2773
809.883	2773
810.025	2845
810.166	2861
810.308	2811
810.45	2861
810.591	2762
810.733	2777
810.875	2800
811.016	2758
811.158	2788
811.299	2796
811.441	2925
811.582	2902
811.724	2800
811.865	2845
812.007	2914
812.148	2876
812.29	2800
812.431	2849
812.573	2914
812.714	2952
812.855	3039
812.997	3043
813.138	3104
813.279	3005
813.421	2967
813.562	2933
813.703	2845
813.845	2899
813.986	2777
814.127	2720
814.268	2811
814.41	2834
814.551	2766
814.692	2872
814.833	2819
814.974	2891
815.115	2956
815.256	2830
815.397	2792
815.539	2815
815.68	2796
815.821	2766
815.962	2967
816.103	2914
816.244	2842
816.385	2887
816.526	2937
816.666	2922
816.807	2727
816.948	2864
817.089	2902
817.23	2834
817.371	2785
817.512	2781
817.653	2811
817.793	2796
817.934	2864
818.075	2960
818.216	2990
818.356	3024
818.497	2883
818.638	2788
818.778	2819
818.919	2769
819.06	2758
819.2	2895
819.341	2792
819.481	2826
819.622	2948
819.762	3100
819.903	3032
820.043	2902
820.184	2925
820.324	2929
820.465	3017
820.605	3058
820.746	3036
820.886	2948
821.026	3089
821.167	3154
821.307	3279
821.447	3306
821.588	3275
821.728	3195
821.868	3203
822.008	3108
822.149	3222
822.289	3241
822.429	3150
822.569	3112
822.709	3176
822.849	3070
822.99	3085
823.13	3207
823.27	3203
823.41	3131
823.55	3192
823.69	3165
823.83	3226
823.97	3119
824.11	2990
824.25	3017
824.389	3081
824.529	3116
824.669	3123
824.809	3233
824.949	3294
825.089	3283
825.228	3184
825.368	3043
825.508	3005
825.648	3062
825.787	3055
825.927	3070
826.067	3020
826.206	2979
826.346	3112
826.485	3081
826.625	3154
826.765	3329
826.904	3268
827.044	3013
827.183	2986
827.323	2925
827.462	3013
827.601	2933
827.741	2982
827.88	3013
828.02	2880
828.159	3001
828.298	3051
828.437	3150
828.577	3070
828.716	3294
828.855	3116
828.994	2990
829.134	2929
829.273	2967
829.412	2944
829.551	2883
829.69	2922
829.829	3032
829.968	3180
830.107	3074
830.246	3058
830.385	2937
830.524	2914
830.663	2883
830.802	2735
830.941	2682
831.08	2670
831.219	2830
831.357	2804
831.496	2979
831.635	2785
831.774	2701
831.913	2708
832.051	2613
832.19	2617
832.329	2735
832.467	2583
832.606	2507
832.744	2632
832.883	2621
833.022	2629
833.16	2678
833.299	2731
833.437	2731
833.576	2712
833.714	2724
833.852	2735
833.991	2819
834.129	2864
834.267	2876
834.406	2830
834.544	2925
834.682	2902
834.821	2902
834.959	3062
835.097	2925
835.235	3119
835.373	2998
835.511	3097
835.65	3009
835.788	2967
835.926	2861
836.064	2861
836.202	2876
836.34	3138
836.478	3146
836.615	3077
836.753	3188
836.891	3218
837.029	3199
837.167	3131
837.305	3074
837.443	3074
837.58	2982
837.718	3161
837.856	3116
837.993	3074
838.131	3199
838.269	3104
838.406	3085
838.544	3077
838.681	2982
838.819	2922
838.956	2815
839.094	2830
839.231	2944
839.369	3074
839.506	3439
839.643	3241
839.781	3047
839.918	2994
840.055	3070
840.193	3070
840.33	3066
840.467	3138
840.604	3218
840.742	3443
840.879	3100
841.016	3055
841.153	3135
841.29	3340
841.427	3329
841.564	3298
841.701	3332
841.838	3237
841.975	3199
842.112	3218
842.249	3097
842.385	3051
842.522	3291
842.659	3131
842.796	3039
842.933	3135
843.069	3066
843.206	3066
843.343	3199
843.479	3112
843.616	3116
843.752	2914
843.889	2864
844.025	3104
844.162	2914
844.298	3131
844.435	2971
844.571	2922
844.708	3089
844.844	3214
844.98	3245
845.117	3203
845.253	3089
845.389	3051
845.525	3127
845.661	3135
845.798	3039
845.934	3146
846.07	3066
846.206	3291
846.342	3336
846.478	3245
846.614	3112
846.75	3055
846.886	3039
847.022	3253
847.158	3131
847.294	3203
847.429	3291
847.565	3218
847.701	3542
847.837	3058
847.972	3070
848.108	3192
848.244	3192
848.379	3028
848.515	2960
848.65	2925
848.786	2975
848.921	3024
849.057	3108
849.192	3184
849.328	3108
849.463	3142
849.598	3074
849.734	3058
849.869	2994
850.004	2975
850.14	2990
850.275	2906
850.41	2902
850.545	2941
850.68	2963
850.815	2952
850.95	3005
851.085	3241
851.22	3119
851.355	3005
851.49	2990
851.625	3005
851.76	3036
851.895	2960
852.03	2925
852.165	3043
852.299	3146
852.434	3207
852.569	3176
852.703	3203
852.838	3287
852.973	3386
853.107	3344
853.242	3184
853.376	3112
853.511	2986
853.645	3070
853.78	3245
853.914	3123
854.048	3150
854.183	3093
854.317	3157
854.451	3321
854.585	3173
854.72	3104
854.854	3260
854.988	3055
855.122	3104
855.256	2998
855.39	3154
855.524	3279
855.658	3226
855.792	3180
855.926	3226
856.06	3226
856.194	3291
856.327	3214
856.461	3100
856.595	3066
856.729	3123
856.862	3260
856.996	3188
857.13	3222
857.263	3222
857.397	3325
857.53	3123
857.664	3218
857.797	3287
857.931	3253
858.064	3203
858.197	3237
858.331	3184
858.464	3127
858.597	2998
858.731	3116
858.864	3131
858.997	3104
859.13	3142
859.263	3192
859.396	3222
859.529	3135
859.662	3074
859.795	3081
859.928	3184
860.061	3272
860.194	3306
860.327	3146
860.46	3123
860.592	3291
860.725	3249
860.858	3275
860.99	3142
861.123	3089
861.256	3081
861.388	3176
861.521	3827
861.653	3005
861.786	3028
861.918	3039
862.05	3062
862.183	3108
862.315	3188
862.447	3203
862.58	3116
862.712	3013
862.844	2906
862.976	3062
863.108	2994
863.24	3310
863.372	2922
863.504	2998
863.636	2948
863.768	3062
863.9	2971
864.032	2937
864.164	2944
864.296	3039
864.428	3116
864.559	3097
864.691	3100
864.823	3055
864.954	3074
865.086	3066
865.217	3009
865.349	2979
865.48	2986
865.612	3051
865.743	3180
865.875	3028
866.006	2937
866.137	2994
866.269	2982
866.4	2952
866.531	2929
866.662	2914
866.793	2914
866.924	2944
867.055	2975
867.186	2994
867.317	2925
867.448	2876
867.579	2861
867.71	2853
867.841	2834
867.972	2910
868.103	2880
868.233	2899
868.364	2876
868.495	2918
868.625	3093
868.756	3203
868.886	3001
869.017	3081
869.147	3192
869.278	3207
869.408	3051
869.539	3055
869.669	3138
869.799	3077
869.929	3108
870.06	3135
870.19	3325
870.32	3313
870.45	3268
870.58	3317
870.71	3454
870.84	3473
870.97	3306
871.1	3260
871.23	3500
871.36	3466
871.489	3348
871.619	3409
871.749	3420
871.879	3458
872.008	3545
872.138	3397
872.267	3310
872.397	3173
872.526	3085
872.656	3005
872.785	3116
872.915	3283
873.044	3317
873.173	3218
873.303	3275
873.432	3264
873.561	3249
873.69	3211
873.819	3161
873.948	3241
874.077	3116
874.206	3047
874.335	3104
874.464	3173
874.593	3340
874.722	3264
874.851	3378
874.979	3351
875.108	3382
875.237	3207
875.365	3157
875.494	3176
875.623	3260
875.751	3077
875.88	3116
876.008	3184
876.136	3237
876.265	3359
876.393	3492
876.521	3420
876.65	3420
876.778	3325
876.906	3283
877.034	3203
877.162	3237
877.29	3199
877.418	3279
877.546	3233
877.674	3233
877.802	3226
877.93	3253
878.058	3173
878.185	3116
878.313	3188
878.441	3199
878.568	3066
878.696	3165
878.824	3249
878.951	3306
879.079	3450
879.206	3644
879.333	3492
879.461	3340
879.588	3389
879.715	3469
879.842	3633
879.97	3378
880.097	3154
880.224	3131
880.351	3154
880.478	3203
880.605	3199
880.732	3184
880.859	3511
880.986	3329
881.112	3355
881.239	3211
881.366	3119
881.493	3055
881.619	3058
881.746	3097
881.872	3070
881.999	3119
882.125	3169
882.252	3256
882.378	3310
882.505	3424
882.631	3306
882.757	3146
882.883	3218
883.01	3264
883.136	3188
883.262	3100
883.388	3108
883.514	3370
883.64	3370
883.766	3313
883.892	3173
884.018	3237
884.143	3439
884.269	3530
884.395	3195
884.52	3226
884.646	3207
884.772	3112
884.897	3108
885.023	3207
885.148	3367
885.274	3435
885.399	3344
885.524	3272
885.65	3241
885.775	3329
885.9	3325
886.025	3462
886.15	3405
886.275	3298
886.4	3233
886.525	3317
886.65	3256
886.775	3313
886.9	3496
887.025	3667
887.149	3393
887.274	3256
887.399	3207
887.523	3195
887.648	3226
887.773	3173
887.897	3393
888.021	3431
888.146	3321
888.27	3424
888.395	3542
888.519	3481
888.643	3466
888.767	3485
888.891	3291
889.015	3256
889.139	3317
889.263	3302
889.387	3416
889.511	3485
889.635	3481
889.759	3279
889.883	3317
890.006	3386
890.13	3466
890.254	3275
890.377	3359
890.501	3207
890.624	3180
890.748	3313
890.871	3199
890.995	3100
891.118	3058
891.241	3195
891.364	3218
891.488	3306
891.611	3169
891.734	3253
891.857	3313
891.98	3241
892.103	3348
892.226	3287
892.349	3241
892.471	3097
892.594	3230
892.717	3294
892.839	3272
892.962	3279
893.085	3359
893.207	3302
893.33	3154
893.452	3222
893.575	3374
893.697	3211
893.819	3439
893.941	3511
894.064	3454
894.186	3260
894.308	3268
894.43	3424
894.552	3534
894.674	3450
894.796	3283
894.918	3294
895.04	3291
895.161	3428
895.283	3382
895.405	3313
895.526	3359
895.648	3443
895.769	3412
895.891	3420
896.012	3477
896.134	3454
896.255	3473
896.376	3382
896.498	3367
896.619	3462
896.74	3348
896.861	3389
896.982	3686
897.103	3884
897.224	3599
897.345	3515
897.466	3420
897.587	3507
897.708	3625
897.828	3576
897.949	3458
898.07	3310
898.19	3435
898.311	3595
898.431	3454
898.552	3511
898.672	3572
898.792	3568
898.913	3511
899.033	3428
899.153	3294
899.273	3222
899.393	3291
899.513	3306
899.633	3313
899.753	3370
899.873	3291
899.993	3363
900.113	3344
900.232	3412
900.352	3336
900.472	3348
900.591	3218
900.711	3310
900.83	3180
900.95	3412
901.069	3473
901.189	3363
901.308	3150
901.427	3165
901.546	3176
901.665	3287
901.784	3291
901.904	3245
902.023	3142
902.141	3047
902.26	3013
902.379	3123
902.498	3074
902.617	3066
902.735	3214
902.854	3192
902.973	3211
903.091	3047
903.21	3081
903.328	3127
903.446	3093
903.565	3081
903.683	3226
903.801	3173
903.919	3245
904.038	3317
904.156	3142
904.274	3287
904.392	3253
904.51	3298
904.627	3355
904.745	3420
904.863	3507
904.981	3260
905.098	3161
905.216	3230
905.334	3325
905.451	3291
905.569	3275
905.686	3443
905.803	3424
905.921	3291
906.038	3424
906.155	3389
906.272	3287
906.389	3351
906.506	3241
906.623	3249
906.74	3294
906.857	3199
906.974	3241
907.091	3435
907.208	3591
907.324	3488
907.441	3401
907.557	3241
907.674	3218
907.79	3226
907.907	3260
908.023	3397
908.139	3359
908.256	3336
908.372	3382
908.488	3348
908.604	3233
908.72	3237
908.836	3275
908.952	3302
909.068	3332
909.184	3507
909.3	3405
909.415	3477
909.531	3473
909.647	3279
909.762	3272
909.878	3237
909.993	3355
910.108	3389
910.224	3340
910.339	3428
910.454	3317
910.57	3272
910.685	3230
910.8	3591
910.915	3542
911.03	3443
911.145	3287
911.259	3310
911.374	3317
911.489	3253
911.604	3218
911.718	3074
911.833	3176
911.947	3028
912.062	2982
912.176	3150
912.291	3233
912.405	3233
912.519	3409
912.633	3454
912.748	3332
912.862	3283
912.976	3150
913.09	3097
913.204	3161
913.318	3188
913.431	3344
913.545	3359
913.659	3412
913.772	3344
913.886	3222
914	3222
914.113	3355
914.226	3420
914.34	3321
914.453	3211
914.566	3397
914.68	3272
914.793	3351
914.906	3138
915.019	3112
915.132	3047
915.245	3142
915.358	3203
915.47	3230
915.583	3253
915.696	3321
915.809	3393
915.921	3409
916.034	3253
916.146	3253
916.259	3233
916.371	3363
916.483	3374
916.595	3294
916.708	3321
916.82	3302
916.932	3340
917.044	3367
917.156	3348
917.268	3291
917.38	3310
917.491	3260
917.603	3359
917.715	3431
917.826	3450
917.938	3389
918.049	3256
918.161	3428
918.272	3538
918.384	3568
918.495	3473
918.606	3340
918.717	3275
918.828	3378
918.939	3409
919.05	3302
919.161	3367
919.272	3192
919.383	3279
919.494	3481
919.604	3682
919.715	3530
919.826	3405
919.936	3485
920.047	3584
920.157	3511
920.267	3789
920.378	3568
920.488	3580
920.598	3812
920.708	3968
920.818	3823
920.928	3846
921.038	4021
921.148	4017
921.258	3694
921.368	3580
921.477	3587
921.587	3519
921.697	3492
921.806	3622
921.916	3481
922.025	3370
922.134	3329
922.244	3275
922.353	3401
922.462	3275
922.571	3237
922.68	3108
922.789	3081
922.898	3112
923.007	3116
923.116	3203
923.224	3176
923.333	3157
923.442	3100
923.55	3104
923.659	3142
923.767	3230
923.876	3097
923.984	3245
924.092	3074
924.201	3207
924.309	3230
924.417	3249
924.525	3176
924.633	3272
924.741	3991
924.849	3074
924.956	3268
925.064	3100
925.172	3039
925.279	3089
925.387	3218
925.494	3188
925.602	3367
925.709	3325
925.816	3161
925.924	3306
926.031	3359
926.138	3325
926.245	3370
926.352	3237
926.459	3401
926.566	3458
926.673	3306
926.779	3245
926.886	3222
926.993	3157
927.099	3135
927.206	3085
927.312	3104
927.419	3218
927.525	3249
927.631	3283
927.737	3173
927.843	3135
927.95	3017
928.056	3131
928.162	3176
928.267	3237
928.373	3873
928.479	3329
928.585	3089
928.69	3207
928.796	3287
928.901	3192
929.007	3058
929.112	3211
929.218	3176
929.323	3119
929.428	3116
929.533	3332
929.638	3100
929.743	3127
929.848	3264
929.953	3245
930.058	3119
930.163	2990
930.267	3047
930.372	3192
930.477	3001
930.581	3291
930.685	3180
930.79	3032
930.894	3135
930.998	3085
931.103	3317
931.207	2944
931.311	2929
931.415	2929
931.519	2746
931.623	2796
