Data from test_V78500241_1639.txt Node
Date: Fri Mar 25 16:26:33 CST 2022
User: usil
Spectrometer: V785-0024
Trigger mode: 0
Integration Time (sec): 4.000000E-1
Scans to average: 1
Nonlinearity correction enabled: false
Boxcar width: 0
Storing dark spectrum: false
XAxis mode: Wavelengths
Number of Pixels in Spectrum: 1024
>>>>>Begin Spectral Data<<<<<
801.071	2960
801.214	3009
801.356	2883
801.499	2925
801.641	2883
801.783	2963
801.926	3058
802.068	2971
802.211	3028
802.353	3081
802.496	2971
802.638	3028
802.78	3062
802.923	3077
803.065	3039
803.208	2899
803.35	2963
803.492	2925
803.635	2937
803.777	2785
803.919	2857
804.061	3241
804.204	2982
804.346	2941
804.488	2861
804.63	3001
804.773	2891
804.915	2929
805.057	3127
805.199	2910
805.341	2994
805.483	3013
805.626	2998
805.768	2990
805.91	3104
806.052	3123
806.194	3028
806.336	3233
806.478	3055
806.62	2967
806.762	2982
806.904	3074
807.046	3138
807.188	3024
807.33	2941
807.472	2998
807.614	2922
807.756	3005
807.898	2948
808.04	2933
808.182	3005
808.324	2986
808.465	2925
808.607	2891
808.749	2826
808.891	2849
809.033	2963
809.174	2990
809.316	2861
809.458	2906
809.6	2762
809.741	2785
809.883	2792
810.025	2880
810.166	2849
810.308	2880
810.45	2883
810.591	2807
810.733	2811
810.875	2853
811.016	2834
811.158	2731
811.299	2857
811.441	2937
811.582	2910
811.724	2861
811.865	2834
812.007	2914
812.148	2868
812.29	2891
812.431	2872
812.573	2941
812.714	2960
812.855	3047
812.997	3051
813.138	3108
813.279	3013
813.421	2994
813.562	2975
813.703	2887
813.845	2891
813.986	2807
814.127	2735
814.268	2826
814.41	2887
814.551	2792
814.692	2918
814.833	2857
814.974	2925
815.115	2952
815.256	2819
815.397	2842
815.539	2883
815.68	2792
815.821	2830
815.962	2967
816.103	2925
816.244	2842
816.385	2910
816.526	2998
816.666	2902
816.807	2762
816.948	2891
817.089	2944
817.23	2883
817.371	2804
817.512	2830
817.653	2842
817.793	2864
817.934	2902
818.075	2960
818.216	3013
818.356	3028
818.497	2918
818.638	2777
818.778	2819
818.919	2842
819.06	2762
819.2	2868
819.341	2834
819.481	2788
819.622	2933
819.762	3119
819.903	3028
820.043	2910
820.184	2925
820.324	2899
820.465	3039
820.605	3028
820.746	3062
820.886	2963
821.026	3123
821.167	3165
821.307	3211
821.447	3287
821.588	3260
821.728	3226
821.868	3222
822.008	3131
822.149	3192
822.289	3253
822.429	3142
822.569	3089
822.709	3180
822.849	3051
822.99	3081
823.13	3176
823.27	3230
823.41	3142
823.55	3157
823.69	3150
823.83	3218
823.97	3112
824.11	3005
824.25	3017
824.389	3089
824.529	3112
824.669	3093
824.809	3218
824.949	3233
825.089	3203
825.228	3184
825.368	3009
825.508	2975
825.648	3005
825.787	2979
825.927	3028
826.067	2979
826.206	2979
826.346	3051
826.485	3127
826.625	3100
826.765	3272
826.904	3241
827.044	3001
827.183	2960
827.323	2876
827.462	2982
827.601	2937
827.741	2925
827.88	2944
828.02	2853
828.159	2975
828.298	3043
828.437	3123
828.577	3020
828.716	3253
828.855	3085
828.994	2941
829.134	2910
829.273	2937
829.412	2872
829.551	2902
829.69	2880
829.829	2986
829.968	3138
830.107	3017
830.246	3024
830.385	2922
830.524	2910
830.663	2834
830.802	2750
830.941	2674
831.08	2632
831.219	2773
831.357	2769
831.496	2956
831.635	2739
831.774	2648
831.913	2678
832.051	2518
832.19	2590
832.329	2697
832.467	2541
832.606	2514
832.744	2587
832.883	2606
833.022	2598
833.16	2659
833.299	2693
833.437	2716
833.576	2655
833.714	2724
833.852	2739
833.991	2788
834.129	2838
834.267	2838
834.406	2758
834.544	2899
834.682	2861
834.821	2902
834.959	3062
835.097	2880
835.235	3077
835.373	2990
835.511	3043
835.65	2960
835.788	2986
835.926	2891
836.064	2853
836.202	2834
836.34	3066
836.478	3138
836.615	3020
836.753	3146
836.891	3211
837.029	3154
837.167	3165
837.305	3104
837.443	3024
837.58	2963
837.718	3169
837.856	3070
837.993	3051
838.131	3100
838.269	3097
838.406	3089
838.544	3058
838.681	2914
838.819	2906
838.956	2834
839.094	2842
839.231	2937
839.369	3013
839.506	3359
839.643	3222
839.781	3017
839.918	2967
840.055	3077
840.193	3066
840.33	3047
840.467	3123
840.604	3161
840.742	3397
840.879	3074
841.016	3043
841.153	3100
841.29	3332
841.427	3336
841.564	3260
841.701	3310
841.838	3211
841.975	3222
842.112	3226
842.249	3085
842.385	3062
842.522	3241
842.659	3081
842.796	3047
842.933	3135
843.069	3074
843.206	3058
843.343	3184
843.479	3108
843.616	3154
843.752	2922
843.889	2861
844.025	3108
844.162	2887
844.298	3077
844.435	2956
844.571	2918
844.708	3070
844.844	3203
844.98	3253
845.117	3233
845.253	3085
845.389	3036
845.525	3127
845.661	3127
845.798	3020
845.934	3146
846.07	3058
846.206	3173
846.342	3283
846.478	3218
846.614	3104
846.75	3066
846.886	3024
847.022	3237
847.158	3146
847.294	3207
847.429	3256
847.565	3211
847.701	3488
847.837	3024
847.972	2986
848.108	3154
848.244	3161
848.379	2998
848.515	2937
848.65	2929
848.786	2956
848.921	3028
849.057	3108
849.192	3146
849.328	3100
849.463	3104
849.598	3066
849.734	3055
849.869	2963
850.004	2952
850.14	2971
850.275	2918
850.41	2826
850.545	2880
850.68	2948
850.815	2952
850.95	2998
851.085	3184
851.22	3142
851.355	3077
851.49	3005
851.625	3009
851.76	3020
851.895	2933
852.03	2933
852.165	3009
852.299	3116
852.434	3184
852.569	3173
852.703	3142
852.838	3222
852.973	3325
853.107	3313
853.242	3150
853.376	3097
853.511	2979
853.645	3028
853.78	3233
853.914	3081
854.048	3108
854.183	3093
854.317	3135
854.451	3310
854.585	3112
854.72	3089
854.854	3199
854.988	3032
855.122	3093
855.256	2963
855.39	3116
855.524	3241
855.658	3180
855.792	3180
855.926	3188
856.06	3195
856.194	3233
856.327	3138
856.461	3081
856.595	3108
856.729	3142
856.862	3199
856.996	3165
857.13	3211
857.263	3203
857.397	3256
857.53	3104
857.664	3173
857.797	3264
857.931	3260
858.064	3180
858.197	3199
858.331	3119
858.464	3089
858.597	3005
858.731	3112
858.864	3180
858.997	3104
859.13	3127
859.263	3184
859.396	3199
859.529	3085
859.662	3051
859.795	3062
859.928	3108
860.061	3268
860.194	3260
860.327	3127
860.46	3085
860.592	3222
860.725	3264
860.858	3268
860.99	3116
861.123	3028
861.256	3055
861.388	3138
861.521	3857
861.653	3047
861.786	2975
861.918	2967
862.05	3055
862.183	3058
862.315	3146
862.447	3207
862.58	3089
862.712	2971
862.844	2857
862.976	3001
863.108	3024
863.24	3397
863.372	2872
863.504	2952
863.636	2933
863.768	3017
863.9	2952
864.032	2906
864.164	2960
864.296	2994
864.428	3070
864.559	3127
864.691	3081
864.823	3070
864.954	3036
865.086	3024
865.217	2986
865.349	2975
865.48	3009
865.612	3001
865.743	3119
865.875	2956
866.006	2937
866.137	2986
866.269	2963
866.4	2933
866.531	2895
866.662	2880
866.793	2868
866.924	2899
867.055	2960
867.186	2929
867.317	2883
867.448	2830
867.579	2853
867.71	2853
867.841	2804
867.972	2914
868.103	2895
868.233	2895
868.364	2853
868.495	2902
868.625	3077
868.756	3176
868.886	2956
869.017	3032
869.147	3188
869.278	3180
869.408	3062
869.539	2994
869.669	3081
869.799	3001
869.929	3142
870.06	3112
870.19	3325
870.32	3249
870.45	3294
870.58	3382
870.71	3405
870.84	3428
870.97	3260
871.1	3245
871.23	3481
871.36	3435
871.489	3332
871.619	3389
871.749	3386
871.879	3374
872.008	3492
872.138	3329
872.267	3256
872.397	3146
872.526	3089
872.656	2990
872.785	3100
872.915	3264
873.044	3340
873.173	3192
873.303	3218
873.432	3237
873.561	3249
873.69	3138
873.819	3097
873.948	3154
874.077	3066
874.206	3005
874.335	3116
874.464	3176
874.593	3351
874.722	3256
874.851	3397
874.979	3378
875.108	3275
875.237	3237
875.365	3195
875.494	3157
875.623	3195
875.751	3100
875.88	3066
876.008	3165
876.136	3256
876.265	3359
876.393	3515
876.521	3386
876.65	3409
876.778	3317
876.906	3245
877.034	3184
877.162	3222
877.29	3192
877.418	3233
877.546	3233
877.674	3245
877.802	3230
877.93	3256
878.058	3176
878.185	3123
878.313	3180
878.441	3279
878.568	3066
878.696	3146
878.824	3264
878.951	3291
879.079	3473
879.206	3599
879.333	3431
879.461	3332
879.588	3370
879.715	3511
879.842	3614
879.97	3363
880.097	3150
880.224	3146
880.351	3218
880.478	3218
880.605	3226
880.732	3207
880.859	3473
880.986	3310
881.112	3313
881.239	3222
881.366	3085
881.493	3066
881.619	2963
881.746	3051
881.872	3089
881.999	3119
882.125	3131
882.252	3310
882.378	3275
882.505	3416
882.631	3302
882.757	3116
882.883	3214
883.01	3211
883.136	3180
883.262	3108
883.388	3135
883.514	3325
883.64	3359
883.766	3317
883.892	3207
884.018	3272
884.143	3374
884.269	3511
884.395	3218
884.52	3154
884.646	3188
884.772	3119
884.897	3112
885.023	3192
885.148	3336
885.274	3363
885.399	3348
885.524	3283
885.65	3268
885.775	3310
885.9	3241
886.025	3447
886.15	3393
886.275	3321
886.4	3237
886.525	3287
886.65	3268
886.775	3291
886.9	3515
887.025	3595
887.149	3393
887.274	3253
887.399	3165
887.523	3199
887.648	3180
887.773	3173
887.897	3367
888.021	3393
888.146	3283
888.27	3405
888.395	3504
888.519	3462
888.643	3405
888.767	3462
888.891	3313
889.015	3207
889.139	3283
889.263	3245
889.387	3431
889.511	3496
889.635	3420
889.759	3298
889.883	3313
890.006	3363
890.13	3500
890.254	3283
890.377	3359
890.501	3222
890.624	3207
890.748	3272
890.871	3180
890.995	3085
891.118	3047
891.241	3214
891.364	3226
891.488	3268
891.611	3154
891.734	3230
891.857	3268
891.98	3230
892.103	3348
892.226	3233
892.349	3199
892.471	3112
892.594	3199
892.717	3306
892.839	3241
892.962	3291
893.085	3336
893.207	3264
893.33	3116
893.452	3195
893.575	3317
893.697	3264
893.819	3447
893.941	3500
894.064	3424
894.186	3264
894.308	3249
894.43	3416
894.552	3542
894.674	3481
894.796	3230
894.918	3298
895.04	3325
895.161	3416
895.283	3389
895.405	3313
895.526	3386
895.648	3439
895.769	3424
895.891	3439
896.012	3504
896.134	3458
896.255	3416
896.376	3397
896.498	3348
896.619	3389
896.74	3351
896.861	3412
896.982	3644
897.103	3842
897.224	3584
897.345	3523
897.466	3405
897.587	3496
897.708	3580
897.828	3523
897.949	3420
898.07	3310
898.19	3393
898.311	3584
898.431	3435
898.552	3462
898.672	3591
898.792	3599
898.913	3523
899.033	3382
899.153	3283
899.273	3203
899.393	3268
899.513	3279
899.633	3291
899.753	3329
899.873	3313
899.993	3336
900.113	3363
900.232	3389
900.352	3344
900.472	3245
900.591	3188
900.711	3310
900.83	3211
900.95	3405
901.069	3481
901.189	3329
901.308	3154
901.427	3146
901.546	3180
901.665	3275
901.784	3336
901.904	3207
902.023	3123
902.141	3013
902.26	2975
902.379	3123
902.498	3055
902.617	3039
902.735	3230
902.854	3233
902.973	3211
903.091	3032
903.21	3058
903.328	3154
903.446	3116
903.565	3089
903.683	3203
903.801	3100
903.919	3237
904.038	3268
904.156	3180
904.274	3279
904.392	3241
904.51	3306
904.627	3321
904.745	3454
904.863	3504
904.981	3241
905.098	3184
905.216	3241
905.334	3264
905.451	3287
905.569	3291
905.686	3428
905.803	3409
905.921	3291
906.038	3424
906.155	3344
906.272	3260
906.389	3325
906.506	3222
906.623	3264
906.74	3268
906.857	3154
906.974	3279
907.091	3443
907.208	3538
907.324	3481
907.441	3363
907.557	3218
907.674	3253
907.79	3211
907.907	3268
908.023	3405
908.139	3401
908.256	3329
908.372	3363
908.488	3336
908.604	3249
908.72	3203
908.836	3310
908.952	3260
909.068	3325
909.184	3477
909.3	3397
909.415	3496
909.531	3500
909.647	3241
909.762	3302
909.878	3291
909.993	3344
910.108	3359
910.224	3317
910.339	3462
910.454	3351
910.57	3302
910.685	3245
910.8	3595
910.915	3576
911.03	3447
911.145	3245
911.259	3256
911.374	3294
911.489	3256
911.604	3237
911.718	3085
911.833	3123
911.947	3028
912.062	2967
912.176	3150
912.291	3180
912.405	3256
912.519	3397
912.633	3469
912.748	3279
912.862	3268
912.976	3154
913.09	3074
913.204	3180
913.318	3207
913.431	3317
913.545	3355
913.659	3389
913.772	3298
913.886	3214
914	3222
914.113	3325
914.226	3416
914.34	3378
914.453	3241
914.566	3416
914.68	3306
914.793	3317
914.906	3116
915.019	3119
915.132	3066
915.245	3195
915.358	3218
915.47	3222
915.583	3249
915.696	3329
915.809	3416
915.921	3420
916.034	3253
916.146	3226
916.259	3207
916.371	3409
916.483	3359
916.595	3325
916.708	3374
916.82	3355
916.932	3382
917.044	3340
917.156	3336
917.268	3237
917.38	3291
917.491	3283
917.603	3325
917.715	3431
917.826	3447
917.938	3393
918.049	3275
918.161	3420
918.272	3576
918.384	3561
918.495	3526
918.606	3348
918.717	3298
918.828	3359
918.939	3447
919.05	3306
919.161	3386
919.272	3184
919.383	3287
919.494	3492
919.604	3705
919.715	3477
919.826	3405
919.936	3435
920.047	3580
920.157	3542
920.267	3736
920.378	3610
920.488	3561
920.598	3740
920.708	3964
920.818	3785
920.928	3846
921.038	4051
921.148	4013
921.258	3724
921.368	3641
921.477	3614
921.587	3591
921.697	3492
921.806	3660
921.916	3500
922.025	3389
922.134	3424
922.244	3317
922.353	3412
922.462	3264
922.571	3226
922.68	3089
922.789	3066
922.898	3127
923.007	3089
923.116	3184
923.224	3157
923.333	3207
923.442	3116
923.55	3089
923.659	3161
923.767	3214
923.876	3100
923.984	3291
924.092	3112
924.201	3192
924.309	3207
924.417	3264
924.525	3195
924.633	3268
924.741	4200
924.849	3051
924.956	3264
925.064	3119
925.172	3051
925.279	3093
925.387	3180
925.494	3207
925.602	3367
925.709	3359
925.816	3222
925.924	3287
926.031	3340
926.138	3321
926.245	3355
926.352	3253
926.459	3401
926.566	3477
926.673	3340
926.779	3233
926.886	3253
926.993	3192
927.099	3142
927.206	3108
927.312	3108
927.419	3226
927.525	3203
927.631	3283
927.737	3165
927.843	3097
927.95	3020
928.056	3150
928.162	3169
928.267	3256
928.373	3747
928.479	3325
928.585	3066
928.69	3218
928.796	3264
928.901	3138
929.007	3036
929.112	3230
929.218	3176
929.323	3154
929.428	3150
929.533	3302
929.638	3081
929.743	3184
929.848	3283
929.953	3211
930.058	3150
930.163	2998
930.267	3055
930.372	3211
930.477	3017
930.581	3260
930.685	3203
930.79	3074
930.894	3123
930.998	3093
931.103	3283
931.207	2956
931.311	2929
931.415	2933
931.519	2731
931.623	2826
