Data from test_V78500241_774.txt Node
Date: Fri Mar 25 16:20:33 CST 2022
User: usil
Spectrometer: V785-0024
Trigger mode: 0
Integration Time (sec): 4.000000E-1
Scans to average: 1
Nonlinearity correction enabled: false
Boxcar width: 0
Storing dark spectrum: false
XAxis mode: Wavelengths
Number of Pixels in Spectrum: 1024
>>>>>Begin Spectral Data<<<<<
801.071	2899
801.214	2941
801.356	2853
801.499	2910
801.641	2899
801.783	2899
801.926	3039
802.068	2956
802.211	2975
802.353	2994
802.496	2948
802.638	3009
802.78	3047
802.923	3081
803.065	2998
803.208	2891
803.35	2937
803.492	2925
803.635	2933
803.777	2743
803.919	2864
804.061	3188
804.204	2948
804.346	2902
804.488	2826
804.63	2982
804.773	2861
804.915	2925
805.057	3108
805.199	2948
805.341	2975
805.483	3028
805.626	2986
805.768	2986
805.91	3097
806.052	3074
806.194	3009
806.336	3211
806.478	3020
806.62	2929
806.762	2994
806.904	3043
807.046	3142
807.188	2967
807.33	2941
807.472	3043
807.614	2918
807.756	2948
807.898	2941
808.04	2895
808.182	2975
808.324	2956
808.465	2880
808.607	2887
808.749	2811
808.891	2857
809.033	2956
809.174	2986
809.316	2902
809.458	2883
809.6	2762
809.741	2754
809.883	2758
810.025	2838
810.166	2834
810.308	2826
810.45	2883
810.591	2743
810.733	2766
810.875	2834
811.016	2792
811.158	2773
811.299	2815
811.441	2922
811.582	2891
811.724	2804
811.865	2826
812.007	2891
812.148	2868
812.29	2815
812.431	2929
812.573	2910
812.714	2922
812.855	3062
812.997	3055
813.138	3112
813.279	3043
813.421	2960
813.562	2937
813.703	2845
813.845	2891
813.986	2766
814.127	2727
814.268	2800
814.41	2868
814.551	2819
814.692	2880
814.833	2819
814.974	2887
815.115	2922
815.256	2853
815.397	2796
815.539	2849
815.68	2769
815.821	2838
815.962	2933
816.103	2929
816.244	2868
816.385	2845
816.526	2963
816.666	2902
816.807	2743
816.948	2880
817.089	2883
817.23	2849
817.371	2758
817.512	2804
817.653	2861
817.793	2845
817.934	2868
818.075	2960
818.216	2990
818.356	3036
818.497	2864
818.638	2766
818.778	2815
818.919	2773
819.06	2758
819.2	2902
819.341	2788
819.481	2781
819.622	2902
819.762	3119
819.903	3043
820.043	2937
820.184	2883
820.324	2864
820.465	3024
820.605	2990
820.746	3047
820.886	2956
821.026	3074
821.167	3123
821.307	3253
821.447	3226
821.588	3237
821.728	3226
821.868	3157
822.008	3043
822.149	3165
822.289	3245
822.429	3108
822.569	3081
822.709	3157
822.849	3009
822.99	3074
823.13	3176
823.27	3199
823.41	3100
823.55	3097
823.69	3161
823.83	3226
823.97	3097
824.11	3001
824.25	3001
824.389	3062
824.529	3058
824.669	3051
824.809	3176
824.949	3245
825.089	3230
825.228	3154
825.368	2967
825.508	2952
825.648	2948
825.787	2998
825.927	3024
826.067	2967
826.206	2963
826.346	3028
826.485	3043
826.625	3070
826.765	3233
826.904	3184
827.044	3013
827.183	2960
827.323	2857
827.462	2960
827.601	2918
827.741	2899
827.88	2952
828.02	2857
828.159	2994
828.298	3058
828.437	3097
828.577	3013
828.716	3233
828.855	3085
828.994	2944
829.134	2895
829.273	2902
829.412	2895
829.551	2864
829.69	2872
829.829	2971
829.968	3093
830.107	3032
830.246	3005
830.385	2902
830.524	2883
830.663	2819
830.802	2720
830.941	2667
831.08	2617
831.219	2743
831.357	2754
831.496	2956
831.635	2705
831.774	2617
831.913	2632
832.051	2522
832.19	2556
832.329	2659
832.467	2522
832.606	2484
832.744	2537
832.883	2575
833.022	2545
833.16	2613
833.299	2686
833.437	2701
833.576	2648
833.714	2689
833.852	2712
833.991	2720
834.129	2807
834.267	2811
834.406	2773
834.544	2906
834.682	2838
834.821	2861
834.959	3043
835.097	2864
835.235	3074
835.373	2998
835.511	2994
835.65	2979
835.788	2918
835.926	2830
836.064	2826
836.202	2811
836.34	3070
836.478	3116
836.615	3047
836.753	3161
836.891	3207
837.029	3203
837.167	3131
837.305	3047
837.443	3043
837.58	2960
837.718	3119
837.856	3058
837.993	2994
838.131	3146
838.269	3066
838.406	3093
838.544	3070
838.681	2918
838.819	2902
838.956	2777
839.094	2834
839.231	2922
839.369	3017
839.506	3359
839.643	3195
839.781	2979
839.918	2982
840.055	3024
840.193	3024
840.33	3077
840.467	3093
840.604	3131
840.742	3378
840.879	3036
841.016	3036
841.153	3104
841.29	3310
841.427	3287
841.564	3294
841.701	3329
841.838	3222
841.975	3222
842.112	3207
842.249	3077
842.385	3028
842.522	3264
842.659	3100
842.796	3074
842.933	3104
843.069	3055
843.206	3047
843.343	3207
843.479	3081
843.616	3142
843.752	2895
843.889	2845
844.025	3070
844.162	2899
844.298	3077
844.435	2960
844.571	2891
844.708	3024
844.844	3157
844.98	3199
845.117	3123
845.253	3039
845.389	3028
845.525	3077
845.661	3093
845.798	3009
845.934	3116
846.07	3062
846.206	3211
846.342	3313
846.478	3260
846.614	3036
846.75	3070
846.886	3020
847.022	3245
847.158	3135
847.294	3150
847.429	3241
847.565	3180
847.701	3447
847.837	3074
847.972	3013
848.108	3138
848.244	3100
848.379	2963
848.515	2929
848.65	2944
848.786	2975
848.921	3032
849.057	3100
849.192	3146
849.328	3047
849.463	3097
849.598	3039
849.734	3051
849.869	2948
850.004	2914
850.14	2925
850.275	2910
850.41	2868
850.545	2842
850.68	2918
850.815	2925
850.95	2998
851.085	3142
851.22	3100
851.355	3028
851.49	2956
851.625	3020
851.76	3051
851.895	2929
852.03	2910
852.165	3028
852.299	3089
852.434	3138
852.569	3100
852.703	3146
852.838	3222
852.973	3332
853.107	3272
853.242	3127
853.376	3066
853.511	2937
853.645	3024
853.78	3199
853.914	3085
854.048	3036
854.183	3119
854.317	3131
854.451	3275
854.585	3135
854.72	3097
854.854	3188
854.988	3024
855.122	3093
855.256	2982
855.39	3081
855.524	3233
855.658	3169
855.792	3157
855.926	3180
856.06	3222
856.194	3249
856.327	3116
856.461	3062
856.595	3127
856.729	3085
856.862	3199
856.996	3127
857.13	3173
857.263	3173
857.397	3237
857.53	3066
857.664	3169
857.797	3222
857.931	3272
858.064	3161
858.197	3222
858.331	3127
858.464	3097
858.597	2967
858.731	3161
858.864	3127
858.997	3055
859.13	3157
859.263	3161
859.396	3165
859.529	3116
859.662	3081
859.795	3009
859.928	3169
860.061	3233
860.194	3260
860.327	3150
860.46	3081
860.592	3226
860.725	3256
860.858	3260
860.99	3093
861.123	3028
861.256	3036
861.388	3165
861.521	3907
861.653	3043
861.786	2963
861.918	2982
862.05	3051
862.183	3119
862.315	3116
862.447	3157
862.58	3108
862.712	2948
862.844	2864
862.976	3020
863.108	3013
863.24	3409
863.372	2891
863.504	2998
863.636	2948
863.768	3058
863.9	2956
864.032	2899
864.164	2918
864.296	3017
864.428	3058
864.559	3077
864.691	3036
864.823	3036
864.954	3058
865.086	3077
865.217	2982
865.349	2918
865.48	2960
865.612	3001
865.743	3123
865.875	3017
866.006	2948
866.137	2963
866.269	2937
866.4	2914
866.531	2876
866.662	2857
866.793	2891
866.924	2872
867.055	3005
867.186	2952
867.317	2895
867.448	2838
867.579	2838
867.71	2845
867.841	2804
867.972	2906
868.103	2925
868.233	2902
868.364	2868
868.495	2872
868.625	3055
868.756	3192
868.886	2941
869.017	3024
869.147	3123
869.278	3165
869.408	3039
869.539	3058
869.669	3066
869.799	3055
869.929	3116
870.06	3108
870.19	3355
870.32	3298
870.45	3302
870.58	3397
870.71	3424
870.84	3435
870.97	3272
871.1	3230
871.23	3458
871.36	3477
871.489	3367
871.619	3378
871.749	3401
871.879	3431
872.008	3435
872.138	3359
872.267	3260
872.397	3154
872.526	3116
872.656	2986
872.785	3066
872.915	3180
873.044	3264
873.173	3203
873.303	3260
873.432	3218
873.561	3233
873.69	3116
873.819	3123
873.948	3226
874.077	3112
874.206	3039
874.335	3039
874.464	3222
874.593	3336
874.722	3214
874.851	3420
874.979	3367
875.108	3313
875.237	3173
875.365	3131
875.494	3146
875.623	3241
875.751	3055
875.88	3104
876.008	3199
876.136	3203
876.265	3386
876.393	3500
876.521	3412
876.65	3374
876.778	3344
876.906	3233
877.034	3199
877.162	3256
877.29	3173
877.418	3253
877.546	3214
877.674	3249
877.802	3214
877.93	3222
878.058	3154
878.185	3081
878.313	3188
878.441	3207
878.568	3093
878.696	3119
878.824	3241
878.951	3268
879.079	3435
879.206	3595
879.333	3420
879.461	3321
879.588	3363
879.715	3466
879.842	3591
879.97	3363
880.097	3135
880.224	3127
880.351	3195
880.478	3218
880.605	3203
880.732	3176
880.859	3492
880.986	3298
881.112	3321
881.239	3199
881.366	3077
881.493	3020
881.619	2998
881.746	3074
881.872	3097
881.999	3066
882.125	3142
882.252	3230
882.378	3275
882.505	3424
882.631	3298
882.757	3154
882.883	3218
883.01	3218
883.136	3173
883.262	3062
883.388	3085
883.514	3272
883.64	3355
883.766	3294
883.892	3203
884.018	3214
884.143	3428
884.269	3549
884.395	3218
884.52	3127
884.646	3154
884.772	3100
884.897	3081
885.023	3211
885.148	3294
885.274	3412
885.399	3355
885.524	3298
885.65	3226
885.775	3332
885.9	3268
886.025	3450
886.15	3374
886.275	3298
886.4	3245
886.525	3302
886.65	3275
886.775	3260
886.9	3507
887.025	3641
887.149	3466
887.274	3253
887.399	3180
887.523	3207
887.648	3203
887.773	3199
887.897	3344
888.021	3374
888.146	3302
888.27	3431
888.395	3511
888.519	3397
888.643	3428
888.767	3458
888.891	3317
889.015	3249
889.139	3260
889.263	3241
889.387	3351
889.511	3534
889.635	3439
889.759	3256
889.883	3283
890.006	3382
890.13	3507
890.254	3287
890.377	3317
890.501	3222
890.624	3169
890.748	3279
890.871	3188
890.995	3089
891.118	3043
891.241	3184
891.364	3211
891.488	3325
891.611	3157
891.734	3192
891.857	3298
891.98	3249
892.103	3306
892.226	3298
892.349	3199
892.471	3104
892.594	3249
892.717	3272
892.839	3260
892.962	3294
893.085	3321
893.207	3291
893.33	3142
893.452	3207
893.575	3351
893.697	3245
893.819	3469
893.941	3496
894.064	3397
894.186	3256
894.308	3253
894.43	3412
894.552	3545
894.674	3496
894.796	3264
894.918	3310
895.04	3268
895.161	3409
895.283	3412
895.405	3302
895.526	3370
895.648	3450
895.769	3401
895.891	3450
896.012	3466
896.134	3447
896.255	3405
896.376	3329
896.498	3336
896.619	3412
896.74	3401
896.861	3363
896.982	3679
897.103	3827
897.224	3549
897.345	3488
897.466	3424
897.587	3477
897.708	3629
897.828	3507
897.949	3412
898.07	3329
898.19	3382
898.311	3568
898.431	3435
898.552	3507
898.672	3584
898.792	3534
898.913	3488
899.033	3374
899.153	3298
899.273	3226
899.393	3253
899.513	3329
899.633	3275
899.753	3336
899.873	3310
899.993	3416
900.113	3355
900.232	3374
900.352	3355
900.472	3298
900.591	3203
900.711	3279
900.83	3233
900.95	3401
901.069	3488
901.189	3363
901.308	3203
901.427	3173
901.546	3192
901.665	3310
901.784	3348
901.904	3207
902.023	3131
902.141	2979
902.26	3017
902.379	3138
902.498	3093
902.617	3024
902.735	3203
902.854	3226
902.973	3173
903.091	3047
903.21	3055
903.328	3127
903.446	3116
903.565	3093
903.683	3226
903.801	3093
903.919	3207
904.038	3283
904.156	3195
904.274	3279
904.392	3207
904.51	3279
904.627	3325
904.745	3405
904.863	3488
904.981	3275
905.098	3173
905.216	3241
905.334	3306
905.451	3275
905.569	3313
905.686	3439
905.803	3435
905.921	3291
906.038	3435
906.155	3363
906.272	3260
906.389	3336
906.506	3226
906.623	3256
906.74	3241
906.857	3184
906.974	3260
907.091	3439
907.208	3542
907.324	3450
907.441	3370
907.557	3226
907.674	3203
907.79	3207
907.907	3272
908.023	3370
908.139	3389
908.256	3306
908.372	3389
908.488	3336
908.604	3253
908.72	3241
908.836	3279
908.952	3302
909.068	3310
909.184	3469
909.3	3351
909.415	3515
909.531	3481
909.647	3275
909.762	3230
909.878	3241
909.993	3298
910.108	3321
910.224	3287
910.339	3416
910.454	3313
910.57	3245
910.685	3249
910.8	3553
910.915	3530
911.03	3416
911.145	3268
911.259	3233
911.374	3351
911.489	3233
911.604	3207
911.718	3097
911.833	3112
911.947	3020
912.062	2956
912.176	3169
912.291	3214
912.405	3157
912.519	3431
912.633	3420
912.748	3321
912.862	3291
912.976	3214
913.09	3055
913.204	3104
913.318	3211
913.431	3321
913.545	3340
913.659	3389
913.772	3329
913.886	3169
914	3211
914.113	3363
914.226	3386
914.34	3325
914.453	3260
914.566	3431
914.68	3310
914.793	3321
914.906	3119
915.019	3119
915.132	3051
915.245	3127
915.358	3195
915.47	3214
915.583	3260
915.696	3268
915.809	3397
915.921	3389
916.034	3253
916.146	3260
916.259	3249
916.371	3355
916.483	3363
916.595	3256
916.708	3344
916.82	3310
916.932	3329
917.044	3321
917.156	3348
917.268	3264
917.38	3291
917.491	3283
917.603	3329
917.715	3492
917.826	3435
917.938	3370
918.049	3306
918.161	3416
918.272	3568
918.384	3610
918.495	3504
918.606	3363
918.717	3302
918.828	3359
918.939	3439
919.05	3317
919.161	3367
919.272	3230
919.383	3279
919.494	3523
919.604	3656
919.715	3481
919.826	3412
919.936	3454
920.047	3568
920.157	3557
920.267	3747
920.378	3652
920.488	3557
920.598	3781
920.708	3956
920.818	3823
920.928	3804
921.038	4025
921.148	3987
921.258	3663
921.368	3599
921.477	3591
921.587	3481
921.697	3496
921.806	3576
921.916	3538
922.025	3367
922.134	3340
922.244	3298
922.353	3405
922.462	3253
922.571	3241
922.68	3104
922.789	3093
922.898	3123
923.007	3123
923.116	3188
923.224	3169
923.333	3146
923.442	3081
923.55	3066
923.659	3142
923.767	3184
923.876	3116
923.984	3218
924.092	3123
924.201	3218
924.309	3188
924.417	3253
924.525	3169
924.633	3211
924.741	4196
924.849	3036
924.956	3226
925.064	3070
925.172	3047
925.279	3116
925.387	3199
925.494	3154
925.602	3355
925.709	3325
925.816	3154
925.924	3279
926.031	3374
926.138	3363
926.245	3351
926.352	3211
926.459	3431
926.566	3485
926.673	3298
926.779	3241
926.886	3188
926.993	3146
927.099	3146
927.206	3089
927.312	3127
927.419	3203
927.525	3214
927.631	3233
927.737	3123
927.843	3116
927.95	3039
928.056	3135
928.162	3169
928.267	3233
928.373	3759
928.479	3336
928.585	3074
928.69	3203
928.796	3279
928.901	3211
929.007	3039
929.112	3195
929.218	3157
929.323	3131
929.428	3146
929.533	3332
929.638	3123
929.743	3154
929.848	3214
929.953	3180
930.058	3150
930.163	2941
930.267	3070
930.372	3154
930.477	3013
930.581	3313
930.685	3150
930.79	3077
930.894	3108
930.998	3074
931.103	3260
931.207	2979
931.311	2922
931.415	2906
931.519	2773
931.623	2807
