Data from test_V78500241_113.txt Node
Date: Fri Mar 25 16:15:59 CST 2022
User: usil
Spectrometer: V785-0024
Trigger mode: 0
Integration Time (sec): 4.000000E-1
Scans to average: 1
Nonlinearity correction enabled: false
Boxcar width: 0
Storing dark spectrum: false
XAxis mode: Wavelengths
Number of Pixels in Spectrum: 1024
>>>>>Begin Spectral Data<<<<<
801.071	2979
801.214	3005
801.356	2914
801.499	2910
801.641	2899
801.783	2948
801.926	3043
802.068	2998
802.211	3013
802.353	3051
802.496	2948
802.638	3001
802.78	3024
802.923	3104
803.065	3005
803.208	2925
803.35	2929
803.492	2929
803.635	2937
803.777	2777
803.919	2880
804.061	3226
804.204	2982
804.346	2929
804.488	2857
804.63	3020
804.773	2887
804.915	2918
805.057	3074
805.199	2956
805.341	2982
805.483	3100
805.626	3032
805.768	2956
805.91	3074
806.052	3119
806.194	3039
806.336	3253
806.478	3032
806.62	2937
806.762	3024
806.904	3074
807.046	3203
807.188	2998
807.33	2902
807.472	3017
807.614	2883
807.756	2986
807.898	2944
808.04	2910
808.182	3005
808.324	2967
808.465	2872
808.607	2891
808.749	2842
808.891	2864
809.033	2971
809.174	3005
809.316	2944
809.458	2963
809.6	2769
809.741	2788
809.883	2826
810.025	2861
810.166	2899
810.308	2868
810.45	2902
810.591	2796
810.733	2788
810.875	2880
811.016	2796
811.158	2766
811.299	2826
811.441	2956
811.582	2910
811.724	2864
811.865	2849
812.007	2914
812.148	2868
812.29	2853
812.431	2899
812.573	2979
812.714	2967
812.855	3077
812.997	3104
813.138	3119
813.279	3051
813.421	3005
813.562	2986
813.703	2880
813.845	2899
813.986	2800
814.127	2739
814.268	2861
814.41	2845
814.551	2830
814.692	2887
814.833	2811
814.974	2868
815.115	2975
815.256	2849
815.397	2811
815.539	2883
815.68	2807
815.821	2800
815.962	2948
816.103	2922
816.244	2872
816.385	2902
816.526	2982
816.666	2929
816.807	2785
816.948	2902
817.089	2918
817.23	2845
817.371	2769
817.512	2823
817.653	2845
817.793	2842
817.934	2887
818.075	2990
818.216	3009
818.356	3024
818.497	2910
818.638	2788
818.778	2815
818.919	2807
819.06	2781
819.2	2895
819.341	2830
819.481	2811
819.622	2910
819.762	3112
819.903	3066
820.043	2952
820.184	2952
820.324	2960
820.465	3043
820.605	3074
820.746	3066
820.886	2963
821.026	3138
821.167	3142
821.307	3325
821.447	3321
821.588	3275
821.728	3237
821.868	3214
822.008	3127
822.149	3233
822.289	3283
822.429	3150
822.569	3104
822.709	3176
822.849	3047
822.99	3077
823.13	3184
823.27	3245
823.41	3131
823.55	3138
823.69	3188
823.83	3241
823.97	3100
824.11	3047
824.25	3024
824.389	3074
824.529	3119
824.669	3112
824.809	3184
824.949	3306
825.089	3249
825.228	3192
825.368	3032
825.508	2982
825.648	2971
825.787	3047
825.927	3036
826.067	3013
826.206	2990
826.346	3024
826.485	3062
826.625	3100
826.765	3287
826.904	3233
827.044	3051
827.183	2929
827.323	2845
827.462	3032
827.601	2952
827.741	2944
827.88	2967
828.02	2876
828.159	2986
828.298	3028
828.437	3104
828.577	3058
828.716	3253
828.855	3104
828.994	2914
829.134	2925
829.273	2963
829.412	2910
829.551	2899
829.69	2914
829.829	3009
829.968	3150
830.107	3017
830.246	3017
830.385	2967
830.524	2891
830.663	2815
830.802	2758
830.941	2670
831.08	2655
831.219	2746
831.357	2731
831.496	2925
831.635	2735
831.774	2697
831.913	2659
832.051	2587
832.19	2575
832.329	2720
832.467	2541
832.606	2499
832.744	2583
832.883	2590
833.022	2571
833.16	2678
833.299	2701
833.437	2724
833.576	2731
833.714	2705
833.852	2724
833.991	2750
834.129	2872
834.267	2861
834.406	2819
834.544	2883
834.682	2918
834.821	2895
834.959	3081
835.097	2899
835.235	3131
835.373	3043
835.511	3051
835.65	2967
835.788	2982
835.926	2868
836.064	2845
836.202	2864
836.34	3093
836.478	3146
836.615	3081
836.753	3119
836.891	3214
837.029	3188
837.167	3142
837.305	3058
837.443	3085
837.58	2933
837.718	3123
837.856	3089
837.993	3100
838.131	3188
838.269	3100
838.406	3081
838.544	3085
838.681	2971
838.819	2948
838.956	2834
839.094	2857
839.231	2922
839.369	3051
839.506	3412
839.643	3237
839.781	2994
839.918	2948
840.055	3051
840.193	3070
840.33	3058
840.467	3104
840.604	3211
840.742	3428
840.879	3047
841.016	3081
841.153	3127
841.29	3344
841.427	3340
841.564	3268
841.701	3302
841.838	3226
841.975	3150
842.112	3241
842.249	3131
842.385	3039
842.522	3245
842.659	3081
842.796	3093
842.933	3066
843.069	3055
843.206	3070
843.343	3195
843.479	3112
843.616	3169
843.752	2956
843.889	2902
844.025	3066
844.162	2895
844.298	3100
844.435	2963
844.571	2910
844.708	3127
844.844	3230
844.98	3241
845.117	3214
845.253	3074
845.389	3020
845.525	3119
845.661	3097
845.798	2990
845.934	3116
846.07	3074
846.206	3249
846.342	3306
846.478	3256
846.614	3119
846.75	3089
846.886	3062
847.022	3260
847.158	3180
847.294	3260
847.429	3283
847.565	3218
847.701	3526
847.837	3066
847.972	3032
848.108	3161
848.244	3173
848.379	2994
848.515	2960
848.65	2948
848.786	2982
848.921	3043
849.057	3135
849.192	3154
849.328	3077
849.463	3131
849.598	3097
849.734	3051
849.869	2986
850.004	2929
850.14	2944
850.275	2910
850.41	2849
850.545	2899
850.68	2956
850.815	2963
850.95	3001
851.085	3199
851.22	3165
851.355	3055
851.49	3020
851.625	3020
851.76	3017
851.895	2967
852.03	2956
852.165	3066
852.299	3135
852.434	3230
852.569	3157
852.703	3180
852.838	3291
852.973	3313
853.107	3367
853.242	3135
853.376	3119
853.511	3013
853.645	3074
853.78	3230
853.914	3165
854.048	3093
854.183	3093
854.317	3169
854.451	3310
854.585	3112
854.72	3081
854.854	3230
854.988	3070
855.122	3104
855.256	2975
855.39	3142
855.524	3253
855.658	3222
855.792	3161
855.926	3184
856.06	3245
856.194	3310
856.327	3150
856.461	3081
856.595	3093
856.729	3104
856.862	3249
856.996	3180
857.13	3241
857.263	3253
857.397	3275
857.53	3150
857.664	3203
857.797	3287
857.931	3249
858.064	3188
858.197	3237
858.331	3108
858.464	3097
858.597	3062
858.731	3123
858.864	3165
858.997	3077
859.13	3154
859.263	3199
859.396	3180
859.529	3119
859.662	3077
859.795	3104
859.928	3199
860.061	3272
860.194	3275
860.327	3146
860.46	3116
860.592	3287
860.725	3294
860.858	3283
860.99	3138
861.123	3074
861.256	3077
861.388	3184
861.521	3751
861.653	3058
861.786	3051
861.918	2994
862.05	3051
862.183	3104
862.315	3169
862.447	3253
862.58	3119
862.712	2979
862.844	2906
862.976	3039
863.108	3005
863.24	3428
863.372	2880
863.504	2979
863.636	2952
863.768	3081
863.9	2979
864.032	2914
864.164	2990
864.296	3039
864.428	3150
864.559	3104
864.691	3112
864.823	3085
864.954	3051
865.086	3085
865.217	2998
865.349	2948
865.48	2994
865.612	3024
865.743	3211
865.875	3001
866.006	2963
866.137	2986
866.269	2967
866.4	2952
866.531	2933
866.662	2910
866.793	2937
866.924	2952
867.055	2998
867.186	2948
867.317	2925
867.448	2876
867.579	2853
867.71	2902
867.841	2838
867.972	2906
868.103	2948
868.233	2929
868.364	2887
868.495	2906
868.625	3116
868.756	3199
868.886	3020
869.017	3032
869.147	3131
869.278	3184
869.408	3085
869.539	3066
869.669	3146
869.799	3055
869.929	3169
870.06	3131
870.19	3329
870.32	3310
870.45	3302
870.58	3393
870.71	3435
870.84	3439
870.97	3272
871.1	3302
871.23	3523
871.36	3462
871.489	3393
871.619	3416
871.749	3458
871.879	3481
872.008	3466
872.138	3405
872.267	3310
872.397	3157
872.526	3138
872.656	3039
872.785	3108
872.915	3253
873.044	3340
873.173	3249
873.303	3249
873.432	3287
873.561	3275
873.69	3146
873.819	3157
873.948	3222
874.077	3146
874.206	3062
874.335	3081
874.464	3241
874.593	3389
874.722	3291
874.851	3393
874.979	3393
875.108	3370
875.237	3256
875.365	3203
875.494	3188
875.623	3298
875.751	3108
875.88	3066
876.008	3214
876.136	3230
876.265	3409
876.393	3485
876.521	3405
876.65	3458
876.778	3374
876.906	3279
877.034	3180
877.162	3226
877.29	3218
877.418	3279
877.546	3287
877.674	3298
877.802	3283
877.93	3256
878.058	3184
878.185	3077
878.313	3184
878.441	3264
878.568	3100
878.696	3180
878.824	3241
878.951	3348
879.079	3481
879.206	3663
879.333	3500
879.461	3401
879.588	3374
879.715	3485
879.842	3629
879.97	3393
880.097	3138
880.224	3180
880.351	3180
880.478	3214
880.605	3249
880.732	3218
880.859	3523
880.986	3325
881.112	3298
881.239	3237
881.366	3142
881.493	3058
881.619	3020
881.746	3070
881.872	3104
881.999	3116
882.125	3146
882.252	3306
882.378	3291
882.505	3435
882.631	3317
882.757	3199
882.883	3249
883.01	3253
883.136	3173
883.262	3081
883.388	3146
883.514	3370
883.64	3386
883.766	3348
883.892	3157
884.018	3226
884.143	3462
884.269	3557
884.395	3173
884.52	3199
884.646	3211
884.772	3127
884.897	3146
885.023	3233
885.148	3355
885.274	3393
885.399	3389
885.524	3294
885.65	3279
885.775	3321
885.9	3275
886.025	3450
886.15	3389
886.275	3351
886.4	3237
886.525	3348
886.65	3332
886.775	3298
886.9	3519
887.025	3648
887.149	3466
887.274	3294
887.399	3230
887.523	3237
887.648	3195
887.773	3222
887.897	3458
888.021	3431
888.146	3313
888.27	3447
888.395	3545
888.519	3473
888.643	3469
888.767	3481
888.891	3344
889.015	3298
889.139	3325
889.263	3306
889.387	3412
889.511	3519
889.635	3454
889.759	3294
889.883	3348
890.006	3420
890.13	3526
890.254	3291
890.377	3370
890.501	3245
890.624	3203
890.748	3344
890.871	3214
890.995	3104
891.118	3123
891.241	3214
891.364	3283
891.488	3348
891.611	3207
891.734	3211
891.857	3302
891.98	3237
892.103	3321
892.226	3260
892.349	3233
892.471	3142
892.594	3302
892.717	3283
892.839	3306
892.962	3325
893.085	3348
893.207	3317
893.33	3188
893.452	3268
893.575	3397
893.697	3306
893.819	3469
893.941	3545
894.064	3443
894.186	3283
894.308	3279
894.43	3481
894.552	3523
894.674	3462
894.796	3294
894.918	3325
895.04	3332
895.161	3420
895.283	3416
895.405	3306
895.526	3420
895.648	3469
895.769	3428
895.891	3424
896.012	3538
896.134	3492
896.255	3428
896.376	3412
896.498	3386
896.619	3431
896.74	3367
896.861	3412
896.982	3717
897.103	3873
897.224	3637
897.345	3568
897.466	3466
897.587	3511
897.708	3663
897.828	3576
897.949	3462
898.07	3336
898.19	3420
898.311	3595
898.431	3443
898.552	3542
898.672	3606
898.792	3618
898.913	3538
899.033	3450
899.153	3294
899.273	3245
899.393	3264
899.513	3279
899.633	3329
899.753	3367
899.873	3359
899.993	3409
900.113	3313
900.232	3382
900.352	3355
900.472	3313
900.591	3211
900.711	3321
900.83	3283
900.95	3450
901.069	3530
901.189	3329
901.308	3218
901.427	3192
901.546	3241
901.665	3317
901.784	3321
901.904	3199
902.023	3203
902.141	3066
902.26	3017
902.379	3161
902.498	3085
902.617	3070
902.735	3188
902.854	3230
902.973	3222
903.091	3051
903.21	3100
903.328	3188
903.446	3161
903.565	3127
903.683	3245
903.801	3135
903.919	3260
904.038	3329
904.156	3195
904.274	3302
904.392	3268
904.51	3287
904.627	3359
904.745	3481
904.863	3515
904.981	3310
905.098	3176
905.216	3233
905.334	3306
905.451	3344
905.569	3344
905.686	3473
905.803	3439
905.921	3329
906.038	3466
906.155	3363
906.272	3294
906.389	3336
906.506	3283
906.623	3313
906.74	3256
906.857	3195
906.974	3260
907.091	3481
907.208	3614
907.324	3530
907.441	3401
907.557	3260
907.674	3268
907.79	3260
907.907	3344
908.023	3351
908.139	3405
908.256	3374
908.372	3378
908.488	3386
908.604	3283
908.72	3272
908.836	3272
908.952	3313
909.068	3363
909.184	3534
909.3	3412
909.415	3507
909.531	3492
909.647	3302
909.762	3310
909.878	3294
909.993	3412
910.108	3355
910.224	3363
910.339	3416
910.454	3351
910.57	3298
910.685	3275
910.8	3610
910.915	3599
911.03	3454
911.145	3325
911.259	3279
911.374	3351
911.489	3272
911.604	3275
911.718	3154
911.833	3192
911.947	3070
912.062	3009
912.176	3188
912.291	3226
912.405	3218
912.519	3447
912.633	3477
912.748	3344
912.862	3287
912.976	3218
913.09	3058
913.204	3161
913.318	3214
913.431	3367
913.545	3393
913.659	3428
913.772	3367
913.886	3226
914	3211
914.113	3348
914.226	3443
914.34	3348
914.453	3222
914.566	3443
914.68	3329
914.793	3389
914.906	3165
915.019	3142
915.132	3100
915.245	3173
915.358	3233
915.47	3241
915.583	3291
915.696	3340
915.809	3435
915.921	3454
916.034	3321
916.146	3264
916.259	3260
916.371	3397
916.483	3431
916.595	3317
916.708	3393
916.82	3374
916.932	3336
917.044	3370
917.156	3374
917.268	3268
917.38	3355
917.491	3321
917.603	3409
917.715	3477
917.826	3485
917.938	3431
918.049	3294
918.161	3485
918.272	3614
918.384	3622
918.495	3511
918.606	3370
918.717	3329
918.828	3378
918.939	3439
919.05	3306
919.161	3382
919.272	3226
919.383	3279
919.494	3511
919.604	3709
919.715	3492
919.826	3420
919.936	3469
920.047	3641
920.157	3572
920.267	3800
920.378	3648
920.488	3595
920.598	3819
920.708	3975
920.818	3846
920.928	3884
921.038	4124
921.148	4036
921.258	3728
921.368	3648
921.477	3595
921.587	3561
921.697	3492
921.806	3682
921.916	3511
922.025	3386
922.134	3443
922.244	3340
922.353	3454
922.462	3272
922.571	3279
922.68	3100
922.789	3150
922.898	3161
923.007	3127
923.116	3195
923.224	3203
923.333	3218
923.442	3157
923.55	3135
923.659	3131
923.767	3237
923.876	3112
923.984	3313
924.092	3138
924.201	3173
924.309	3211
924.417	3272
924.525	3222
924.633	3253
924.741	4230
924.849	3089
924.956	3313
925.064	3066
925.172	3085
925.279	3116
925.387	3245
925.494	3218
925.602	3382
925.709	3359
925.816	3203
925.924	3325
926.031	3431
926.138	3348
926.245	3424
926.352	3313
926.459	3443
926.566	3549
926.673	3329
926.779	3310
926.886	3272
926.993	3142
927.099	3176
927.206	3131
927.312	3161
927.419	3264
927.525	3256
927.631	3275
927.737	3146
927.843	3135
927.95	3055
928.056	3199
928.162	3188
928.267	3313
928.373	3812
928.479	3313
928.585	3089
928.69	3203
928.796	3313
928.901	3176
929.007	3062
929.112	3226
929.218	3218
929.323	3180
929.428	3176
929.533	3344
929.638	3135
929.743	3218
929.848	3275
929.953	3218
930.058	3169
930.163	3028
930.267	3058
930.372	3195
930.477	3077
930.581	3348
930.685	3211
930.79	3138
930.894	3146
930.998	3169
931.103	3264
931.207	3005
931.311	2994
931.415	2986
931.519	2811
931.623	2811
