Data from test_V78500241_1301.txt Node
Date: Fri Mar 25 16:24:12 CST 2022
User: usil
Spectrometer: V785-0024
Trigger mode: 0
Integration Time (sec): 4.000000E-1
Scans to average: 1
Nonlinearity correction enabled: false
Boxcar width: 0
Storing dark spectrum: false
XAxis mode: Wavelengths
Number of Pixels in Spectrum: 1024
>>>>>Begin Spectral Data<<<<<
801.071	2914
801.214	2944
801.356	2838
801.499	2880
801.641	2849
801.783	2914
801.926	3032
802.068	2925
802.211	3017
802.353	3024
802.496	2929
802.638	3028
802.78	3058
802.923	3077
803.065	3020
803.208	2906
803.35	2899
803.492	2933
803.635	2941
803.777	2788
803.919	2819
804.061	3199
804.204	2929
804.346	2887
804.488	2849
804.63	2979
804.773	2876
804.915	2895
805.057	3058
805.199	2952
805.341	2998
805.483	3058
805.626	3001
805.768	2971
805.91	3077
806.052	3108
806.194	3058
806.336	3222
806.478	3062
806.62	2929
806.762	2960
806.904	3058
807.046	3161
807.188	2986
807.33	2929
807.472	2967
807.614	2895
807.756	3013
807.898	2902
808.04	2922
808.182	3001
808.324	2937
808.465	2925
808.607	2895
808.749	2785
808.891	2838
809.033	2948
809.174	2956
809.316	2895
809.458	2929
809.6	2773
809.741	2769
809.883	2800
810.025	2834
810.166	2857
810.308	2819
810.45	2826
810.591	2788
810.733	2754
810.875	2868
811.016	2739
811.158	2773
811.299	2826
811.441	2944
811.582	2914
811.724	2819
811.865	2815
812.007	2929
812.148	2853
812.29	2830
812.431	2891
812.573	2948
812.714	2956
812.855	3036
812.997	3039
813.138	3131
813.279	3024
813.421	2994
813.562	2960
813.703	2883
813.845	2906
813.986	2746
814.127	2739
814.268	2800
814.41	2842
814.551	2762
814.692	2857
814.833	2781
814.974	2937
815.115	2963
815.256	2815
815.397	2819
815.539	2849
815.68	2800
815.821	2830
815.962	2895
816.103	2906
816.244	2864
816.385	2876
816.526	2979
816.666	2944
816.807	2762
816.948	2883
817.089	2891
817.23	2868
817.371	2739
817.512	2769
817.653	2826
817.793	2826
817.934	2864
818.075	2963
818.216	3001
818.356	2990
818.497	2872
818.638	2773
818.778	2823
818.919	2785
819.06	2777
819.2	2899
819.341	2819
819.481	2796
819.622	2906
819.762	3131
819.903	3024
820.043	2887
820.184	2876
820.324	2876
820.465	3005
820.605	3036
820.746	3005
820.886	2902
821.026	3108
821.167	3135
821.307	3260
821.447	3275
821.588	3184
821.728	3180
821.868	3222
822.008	3081
822.149	3173
822.289	3211
822.429	3070
822.569	3085
822.709	3131
822.849	3017
822.99	3024
823.13	3104
823.27	3161
823.41	3089
823.55	3157
823.69	3150
823.83	3154
823.97	3081
824.11	2971
824.25	2971
824.389	3055
824.529	3093
824.669	3039
824.809	3180
824.949	3256
825.089	3195
825.228	3150
825.368	3032
825.508	2948
825.648	2937
825.787	2994
825.927	3013
826.067	2941
826.206	2982
826.346	3081
826.485	3074
826.625	3108
826.765	3237
826.904	3214
827.044	3001
827.183	2948
827.323	2857
827.462	2956
827.601	2899
827.741	2960
827.88	2963
828.02	2830
828.159	2982
828.298	3074
828.437	3051
828.577	3047
828.716	3214
828.855	3039
828.994	2902
829.134	2880
829.273	2902
829.412	2864
829.551	2880
829.69	2864
829.829	2990
829.968	3127
830.107	3024
830.246	3028
830.385	2925
830.524	2868
830.663	2792
830.802	2724
830.941	2644
831.08	2625
831.219	2743
831.357	2758
831.496	2960
831.635	2701
831.774	2632
831.913	2659
832.051	2545
832.19	2602
832.329	2651
832.467	2522
832.606	2457
832.744	2590
832.883	2564
833.022	2560
833.16	2659
833.299	2697
833.437	2693
833.576	2689
833.714	2716
833.852	2708
833.991	2731
834.129	2845
834.267	2842
834.406	2785
834.544	2895
834.682	2845
834.821	2838
834.959	3066
835.097	2876
835.235	3051
835.373	2979
835.511	2971
835.65	2952
835.788	2971
835.926	2792
836.064	2777
836.202	2861
836.34	3055
836.478	3104
836.615	3028
836.753	3123
836.891	3161
837.029	3127
837.167	3135
837.305	3066
837.443	3039
837.58	2986
837.718	3089
837.856	3039
837.993	3017
838.131	3142
838.269	3135
838.406	3097
838.544	3062
838.681	2910
838.819	2948
838.956	2823
839.094	2834
839.231	2922
839.369	2960
839.506	3351
839.643	3218
839.781	3005
839.918	2922
840.055	3028
840.193	3032
840.33	3070
840.467	3051
840.604	3150
840.742	3409
840.879	3070
841.016	3062
841.153	3081
841.29	3325
841.427	3264
841.564	3256
841.701	3275
841.838	3253
841.975	3154
842.112	3214
842.249	3070
842.385	3043
842.522	3260
842.659	3047
842.796	3051
842.933	3127
843.069	3039
843.206	3043
843.343	3169
843.479	3112
843.616	3161
843.752	2883
843.889	2845
844.025	3058
844.162	2910
844.298	3058
844.435	2929
844.571	2918
844.708	3066
844.844	3165
844.98	3237
845.117	3150
845.253	3051
845.389	3032
845.525	3123
845.661	3070
845.798	3039
845.934	3108
846.07	3066
846.206	3169
846.342	3283
846.478	3253
846.614	3085
846.75	3047
846.886	2994
847.022	3237
847.158	3180
847.294	3199
847.429	3256
847.565	3230
847.701	3511
847.837	3036
847.972	2986
848.108	3123
848.244	3100
848.379	2967
848.515	2910
848.65	2925
848.786	2963
848.921	2998
849.057	3119
849.192	3127
849.328	3062
849.463	3100
849.598	3055
849.734	2998
849.869	2979
850.004	2941
850.14	2952
850.275	2902
850.41	2819
850.545	2861
850.68	2948
850.815	2982
850.95	2975
851.085	3157
851.22	3070
851.355	3062
851.49	2967
851.625	2952
851.76	3020
851.895	2948
852.03	2925
852.165	3032
852.299	3093
852.434	3180
852.569	3112
852.703	3173
852.838	3249
852.973	3336
853.107	3321
853.242	3127
853.376	3089
853.511	2975
853.645	3039
853.78	3207
853.914	3093
854.048	3131
854.183	3085
854.317	3161
854.451	3325
854.585	3104
854.72	3093
854.854	3165
854.988	2998
855.122	3055
855.256	2956
855.39	3108
855.524	3218
855.658	3169
855.792	3176
855.926	3180
856.06	3226
856.194	3226
856.327	3131
856.461	3074
856.595	3089
856.729	3089
856.862	3218
856.996	3161
857.13	3184
857.263	3176
857.397	3249
857.53	3123
857.664	3169
857.797	3203
857.931	3275
858.064	3123
858.197	3180
858.331	3112
858.464	3100
858.597	2994
858.731	3116
858.864	3108
858.997	3062
859.13	3131
859.263	3176
859.396	3173
859.529	3089
859.662	3089
859.795	3028
859.928	3116
860.061	3256
860.194	3275
860.327	3116
860.46	3093
860.592	3165
860.725	3207
860.858	3264
860.99	3043
861.123	3074
861.256	3085
861.388	3135
861.521	3667
861.653	3017
861.786	3024
861.918	2986
862.05	3024
862.183	3093
862.315	3165
862.447	3154
862.58	3074
862.712	2925
862.844	2868
862.976	3051
863.108	3013
863.24	3298
863.372	2868
863.504	2925
863.636	2914
863.768	3047
863.9	2986
864.032	2891
864.164	2982
864.296	2998
864.428	3100
864.559	3058
864.691	3077
864.823	3077
864.954	3009
865.086	3028
865.217	2967
865.349	2929
865.48	2990
865.612	3013
865.743	3138
865.875	2971
866.006	2906
866.137	2952
866.269	2956
866.4	2902
866.531	2872
866.662	2876
866.793	2895
866.924	2895
867.055	2952
867.186	2880
867.317	2876
867.448	2823
867.579	2811
867.71	2849
867.841	2800
867.972	2929
868.103	2906
868.233	2845
868.364	2883
868.495	2872
868.625	3081
868.756	3138
868.886	2975
869.017	3001
869.147	3146
869.278	3138
869.408	3043
869.539	3024
869.669	3119
869.799	3051
869.929	3142
870.06	3108
870.19	3329
870.32	3256
870.45	3275
870.58	3340
870.71	3439
870.84	3450
870.97	3272
871.1	3192
871.23	3466
871.36	3424
871.489	3351
871.619	3382
871.749	3412
871.879	3412
872.008	3496
872.138	3321
872.267	3291
872.397	3112
872.526	3089
872.656	3009
872.785	3100
872.915	3199
873.044	3302
873.173	3165
873.303	3211
873.432	3233
873.561	3226
873.69	3138
873.819	3127
873.948	3199
874.077	3108
874.206	3028
874.335	3074
874.464	3207
874.593	3321
874.722	3230
874.851	3397
874.979	3325
875.108	3306
875.237	3195
875.365	3207
875.494	3173
875.623	3195
875.751	3077
875.88	3070
876.008	3195
876.136	3192
876.265	3325
876.393	3519
876.521	3409
876.65	3382
876.778	3317
876.906	3256
877.034	3184
877.162	3218
877.29	3195
877.418	3222
877.546	3237
877.674	3245
877.802	3230
877.93	3203
878.058	3165
878.185	3070
878.313	3245
878.441	3195
878.568	3077
878.696	3180
878.824	3230
878.951	3260
879.079	3458
879.206	3561
879.333	3420
879.461	3332
879.588	3359
879.715	3481
879.842	3572
879.97	3363
880.097	3161
880.224	3100
880.351	3203
880.478	3283
880.605	3195
880.732	3161
880.859	3462
880.986	3294
881.112	3367
881.239	3184
881.366	3108
881.493	3024
881.619	3032
881.746	3058
881.872	3123
881.999	3131
882.125	3150
882.252	3226
882.378	3313
882.505	3424
882.631	3268
882.757	3135
882.883	3207
883.01	3199
883.136	3154
883.262	3070
883.388	3097
883.514	3306
883.64	3363
883.766	3298
883.892	3165
884.018	3211
884.143	3435
884.269	3504
884.395	3199
884.52	3142
884.646	3192
884.772	3127
884.897	3085
885.023	3222
885.148	3336
885.274	3382
885.399	3409
885.524	3245
885.65	3294
885.775	3310
885.9	3283
886.025	3447
886.15	3378
886.275	3302
886.4	3245
886.525	3310
886.65	3298
886.775	3264
886.9	3511
887.025	3606
887.149	3397
887.274	3233
887.399	3165
887.523	3123
887.648	3184
887.773	3184
887.897	3393
888.021	3363
888.146	3291
888.27	3431
888.395	3545
888.519	3397
888.643	3431
888.767	3458
888.891	3275
889.015	3237
889.139	3283
889.263	3233
889.387	3397
889.511	3515
889.635	3466
889.759	3306
889.883	3291
890.006	3351
890.13	3507
890.254	3275
890.377	3340
890.501	3237
890.624	3192
890.748	3294
890.871	3169
890.995	3142
891.118	3081
891.241	3184
891.364	3222
891.488	3329
891.611	3165
891.734	3226
891.857	3245
891.98	3279
892.103	3321
892.226	3291
892.349	3180
892.471	3127
892.594	3249
892.717	3283
892.839	3222
892.962	3283
893.085	3351
893.207	3329
893.33	3146
893.452	3161
893.575	3336
893.697	3256
893.819	3469
893.941	3534
894.064	3466
894.186	3237
894.308	3222
894.43	3386
894.552	3526
894.674	3443
894.796	3291
894.918	3294
895.04	3237
895.161	3424
895.283	3397
895.405	3298
895.526	3332
895.648	3424
895.769	3405
895.891	3458
896.012	3466
896.134	3416
896.255	3378
896.376	3374
896.498	3359
896.619	3412
896.74	3344
896.861	3431
896.982	3656
897.103	3865
897.224	3580
897.345	3469
897.466	3450
897.587	3485
897.708	3652
897.828	3538
897.949	3420
898.07	3294
898.19	3401
898.311	3591
898.431	3443
898.552	3458
898.672	3595
898.792	3564
898.913	3511
899.033	3378
899.153	3306
899.273	3245
899.393	3249
899.513	3310
899.633	3275
899.753	3348
899.873	3306
899.993	3351
900.113	3332
900.232	3374
900.352	3348
900.472	3272
900.591	3188
900.711	3329
900.83	3260
900.95	3386
901.069	3473
901.189	3344
901.308	3203
901.427	3089
901.546	3150
901.665	3287
901.784	3348
901.904	3211
902.023	3119
902.141	3009
902.26	3005
902.379	3142
902.498	3112
902.617	3039
902.735	3207
902.854	3233
902.973	3165
903.091	3039
903.21	3051
903.328	3131
903.446	3104
903.565	3085
903.683	3203
903.801	3123
903.919	3230
904.038	3306
904.156	3154
904.274	3302
904.392	3211
904.51	3275
904.627	3329
904.745	3397
904.863	3450
904.981	3241
905.098	3203
905.216	3241
905.334	3272
905.451	3268
905.569	3291
905.686	3405
905.803	3454
905.921	3287
906.038	3458
906.155	3317
906.272	3237
906.389	3325
906.506	3233
906.623	3211
906.74	3283
906.857	3188
906.974	3245
907.091	3405
907.208	3557
907.324	3439
907.441	3386
907.557	3237
907.674	3256
907.79	3207
907.907	3241
908.023	3363
908.139	3351
908.256	3306
908.372	3374
908.488	3306
908.604	3241
908.72	3222
908.836	3302
908.952	3291
909.068	3332
909.184	3515
909.3	3370
909.415	3511
909.531	3473
909.647	3275
909.762	3253
909.878	3283
909.993	3367
910.108	3340
910.224	3336
910.339	3431
910.454	3336
910.57	3279
910.685	3207
910.8	3625
910.915	3515
911.03	3405
911.145	3272
911.259	3241
911.374	3291
911.489	3253
911.604	3203
911.718	3146
911.833	3112
911.947	3036
912.062	3032
912.176	3176
912.291	3226
912.405	3161
912.519	3431
912.633	3447
912.748	3344
912.862	3291
912.976	3154
913.09	3085
913.204	3093
913.318	3192
913.431	3344
913.545	3310
913.659	3386
913.772	3329
913.886	3203
914	3253
914.113	3363
914.226	3435
914.34	3348
914.453	3176
914.566	3416
914.68	3294
914.793	3351
914.906	3142
915.019	3100
915.132	3066
915.245	3169
915.358	3161
915.47	3207
915.583	3272
915.696	3302
915.809	3412
915.921	3443
916.034	3287
916.146	3283
916.259	3214
916.371	3367
916.483	3332
916.595	3245
916.708	3332
916.82	3321
916.932	3367
917.044	3378
917.156	3310
917.268	3245
917.38	3264
917.491	3272
917.603	3336
917.715	3447
917.826	3435
917.938	3389
918.049	3291
918.161	3416
918.272	3599
918.384	3603
918.495	3447
918.606	3317
918.717	3279
918.828	3401
918.939	3397
919.05	3310
919.161	3386
919.272	3218
919.383	3264
919.494	3523
919.604	3713
919.715	3481
919.826	3374
919.936	3458
920.047	3587
920.157	3526
920.267	3755
920.378	3625
920.488	3580
920.598	3785
920.708	3949
920.818	3816
920.928	3800
921.038	4006
921.148	3968
921.258	3660
921.368	3652
921.477	3534
921.587	3519
921.697	3454
921.806	3587
921.916	3500
922.025	3317
922.134	3359
922.244	3321
922.353	3401
922.462	3264
922.571	3268
922.68	3138
922.789	3081
922.898	3116
923.007	3081
923.116	3203
923.224	3184
923.333	3207
923.442	3108
923.55	3074
923.659	3108
923.767	3180
923.876	3112
923.984	3226
924.092	3116
924.201	3173
924.309	3230
924.417	3218
924.525	3173
924.633	3237
924.741	3991
924.849	3017
924.956	3256
925.064	3112
925.172	3051
925.279	3085
925.387	3169
925.494	3157
925.602	3370
925.709	3332
925.816	3195
925.924	3275
926.031	3374
926.138	3310
926.245	3374
926.352	3268
926.459	3386
926.566	3458
926.673	3329
926.779	3233
926.886	3226
926.993	3135
927.099	3066
927.206	3116
927.312	3116
927.419	3226
927.525	3237
927.631	3279
927.737	3112
927.843	3077
927.95	3043
928.056	3165
928.162	3157
928.267	3268
928.373	3869
928.479	3291
928.585	3013
928.69	3214
928.796	3264
928.901	3169
929.007	3036
929.112	3207
929.218	3199
929.323	3161
929.428	3169
929.533	3306
929.638	3093
929.743	3150
929.848	3264
929.953	3218
930.058	3142
930.163	3005
930.267	3017
930.372	3188
930.477	3005
930.581	3325
930.685	3169
930.79	3013
930.894	3123
930.998	3077
931.103	3249
931.207	2963
931.311	2914
931.415	2906
931.519	2800
931.623	2800
