Data from test_V78500241_115.txt Node
Date: Fri Mar 25 16:16:00 CST 2022
User: usil
Spectrometer: V785-0024
Trigger mode: 0
Integration Time (sec): 4.000000E-1
Scans to average: 1
Nonlinearity correction enabled: false
Boxcar width: 0
Storing dark spectrum: false
XAxis mode: Wavelengths
Number of Pixels in Spectrum: 1024
>>>>>Begin Spectral Data<<<<<
801.071	2941
801.214	2941
801.356	2910
801.499	2887
801.641	2880
801.783	2937
801.926	3093
802.068	2990
802.211	3001
802.353	3013
802.496	2994
802.638	3036
802.78	3043
802.923	3074
803.065	3032
803.208	2918
803.35	2944
803.492	2922
803.635	2933
803.777	2800
803.919	2895
804.061	3173
804.204	2975
804.346	2967
804.488	2868
804.63	3017
804.773	2895
804.915	2982
805.057	3097
805.199	2944
805.341	3005
805.483	3066
805.626	3062
805.768	2986
805.91	3104
806.052	3123
806.194	3062
806.336	3241
806.478	3070
806.62	3036
806.762	3005
806.904	3093
807.046	3146
807.188	2994
807.33	2925
807.472	2982
807.614	2937
807.756	3013
807.898	2933
808.04	2929
808.182	2967
808.324	2956
808.465	2902
808.607	2902
808.749	2838
808.891	2868
809.033	2956
809.174	2971
809.316	2941
809.458	2899
809.6	2773
809.741	2804
809.883	2781
810.025	2853
810.166	2895
810.308	2864
810.45	2868
810.591	2785
810.733	2754
810.875	2868
811.016	2792
811.158	2781
811.299	2819
811.441	2929
811.582	2895
811.724	2864
811.865	2868
812.007	2929
812.148	2902
812.29	2861
812.431	2891
812.573	2963
812.714	2979
812.855	3093
812.997	3100
813.138	3123
813.279	3055
813.421	3028
813.562	2948
813.703	2914
813.845	2891
813.986	2804
814.127	2754
814.268	2853
814.41	2876
814.551	2857
814.692	2899
814.833	2853
814.974	2925
815.115	2971
815.256	2861
815.397	2849
815.539	2883
815.68	2807
815.821	2842
815.962	2948
816.103	2944
816.244	2929
816.385	2899
816.526	2975
816.666	2922
816.807	2777
816.948	2899
817.089	2937
817.23	2864
817.371	2785
817.512	2823
817.653	2849
817.793	2815
817.934	2876
818.075	2963
818.216	2998
818.356	3055
818.497	2925
818.638	2796
818.778	2853
818.919	2849
819.06	2815
819.2	2876
819.341	2823
819.481	2823
819.622	2937
819.762	3108
819.903	3093
820.043	2925
820.184	2902
820.324	2910
820.465	3055
820.605	3051
820.746	3013
820.886	2960
821.026	3123
821.167	3207
821.307	3272
821.447	3294
821.588	3233
821.728	3203
821.868	3192
822.008	3100
822.149	3195
822.289	3249
822.429	3119
822.569	3116
822.709	3195
822.849	3028
822.99	3138
823.13	3173
823.27	3199
823.41	3146
823.55	3150
823.69	3138
823.83	3214
823.97	3123
824.11	3009
824.25	3001
824.389	3135
824.529	3104
824.669	3112
824.809	3218
824.949	3272
825.089	3249
825.228	3142
825.368	3024
825.508	2933
825.648	2963
825.787	3024
825.927	3028
826.067	2979
826.206	2963
826.346	3097
826.485	3085
826.625	3123
826.765	3302
826.904	3188
827.044	3009
827.183	2967
827.323	2883
827.462	3020
827.601	2922
827.741	2899
827.88	2952
828.02	2872
828.159	2998
828.298	3062
828.437	3131
828.577	3032
828.716	3211
828.855	3142
828.994	2982
829.134	2891
829.273	2963
829.412	2883
829.551	2876
829.69	2914
829.829	3013
829.968	3135
830.107	3024
830.246	3036
830.385	2948
830.524	2906
830.663	2876
830.802	2754
830.941	2693
831.08	2648
831.219	2804
831.357	2800
831.496	2952
831.635	2720
831.774	2693
831.913	2655
832.051	2533
832.19	2598
832.329	2682
832.467	2537
832.606	2476
832.744	2617
832.883	2617
833.022	2606
833.16	2659
833.299	2708
833.437	2708
833.576	2712
833.714	2720
833.852	2708
833.991	2777
834.129	2811
834.267	2834
834.406	2811
834.544	2899
834.682	2872
834.821	2895
834.959	3093
835.097	2914
835.235	3074
835.373	3009
835.511	3047
835.65	2967
835.788	2967
835.926	2861
836.064	2823
836.202	2864
836.34	3104
836.478	3207
836.615	3085
836.753	3176
836.891	3237
837.029	3192
837.167	3112
837.305	3093
837.443	3020
837.58	2979
837.718	3138
837.856	3074
837.993	3077
838.131	3100
838.269	3100
838.406	3119
838.544	3089
838.681	2944
838.819	2956
838.956	2819
839.094	2857
839.231	2929
839.369	3032
839.506	3424
839.643	3237
839.781	3020
839.918	2948
840.055	3070
840.193	3066
840.33	3066
840.467	3097
840.604	3203
840.742	3435
840.879	3074
841.016	3051
841.153	3135
841.29	3355
841.427	3313
841.564	3279
841.701	3306
841.838	3230
841.975	3207
842.112	3249
842.249	3062
842.385	3070
842.522	3245
842.659	3116
842.796	3085
842.933	3097
843.069	3039
843.206	3074
843.343	3203
843.479	3093
843.616	3131
843.752	2933
843.889	2883
844.025	3104
844.162	2861
844.298	3135
844.435	2967
844.571	2883
844.708	3112
844.844	3192
844.98	3268
845.117	3226
845.253	3051
845.389	3058
845.525	3127
845.661	3100
845.798	3047
845.934	3157
846.07	3058
846.206	3207
846.342	3386
846.478	3222
846.614	3108
846.75	3104
846.886	3055
847.022	3249
847.158	3169
847.294	3230
847.429	3249
847.565	3214
847.701	3469
847.837	3028
847.972	3005
848.108	3199
848.244	3154
848.379	2963
848.515	3005
848.65	2960
848.786	2971
848.921	3005
849.057	3142
849.192	3150
849.328	3112
849.463	3127
849.598	3077
849.734	3074
849.869	3017
850.004	2941
850.14	2994
850.275	2933
850.41	2861
850.545	2895
850.68	2952
850.815	2975
850.95	2986
851.085	3195
851.22	3165
851.355	3020
851.49	2998
851.625	3047
851.76	3047
851.895	2933
852.03	2910
852.165	3024
852.299	3108
852.434	3260
852.569	3154
852.703	3195
852.838	3260
852.973	3344
853.107	3351
853.242	3173
853.376	3119
853.511	2990
853.645	3070
853.78	3237
853.914	3135
854.048	3085
854.183	3112
854.317	3154
854.451	3310
854.585	3123
854.72	3070
854.854	3214
854.988	3074
855.122	3108
855.256	2982
855.39	3119
855.524	3222
855.658	3241
855.792	3184
855.926	3195
856.06	3222
856.194	3272
856.327	3188
856.461	3074
856.595	3097
856.729	3119
856.862	3245
856.996	3108
857.13	3226
857.263	3268
857.397	3283
857.53	3108
857.664	3233
857.797	3256
857.931	3321
858.064	3203
858.197	3241
858.331	3169
858.464	3112
858.597	3013
858.731	3116
858.864	3157
858.997	3119
859.13	3192
859.263	3176
859.396	3214
859.529	3157
859.662	3074
859.795	3036
859.928	3150
860.061	3279
860.194	3313
860.327	3184
860.46	3119
860.592	3249
860.725	3256
860.858	3245
860.99	3123
861.123	3081
861.256	3104
861.388	3161
861.521	3701
861.653	3043
861.786	3024
861.918	3032
862.05	3070
862.183	3131
862.315	3176
862.447	3237
862.58	3123
862.712	2979
862.844	2910
862.976	3039
863.108	3009
863.24	3431
863.372	2876
863.504	3017
863.636	2979
863.768	3039
863.9	2967
864.032	2929
864.164	2952
864.296	3005
864.428	3085
864.559	3097
864.691	3097
864.823	3085
864.954	3055
865.086	3051
865.217	3039
865.349	2971
865.48	2994
865.612	3013
865.743	3146
865.875	2971
866.006	2960
866.137	3005
866.269	2967
866.4	2956
866.531	2910
866.662	2899
866.793	2887
866.924	2925
867.055	2982
867.186	2956
867.317	2902
867.448	2868
867.579	2883
867.71	2849
867.841	2887
867.972	2918
868.103	2929
868.233	2910
868.364	2887
868.495	2963
868.625	3119
868.756	3173
868.886	2975
869.017	3039
869.147	3207
869.278	3161
869.408	3036
869.539	3081
869.669	3062
869.799	3055
869.929	3192
870.06	3146
870.19	3329
870.32	3264
870.45	3336
870.58	3370
870.71	3481
870.84	3469
870.97	3291
871.1	3245
871.23	3549
871.36	3488
871.489	3367
871.619	3393
871.749	3389
871.879	3477
872.008	3477
872.138	3386
872.267	3336
872.397	3146
872.526	3093
872.656	3020
872.785	3108
872.915	3283
873.044	3329
873.173	3264
873.303	3256
873.432	3268
873.561	3272
873.69	3176
873.819	3135
873.948	3199
874.077	3108
874.206	3062
874.335	3119
874.464	3233
874.593	3363
874.722	3245
874.851	3439
874.979	3382
875.108	3344
875.237	3245
875.365	3192
875.494	3184
875.623	3275
875.751	3097
875.88	3112
876.008	3199
876.136	3294
876.265	3378
876.393	3511
876.521	3420
876.65	3431
876.778	3359
876.906	3268
877.034	3245
877.162	3230
877.29	3253
877.418	3268
877.546	3264
877.674	3264
877.802	3253
877.93	3245
878.058	3154
878.185	3097
878.313	3199
878.441	3237
878.568	3081
878.696	3161
878.824	3245
878.951	3329
879.079	3428
879.206	3618
879.333	3443
879.461	3348
879.588	3378
879.715	3523
879.842	3633
879.97	3409
880.097	3173
880.224	3165
880.351	3214
880.478	3218
880.605	3226
880.732	3173
880.859	3511
880.986	3336
881.112	3351
881.239	3222
881.366	3146
881.493	3066
881.619	3017
881.746	3085
881.872	3089
881.999	3150
882.125	3154
882.252	3287
882.378	3336
882.505	3481
882.631	3306
882.757	3119
882.883	3233
883.01	3253
883.136	3173
883.262	3119
883.388	3138
883.514	3367
883.64	3393
883.766	3298
883.892	3184
884.018	3321
884.143	3473
884.269	3603
884.395	3203
884.52	3169
884.646	3203
884.772	3142
884.897	3104
885.023	3207
885.148	3306
885.274	3424
885.399	3348
885.524	3279
885.65	3302
885.775	3279
885.9	3294
886.025	3409
886.15	3382
886.275	3256
886.4	3260
886.525	3325
886.65	3264
886.775	3256
886.9	3507
887.025	3648
887.149	3405
887.274	3264
887.399	3211
887.523	3233
887.648	3192
887.773	3241
887.897	3393
888.021	3416
888.146	3351
888.27	3424
888.395	3557
888.519	3450
888.643	3447
888.767	3458
888.891	3336
889.015	3253
889.139	3287
889.263	3245
889.387	3420
889.511	3496
889.635	3496
889.759	3279
889.883	3302
890.006	3420
890.13	3469
890.254	3298
890.377	3363
890.501	3214
890.624	3199
890.748	3306
890.871	3123
890.995	3131
891.118	3104
891.241	3188
891.364	3230
891.488	3310
891.611	3214
891.734	3241
891.857	3291
891.98	3249
892.103	3336
892.226	3256
892.349	3184
892.471	3127
892.594	3294
892.717	3336
892.839	3275
892.962	3370
893.085	3382
893.207	3306
893.33	3150
893.452	3253
893.575	3344
893.697	3245
893.819	3500
893.941	3526
894.064	3424
894.186	3298
894.308	3268
894.43	3492
894.552	3584
894.674	3507
894.796	3306
894.918	3329
895.04	3298
895.161	3458
895.283	3443
895.405	3355
895.526	3431
895.648	3443
895.769	3447
895.891	3473
896.012	3511
896.134	3466
896.255	3454
896.376	3405
896.498	3389
896.619	3515
896.74	3386
896.861	3469
896.982	3717
897.103	3915
897.224	3675
897.345	3576
897.466	3496
897.587	3595
897.708	3663
897.828	3618
897.949	3477
898.07	3412
898.19	3466
898.311	3682
898.431	3481
898.552	3568
898.672	3686
898.792	3633
898.913	3557
899.033	3469
899.153	3359
899.273	3291
899.393	3351
899.513	3370
899.633	3386
899.753	3382
899.873	3401
899.993	3454
900.113	3397
900.232	3439
900.352	3370
900.472	3351
900.591	3294
900.711	3344
900.83	3321
900.95	3496
901.069	3564
901.189	3454
901.308	3222
901.427	3142
901.546	3230
901.665	3348
901.784	3367
901.904	3272
902.023	3169
902.141	3058
902.26	3051
902.379	3165
902.498	3119
902.617	3116
902.735	3283
902.854	3302
902.973	3272
903.091	3146
903.21	3119
903.328	3169
903.446	3165
903.565	3176
903.683	3275
903.801	3203
903.919	3344
904.038	3374
904.156	3207
904.274	3329
904.392	3298
904.51	3359
904.627	3412
904.745	3515
904.863	3519
904.981	3279
905.098	3218
905.216	3279
905.334	3306
905.451	3359
905.569	3370
905.686	3481
905.803	3496
905.921	3332
906.038	3485
906.155	3409
906.272	3340
906.389	3374
906.506	3272
906.623	3359
906.74	3317
906.857	3268
906.974	3329
907.091	3530
907.208	3599
907.324	3538
907.441	3439
907.557	3317
907.674	3325
907.79	3256
907.907	3302
908.023	3397
908.139	3409
908.256	3389
908.372	3428
908.488	3409
908.604	3336
908.72	3287
908.836	3397
908.952	3336
909.068	3401
909.184	3511
909.3	3462
909.415	3557
909.531	3504
909.647	3351
909.762	3382
909.878	3291
909.993	3416
910.108	3401
910.224	3412
910.339	3466
910.454	3424
910.57	3359
910.685	3310
910.8	3637
910.915	3553
911.03	3488
911.145	3340
911.259	3351
911.374	3363
911.489	3321
911.604	3264
911.718	3203
911.833	3230
911.947	3074
912.062	3062
912.176	3226
912.291	3253
912.405	3249
912.519	3477
912.633	3496
912.748	3378
912.862	3340
912.976	3226
913.09	3138
913.204	3188
913.318	3230
913.431	3409
913.545	3367
913.659	3458
913.772	3378
913.886	3279
914	3253
914.113	3378
914.226	3469
914.34	3424
914.453	3283
914.566	3485
914.68	3348
914.793	3355
914.906	3184
915.019	3154
915.132	3097
915.245	3237
915.358	3249
915.47	3249
915.583	3275
915.696	3363
915.809	3454
915.921	3511
916.034	3298
916.146	3275
916.259	3291
916.371	3454
916.483	3443
916.595	3317
916.708	3405
916.82	3428
916.932	3405
917.044	3370
917.156	3363
917.268	3340
917.38	3367
917.491	3351
917.603	3416
917.715	3519
917.826	3523
917.938	3443
918.049	3317
918.161	3488
918.272	3660
918.384	3637
918.495	3515
918.606	3412
918.717	3363
918.828	3450
918.939	3450
919.05	3340
919.161	3435
919.272	3237
919.383	3336
919.494	3538
919.604	3740
919.715	3542
919.826	3485
919.936	3496
920.047	3709
920.157	3606
920.267	3838
920.378	3660
920.488	3629
920.598	3857
920.708	3998
920.818	3896
920.928	3903
921.038	4074
921.148	4067
921.258	3785
921.368	3713
921.477	3637
921.587	3603
921.697	3450
921.806	3694
921.916	3591
922.025	3370
922.134	3450
922.244	3374
922.353	3488
922.462	3321
922.571	3298
922.68	3192
922.789	3150
922.898	3176
923.007	3165
923.116	3294
923.224	3214
923.333	3245
923.442	3161
923.55	3176
923.659	3180
923.767	3264
923.876	3214
923.984	3264
924.092	3157
924.201	3264
924.309	3283
924.417	3287
924.525	3237
924.633	3302
924.741	4257
924.849	3097
924.956	3298
925.064	3154
925.172	3074
925.279	3173
925.387	3241
925.494	3226
925.602	3409
925.709	3344
925.816	3192
925.924	3359
926.031	3428
926.138	3359
926.245	3420
926.352	3294
926.459	3485
926.566	3564
926.673	3370
926.779	3325
926.886	3298
926.993	3222
927.099	3169
927.206	3127
927.312	3188
927.419	3268
927.525	3260
927.631	3351
927.737	3218
927.843	3157
927.95	3093
928.056	3214
928.162	3207
928.267	3321
928.373	3838
928.479	3359
928.585	3119
928.69	3264
928.796	3355
928.901	3214
929.007	3062
929.112	3245
929.218	3237
929.323	3207
929.428	3214
929.533	3359
929.638	3214
929.743	3253
929.848	3313
929.953	3256
930.058	3256
930.163	3036
930.267	3089
930.372	3249
930.477	3062
930.581	3351
930.685	3218
930.79	3100
930.894	3195
930.998	3146
931.103	3317
931.207	3017
931.311	2990
931.415	2952
931.519	2811
931.623	2861
