Data from test_V78500241_1707.txt Node
Date: Fri Mar 25 16:27:01 CST 2022
User: usil
Spectrometer: V785-0024
Trigger mode: 0
Integration Time (sec): 4.000000E-1
Scans to average: 1
Nonlinearity correction enabled: false
Boxcar width: 0
Storing dark spectrum: false
XAxis mode: Wavelengths
Number of Pixels in Spectrum: 1024
>>>>>Begin Spectral Data<<<<<
801.071	2914
801.214	2937
801.356	2849
801.499	2891
801.641	2853
801.783	2941
801.926	3020
802.068	3013
802.211	2990
802.353	3047
802.496	2982
802.638	2994
802.78	3020
802.923	3062
803.065	2986
803.208	2864
803.35	2887
803.492	2941
803.635	2922
803.777	2785
803.919	2849
804.061	3184
804.204	2941
804.346	2948
804.488	2815
804.63	3005
804.773	2849
804.915	2914
805.057	3104
805.199	2933
805.341	2971
805.483	3051
805.626	2990
805.768	2918
805.91	3081
806.052	3100
806.194	3036
806.336	3233
806.478	3036
806.62	2956
806.762	2925
806.904	3043
807.046	3180
807.188	2982
807.33	2899
807.472	2963
807.614	2929
807.756	2963
807.898	2948
808.04	2876
808.182	2986
808.324	2963
808.465	2910
808.607	2853
808.749	2758
808.891	2819
809.033	3009
809.174	2963
809.316	2857
809.458	2872
809.6	2735
809.741	2804
809.883	2773
810.025	2819
810.166	2834
810.308	2811
810.45	2876
810.591	2758
810.733	2758
810.875	2864
811.016	2800
811.158	2819
811.299	2815
811.441	2933
811.582	2910
811.724	2823
811.865	2842
812.007	2883
812.148	2887
812.29	2861
812.431	2883
812.573	2948
812.714	2963
812.855	3036
812.997	3036
813.138	3100
813.279	3017
813.421	2933
813.562	2975
813.703	2842
813.845	2868
813.986	2792
814.127	2727
814.268	2807
814.41	2830
814.551	2792
814.692	2864
814.833	2804
814.974	2868
815.115	2929
815.256	2807
815.397	2804
815.539	2887
815.68	2800
815.821	2785
815.962	2952
816.103	2929
816.244	2883
816.385	2883
816.526	2929
816.666	2922
816.807	2746
816.948	2876
817.089	2887
817.23	2826
817.371	2750
817.512	2750
817.653	2845
817.793	2815
817.934	2872
818.075	2956
818.216	3001
818.356	3039
818.497	2906
818.638	2788
818.778	2811
818.919	2788
819.06	2724
819.2	2868
819.341	2796
819.481	2777
819.622	2899
819.762	3097
819.903	3051
820.043	2906
820.184	2925
820.324	2864
820.465	3028
820.605	3066
820.746	3032
820.886	2925
821.026	3070
821.167	3123
821.307	3245
821.447	3298
821.588	3241
821.728	3203
821.868	3192
822.008	3100
822.149	3146
822.289	3256
822.429	3085
822.569	3058
822.709	3192
822.849	3070
822.99	3070
823.13	3161
823.27	3188
823.41	3119
823.55	3127
823.69	3104
823.83	3161
823.97	3116
824.11	2956
824.25	3009
824.389	3085
824.529	3108
824.669	3051
824.809	3176
824.949	3268
825.089	3192
825.228	3169
825.368	2994
825.508	2956
825.648	2944
825.787	3017
825.927	3039
826.067	2994
826.206	2963
826.346	3036
826.485	3043
826.625	3062
826.765	3294
826.904	3173
827.044	3001
827.183	2941
827.323	2849
827.462	2994
827.601	2937
827.741	2906
827.88	2956
828.02	2849
828.159	2967
828.298	3001
828.437	3077
828.577	3009
828.716	3245
828.855	3085
828.994	2895
829.134	2899
829.273	2948
829.412	2861
829.551	2861
829.69	2880
829.829	2979
829.968	3127
830.107	3001
830.246	3005
830.385	2914
830.524	2891
830.663	2800
830.802	2712
830.941	2629
831.08	2648
831.219	2766
831.357	2727
831.496	2944
831.635	2731
831.774	2651
831.913	2648
832.051	2549
832.19	2556
832.329	2686
832.467	2526
832.606	2511
832.744	2568
832.883	2594
833.022	2594
833.16	2636
833.299	2716
833.437	2682
833.576	2708
833.714	2697
833.852	2739
833.991	2773
834.129	2861
834.267	2819
834.406	2815
834.544	2868
834.682	2853
834.821	2845
834.959	3055
835.097	2891
835.235	3062
835.373	2979
835.511	3024
835.65	2975
835.788	2956
835.926	2804
836.064	2800
836.202	2830
836.34	3116
836.478	3165
836.615	3062
836.753	3112
836.891	3199
837.029	3165
837.167	3131
837.305	3047
837.443	3070
837.58	2986
837.718	3154
837.856	3047
837.993	3013
838.131	3108
838.269	3081
838.406	3119
838.544	3066
838.681	2895
838.819	2952
838.956	2815
839.094	2830
839.231	2891
839.369	3039
839.506	3378
839.643	3230
839.781	2994
839.918	2948
840.055	3039
840.193	3058
840.33	3066
840.467	3089
840.604	3150
840.742	3382
840.879	3047
841.016	3036
841.153	3108
841.29	3298
841.427	3272
841.564	3253
841.701	3268
841.838	3222
841.975	3173
842.112	3188
842.249	3104
842.385	3047
842.522	3272
842.659	3089
842.796	3081
842.933	3089
843.069	3032
843.206	3036
843.343	3161
843.479	3089
843.616	3157
843.752	2857
843.889	2864
844.025	3081
844.162	2902
844.298	3062
844.435	2933
844.571	2914
844.708	3051
844.844	3180
844.98	3207
845.117	3226
845.253	3039
845.389	2990
845.525	3093
845.661	3100
845.798	2998
845.934	3119
846.07	3028
846.206	3203
846.342	3317
846.478	3249
846.614	3112
846.75	3047
846.886	2975
847.022	3226
847.158	3116
847.294	3203
847.429	3237
847.565	3207
847.701	3496
847.837	3017
847.972	2948
848.108	3161
848.244	3112
848.379	2967
848.515	2956
848.65	2910
848.786	2979
848.921	2986
849.057	3085
849.192	3123
849.328	3055
849.463	3131
849.598	3058
849.734	3013
849.869	2998
850.004	2880
850.14	2925
850.275	2929
850.41	2845
850.545	2883
850.68	2941
850.815	2929
850.95	2922
851.085	3180
851.22	3135
851.355	3055
851.49	2994
851.625	3005
851.76	2960
851.895	2933
852.03	2906
852.165	2986
852.299	3123
852.434	3203
852.569	3108
852.703	3176
852.838	3199
852.973	3310
853.107	3313
853.242	3154
853.376	3089
853.511	2922
853.645	3017
853.78	3211
853.914	3108
854.048	3123
854.183	3097
854.317	3169
854.451	3275
854.585	3116
854.72	3047
854.854	3192
854.988	3081
855.122	3093
855.256	2975
855.39	3154
855.524	3237
855.658	3157
855.792	3195
855.926	3188
856.06	3230
856.194	3195
856.327	3192
856.461	3081
856.595	3089
856.729	3062
856.862	3218
856.996	3135
857.13	3169
857.263	3233
857.397	3264
857.53	3123
857.664	3199
857.797	3195
857.931	3279
858.064	3123
858.197	3226
858.331	3127
858.464	3062
858.597	2998
858.731	3077
858.864	3138
858.997	3108
859.13	3138
859.263	3230
859.396	3150
859.529	3066
859.662	3058
859.795	3036
859.928	3150
860.061	3268
860.194	3260
860.327	3138
860.46	3058
860.592	3249
860.725	3211
860.858	3260
860.99	3108
861.123	3036
861.256	3055
861.388	3146
861.521	3892
861.653	2982
861.786	2979
861.918	2979
862.05	3066
862.183	3089
862.315	3142
862.447	3195
862.58	3074
862.712	2944
862.844	2880
862.976	3024
863.108	3013
863.24	3412
863.372	2883
863.504	2960
863.636	2963
863.768	2982
863.9	2986
864.032	2895
864.164	2952
864.296	3005
864.428	3104
864.559	3066
864.691	3077
864.823	3036
864.954	3055
865.086	3020
865.217	3001
865.349	2952
865.48	2975
865.612	3009
865.743	3157
865.875	2998
866.006	2880
866.137	2990
866.269	2937
866.4	2929
866.531	2948
866.662	2929
866.793	2880
866.924	2883
867.055	2967
867.186	2899
867.317	2899
867.448	2842
867.579	2853
867.71	2857
867.841	2807
867.972	2883
868.103	2891
868.233	2880
868.364	2891
868.495	2861
868.625	3032
868.756	3169
868.886	2952
869.017	2998
869.147	3150
869.278	3135
869.408	3028
869.539	2986
869.669	3077
869.799	3009
869.929	3157
870.06	3112
870.19	3287
870.32	3268
870.45	3294
870.58	3359
870.71	3469
870.84	3431
870.97	3291
871.1	3237
871.23	3477
871.36	3473
871.489	3382
871.619	3382
871.749	3386
871.879	3397
872.008	3443
872.138	3317
872.267	3287
872.397	3165
872.526	3077
872.656	2986
872.785	3100
872.915	3203
873.044	3294
873.173	3237
873.303	3241
873.432	3214
873.561	3207
873.69	3165
873.819	3165
873.948	3207
874.077	3116
874.206	3051
874.335	3097
874.464	3203
874.593	3348
874.722	3226
874.851	3393
874.979	3359
875.108	3332
875.237	3222
875.365	3157
875.494	3131
875.623	3245
875.751	3062
875.88	3097
876.008	3203
876.136	3233
876.265	3332
876.393	3500
876.521	3424
876.65	3397
876.778	3336
876.906	3214
877.034	3230
877.162	3214
877.29	3180
877.418	3245
877.546	3283
877.674	3233
877.802	3226
877.93	3207
878.058	3135
878.185	3127
878.313	3173
878.441	3230
878.568	3020
878.696	3154
878.824	3245
878.951	3306
879.079	3473
879.206	3618
879.333	3412
879.461	3367
879.588	3332
879.715	3492
879.842	3599
879.97	3367
880.097	3173
880.224	3085
880.351	3192
880.478	3233
880.605	3199
880.732	3176
880.859	3485
880.986	3298
881.112	3287
881.239	3169
881.366	3104
881.493	3097
881.619	3032
881.746	3089
881.872	3116
881.999	3127
882.125	3112
882.252	3241
882.378	3272
882.505	3393
882.631	3306
882.757	3146
882.883	3214
883.01	3233
883.136	3127
883.262	3085
883.388	3131
883.514	3325
883.64	3344
883.766	3294
883.892	3203
884.018	3211
884.143	3409
884.269	3538
884.395	3207
884.52	3207
884.646	3142
884.772	3100
884.897	3104
885.023	3192
885.148	3313
885.274	3412
885.399	3363
885.524	3275
885.65	3237
885.775	3351
885.9	3268
886.025	3416
886.15	3367
886.275	3275
886.4	3214
886.525	3298
886.65	3279
886.775	3264
886.9	3507
887.025	3629
887.149	3393
887.274	3241
887.399	3165
887.523	3211
887.648	3199
887.773	3192
887.897	3340
888.021	3397
888.146	3306
888.27	3416
888.395	3538
888.519	3473
888.643	3431
888.767	3439
888.891	3272
889.015	3249
889.139	3291
889.263	3222
889.387	3374
889.511	3462
889.635	3466
889.759	3275
889.883	3298
890.006	3397
890.13	3492
890.254	3260
890.377	3287
890.501	3169
890.624	3188
890.748	3325
890.871	3188
890.995	3081
891.118	3077
891.241	3195
891.364	3184
891.488	3291
891.611	3165
891.734	3226
891.857	3291
891.98	3237
892.103	3268
892.226	3283
892.349	3214
892.471	3119
892.594	3245
892.717	3268
892.839	3218
892.962	3272
893.085	3317
893.207	3272
893.33	3150
893.452	3192
893.575	3386
893.697	3195
893.819	3473
893.941	3488
894.064	3424
894.186	3256
894.308	3241
894.43	3454
894.552	3504
894.674	3458
894.796	3260
894.918	3245
895.04	3283
895.161	3447
895.283	3389
895.405	3291
895.526	3378
895.648	3443
895.769	3393
895.891	3386
896.012	3462
896.134	3439
896.255	3389
896.376	3382
896.498	3370
896.619	3443
896.74	3351
896.861	3374
896.982	3682
897.103	3846
897.224	3587
897.345	3492
897.466	3409
897.587	3526
897.708	3614
897.828	3561
897.949	3435
898.07	3359
898.19	3439
898.311	3629
898.431	3439
898.552	3496
898.672	3568
898.792	3622
898.913	3545
899.033	3393
899.153	3306
899.273	3207
899.393	3294
899.513	3317
899.633	3351
899.753	3332
899.873	3249
899.993	3355
900.113	3302
900.232	3363
900.352	3329
900.472	3279
900.591	3138
900.711	3272
900.83	3268
900.95	3473
901.069	3500
901.189	3332
901.308	3199
901.427	3138
901.546	3176
901.665	3302
901.784	3348
901.904	3169
902.023	3112
902.141	2994
902.26	2986
902.379	3131
902.498	3085
902.617	3051
902.735	3192
902.854	3237
902.973	3199
903.091	3093
903.21	3077
903.328	3138
903.446	3100
903.565	3100
903.683	3203
903.801	3097
903.919	3226
904.038	3313
904.156	3123
904.274	3275
904.392	3275
904.51	3275
904.627	3325
904.745	3431
904.863	3519
904.981	3230
905.098	3142
905.216	3226
905.334	3283
905.451	3321
905.569	3275
905.686	3412
905.803	3424
905.921	3313
906.038	3382
906.155	3374
906.272	3275
906.389	3329
906.506	3237
906.623	3249
906.74	3233
906.857	3176
906.974	3256
907.091	3439
907.208	3580
907.324	3473
907.441	3367
907.557	3226
907.674	3192
907.79	3180
907.907	3283
908.023	3382
908.139	3359
908.256	3310
908.372	3355
908.488	3344
908.604	3237
908.72	3226
908.836	3321
908.952	3306
909.068	3359
909.184	3450
909.3	3389
909.415	3504
909.531	3477
909.647	3264
909.762	3359
909.878	3245
909.993	3397
910.108	3344
910.224	3367
910.339	3412
910.454	3332
910.57	3287
910.685	3214
910.8	3572
910.915	3526
911.03	3443
911.145	3260
911.259	3256
911.374	3325
911.489	3230
911.604	3192
911.718	3142
911.833	3176
911.947	3024
912.062	2967
912.176	3146
912.291	3192
912.405	3176
912.519	3439
912.633	3450
912.748	3332
912.862	3294
912.976	3180
913.09	3062
913.204	3169
913.318	3199
913.431	3363
913.545	3329
913.659	3405
913.772	3344
913.886	3237
914	3195
914.113	3359
914.226	3458
914.34	3378
914.453	3211
914.566	3393
914.68	3283
914.793	3298
914.906	3123
915.019	3108
915.132	3097
915.245	3207
915.358	3188
915.47	3195
915.583	3230
915.696	3294
915.809	3389
915.921	3458
916.034	3253
916.146	3249
916.259	3180
916.371	3401
916.483	3393
916.595	3294
916.708	3298
916.82	3291
916.932	3340
917.044	3344
917.156	3313
917.268	3226
917.38	3306
917.491	3302
917.603	3359
917.715	3485
917.826	3500
917.938	3393
918.049	3256
918.161	3454
918.272	3530
918.384	3542
918.495	3439
918.606	3340
918.717	3283
918.828	3367
918.939	3420
919.05	3317
919.161	3359
919.272	3195
919.383	3279
919.494	3504
919.604	3690
919.715	3473
919.826	3447
919.936	3500
920.047	3595
920.157	3519
920.267	3755
920.378	3633
920.488	3561
920.598	3774
920.708	3922
920.818	3804
920.928	3819
921.038	4040
921.148	3968
921.258	3698
921.368	3603
921.477	3549
921.587	3515
921.697	3412
921.806	3652
921.916	3511
922.025	3325
922.134	3363
922.244	3283
922.353	3431
922.462	3256
922.571	3184
922.68	3127
922.789	3070
922.898	3176
923.007	3093
923.116	3203
923.224	3218
923.333	3142
923.442	3081
923.55	3085
923.659	3104
923.767	3154
923.876	3119
923.984	3237
924.092	3100
924.201	3214
924.309	3218
924.417	3237
924.525	3203
924.633	3207
924.741	4010
924.849	3055
924.956	3279
925.064	3108
925.172	3051
925.279	3062
925.387	3184
925.494	3176
925.602	3359
925.709	3336
925.816	3173
925.924	3321
926.031	3370
926.138	3355
926.245	3367
926.352	3256
926.459	3393
926.566	3462
926.673	3340
926.779	3249
926.886	3253
926.993	3157
927.099	3127
927.206	3104
927.312	3093
927.419	3218
927.525	3199
927.631	3279
927.737	3150
927.843	3127
927.95	3017
928.056	3142
928.162	3157
928.267	3241
928.373	3827
928.479	3386
928.585	3036
928.69	3207
928.796	3256
928.901	3146
929.007	3036
929.112	3230
929.218	3161
929.323	3150
929.428	3142
929.533	3294
929.638	3154
929.743	3154
929.848	3253
929.953	3188
930.058	3150
930.163	3005
930.267	3024
930.372	3203
930.477	3036
930.581	3336
930.685	3180
930.79	3020
930.894	3142
930.998	3100
931.103	3272
931.207	2982
931.311	2956
931.415	2902
931.519	2754
931.623	2815
