Data from test_V78500241_1396.txt Node
Date: Fri Mar 25 16:24:52 CST 2022
User: usil
Spectrometer: V785-0024
Trigger mode: 0
Integration Time (sec): 4.000000E-1
Scans to average: 1
Nonlinearity correction enabled: false
Boxcar width: 0
Storing dark spectrum: false
XAxis mode: Wavelengths
Number of Pixels in Spectrum: 1024
>>>>>Begin Spectral Data<<<<<
801.071	2906
801.214	2967
801.356	2899
801.499	2880
801.641	2914
801.783	2918
801.926	3032
802.068	2990
802.211	3020
802.353	3055
802.496	2956
802.638	3024
802.78	3062
802.923	3062
803.065	3009
803.208	2933
803.35	2891
803.492	2922
803.635	2922
803.777	2746
803.919	2845
804.061	3192
804.204	2971
804.346	2929
804.488	2876
804.63	3001
804.773	2864
804.915	2895
805.057	3062
805.199	2956
805.341	2956
805.483	3062
805.626	2986
805.768	2956
805.91	3089
806.052	3085
806.194	3024
806.336	3237
806.478	3055
806.62	2922
806.762	3013
806.904	3055
807.046	3195
807.188	2963
807.33	2895
807.472	2994
807.614	2910
807.756	3013
807.898	2963
808.04	2883
808.182	2952
808.324	2982
808.465	2868
808.607	2883
808.749	2804
808.891	2876
809.033	2979
809.174	2937
809.316	2899
809.458	2883
809.6	2750
809.741	2785
809.883	2785
810.025	2853
810.166	2826
810.308	2823
810.45	2845
810.591	2758
810.733	2777
810.875	2861
811.016	2815
811.158	2743
811.299	2800
811.441	2925
811.582	2895
811.724	2804
811.865	2842
812.007	2933
812.148	2880
812.29	2823
812.431	2864
812.573	2925
812.714	2956
812.855	3013
812.997	3062
813.138	3112
813.279	2994
813.421	2986
813.562	2922
813.703	2861
813.845	2906
813.986	2773
814.127	2686
814.268	2785
814.41	2830
814.551	2792
814.692	2880
814.833	2823
814.974	2868
815.115	2914
815.256	2800
815.397	2807
815.539	2861
815.68	2773
815.821	2800
815.962	2925
816.103	2914
816.244	2853
816.385	2887
816.526	2952
816.666	2883
816.807	2758
816.948	2876
817.089	2902
817.23	2830
817.371	2750
817.512	2788
817.653	2796
817.793	2826
817.934	2883
818.075	2922
818.216	2994
818.356	3036
818.497	2842
818.638	2788
818.778	2830
818.919	2781
819.06	2727
819.2	2838
819.341	2792
819.481	2807
819.622	2914
819.762	3116
819.903	3043
820.043	2944
820.184	2899
820.324	2891
820.465	3024
820.605	3024
820.746	3013
820.886	2902
821.026	3100
821.167	3176
821.307	3218
821.447	3294
821.588	3256
821.728	3211
821.868	3203
822.008	3066
822.149	3203
822.289	3264
822.429	3112
822.569	3135
822.709	3233
822.849	3074
822.99	3074
823.13	3165
823.27	3226
823.41	3123
823.55	3161
823.69	3211
823.83	3214
823.97	3116
824.11	3017
824.25	3013
824.389	3093
824.529	3146
824.669	3074
824.809	3165
824.949	3294
825.089	3260
825.228	3188
825.368	3013
825.508	3055
825.648	2982
825.787	3043
825.927	3036
826.067	2982
826.206	3009
826.346	3100
826.485	3135
826.625	3176
826.765	3310
826.904	3233
827.044	3024
827.183	2967
827.323	2902
827.462	3001
827.601	2902
827.741	2956
827.88	2960
828.02	2872
828.159	3009
828.298	3108
828.437	3176
828.577	3066
828.716	3256
828.855	3127
828.994	2937
829.134	2902
829.273	2948
829.412	2937
829.551	2895
829.69	2914
829.829	3074
829.968	3169
830.107	3074
830.246	3020
830.385	2899
830.524	2925
830.663	2899
830.802	2781
830.941	2720
831.08	2682
831.219	2792
831.357	2785
831.496	3009
831.635	2743
831.774	2708
831.913	2667
832.051	2571
832.19	2606
832.329	2731
832.467	2575
832.606	2530
832.744	2629
832.883	2617
833.022	2632
833.16	2663
833.299	2708
833.437	2693
833.576	2743
833.714	2762
833.852	2746
833.991	2800
834.129	2902
834.267	2899
834.406	2804
834.544	2937
834.682	2895
834.821	2876
834.959	3100
835.097	2925
835.235	3146
835.373	2986
835.511	3036
835.65	2982
835.788	3009
835.926	2838
836.064	2815
836.202	2857
836.34	3142
836.478	3195
836.615	3116
836.753	3146
836.891	3203
837.029	3184
837.167	3157
837.305	3097
837.443	3085
837.58	2998
837.718	3150
837.856	3100
837.993	3051
838.131	3157
838.269	3127
838.406	3097
838.544	3150
838.681	2952
838.819	2956
838.956	2861
839.094	2872
839.231	2941
839.369	3055
839.506	3378
839.643	3249
839.781	3039
839.918	2963
840.055	3070
840.193	3119
840.33	3085
840.467	3100
840.604	3192
840.742	3416
840.879	3085
841.016	3112
841.153	3123
841.29	3363
841.427	3336
841.564	3317
841.701	3340
841.838	3233
841.975	3214
842.112	3230
842.249	3093
842.385	3062
842.522	3245
842.659	3100
842.796	3081
842.933	3123
843.069	3100
843.206	3085
843.343	3222
843.479	3116
843.616	3173
843.752	2918
843.889	2906
844.025	3154
844.162	2883
844.298	3108
844.435	2963
844.571	2971
844.708	3104
844.844	3211
844.98	3241
845.117	3222
845.253	3077
845.389	3028
845.525	3097
845.661	3131
845.798	3077
845.934	3131
846.07	3077
846.206	3298
846.342	3317
846.478	3256
846.614	3104
846.75	3062
846.886	3047
847.022	3260
847.158	3157
847.294	3260
847.429	3279
847.565	3211
847.701	3519
847.837	3085
847.972	3024
848.108	3184
848.244	3169
848.379	3001
848.515	2956
848.65	2967
848.786	3001
848.921	3062
849.057	3161
849.192	3180
849.328	3085
849.463	3089
849.598	3108
849.734	3036
849.869	2986
850.004	2937
850.14	3013
850.275	2914
850.41	2872
850.545	2880
850.68	2982
850.815	2963
850.95	2975
851.085	3233
851.22	3127
851.355	3051
851.49	3036
851.625	3032
851.76	3070
851.895	2956
852.03	2910
852.165	3047
852.299	3154
852.434	3184
852.569	3169
852.703	3218
852.838	3260
852.973	3355
853.107	3367
853.242	3173
853.376	3138
853.511	3009
853.645	3066
853.78	3264
853.914	3150
854.048	3100
854.183	3108
854.317	3154
854.451	3283
854.585	3154
854.72	3138
854.854	3230
854.988	3077
855.122	3097
855.256	2990
855.39	3176
855.524	3272
855.658	3237
855.792	3188
855.926	3272
856.06	3249
856.194	3313
856.327	3184
856.461	3097
856.595	3116
856.729	3119
856.862	3203
856.996	3222
857.13	3230
857.263	3245
857.397	3275
857.53	3123
857.664	3214
857.797	3283
857.931	3260
858.064	3184
858.197	3233
858.331	3157
858.464	3100
858.597	3039
858.731	3165
858.864	3157
858.997	3093
859.13	3184
859.263	3169
859.396	3214
859.529	3089
859.662	3108
859.795	3074
859.928	3119
860.061	3275
860.194	3294
860.327	3154
860.46	3100
860.592	3237
860.725	3268
860.858	3249
860.99	3127
861.123	3070
861.256	3104
861.388	3146
861.521	3888
861.653	3055
861.786	2998
861.918	3013
862.05	3055
862.183	3135
862.315	3157
862.447	3218
862.58	3127
862.712	2963
862.844	2910
862.976	3036
863.108	3013
863.24	3332
863.372	2887
863.504	3024
863.636	3005
863.768	3058
863.9	2998
864.032	2975
864.164	2960
864.296	3028
864.428	3123
864.559	3154
864.691	3100
864.823	3097
864.954	3043
865.086	3062
865.217	3020
865.349	3017
865.48	3009
865.612	3066
865.743	3146
865.875	2994
866.006	2975
866.137	2979
866.269	2975
866.4	2960
866.531	2941
866.662	2960
866.793	2922
866.924	2922
867.055	2990
867.186	2944
867.317	2899
867.448	2845
867.579	2861
867.71	2853
867.841	2815
867.972	2967
868.103	2937
868.233	2925
868.364	2864
868.495	2887
868.625	3097
868.756	3199
868.886	3013
869.017	3009
869.147	3203
869.278	3173
869.408	3070
869.539	3039
869.669	3089
869.799	3036
869.929	3138
870.06	3123
870.19	3340
870.32	3317
870.45	3272
870.58	3367
870.71	3443
870.84	3454
870.97	3302
871.1	3241
871.23	3507
871.36	3492
871.489	3359
871.619	3401
871.749	3401
871.879	3458
872.008	3485
872.138	3397
872.267	3287
872.397	3173
872.526	3157
872.656	3024
872.785	3116
872.915	3272
873.044	3306
873.173	3245
873.303	3233
873.432	3283
873.561	3226
873.69	3169
873.819	3169
873.948	3203
874.077	3131
874.206	3074
874.335	3127
874.464	3241
874.593	3389
874.722	3264
874.851	3428
874.979	3344
875.108	3310
875.237	3233
875.365	3199
875.494	3230
875.623	3291
875.751	3116
875.88	3138
876.008	3207
876.136	3222
876.265	3401
876.393	3511
876.521	3443
876.65	3409
876.778	3348
876.906	3268
877.034	3203
877.162	3260
877.29	3195
877.418	3275
877.546	3249
877.674	3275
877.802	3253
877.93	3237
878.058	3161
878.185	3081
878.313	3188
878.441	3226
878.568	3055
878.696	3188
878.824	3268
878.951	3317
879.079	3450
879.206	3595
879.333	3401
879.461	3306
879.588	3370
879.715	3488
879.842	3622
879.97	3370
880.097	3199
880.224	3188
880.351	3222
880.478	3207
880.605	3157
880.732	3188
880.859	3488
880.986	3317
881.112	3332
881.239	3199
881.366	3131
881.493	3051
881.619	3039
881.746	3097
881.872	3104
881.999	3100
882.125	3150
882.252	3272
882.378	3302
882.505	3424
882.631	3291
882.757	3165
882.883	3260
883.01	3218
883.136	3165
883.262	3062
883.388	3058
883.514	3351
883.64	3355
883.766	3329
883.892	3214
884.018	3256
884.143	3439
884.269	3534
884.395	3188
884.52	3173
884.646	3176
884.772	3127
884.897	3104
885.023	3211
885.148	3386
885.274	3447
885.399	3393
885.524	3302
885.65	3287
885.775	3336
885.9	3302
886.025	3428
886.15	3363
886.275	3294
886.4	3233
886.525	3313
886.65	3192
886.775	3294
886.9	3549
887.025	3614
887.149	3374
887.274	3241
887.399	3245
887.523	3207
887.648	3218
887.773	3249
887.897	3355
888.021	3409
888.146	3283
888.27	3454
888.395	3545
888.519	3450
888.643	3443
888.767	3431
888.891	3344
889.015	3253
889.139	3291
889.263	3256
889.387	3454
889.511	3511
889.635	3485
889.759	3275
889.883	3275
890.006	3374
890.13	3473
890.254	3287
890.377	3325
890.501	3184
890.624	3203
890.748	3313
890.871	3195
890.995	3169
891.118	3077
891.241	3195
891.364	3211
891.488	3325
891.611	3173
891.734	3173
891.857	3279
891.98	3222
892.103	3321
892.226	3264
892.349	3230
892.471	3127
892.594	3237
892.717	3321
892.839	3298
892.962	3321
893.085	3359
893.207	3325
893.33	3146
893.452	3192
893.575	3393
893.697	3287
893.819	3488
893.941	3526
894.064	3473
894.186	3272
894.308	3241
894.43	3382
894.552	3542
894.674	3500
894.796	3279
894.918	3310
895.04	3264
895.161	3454
895.283	3351
895.405	3306
895.526	3397
895.648	3424
895.769	3424
895.891	3469
896.012	3481
896.134	3481
896.255	3393
896.376	3401
896.498	3355
896.619	3428
896.74	3348
896.861	3420
896.982	3679
897.103	3816
897.224	3606
897.345	3530
897.466	3447
897.587	3496
897.708	3625
897.828	3507
897.949	3401
898.07	3367
898.19	3389
898.311	3606
898.431	3454
898.552	3511
898.672	3641
898.792	3629
898.913	3507
899.033	3416
899.153	3287
899.273	3218
899.393	3279
899.513	3279
899.633	3317
899.753	3355
899.873	3321
899.993	3382
900.113	3332
900.232	3359
900.352	3321
900.472	3313
900.591	3176
900.711	3287
900.83	3260
900.95	3378
901.069	3504
901.189	3355
901.308	3192
901.427	3123
901.546	3188
901.665	3287
901.784	3321
901.904	3214
902.023	3154
902.141	2994
902.26	3020
902.379	3138
902.498	3097
902.617	3024
902.735	3184
902.854	3241
902.973	3222
903.091	3043
903.21	3039
903.328	3138
903.446	3108
903.565	3089
903.683	3226
903.801	3150
903.919	3260
904.038	3279
904.156	3157
904.274	3298
904.392	3226
904.51	3321
904.627	3321
904.745	3443
904.863	3458
904.981	3264
905.098	3150
905.216	3192
905.334	3332
905.451	3321
905.569	3306
905.686	3435
905.803	3458
905.921	3272
906.038	3428
906.155	3382
906.272	3245
906.389	3313
906.506	3241
906.623	3287
906.74	3302
906.857	3203
906.974	3253
907.091	3458
907.208	3591
907.324	3439
907.441	3378
907.557	3241
907.674	3226
907.79	3237
907.907	3275
908.023	3389
908.139	3393
908.256	3317
908.372	3374
908.488	3363
908.604	3298
908.72	3264
908.836	3302
908.952	3348
909.068	3355
909.184	3458
909.3	3386
909.415	3511
909.531	3473
909.647	3268
909.762	3321
909.878	3249
909.993	3359
910.108	3321
910.224	3363
910.339	3397
910.454	3344
910.57	3321
910.685	3249
910.8	3580
910.915	3515
911.03	3412
911.145	3294
911.259	3272
911.374	3279
911.489	3237
911.604	3199
911.718	3104
911.833	3154
911.947	3001
912.062	2979
912.176	3146
912.291	3203
912.405	3188
912.519	3458
912.633	3481
912.748	3363
912.862	3264
912.976	3169
913.09	3058
913.204	3138
913.318	3230
913.431	3363
913.545	3367
913.659	3420
913.772	3378
913.886	3218
914	3253
914.113	3367
914.226	3428
914.34	3386
914.453	3192
914.566	3405
914.68	3272
914.793	3306
914.906	3112
915.019	3074
915.132	3058
915.245	3169
915.358	3222
915.47	3241
915.583	3275
915.696	3302
915.809	3409
915.921	3435
916.034	3287
916.146	3283
916.259	3241
916.371	3359
916.483	3409
916.595	3302
916.708	3344
916.82	3348
916.932	3321
917.044	3355
917.156	3344
917.268	3230
917.38	3275
917.491	3298
917.603	3367
917.715	3447
917.826	3447
917.938	3416
918.049	3275
918.161	3409
918.272	3549
918.384	3591
918.495	3504
918.606	3321
918.717	3283
918.828	3351
918.939	3412
919.05	3291
919.161	3405
919.272	3180
919.383	3291
919.494	3496
919.604	3694
919.715	3477
919.826	3351
919.936	3450
920.047	3549
920.157	3507
920.267	3747
920.378	3580
920.488	3538
920.598	3812
920.708	3953
920.818	3865
920.928	3793
921.038	4021
921.148	3987
921.258	3690
921.368	3614
921.477	3587
921.587	3549
921.697	3439
921.806	3618
921.916	3519
922.025	3351
922.134	3348
922.244	3321
922.353	3485
922.462	3268
922.571	3226
922.68	3119
922.789	3058
922.898	3123
923.007	3077
923.116	3230
923.224	3180
923.333	3108
923.442	3123
923.55	3112
923.659	3161
923.767	3192
923.876	3127
923.984	3245
924.092	3123
924.201	3207
924.309	3253
924.417	3268
924.525	3173
924.633	3287
924.741	4040
924.849	3028
924.956	3272
925.064	3081
925.172	3058
925.279	3093
925.387	3211
925.494	3203
925.602	3329
925.709	3332
925.816	3173
925.924	3294
926.031	3382
926.138	3332
926.245	3386
926.352	3283
926.459	3439
926.566	3473
926.673	3310
926.779	3275
926.886	3233
926.993	3169
927.099	3116
927.206	3119
927.312	3100
927.419	3241
927.525	3192
927.631	3260
927.737	3131
927.843	3123
927.95	3009
928.056	3104
928.162	3214
928.267	3241
928.373	3835
928.479	3275
928.585	3066
928.69	3226
928.796	3264
928.901	3169
929.007	3036
929.112	3211
929.218	3169
929.323	3138
929.428	3176
929.533	3283
929.638	3108
929.743	3150
929.848	3249
929.953	3241
930.058	3154
930.163	3001
930.267	3070
930.372	3211
930.477	3055
930.581	3310
930.685	3131
930.79	3028
930.894	3131
930.998	3093
931.103	3306
931.207	2960
931.311	2933
931.415	2941
931.519	2769
931.623	2796
