Data from test_V78500241_1783.txt Node
Date: Fri Mar 25 16:27:33 CST 2022
User: usil
Spectrometer: V785-0024
Trigger mode: 0
Integration Time (sec): 4.000000E-1
Scans to average: 1
Nonlinearity correction enabled: false
Boxcar width: 0
Storing dark spectrum: false
XAxis mode: Wavelengths
Number of Pixels in Spectrum: 1024
>>>>>Begin Spectral Data<<<<<
801.071	2910
801.214	2994
801.356	2880
801.499	2918
801.641	2941
801.783	2944
801.926	3074
802.068	3039
802.211	3001
802.353	3051
802.496	2967
802.638	3036
802.78	3074
802.923	3070
803.065	3028
803.208	2925
803.35	2948
803.492	2937
803.635	2922
803.777	2796
803.919	2857
804.061	3192
804.204	2994
804.346	2899
804.488	2823
804.63	3009
804.773	2880
804.915	2906
805.057	3081
805.199	2948
805.341	2975
805.483	3039
805.626	3043
805.768	2971
805.91	3119
806.052	3116
806.194	3097
806.336	3245
806.478	3032
806.62	2960
806.762	2998
806.904	3024
807.046	3142
807.188	2998
807.33	2925
807.472	2994
807.614	2933
807.756	3020
807.898	2933
808.04	2960
808.182	2998
808.324	2971
808.465	2906
808.607	2864
808.749	2788
808.891	2826
809.033	2967
809.174	2960
809.316	2876
809.458	2910
809.6	2819
809.741	2788
809.883	2750
810.025	2864
810.166	2861
810.308	2823
810.45	2868
810.591	2800
810.733	2754
810.875	2826
811.016	2807
811.158	2777
811.299	2815
811.441	2941
811.582	2902
811.724	2834
811.865	2834
812.007	2910
812.148	2887
812.29	2857
812.431	2922
812.573	2895
812.714	2998
812.855	3055
812.997	3020
813.138	3184
813.279	3017
813.421	2982
813.562	2975
813.703	2883
813.845	2887
813.986	2746
814.127	2724
814.268	2811
814.41	2838
814.551	2811
814.692	2868
814.833	2826
814.974	2887
815.115	2967
815.256	2838
815.397	2815
815.539	2861
815.68	2792
815.821	2811
815.962	2948
816.103	2918
816.244	2914
816.385	2883
816.526	2960
816.666	2880
816.807	2739
816.948	2887
817.089	2944
817.23	2876
817.371	2769
817.512	2804
817.653	2777
817.793	2800
817.934	2845
818.075	2960
818.216	2952
818.356	3013
818.497	2891
818.638	2804
818.778	2819
818.919	2773
819.06	2693
819.2	2857
819.341	2826
819.481	2830
819.622	2956
819.762	3093
819.903	3043
820.043	2902
820.184	2910
820.324	2914
820.465	3043
820.605	3058
820.746	3032
820.886	2925
821.026	3123
821.167	3199
821.307	3291
821.447	3283
821.588	3256
821.728	3241
821.868	3211
822.008	3093
822.149	3237
822.289	3272
822.429	3089
822.569	3112
822.709	3218
822.849	3066
822.99	3108
823.13	3188
823.27	3256
823.41	3154
823.55	3214
823.69	3222
823.83	3230
823.97	3154
824.11	3070
824.25	3032
824.389	3116
824.529	3176
824.669	3127
824.809	3230
824.949	3291
825.089	3230
825.228	3192
825.368	3039
825.508	3017
825.648	3009
825.787	3081
825.927	3100
826.067	3036
826.206	3005
826.346	3093
826.485	3116
826.625	3131
826.765	3325
826.904	3275
827.044	3039
827.183	2982
827.323	2876
827.462	3017
827.601	2963
827.741	2956
827.88	3013
828.02	2929
828.159	2994
828.298	3085
828.437	3161
828.577	3047
828.716	3291
828.855	3127
828.994	2937
829.134	2941
829.273	2933
829.412	2902
829.551	2941
829.69	2910
829.829	3009
829.968	3154
830.107	3066
830.246	3066
830.385	2979
830.524	2891
830.663	2868
830.802	2792
830.941	2701
831.08	2701
831.219	2769
831.357	2800
831.496	2975
831.635	2746
831.774	2682
831.913	2705
832.051	2564
832.19	2629
832.329	2701
832.467	2571
832.606	2537
832.744	2632
832.883	2613
833.022	2629
833.16	2655
833.299	2697
833.437	2720
833.576	2762
833.714	2735
833.852	2785
833.991	2750
834.129	2857
834.267	2876
834.406	2823
834.544	2918
834.682	2895
834.821	2914
834.959	3119
835.097	2941
835.235	3074
835.373	3051
835.511	3051
835.65	2986
835.788	3001
835.926	2811
836.064	2880
836.202	2876
836.34	3104
836.478	3180
836.615	3081
836.753	3184
836.891	3256
837.029	3188
837.167	3142
837.305	3100
837.443	3077
837.58	2979
837.718	3161
837.856	3123
837.993	3047
838.131	3127
838.269	3142
838.406	3142
838.544	3146
838.681	2990
838.819	2929
838.956	2823
839.094	2868
839.231	2937
839.369	3074
839.506	3386
839.643	3249
839.781	3097
839.918	2986
840.055	3070
840.193	3081
840.33	3104
840.467	3123
840.604	3180
840.742	3431
840.879	3093
841.016	3104
841.153	3173
841.29	3378
841.427	3283
841.564	3268
841.701	3332
841.838	3233
841.975	3218
842.112	3245
842.249	3127
842.385	3070
842.522	3287
842.659	3138
842.796	3108
842.933	3123
843.069	3093
843.206	3028
843.343	3169
843.479	3131
843.616	3195
843.752	2906
843.889	2902
844.025	3108
844.162	2872
844.298	3070
844.435	2971
844.571	2922
844.708	3108
844.844	3173
844.98	3233
845.117	3230
845.253	3081
845.389	3062
845.525	3135
845.661	3116
845.798	3032
845.934	3119
846.07	3043
846.206	3245
846.342	3348
846.478	3199
846.614	3119
846.75	3081
846.886	3043
847.022	3294
847.158	3135
847.294	3233
847.429	3291
847.565	3264
847.701	3538
847.837	3062
847.972	3036
848.108	3173
848.244	3176
848.379	2990
848.515	2986
848.65	3005
848.786	3005
848.921	3039
849.057	3135
849.192	3161
849.328	3123
849.463	3131
849.598	3097
849.734	3058
849.869	3001
850.004	2944
850.14	2975
850.275	2918
850.41	2838
850.545	2899
850.68	2937
850.815	3005
850.95	2990
851.085	3188
851.22	3100
851.355	3062
851.49	2982
851.625	3032
851.76	3055
851.895	2944
852.03	2933
852.165	3097
852.299	3108
852.434	3184
852.569	3154
852.703	3184
852.838	3279
852.973	3378
853.107	3370
853.242	3176
853.376	3116
853.511	3024
853.645	3077
853.78	3230
853.914	3116
854.048	3138
854.183	3108
854.317	3154
854.451	3325
854.585	3142
854.72	3062
854.854	3230
854.988	3077
855.122	3047
855.256	2986
855.39	3150
855.524	3233
855.658	3245
855.792	3165
855.926	3226
856.06	3237
856.194	3325
856.327	3188
856.461	3108
856.595	3097
856.729	3135
856.862	3218
856.996	3176
857.13	3230
857.263	3230
857.397	3272
857.53	3154
857.664	3226
857.797	3237
857.931	3230
858.064	3203
858.197	3245
858.331	3192
858.464	3100
858.597	3024
858.731	3154
858.864	3146
858.997	3119
859.13	3142
859.263	3157
859.396	3169
859.529	3100
859.662	3100
859.795	3070
859.928	3138
860.061	3291
860.194	3325
860.327	3131
860.46	3104
860.592	3279
860.725	3253
860.858	3256
860.99	3154
861.123	3108
861.256	3081
861.388	3119
861.521	3835
861.653	3020
861.786	2979
861.918	3043
862.05	3097
862.183	3085
862.315	3192
862.447	3230
862.58	3138
862.712	2975
862.844	2864
862.976	3032
863.108	3032
863.24	3367
863.372	2868
863.504	2948
863.636	2975
863.768	3032
863.9	3009
864.032	2944
864.164	2948
864.296	3077
864.428	3127
864.559	3142
864.691	3055
864.823	3085
864.954	3051
865.086	3062
865.217	3009
865.349	2948
865.48	3024
865.612	3032
865.743	3150
865.875	2994
866.006	2986
866.137	2986
866.269	2933
866.4	2956
866.531	2925
866.662	2918
866.793	2883
866.924	2914
867.055	3001
867.186	2941
867.317	2899
867.448	2864
867.579	2853
867.71	2895
867.841	2864
867.972	2929
868.103	2925
868.233	2914
868.364	2880
868.495	2925
868.625	3085
868.756	3184
868.886	2975
869.017	3013
869.147	3203
869.278	3180
869.408	3036
869.539	3058
869.669	3123
869.799	3032
869.929	3123
870.06	3116
870.19	3340
870.32	3310
870.45	3336
870.58	3359
870.71	3515
870.84	3420
870.97	3313
871.1	3233
871.23	3496
871.36	3447
871.489	3382
871.619	3401
871.749	3389
871.879	3424
872.008	3507
872.138	3386
872.267	3302
872.397	3161
872.526	3142
872.656	2986
872.785	3116
872.915	3302
873.044	3359
873.173	3203
873.303	3272
873.432	3272
873.561	3218
873.69	3161
873.819	3146
873.948	3184
874.077	3116
874.206	3036
874.335	3100
874.464	3214
874.593	3397
874.722	3329
874.851	3393
874.979	3393
875.108	3325
875.237	3237
875.365	3180
875.494	3188
875.623	3237
875.751	3085
875.88	3142
876.008	3218
876.136	3253
876.265	3359
876.393	3515
876.521	3409
876.65	3382
876.778	3336
876.906	3279
877.034	3207
877.162	3245
877.29	3184
877.418	3264
877.546	3226
877.674	3291
877.802	3272
877.93	3268
878.058	3199
878.185	3100
878.313	3230
878.441	3233
878.568	3104
878.696	3176
878.824	3264
878.951	3306
879.079	3450
879.206	3584
879.333	3450
879.461	3359
879.588	3378
879.715	3481
879.842	3614
879.97	3370
880.097	3157
880.224	3127
880.351	3199
880.478	3211
880.605	3214
880.732	3211
880.859	3553
880.986	3370
881.112	3321
881.239	3237
881.366	3138
881.493	3017
881.619	3043
881.746	3097
881.872	3138
881.999	3135
882.125	3127
882.252	3233
882.378	3275
882.505	3439
882.631	3294
882.757	3150
882.883	3218
883.01	3211
883.136	3157
883.262	3123
883.388	3112
883.514	3321
883.64	3393
883.766	3283
883.892	3222
884.018	3249
884.143	3450
884.269	3572
884.395	3237
884.52	3165
884.646	3211
884.772	3138
884.897	3108
885.023	3222
885.148	3329
885.274	3443
885.399	3420
885.524	3279
885.65	3313
885.775	3363
885.9	3313
886.025	3443
886.15	3367
886.275	3325
886.4	3260
886.525	3336
886.65	3279
886.775	3287
886.9	3507
887.025	3622
887.149	3454
887.274	3253
887.399	3192
887.523	3211
887.648	3218
887.773	3218
887.897	3386
888.021	3389
888.146	3306
888.27	3435
888.395	3519
888.519	3485
888.643	3439
888.767	3473
888.891	3313
889.015	3245
889.139	3313
889.263	3241
889.387	3431
889.511	3507
889.635	3435
889.759	3275
889.883	3306
890.006	3397
890.13	3454
890.254	3287
890.377	3367
890.501	3192
890.624	3154
890.748	3310
890.871	3173
890.995	3100
891.118	3055
891.241	3169
891.364	3237
891.488	3344
891.611	3214
891.734	3226
891.857	3313
891.98	3268
892.103	3344
892.226	3298
892.349	3218
892.471	3127
892.594	3241
892.717	3291
892.839	3310
892.962	3302
893.085	3348
893.207	3317
893.33	3154
893.452	3233
893.575	3367
893.697	3249
893.819	3466
893.941	3469
894.064	3469
894.186	3260
894.308	3294
894.43	3443
894.552	3595
894.674	3477
894.796	3256
894.918	3329
895.04	3283
895.161	3428
895.283	3435
895.405	3283
895.526	3382
895.648	3420
895.769	3378
895.891	3473
896.012	3473
896.134	3469
896.255	3466
896.376	3374
896.498	3382
896.619	3428
896.74	3374
896.861	3439
896.982	3679
897.103	3842
897.224	3633
897.345	3534
897.466	3428
897.587	3549
897.708	3568
897.828	3504
897.949	3439
898.07	3336
898.19	3435
898.311	3591
898.431	3439
898.552	3530
898.672	3587
898.792	3595
898.913	3530
899.033	3443
899.153	3291
899.273	3226
899.393	3291
899.513	3325
899.633	3306
899.753	3313
899.873	3363
899.993	3370
900.113	3348
900.232	3409
900.352	3367
900.472	3344
900.591	3230
900.711	3317
900.83	3253
900.95	3424
901.069	3519
901.189	3336
901.308	3176
901.427	3138
901.546	3214
901.665	3279
901.784	3325
901.904	3226
902.023	3142
902.141	3032
902.26	2948
902.379	3154
902.498	3104
902.617	3066
902.735	3199
902.854	3233
902.973	3180
903.091	3047
903.21	3062
903.328	3142
903.446	3150
903.565	3100
903.683	3211
903.801	3138
903.919	3268
904.038	3249
904.156	3165
904.274	3249
904.392	3279
904.51	3310
904.627	3317
904.745	3462
904.863	3511
904.981	3264
905.098	3180
905.216	3211
905.334	3313
905.451	3287
905.569	3294
905.686	3435
905.803	3447
905.921	3279
906.038	3443
906.155	3378
906.272	3272
906.389	3340
906.506	3241
906.623	3226
906.74	3260
906.857	3230
906.974	3230
907.091	3454
907.208	3568
907.324	3477
907.441	3370
907.557	3256
907.674	3226
907.79	3222
907.907	3287
908.023	3412
908.139	3378
908.256	3329
908.372	3355
908.488	3374
908.604	3279
908.72	3249
908.836	3317
908.952	3264
909.068	3310
909.184	3477
909.3	3409
909.415	3538
909.531	3485
909.647	3287
909.762	3279
909.878	3279
909.993	3378
910.108	3351
910.224	3370
910.339	3401
910.454	3351
910.57	3321
910.685	3237
910.8	3633
910.915	3572
911.03	3412
911.145	3287
911.259	3283
911.374	3302
911.489	3287
911.604	3222
911.718	3108
911.833	3146
911.947	3032
912.062	3001
912.176	3203
912.291	3184
912.405	3233
912.519	3412
912.633	3462
912.748	3340
912.862	3298
912.976	3180
913.09	3093
913.204	3119
913.318	3253
913.431	3378
913.545	3332
913.659	3424
913.772	3325
913.886	3207
914	3188
914.113	3386
914.226	3447
914.34	3351
914.453	3233
914.566	3416
914.68	3298
914.793	3291
914.906	3165
915.019	3097
915.132	3062
915.245	3188
915.358	3207
915.47	3222
915.583	3214
915.696	3287
915.809	3412
915.921	3439
916.034	3237
916.146	3245
916.259	3226
916.371	3321
916.483	3367
916.595	3268
916.708	3313
916.82	3355
916.932	3313
917.044	3340
917.156	3344
917.268	3241
917.38	3283
917.491	3313
917.603	3355
917.715	3477
917.826	3466
917.938	3416
918.049	3317
918.161	3443
918.272	3542
918.384	3599
918.495	3477
918.606	3351
918.717	3283
918.828	3409
918.939	3431
919.05	3287
919.161	3416
919.272	3176
919.383	3291
919.494	3496
919.604	3671
919.715	3458
919.826	3428
919.936	3488
920.047	3557
920.157	3553
920.267	3762
920.378	3599
920.488	3568
920.598	3770
920.708	3960
920.818	3816
920.928	3804
921.038	4006
921.148	3975
921.258	3728
921.368	3625
921.477	3584
921.587	3557
921.697	3466
921.806	3591
921.916	3515
922.025	3336
922.134	3355
922.244	3317
922.353	3458
922.462	3344
922.571	3195
922.68	3089
922.789	3093
922.898	3154
923.007	3070
923.116	3184
923.224	3222
923.333	3157
923.442	3119
923.55	3070
923.659	3150
923.767	3218
923.876	3127
923.984	3237
924.092	3097
924.201	3226
924.309	3214
924.417	3245
924.525	3207
924.633	3211
924.741	4036
924.849	3062
924.956	3272
925.064	3104
925.172	3055
925.279	3116
925.387	3173
925.494	3184
925.602	3329
925.709	3294
925.816	3184
925.924	3268
926.031	3386
926.138	3317
926.245	3325
926.352	3253
926.459	3409
926.566	3477
926.673	3317
926.779	3294
926.886	3268
926.993	3173
927.099	3131
927.206	3123
927.312	3066
927.419	3256
927.525	3272
927.631	3275
927.737	3180
927.843	3119
927.95	3043
928.056	3135
928.162	3165
928.267	3241
928.373	3842
928.479	3291
928.585	3074
928.69	3214
928.796	3264
928.901	3207
929.007	3032
929.112	3230
929.218	3211
929.323	3146
929.428	3123
929.533	3317
929.638	3157
929.743	3180
929.848	3268
929.953	3203
930.058	3161
930.163	3005
930.267	3074
930.372	3195
930.477	3005
930.581	3340
930.685	3142
930.79	3074
930.894	3097
930.998	3062
931.103	3283
931.207	2986
931.311	2941
931.415	2899
931.519	2762
931.623	2842
