Data from test_V78500241_1620.txt Node
Date: Fri Mar 25 16:26:25 CST 2022
User: usil
Spectrometer: V785-0024
Trigger mode: 0
Integration Time (sec): 4.000000E-1
Scans to average: 1
Nonlinearity correction enabled: false
Boxcar width: 0
Storing dark spectrum: false
XAxis mode: Wavelengths
Number of Pixels in Spectrum: 1024
>>>>>Begin Spectral Data<<<<<
801.071	2929
801.214	2952
801.356	2914
801.499	2891
801.641	2861
801.783	2937
801.926	3058
802.068	2975
802.211	3039
802.353	3032
802.496	2979
802.638	3005
802.78	3017
802.923	3116
803.065	3032
803.208	2906
803.35	2902
803.492	2937
803.635	2944
803.777	2762
803.919	2864
804.061	3214
804.204	2937
804.346	2891
804.488	2864
804.63	2998
804.773	2857
804.915	2910
805.057	3100
805.199	2922
805.341	2982
805.483	2990
805.626	2994
805.768	2975
805.91	3055
806.052	3131
806.194	3009
806.336	3272
806.478	3032
806.62	2922
806.762	2933
806.904	3055
807.046	3157
807.188	2986
807.33	2937
807.472	2998
807.614	2914
807.756	2971
807.898	2941
808.04	2906
808.182	2998
808.324	2960
808.465	2883
808.607	2880
808.749	2796
808.891	2834
809.033	2960
809.174	2998
809.316	2902
809.458	2910
809.6	2792
809.741	2762
809.883	2781
810.025	2861
810.166	2864
810.308	2838
810.45	2857
810.591	2769
810.733	2788
810.875	2838
811.016	2777
811.158	2739
811.299	2800
811.441	2895
811.582	2872
811.724	2804
811.865	2811
812.007	2895
812.148	2887
812.29	2823
812.431	2872
812.573	2937
812.714	2956
812.855	3051
812.997	3039
813.138	3089
813.279	2994
813.421	2944
813.562	2952
813.703	2864
813.845	2906
813.986	2746
814.127	2746
814.268	2788
814.41	2823
814.551	2815
814.692	2887
814.833	2788
814.974	2902
815.115	2941
815.256	2826
815.397	2807
815.539	2849
815.68	2758
815.821	2773
815.962	2948
816.103	2925
816.244	2876
816.385	2842
816.526	2941
816.666	2899
816.807	2743
816.948	2918
817.089	2910
817.23	2849
817.371	2788
817.512	2807
817.653	2815
817.793	2792
817.934	2842
818.075	2975
818.216	2994
818.356	3043
818.497	2880
818.638	2785
818.778	2845
818.919	2788
819.06	2754
819.2	2872
819.341	2811
819.481	2819
819.622	2941
819.762	3074
819.903	3081
820.043	2933
820.184	2895
820.324	2925
820.465	3028
820.605	3009
820.746	2990
820.886	2956
821.026	3161
821.167	3176
821.307	3310
821.447	3336
821.588	3275
821.728	3214
821.868	3230
822.008	3112
822.149	3195
822.289	3233
822.429	3100
822.569	3093
822.709	3192
822.849	3066
822.99	3089
823.13	3192
823.27	3218
823.41	3119
823.55	3176
823.69	3146
823.83	3253
823.97	3157
824.11	3066
824.25	3043
824.389	3093
824.529	3150
824.669	3119
824.809	3222
824.949	3310
825.089	3283
825.228	3211
825.368	3024
825.508	3001
825.648	3005
825.787	3058
825.927	3070
826.067	3005
826.206	3009
826.346	3123
826.485	3100
826.625	3146
826.765	3313
826.904	3218
827.044	3017
827.183	2982
827.323	2895
827.462	3070
827.601	2979
827.741	2956
827.88	2971
828.02	2891
828.159	3017
828.298	3077
828.437	3176
828.577	3100
828.716	3291
828.855	3112
828.994	2960
829.134	2929
829.273	2948
829.412	2914
829.551	2929
829.69	2918
829.829	3058
829.968	3154
830.107	3077
830.246	3085
830.385	2998
830.524	2891
830.663	2861
830.802	2735
830.941	2678
831.08	2667
831.219	2823
831.357	2785
831.496	2967
831.635	2746
831.774	2655
831.913	2678
832.051	2617
832.19	2613
832.329	2716
832.467	2587
832.606	2518
832.744	2613
832.883	2606
833.022	2617
833.16	2724
833.299	2727
833.437	2697
833.576	2766
833.714	2712
833.852	2762
833.991	2773
834.129	2838
834.267	2861
834.406	2834
834.544	2891
834.682	2883
834.821	2922
834.959	3081
835.097	2979
835.235	3081
835.373	3036
835.511	3066
835.65	2948
835.788	3013
835.926	2864
836.064	2826
836.202	2880
836.34	3150
836.478	3195
836.615	3093
836.753	3146
836.891	3214
837.029	3169
837.167	3150
837.305	3108
837.443	3074
837.58	2975
837.718	3199
837.856	3074
837.993	3062
838.131	3104
838.269	3188
838.406	3097
838.544	3157
838.681	3001
838.819	2960
838.956	2861
839.094	2849
839.231	2952
839.369	3074
839.506	3382
839.643	3275
839.781	3043
839.918	3017
840.055	3100
840.193	3043
840.33	3135
840.467	3116
840.604	3199
840.742	3389
840.879	3085
841.016	3039
841.153	3150
841.29	3370
841.427	3348
841.564	3310
841.701	3363
841.838	3272
841.975	3203
842.112	3260
842.249	3157
842.385	3070
842.522	3268
842.659	3150
842.796	3112
842.933	3093
843.069	3081
843.206	3058
843.343	3218
843.479	3123
843.616	3150
843.752	2952
843.889	2914
844.025	3119
844.162	2895
844.298	3142
844.435	2986
844.571	2929
844.708	3093
844.844	3237
844.98	3253
845.117	3256
845.253	3108
845.389	3036
845.525	3123
845.661	3116
845.798	3058
845.934	3146
846.07	3081
846.206	3268
846.342	3348
846.478	3287
846.614	3104
846.75	3119
846.886	3070
847.022	3306
847.158	3161
847.294	3249
847.429	3253
847.565	3272
847.701	3534
847.837	3077
847.972	3047
848.108	3131
848.244	3180
848.379	3043
848.515	2967
848.65	2918
848.786	2979
848.921	3009
849.057	3135
849.192	3173
849.328	3112
849.463	3135
849.598	3077
849.734	3085
849.869	2986
850.004	2933
850.14	3036
850.275	2941
850.41	2845
850.545	2910
850.68	2963
850.815	2963
850.95	2982
851.085	3214
851.22	3119
851.355	3051
851.49	3013
851.625	3017
851.76	3024
851.895	2948
852.03	2944
852.165	3055
852.299	3150
852.434	3192
852.569	3135
852.703	3211
852.838	3260
852.973	3367
853.107	3370
853.242	3146
853.376	3127
853.511	2998
853.645	3070
853.78	3260
853.914	3135
854.048	3135
854.183	3108
854.317	3150
854.451	3268
854.585	3146
854.72	3131
854.854	3192
854.988	3062
855.122	3081
855.256	2998
855.39	3131
855.524	3275
855.658	3226
855.792	3195
855.926	3207
856.06	3253
856.194	3291
856.327	3203
856.461	3119
856.595	3138
856.729	3097
856.862	3226
856.996	3169
857.13	3245
857.263	3245
857.397	3317
857.53	3169
857.664	3184
857.797	3249
857.931	3313
858.064	3173
858.197	3253
858.331	3157
858.464	3119
858.597	3020
858.731	3123
858.864	3184
858.997	3097
859.13	3180
859.263	3214
859.396	3226
859.529	3093
859.662	3108
859.795	3058
859.928	3199
860.061	3294
860.194	3287
860.327	3142
860.46	3142
860.592	3249
860.725	3325
860.858	3253
860.99	3127
861.123	3070
861.256	3032
861.388	3188
861.521	3865
861.653	3036
861.786	3001
861.918	3036
862.05	3062
862.183	3138
862.315	3154
862.447	3230
862.58	3116
862.712	2937
862.844	2872
862.976	3043
863.108	3043
863.24	3340
863.372	2910
863.504	3020
863.636	2986
863.768	3047
863.9	3005
864.032	2899
864.164	2952
864.296	3047
864.428	3112
864.559	3116
864.691	3051
864.823	3089
864.954	3070
865.086	3085
865.217	3009
865.349	2937
865.48	2986
865.612	3043
865.743	3135
865.875	3005
866.006	2986
866.137	2994
866.269	2967
866.4	3009
866.531	2929
866.662	2891
866.793	2883
866.924	2887
867.055	2952
867.186	2956
867.317	2929
867.448	2849
867.579	2872
867.71	2864
867.841	2857
867.972	2937
868.103	2906
868.233	2944
868.364	2883
868.495	2914
868.625	3055
868.756	3184
868.886	2994
869.017	3043
869.147	3188
869.278	3207
869.408	3081
869.539	3039
869.669	3104
869.799	3058
869.929	3157
870.06	3138
870.19	3355
870.32	3306
870.45	3302
870.58	3374
870.71	3435
870.84	3458
870.97	3306
871.1	3272
871.23	3443
871.36	3500
871.489	3389
871.619	3424
871.749	3439
871.879	3450
872.008	3523
872.138	3370
872.267	3317
872.397	3165
872.526	3108
872.656	3051
872.785	3104
872.915	3233
873.044	3336
873.173	3245
873.303	3222
873.432	3237
873.561	3268
873.69	3142
873.819	3169
873.948	3195
874.077	3097
874.206	3074
874.335	3116
874.464	3279
874.593	3359
874.722	3256
874.851	3401
874.979	3329
875.108	3313
875.237	3199
875.365	3165
875.494	3226
875.623	3256
875.751	3108
875.88	3104
876.008	3245
876.136	3192
876.265	3355
876.393	3542
876.521	3397
876.65	3401
876.778	3332
876.906	3245
877.034	3218
877.162	3256
877.29	3237
877.418	3241
877.546	3233
877.674	3222
877.802	3260
877.93	3211
878.058	3146
878.185	3150
878.313	3237
878.441	3245
878.568	3093
878.696	3146
878.824	3275
878.951	3336
879.079	3473
879.206	3625
879.333	3462
879.461	3344
879.588	3313
879.715	3507
879.842	3625
879.97	3409
880.097	3150
880.224	3157
880.351	3233
880.478	3241
880.605	3192
880.732	3192
880.859	3488
880.986	3348
881.112	3317
881.239	3237
881.366	3093
881.493	3043
881.619	3070
881.746	3081
881.872	3131
881.999	3104
882.125	3161
882.252	3249
882.378	3348
882.505	3485
882.631	3283
882.757	3154
882.883	3253
883.01	3195
883.136	3169
883.262	3138
883.388	3104
883.514	3294
883.64	3393
883.766	3310
883.892	3195
884.018	3214
884.143	3405
884.269	3507
884.395	3214
884.52	3203
884.646	3184
884.772	3131
884.897	3104
885.023	3222
885.148	3340
885.274	3416
885.399	3363
885.524	3302
885.65	3260
885.775	3302
885.9	3294
886.025	3431
886.15	3363
886.275	3313
886.4	3241
886.525	3329
886.65	3302
886.775	3253
886.9	3511
887.025	3644
887.149	3412
887.274	3287
887.399	3173
887.523	3199
887.648	3207
887.773	3218
887.897	3378
888.021	3416
888.146	3317
888.27	3462
888.395	3564
888.519	3424
888.643	3439
888.767	3431
888.891	3283
889.015	3237
889.139	3306
889.263	3264
889.387	3473
889.511	3458
889.635	3485
889.759	3306
889.883	3317
890.006	3344
890.13	3492
890.254	3283
890.377	3378
890.501	3214
890.624	3214
890.748	3325
890.871	3203
890.995	3123
891.118	3074
891.241	3211
891.364	3230
891.488	3310
891.611	3203
891.734	3249
891.857	3294
891.98	3245
892.103	3382
892.226	3310
892.349	3230
892.471	3131
892.594	3253
892.717	3287
892.839	3268
892.962	3313
893.085	3344
893.207	3313
893.33	3157
893.452	3192
893.575	3412
893.697	3253
893.819	3439
893.941	3488
894.064	3447
894.186	3264
894.308	3283
894.43	3435
894.552	3545
894.674	3447
894.796	3279
894.918	3302
895.04	3291
895.161	3431
895.283	3420
895.405	3348
895.526	3386
895.648	3424
895.769	3405
895.891	3431
896.012	3462
896.134	3477
896.255	3405
896.376	3401
896.498	3348
896.619	3393
896.74	3355
896.861	3431
896.982	3656
897.103	3880
897.224	3587
897.345	3534
897.466	3412
897.587	3530
897.708	3629
897.828	3561
897.949	3485
898.07	3340
898.19	3401
898.311	3564
898.431	3428
898.552	3523
898.672	3580
898.792	3587
898.913	3523
899.033	3401
899.153	3291
899.273	3207
899.393	3298
899.513	3298
899.633	3355
899.753	3332
899.873	3313
899.993	3405
900.113	3348
900.232	3424
900.352	3374
900.472	3325
900.591	3207
900.711	3283
900.83	3245
900.95	3386
901.069	3507
901.189	3344
901.308	3203
901.427	3119
901.546	3207
901.665	3272
901.784	3302
901.904	3230
902.023	3184
902.141	3009
902.26	3017
902.379	3138
902.498	3032
902.617	3081
902.735	3180
902.854	3253
902.973	3192
903.091	3020
903.21	3077
903.328	3135
903.446	3146
903.565	3112
903.683	3173
903.801	3123
903.919	3241
904.038	3310
904.156	3169
904.274	3329
904.392	3253
904.51	3287
904.627	3279
904.745	3450
904.863	3538
904.981	3245
905.098	3157
905.216	3218
905.334	3302
905.451	3317
905.569	3313
905.686	3435
905.803	3447
905.921	3287
906.038	3424
906.155	3363
906.272	3260
906.389	3329
906.506	3245
906.623	3241
906.74	3241
906.857	3241
906.974	3272
907.091	3412
907.208	3557
907.324	3515
907.441	3450
907.557	3241
907.674	3272
907.79	3233
907.907	3306
908.023	3405
908.139	3359
908.256	3294
908.372	3351
908.488	3348
908.604	3268
908.72	3233
908.836	3306
908.952	3291
909.068	3367
909.184	3515
909.3	3435
909.415	3534
909.531	3488
909.647	3287
909.762	3253
909.878	3253
909.993	3397
910.108	3382
910.224	3332
910.339	3405
910.454	3321
910.57	3294
910.685	3256
910.8	3622
910.915	3519
911.03	3481
911.145	3264
911.259	3272
911.374	3325
911.489	3230
911.604	3207
911.718	3112
911.833	3180
911.947	3017
912.062	3017
912.176	3184
912.291	3169
912.405	3192
912.519	3454
912.633	3485
912.748	3363
912.862	3272
912.976	3199
913.09	3032
913.204	3138
913.318	3211
913.431	3321
913.545	3348
913.659	3397
913.772	3351
913.886	3230
914	3222
914.113	3359
914.226	3450
914.34	3367
914.453	3195
914.566	3382
914.68	3306
914.793	3321
914.906	3150
915.019	3093
915.132	3070
915.245	3195
915.358	3199
915.47	3230
915.583	3253
915.696	3302
915.809	3416
915.921	3435
916.034	3294
916.146	3287
916.259	3222
916.371	3389
916.483	3348
916.595	3317
916.708	3283
916.82	3291
916.932	3317
917.044	3336
917.156	3332
917.268	3283
917.38	3264
917.491	3325
917.603	3374
917.715	3454
917.826	3473
917.938	3397
918.049	3287
918.161	3424
918.272	3526
918.384	3561
918.495	3511
918.606	3298
918.717	3294
918.828	3359
918.939	3393
919.05	3310
919.161	3401
919.272	3188
919.383	3287
919.494	3496
919.604	3713
919.715	3462
919.826	3412
919.936	3473
920.047	3599
920.157	3542
920.267	3812
920.378	3637
920.488	3557
920.598	3762
920.708	3949
920.818	3812
920.928	3838
921.038	4017
921.148	3968
921.258	3686
921.368	3637
921.477	3603
921.587	3519
921.697	3450
921.806	3625
921.916	3488
922.025	3386
922.134	3382
922.244	3317
922.353	3450
922.462	3245
922.571	3226
922.68	3070
922.789	3051
922.898	3142
923.007	3104
923.116	3199
923.224	3192
923.333	3192
923.442	3100
923.55	3070
923.659	3169
923.767	3226
923.876	3100
923.984	3218
924.092	3097
924.201	3173
924.309	3264
924.417	3214
924.525	3180
924.633	3268
924.741	4204
924.849	3024
924.956	3230
925.064	3058
925.172	3043
925.279	3112
925.387	3207
925.494	3218
925.602	3336
925.709	3367
925.816	3195
925.924	3272
926.031	3378
926.138	3332
926.245	3325
926.352	3245
926.459	3405
926.566	3515
926.673	3329
926.779	3249
926.886	3268
926.993	3154
927.099	3077
927.206	3123
927.312	3135
927.419	3203
927.525	3260
927.631	3249
927.737	3157
927.843	3157
927.95	2998
928.056	3169
928.162	3169
928.267	3291
928.373	3873
928.479	3329
928.585	3055
928.69	3230
928.796	3260
928.901	3180
929.007	3043
929.112	3237
929.218	3173
929.323	3116
929.428	3157
929.533	3363
929.638	3116
929.743	3203
929.848	3241
929.953	3218
930.058	3127
930.163	2982
930.267	3062
930.372	3180
930.477	3017
930.581	3317
930.685	3154
930.79	3070
930.894	3131
930.998	3058
931.103	3253
931.207	2948
931.311	2944
931.415	2918
931.519	2781
931.623	2834
