Data from test_V78500241_1663.txt Node
Date: Fri Mar 25 16:26:43 CST 2022
User: usil
Spectrometer: V785-0024
Trigger mode: 0
Integration Time (sec): 4.000000E-1
Scans to average: 1
Nonlinearity correction enabled: false
Boxcar width: 0
Storing dark spectrum: false
XAxis mode: Wavelengths
Number of Pixels in Spectrum: 1024
>>>>>Begin Spectral Data<<<<<
801.071	2914
801.214	2933
801.356	2861
801.499	2861
801.641	2823
801.783	2937
801.926	3024
802.068	2937
802.211	2998
802.353	3043
802.496	2956
802.638	3047
802.78	3024
802.923	3097
803.065	2967
803.208	2880
803.35	2925
803.492	2918
803.635	2910
803.777	2735
803.919	2864
804.061	3157
804.204	2952
804.346	2883
804.488	2815
804.63	2963
804.773	2883
804.915	2906
805.057	3089
805.199	2914
805.341	2960
805.483	3024
805.626	2998
805.768	2933
805.91	3051
806.052	3112
806.194	3032
806.336	3192
806.478	3001
806.62	2891
806.762	2982
806.904	3028
807.046	3173
807.188	2948
807.33	2906
807.472	2971
807.614	2876
807.756	2986
807.898	2952
808.04	2922
808.182	2944
808.324	2952
808.465	2883
808.607	2883
808.749	2766
808.891	2830
809.033	2990
809.174	2967
809.316	2864
809.458	2895
809.6	2777
809.741	2750
809.883	2769
810.025	2845
810.166	2853
810.308	2815
810.45	2899
810.591	2788
810.733	2788
810.875	2864
811.016	2739
811.158	2743
811.299	2811
811.441	2918
811.582	2880
811.724	2826
811.865	2804
812.007	2937
812.148	2883
812.29	2826
812.431	2876
812.573	2952
812.714	2960
812.855	3058
812.997	3055
813.138	3108
813.279	3013
813.421	3009
813.562	2960
813.703	2861
813.845	2876
813.986	2739
814.127	2724
814.268	2815
814.41	2826
814.551	2826
814.692	2876
814.833	2804
814.974	2899
815.115	2948
815.256	2834
815.397	2815
815.539	2880
815.68	2788
815.821	2823
815.962	2933
816.103	2899
816.244	2864
816.385	2853
816.526	2952
816.666	2910
816.807	2762
816.948	2864
817.089	2925
817.23	2876
817.371	2785
817.512	2785
817.653	2823
817.793	2842
817.934	2868
818.075	2971
818.216	3013
818.356	3001
818.497	2887
818.638	2769
818.778	2754
818.919	2766
819.06	2735
819.2	2868
819.341	2823
819.481	2796
819.622	2937
819.762	3108
819.903	3032
820.043	2899
820.184	2918
820.324	2864
820.465	3036
820.605	2994
820.746	3013
820.886	2956
821.026	3089
821.167	3169
821.307	3275
821.447	3260
821.588	3211
821.728	3165
821.868	3192
822.008	3089
822.149	3157
822.289	3214
822.429	3074
822.569	3074
822.709	3207
822.849	3020
822.99	3066
823.13	3150
823.27	3192
823.41	3112
823.55	3100
823.69	3146
823.83	3165
823.97	3108
824.11	3017
824.25	2963
824.389	3017
824.529	3089
824.669	3024
824.809	3195
824.949	3214
825.089	3203
825.228	3135
825.368	3001
825.508	2956
825.648	2960
825.787	3017
825.927	3001
826.067	2971
826.206	2963
826.346	2979
826.485	3089
826.625	3119
826.765	3249
826.904	3180
827.044	3005
827.183	2937
827.323	2910
827.462	2979
827.601	2906
827.741	2952
827.88	2956
828.02	2872
828.159	2971
828.298	3028
828.437	3127
828.577	3036
828.716	3222
828.855	3051
828.994	2956
829.134	2914
829.273	2929
829.412	2883
829.551	2906
829.69	2910
829.829	2963
829.968	3184
830.107	3036
830.246	3070
830.385	2918
830.524	2933
830.663	2834
830.802	2785
830.941	2651
831.08	2678
831.219	2811
831.357	2796
831.496	3009
831.635	2750
831.774	2693
831.913	2701
832.051	2571
832.19	2598
832.329	2701
832.467	2571
832.606	2549
832.744	2613
832.883	2659
833.022	2640
833.16	2663
833.299	2724
833.437	2735
833.576	2754
833.714	2746
833.852	2777
833.991	2788
834.129	2929
834.267	2857
834.406	2842
834.544	2902
834.682	2902
834.821	2883
834.959	3081
835.097	2937
835.235	3146
835.373	3024
835.511	3017
835.65	3017
835.788	3017
835.926	2857
836.064	2861
836.202	2857
836.34	3112
836.478	3214
836.615	3077
836.753	3195
836.891	3218
837.029	3169
837.167	3112
837.305	3093
837.443	3135
837.58	2990
837.718	3173
837.856	3112
837.993	3036
838.131	3161
838.269	3127
838.406	3154
838.544	3123
838.681	2982
838.819	2929
838.956	2861
839.094	2880
839.231	2941
839.369	3074
839.506	3401
839.643	3245
839.781	3058
839.918	3005
840.055	3058
840.193	3119
840.33	3093
840.467	3173
840.604	3199
840.742	3454
840.879	3119
841.016	3097
841.153	3135
841.29	3359
841.427	3325
841.564	3275
841.701	3310
841.838	3245
841.975	3241
842.112	3211
842.249	3119
842.385	3055
842.522	3317
842.659	3138
842.796	3104
842.933	3161
843.069	3077
843.206	3070
843.343	3214
843.479	3135
843.616	3169
843.752	2929
843.889	2918
844.025	3043
844.162	2922
844.298	3077
844.435	3020
844.571	2941
844.708	3108
844.844	3214
844.98	3275
845.117	3233
845.253	3074
845.389	3001
845.525	3131
845.661	3127
845.798	3032
845.934	3154
846.07	3104
846.206	3264
846.342	3275
846.478	3253
846.614	3123
846.75	3112
846.886	3062
847.022	3264
847.158	3188
847.294	3260
847.429	3283
847.565	3256
847.701	3523
847.837	3081
847.972	3005
848.108	3188
848.244	3169
848.379	3028
848.515	2998
848.65	2960
848.786	3005
848.921	3036
849.057	3131
849.192	3157
849.328	3074
849.463	3192
849.598	3066
849.734	3055
849.869	2982
850.004	3009
850.14	3009
850.275	2952
850.41	2861
850.545	2929
850.68	2929
850.815	3005
850.95	3020
851.085	3195
851.22	3131
851.355	3055
851.49	3009
851.625	3028
851.76	3028
851.895	2967
852.03	2944
852.165	3055
852.299	3112
852.434	3192
852.569	3180
852.703	3165
852.838	3287
852.973	3355
853.107	3355
853.242	3184
853.376	3146
853.511	3032
853.645	3074
853.78	3233
853.914	3123
854.048	3123
854.183	3108
854.317	3192
854.451	3332
854.585	3165
854.72	3138
854.854	3211
854.988	3070
855.122	3097
855.256	3020
855.39	3154
855.524	3253
855.658	3154
855.792	3207
855.926	3207
856.06	3249
856.194	3272
856.327	3176
856.461	3074
856.595	3119
856.729	3127
856.862	3249
856.996	3188
857.13	3222
857.263	3264
857.397	3302
857.53	3161
857.664	3230
857.797	3256
857.931	3279
858.064	3188
858.197	3233
858.331	3199
858.464	3138
858.597	3017
858.731	3116
858.864	3135
858.997	3100
859.13	3199
859.263	3192
859.396	3222
859.529	3104
859.662	3081
859.795	3062
859.928	3173
860.061	3306
860.194	3329
860.327	3123
860.46	3127
860.592	3268
860.725	3294
860.858	3306
860.99	3123
861.123	3058
861.256	3051
861.388	3169
861.521	3915
861.653	3028
861.786	3028
861.918	2982
862.05	3116
862.183	3104
862.315	3203
862.447	3230
862.58	3131
862.712	2963
862.844	2914
862.976	3058
863.108	3009
863.24	3439
863.372	2906
863.504	3001
863.636	2982
863.768	3051
863.9	3020
864.032	2933
864.164	2929
864.296	3051
864.428	3100
864.559	3173
864.691	3070
864.823	3112
864.954	3074
865.086	3055
865.217	2967
865.349	2982
865.48	2998
865.612	3036
865.743	3195
865.875	3009
866.006	2967
866.137	3032
866.269	2994
866.4	2986
866.531	2933
866.662	2906
866.793	2967
866.924	2933
867.055	2982
867.186	2918
867.317	2883
867.448	2830
867.579	2880
867.71	2880
867.841	2834
867.972	2906
868.103	2956
868.233	2899
868.364	2876
868.495	2937
868.625	3127
868.756	3184
868.886	2998
869.017	3047
869.147	3207
869.278	3184
869.408	3070
869.539	3047
869.669	3116
869.799	3047
869.929	3150
870.06	3100
870.19	3378
870.32	3264
870.45	3291
870.58	3409
870.71	3469
870.84	3443
870.97	3294
871.1	3237
871.23	3485
871.36	3473
871.489	3386
871.619	3412
871.749	3466
871.879	3462
872.008	3447
872.138	3382
872.267	3313
872.397	3184
872.526	3119
872.656	3039
872.785	3165
872.915	3294
873.044	3317
873.173	3256
873.303	3272
873.432	3264
873.561	3272
873.69	3169
873.819	3157
873.948	3260
874.077	3131
874.206	3062
874.335	3119
874.464	3211
874.593	3329
874.722	3298
874.851	3382
874.979	3359
875.108	3336
875.237	3203
875.365	3184
875.494	3207
875.623	3283
875.751	3081
875.88	3123
876.008	3237
876.136	3272
876.265	3382
876.393	3523
876.521	3439
876.65	3409
876.778	3359
876.906	3256
877.034	3207
877.162	3256
877.29	3226
877.418	3260
877.546	3233
877.674	3275
877.802	3260
877.93	3264
878.058	3135
878.185	3123
878.313	3211
878.441	3207
878.568	3097
878.696	3154
878.824	3264
878.951	3310
879.079	3469
879.206	3637
879.333	3443
879.461	3382
879.588	3348
879.715	3496
879.842	3610
879.97	3378
880.097	3188
880.224	3131
880.351	3173
880.478	3218
880.605	3207
880.732	3226
880.859	3511
880.986	3344
881.112	3321
881.239	3264
881.366	3142
881.493	3070
881.619	3055
881.746	3077
881.872	3104
881.999	3138
882.125	3184
882.252	3249
882.378	3351
882.505	3458
882.631	3256
882.757	3165
882.883	3214
883.01	3211
883.136	3165
883.262	3081
883.388	3138
883.514	3332
883.64	3374
883.766	3306
883.892	3195
884.018	3230
884.143	3409
884.269	3538
884.395	3195
884.52	3184
884.646	3188
884.772	3131
884.897	3089
885.023	3222
885.148	3340
885.274	3439
885.399	3397
885.524	3298
885.65	3275
885.775	3302
885.9	3294
886.025	3424
886.15	3428
886.275	3298
886.4	3226
886.525	3306
886.65	3283
886.775	3275
886.9	3504
887.025	3637
887.149	3393
887.274	3260
887.399	3180
887.523	3222
887.648	3199
887.773	3214
887.897	3382
888.021	3420
888.146	3302
888.27	3481
888.395	3534
888.519	3428
888.643	3462
888.767	3496
888.891	3336
889.015	3268
889.139	3332
889.263	3291
889.387	3389
889.511	3488
889.635	3454
889.759	3329
889.883	3313
890.006	3443
890.13	3507
890.254	3291
890.377	3336
890.501	3184
890.624	3249
890.748	3336
890.871	3165
890.995	3089
891.118	3051
891.241	3207
891.364	3207
891.488	3313
891.611	3207
891.734	3226
891.857	3272
891.98	3245
892.103	3355
892.226	3279
892.349	3249
892.471	3150
892.594	3237
892.717	3287
892.839	3272
892.962	3279
893.085	3378
893.207	3336
893.33	3184
893.452	3192
893.575	3351
893.697	3260
893.819	3473
893.941	3542
894.064	3435
894.186	3275
894.308	3306
894.43	3439
894.552	3542
894.674	3481
894.796	3340
894.918	3344
895.04	3294
895.161	3424
895.283	3393
895.405	3329
895.526	3393
895.648	3454
895.769	3439
895.891	3431
896.012	3469
896.134	3511
896.255	3401
896.376	3416
896.498	3374
896.619	3416
896.74	3359
896.861	3401
896.982	3740
897.103	3819
897.224	3587
897.345	3507
897.466	3428
897.587	3504
897.708	3618
897.828	3568
897.949	3424
898.07	3321
898.19	3397
898.311	3606
898.431	3488
898.552	3545
898.672	3610
898.792	3564
898.913	3561
899.033	3397
899.153	3298
899.273	3218
899.393	3291
899.513	3313
899.633	3336
899.753	3355
899.873	3317
899.993	3382
900.113	3332
900.232	3363
900.352	3351
900.472	3264
900.591	3184
900.711	3298
900.83	3230
900.95	3412
901.069	3530
901.189	3363
901.308	3199
901.427	3119
901.546	3226
901.665	3332
901.784	3351
901.904	3180
902.023	3180
902.141	3001
902.26	3055
902.379	3154
902.498	3055
902.617	3066
902.735	3214
902.854	3203
902.973	3211
903.091	3077
903.21	3081
903.328	3157
903.446	3157
903.565	3097
903.683	3203
903.801	3127
903.919	3268
904.038	3298
904.156	3161
904.274	3317
904.392	3298
904.51	3294
904.627	3321
904.745	3447
904.863	3488
904.981	3272
905.098	3154
905.216	3230
905.334	3298
905.451	3332
905.569	3310
905.686	3435
905.803	3435
905.921	3302
906.038	3424
906.155	3397
906.272	3241
906.389	3348
906.506	3230
906.623	3283
906.74	3287
906.857	3192
906.974	3279
907.091	3412
907.208	3572
907.324	3481
907.441	3409
907.557	3237
907.674	3268
907.79	3222
907.907	3310
908.023	3321
908.139	3351
908.256	3359
908.372	3409
908.488	3370
908.604	3268
908.72	3260
908.836	3306
908.952	3306
909.068	3306
909.184	3534
909.3	3405
909.415	3542
909.531	3500
909.647	3275
909.762	3313
909.878	3287
909.993	3393
910.108	3329
910.224	3359
910.339	3378
910.454	3294
910.57	3283
910.685	3241
910.8	3580
910.915	3584
911.03	3393
911.145	3264
911.259	3245
911.374	3253
911.489	3230
911.604	3268
911.718	3108
911.833	3154
911.947	3039
912.062	2994
912.176	3165
912.291	3245
912.405	3230
912.519	3439
912.633	3454
912.748	3310
912.862	3272
912.976	3154
913.09	3089
913.204	3154
913.318	3218
913.431	3329
913.545	3317
913.659	3401
913.772	3359
913.886	3192
914	3184
914.113	3351
914.226	3401
914.34	3389
914.453	3188
914.566	3382
914.68	3302
914.793	3264
914.906	3116
915.019	3157
915.132	3074
915.245	3142
915.358	3161
915.47	3260
915.583	3245
915.696	3310
915.809	3382
915.921	3409
916.034	3218
916.146	3268
916.259	3249
916.371	3386
916.483	3355
916.595	3268
916.708	3310
916.82	3298
916.932	3363
917.044	3382
917.156	3332
917.268	3260
917.38	3283
917.491	3245
917.603	3389
917.715	3454
917.826	3488
917.938	3412
918.049	3268
918.161	3424
918.272	3591
918.384	3564
918.495	3488
918.606	3287
918.717	3279
918.828	3386
918.939	3409
919.05	3317
919.161	3397
919.272	3169
919.383	3272
919.494	3504
919.604	3663
919.715	3526
919.826	3378
919.936	3473
920.047	3599
920.157	3534
920.267	3728
920.378	3595
920.488	3587
920.598	3804
920.708	3941
920.818	3850
920.928	3873
921.038	4044
921.148	4006
921.258	3705
921.368	3652
921.477	3580
921.587	3530
921.697	3450
921.806	3622
921.916	3500
922.025	3321
922.134	3367
922.244	3283
922.353	3420
922.462	3249
922.571	3268
922.68	3123
922.789	3070
922.898	3142
923.007	3093
923.116	3226
923.224	3123
923.333	3207
923.442	3077
923.55	3058
923.659	3154
923.767	3203
923.876	3135
923.984	3222
924.092	3108
924.201	3180
924.309	3184
924.417	3264
924.525	3184
924.633	3230
924.741	4173
924.849	3017
924.956	3268
925.064	3089
925.172	3066
925.279	3127
925.387	3207
925.494	3199
925.602	3344
925.709	3367
925.816	3203
925.924	3275
926.031	3431
926.138	3329
926.245	3351
926.352	3264
926.459	3443
926.566	3477
926.673	3344
926.779	3256
926.886	3207
926.993	3184
927.099	3127
927.206	3100
927.312	3100
927.419	3222
927.525	3207
927.631	3306
927.737	3131
927.843	3131
927.95	3024
928.056	3165
928.162	3123
928.267	3233
928.373	3770
928.479	3279
928.585	3066
928.69	3218
928.796	3275
928.901	3180
929.007	3066
929.112	3214
929.218	3157
929.323	3184
929.428	3119
929.533	3363
929.638	3135
929.743	3176
929.848	3230
929.953	3195
930.058	3131
930.163	3009
930.267	3070
930.372	3188
930.477	3047
930.581	3359
930.685	3173
930.79	3051
930.894	3112
930.998	3093
931.103	3283
931.207	2948
931.311	2941
931.415	2922
931.519	2788
931.623	2788
