Data from test_V78500241_85.txt Node
Date: Fri Mar 25 16:15:47 CST 2022
User: usil
Spectrometer: V785-0024
Trigger mode: 0
Integration Time (sec): 4.000000E-1
Scans to average: 1
Nonlinearity correction enabled: false
Boxcar width: 0
Storing dark spectrum: false
XAxis mode: Wavelengths
Number of Pixels in Spectrum: 1024
>>>>>Begin Spectral Data<<<<<
801.071	2967
801.214	3013
801.356	2914
801.499	2929
801.641	2861
801.783	2986
801.926	3066
802.068	2982
802.211	3039
802.353	3058
802.496	2967
802.638	3024
802.78	3089
802.923	3093
803.065	3062
803.208	2929
803.35	3001
803.492	2979
803.635	2986
803.777	2796
803.919	2906
804.061	3241
804.204	2967
804.346	2944
804.488	2845
804.63	3055
804.773	2918
804.915	2937
805.057	3119
805.199	2956
805.341	2979
805.483	3051
805.626	2990
805.768	2982
805.91	3097
806.052	3135
806.194	3081
806.336	3272
806.478	3039
806.62	2998
806.762	3009
806.904	3074
807.046	3157
807.188	3009
807.33	2941
807.472	3009
807.614	2948
807.756	3039
807.898	2929
808.04	2910
808.182	3013
808.324	2963
808.465	2933
808.607	2861
808.749	2800
808.891	2853
809.033	2990
809.174	3009
809.316	2902
809.458	2914
809.6	2804
809.741	2769
809.883	2796
810.025	2906
810.166	2899
810.308	2883
810.45	2876
810.591	2834
810.733	2781
810.875	2883
811.016	2804
811.158	2811
811.299	2826
811.441	2960
811.582	2925
811.724	2834
811.865	2876
812.007	2910
812.148	2925
812.29	2849
812.431	2887
812.573	2975
812.714	2979
812.855	3100
812.997	3081
813.138	3104
813.279	3055
813.421	3039
813.562	2956
813.703	2887
813.845	2906
813.986	2796
814.127	2781
814.268	2845
814.41	2868
814.551	2826
814.692	2918
814.833	2838
814.974	2895
815.115	3001
815.256	2880
815.397	2845
815.539	2880
815.68	2766
815.821	2845
815.962	2986
816.103	2948
816.244	2922
816.385	2891
816.526	3005
816.666	2963
816.807	2731
816.948	2914
817.089	2948
817.23	2880
817.371	2830
817.512	2804
817.653	2883
817.793	2895
817.934	2868
818.075	2944
818.216	3028
818.356	3066
818.497	2899
818.638	2815
818.778	2864
818.919	2830
819.06	2727
819.2	2902
819.341	2811
819.481	2792
819.622	2906
819.762	3127
819.903	3070
820.043	2929
820.184	2910
820.324	2979
820.465	3028
820.605	3089
820.746	3009
820.886	2967
821.026	3131
821.167	3192
821.307	3268
821.447	3306
821.588	3241
821.728	3233
821.868	3230
822.008	3131
822.149	3199
822.289	3237
822.429	3116
822.569	3119
822.709	3233
822.849	3066
822.99	3100
823.13	3169
823.27	3226
823.41	3180
823.55	3180
823.69	3142
823.83	3230
823.97	3150
824.11	3039
824.25	3017
824.389	3093
824.529	3138
824.669	3066
824.809	3192
824.949	3294
825.089	3230
825.228	3161
825.368	2998
825.508	2986
825.648	2994
825.787	3024
825.927	2998
826.067	2994
826.206	2982
826.346	3070
826.485	3089
826.625	3135
826.765	3287
826.904	3214
827.044	3051
827.183	2914
827.323	2906
827.462	2967
827.601	2918
827.741	2944
827.88	2975
828.02	2891
828.159	2967
828.298	3024
828.437	3135
828.577	3047
828.716	3287
828.855	3070
828.994	2899
829.134	2899
829.273	2941
829.412	2891
829.551	2880
829.69	2899
829.829	3017
829.968	3123
830.107	3051
830.246	3013
830.385	2914
830.524	2918
830.663	2864
830.802	2731
830.941	2648
831.08	2670
831.219	2815
831.357	2739
831.496	2960
831.635	2750
831.774	2644
831.913	2674
832.051	2571
832.19	2590
832.329	2705
832.467	2549
832.606	2492
832.744	2594
832.883	2594
833.022	2625
833.16	2667
833.299	2708
833.437	2712
833.576	2712
833.714	2785
833.852	2777
833.991	2777
834.129	2853
834.267	2857
834.406	2811
834.544	2899
834.682	2933
834.821	2849
834.959	3085
835.097	2918
835.235	3104
835.373	2982
835.511	3062
835.65	2963
835.788	2941
835.926	2842
836.064	2834
836.202	2861
836.34	3077
836.478	3176
836.615	3081
836.753	3142
836.891	3253
837.029	3188
837.167	3135
837.305	3051
837.443	3055
837.58	2933
837.718	3165
837.856	3108
837.993	3093
838.131	3131
838.269	3150
838.406	3093
838.544	3116
838.681	2956
838.819	2941
838.956	2830
839.094	2853
839.231	2937
839.369	3074
839.506	3359
839.643	3256
839.781	3032
839.918	2990
840.055	3081
840.193	3058
840.33	3066
840.467	3123
840.604	3176
840.742	3431
840.879	3051
841.016	3051
841.153	3085
841.29	3336
841.427	3306
841.564	3348
841.701	3363
841.838	3253
841.975	3222
842.112	3230
842.249	3066
842.385	3051
842.522	3279
842.659	3093
842.796	3108
842.933	3097
843.069	3081
843.206	3028
843.343	3192
843.479	3150
843.616	3165
843.752	2922
843.889	2902
844.025	3077
844.162	2895
844.298	3085
844.435	3013
844.571	2975
844.708	3100
844.844	3226
844.98	3264
845.117	3214
845.253	3074
845.389	3028
845.525	3131
845.661	3146
845.798	3062
845.934	3146
846.07	3089
846.206	3207
846.342	3329
846.478	3199
846.614	3104
846.75	3074
846.886	3074
847.022	3268
847.158	3192
847.294	3199
847.429	3306
847.565	3256
847.701	3507
847.837	3058
847.972	3032
848.108	3180
848.244	3165
848.379	3032
848.515	2929
848.65	2967
848.786	2979
848.921	3001
849.057	3131
849.192	3150
849.328	3081
849.463	3169
849.598	3085
849.734	3077
849.869	2982
850.004	2918
850.14	2998
850.275	2929
850.41	2872
850.545	2918
850.68	2963
850.815	2982
850.95	3001
851.085	3222
851.22	3138
851.355	3043
851.49	2990
851.625	2990
851.76	3028
851.895	2948
852.03	2944
852.165	3055
852.299	3150
852.434	3184
852.569	3173
852.703	3127
852.838	3260
852.973	3344
853.107	3370
853.242	3161
853.376	3097
853.511	2994
853.645	3085
853.78	3272
853.914	3138
854.048	3108
854.183	3123
854.317	3165
854.451	3313
854.585	3131
854.72	3112
854.854	3218
854.988	3066
855.122	3104
855.256	2994
855.39	3138
855.524	3298
855.658	3222
855.792	3199
855.926	3214
856.06	3279
856.194	3230
856.327	3195
856.461	3089
856.595	3112
856.729	3116
856.862	3233
856.996	3165
857.13	3237
857.263	3260
857.397	3283
857.53	3127
857.664	3214
857.797	3241
857.931	3260
858.064	3207
858.197	3222
858.331	3135
858.464	3097
858.597	3020
858.731	3142
858.864	3142
858.997	3116
859.13	3184
859.263	3192
859.396	3222
859.529	3051
859.662	3081
859.795	3085
859.928	3169
860.061	3279
860.194	3313
860.327	3131
860.46	3150
860.592	3264
860.725	3279
860.858	3291
860.99	3116
861.123	3062
861.256	3074
861.388	3169
861.521	3736
861.653	3028
861.786	3005
861.918	3024
862.05	3089
862.183	3123
862.315	3192
862.447	3275
862.58	3116
862.712	2998
862.844	2887
862.976	3062
863.108	3024
863.24	3424
863.372	2902
863.504	2979
863.636	2971
863.768	3024
863.9	2990
864.032	2906
864.164	2963
864.296	3009
864.428	3116
864.559	3119
864.691	3089
864.823	3081
864.954	3070
865.086	3039
865.217	2982
865.349	2967
865.48	2998
865.612	3009
865.743	3142
865.875	2986
866.006	2979
866.137	2998
866.269	2986
866.4	2967
866.531	2937
866.662	2910
866.793	2918
866.924	2910
867.055	2982
867.186	2952
867.317	2910
867.448	2845
867.579	2880
867.71	2880
867.841	2830
867.972	2918
868.103	2929
868.233	2925
868.364	2922
868.495	2910
868.625	3097
868.756	3180
868.886	2990
869.017	3055
869.147	3165
869.278	3165
869.408	3051
869.539	3089
869.669	3116
869.799	3009
869.929	3157
870.06	3097
870.19	3363
870.32	3283
870.45	3313
870.58	3409
870.71	3500
870.84	3492
870.97	3272
871.1	3279
871.23	3515
871.36	3466
871.489	3351
871.619	3439
871.749	3416
871.879	3466
872.008	3500
872.138	3378
872.267	3317
872.397	3184
872.526	3142
872.656	3009
872.785	3142
872.915	3275
873.044	3325
873.173	3214
873.303	3253
873.432	3283
873.561	3226
873.69	3176
873.819	3176
873.948	3226
874.077	3085
874.206	3047
874.335	3138
874.464	3233
874.593	3374
874.722	3279
874.851	3389
874.979	3382
875.108	3370
875.237	3218
875.365	3207
875.494	3180
875.623	3256
875.751	3089
875.88	3150
876.008	3237
876.136	3260
876.265	3393
876.393	3542
876.521	3473
876.65	3363
876.778	3336
876.906	3256
877.034	3203
877.162	3279
877.29	3218
877.418	3222
877.546	3253
877.674	3237
877.802	3249
877.93	3249
878.058	3161
878.185	3142
878.313	3233
878.441	3211
878.568	3066
878.696	3150
878.824	3268
878.951	3302
879.079	3405
879.206	3686
879.333	3462
879.461	3374
879.588	3370
879.715	3515
879.842	3603
879.97	3424
880.097	3169
880.224	3138
880.351	3211
880.478	3249
880.605	3226
880.732	3211
880.859	3538
880.986	3329
881.112	3351
881.239	3207
881.366	3123
881.493	3036
881.619	3085
881.746	3127
881.872	3093
881.999	3131
882.125	3135
882.252	3264
882.378	3332
882.505	3416
882.631	3325
882.757	3157
882.883	3233
883.01	3230
883.136	3176
883.262	3112
883.388	3108
883.514	3344
883.64	3409
883.766	3313
883.892	3195
884.018	3260
884.143	3382
884.269	3549
884.395	3218
884.52	3192
884.646	3184
884.772	3108
884.897	3123
885.023	3226
885.148	3306
885.274	3466
885.399	3401
885.524	3313
885.65	3287
885.775	3340
885.9	3294
886.025	3488
886.15	3386
886.275	3355
886.4	3268
886.525	3348
886.65	3283
886.775	3298
886.9	3488
887.025	3629
887.149	3447
887.274	3272
887.399	3237
887.523	3226
887.648	3226
887.773	3268
887.897	3397
888.021	3447
888.146	3363
888.27	3553
888.395	3568
888.519	3485
888.643	3519
888.767	3507
888.891	3389
889.015	3268
889.139	3313
889.263	3268
889.387	3428
889.511	3576
889.635	3511
889.759	3355
889.883	3351
890.006	3412
890.13	3557
890.254	3355
890.377	3443
890.501	3268
890.624	3245
890.748	3389
890.871	3256
890.995	3173
891.118	3173
891.241	3294
891.364	3287
891.488	3344
891.611	3283
891.734	3279
891.857	3336
891.98	3294
892.103	3386
892.226	3401
892.349	3294
892.471	3180
892.594	3336
892.717	3378
892.839	3386
892.962	3374
893.085	3447
893.207	3359
893.33	3207
893.452	3291
893.575	3450
893.697	3272
893.819	3549
893.941	3606
894.064	3507
894.186	3351
894.308	3344
894.43	3526
894.552	3610
894.674	3538
894.796	3363
894.918	3374
895.04	3340
895.161	3500
895.283	3454
895.405	3378
895.526	3435
895.648	3504
895.769	3496
895.891	3507
896.012	3545
896.134	3572
896.255	3526
896.376	3485
896.498	3481
896.619	3519
896.74	3424
896.861	3469
896.982	3736
897.103	3949
897.224	3614
897.345	3587
897.466	3523
897.587	3587
897.708	3667
897.828	3633
897.949	3481
898.07	3424
898.19	3447
898.311	3694
898.431	3515
898.552	3584
898.672	3675
898.792	3633
898.913	3603
899.033	3523
899.153	3370
899.273	3287
899.393	3378
899.513	3412
899.633	3382
899.753	3344
899.873	3382
899.993	3439
900.113	3401
900.232	3435
900.352	3389
900.472	3329
900.591	3268
900.711	3367
900.83	3321
900.95	3477
901.069	3564
901.189	3397
901.308	3218
901.427	3188
901.546	3317
901.665	3355
901.784	3378
901.904	3241
902.023	3195
902.141	3070
902.26	3070
902.379	3226
902.498	3142
902.617	3176
902.735	3253
902.854	3275
902.973	3260
903.091	3077
903.21	3131
903.328	3203
903.446	3180
903.565	3169
903.683	3264
903.801	3203
903.919	3332
904.038	3355
904.156	3218
904.274	3386
904.392	3336
904.51	3355
904.627	3367
904.745	3526
904.863	3542
904.981	3291
905.098	3226
905.216	3275
905.334	3359
905.451	3393
905.569	3374
905.686	3481
905.803	3523
905.921	3363
906.038	3538
906.155	3397
906.272	3351
906.389	3393
906.506	3272
906.623	3351
906.74	3321
906.857	3211
906.974	3310
907.091	3530
907.208	3606
907.324	3530
907.441	3488
907.557	3310
907.674	3306
907.79	3302
907.907	3370
908.023	3454
908.139	3454
908.256	3401
908.372	3435
908.488	3374
908.604	3317
908.72	3294
908.836	3351
908.952	3336
909.068	3374
909.184	3542
909.3	3458
909.415	3584
909.531	3538
909.647	3344
909.762	3325
909.878	3325
909.993	3412
910.108	3409
910.224	3393
910.339	3492
910.454	3393
910.57	3340
910.685	3294
910.8	3648
910.915	3587
911.03	3496
911.145	3321
911.259	3344
911.374	3355
911.489	3325
911.604	3264
911.718	3207
911.833	3237
911.947	3116
912.062	3036
912.176	3218
912.291	3256
912.405	3264
912.519	3504
912.633	3561
912.748	3405
912.862	3359
912.976	3222
913.09	3127
913.204	3222
913.318	3310
913.431	3420
913.545	3367
913.659	3466
913.772	3405
913.886	3283
914	3245
914.113	3454
914.226	3507
914.34	3428
914.453	3287
914.566	3504
914.68	3348
914.793	3405
914.906	3226
915.019	3169
915.132	3173
915.245	3241
915.358	3260
915.47	3287
915.583	3310
915.696	3378
915.809	3481
915.921	3485
916.034	3298
916.146	3329
916.259	3306
916.371	3496
916.483	3393
916.595	3359
916.708	3431
916.82	3412
916.932	3409
917.044	3397
917.156	3420
917.268	3294
917.38	3359
917.491	3313
917.603	3431
917.715	3492
917.826	3519
917.938	3454
918.049	3340
918.161	3469
918.272	3633
918.384	3622
918.495	3534
918.606	3420
918.717	3313
918.828	3469
918.939	3469
919.05	3329
919.161	3447
919.272	3245
919.383	3310
919.494	3530
919.604	3751
919.715	3515
919.826	3469
919.936	3530
920.047	3584
920.157	3637
920.267	3755
920.378	3663
920.488	3637
920.598	3850
920.708	4032
920.818	3907
920.928	3869
921.038	4074
921.148	4055
921.258	3781
921.368	3652
921.477	3660
921.587	3633
921.697	3504
921.806	3679
921.916	3549
922.025	3435
922.134	3447
922.244	3340
922.353	3511
922.462	3310
922.571	3272
922.68	3188
922.789	3165
922.898	3199
923.007	3116
923.116	3268
923.224	3260
923.333	3249
923.442	3165
923.55	3157
923.659	3192
923.767	3302
923.876	3169
923.984	3329
924.092	3176
924.201	3245
924.309	3291
924.417	3279
924.525	3241
924.633	3310
924.741	4280
924.849	3131
924.956	3325
925.064	3154
925.172	3116
925.279	3184
925.387	3302
925.494	3260
925.602	3412
925.709	3397
925.816	3226
925.924	3340
926.031	3382
926.138	3367
926.245	3401
926.352	3313
926.459	3488
926.566	3542
926.673	3378
926.779	3329
926.886	3325
926.993	3192
927.099	3146
927.206	3161
927.312	3207
927.419	3302
927.525	3272
927.631	3313
927.737	3211
927.843	3176
927.95	3070
928.056	3180
928.162	3241
928.267	3332
928.373	3804
928.479	3344
928.585	3116
928.69	3253
928.796	3313
928.901	3222
929.007	3043
929.112	3272
929.218	3230
929.323	3199
929.428	3207
929.533	3344
929.638	3173
929.743	3253
929.848	3325
929.953	3249
930.058	3199
930.163	3055
930.267	3112
930.372	3253
930.477	3081
930.581	3386
930.685	3169
930.79	3066
930.894	3165
930.998	3127
931.103	3325
931.207	3005
931.311	2971
931.415	2994
931.519	2830
931.623	2861
