Data from test_V78500241_551.txt Node
Date: Fri Mar 25 16:19:01 CST 2022
User: usil
Spectrometer: V785-0024
Trigger mode: 0
Integration Time (sec): 4.000000E-1
Scans to average: 1
Nonlinearity correction enabled: false
Boxcar width: 0
Storing dark spectrum: false
XAxis mode: Wavelengths
Number of Pixels in Spectrum: 1024
>>>>>Begin Spectral Data<<<<<
801.071	2960
801.214	2990
801.356	2918
801.499	2956
801.641	2906
801.783	3001
801.926	3116
802.068	3028
802.211	3047
802.353	3070
802.496	3001
802.638	3055
802.78	3097
802.923	3112
803.065	3055
803.208	2975
803.35	2944
803.492	2971
803.635	2986
803.777	2823
803.919	2899
804.061	3245
804.204	2990
804.346	2963
804.488	2895
804.63	3058
804.773	2899
804.915	2963
805.057	3146
805.199	2960
805.341	3017
805.483	3112
805.626	3047
805.768	3017
805.91	3127
806.052	3157
806.194	3055
806.336	3268
806.478	3070
806.62	3009
806.762	2998
806.904	3085
807.046	3245
807.188	3039
807.33	2941
807.472	3032
807.614	2952
807.756	2990
807.898	2944
808.04	2918
808.182	2998
808.324	3028
808.465	2902
808.607	2910
808.749	2857
808.891	2872
809.033	3028
809.174	3013
809.316	2906
809.458	2933
809.6	2823
809.741	2773
809.883	2792
810.025	2853
810.166	2899
810.308	2853
810.45	2899
810.591	2834
810.733	2781
810.875	2872
811.016	2819
811.158	2781
811.299	2849
811.441	2979
811.582	2956
811.724	2842
811.865	2838
812.007	2933
812.148	2895
812.29	2902
812.431	2876
812.573	2952
812.714	2956
812.855	3097
812.997	3062
813.138	3157
813.279	3058
813.421	3036
813.562	2960
813.703	2914
813.845	2906
813.986	2796
814.127	2785
814.268	2842
814.41	2819
814.551	2834
814.692	2887
814.833	2853
814.974	2914
815.115	2982
815.256	2857
815.397	2826
815.539	2906
815.68	2838
815.821	2830
815.962	2956
816.103	2979
816.244	2937
816.385	2895
816.526	2994
816.666	2929
816.807	2788
816.948	2944
817.089	2914
817.23	2899
817.371	2785
817.512	2826
817.653	2853
817.793	2845
817.934	2895
818.075	2986
818.216	2986
818.356	3020
818.497	2910
818.638	2864
818.778	2826
818.919	2800
819.06	2804
819.2	2902
819.341	2868
819.481	2804
819.622	2922
819.762	3154
819.903	3081
820.043	2929
820.184	2914
820.324	2944
820.465	3051
820.605	3070
820.746	3047
820.886	2963
821.026	3123
821.167	3188
821.307	3272
821.447	3302
821.588	3287
821.728	3241
821.868	3207
822.008	3123
822.149	3188
822.289	3264
822.429	3119
822.569	3104
822.709	3207
822.849	3058
822.99	3135
823.13	3150
823.27	3203
823.41	3146
823.55	3146
823.69	3169
823.83	3211
823.97	3119
824.11	3051
824.25	3009
824.389	3097
824.529	3138
824.669	3131
824.809	3203
824.949	3283
825.089	3237
825.228	3180
825.368	2998
825.508	2944
825.648	2971
825.787	3001
825.927	3020
826.067	2994
826.206	3024
826.346	3081
826.485	3127
826.625	3146
826.765	3310
826.904	3268
827.044	3047
827.183	2941
827.323	2880
827.462	3020
827.601	2906
827.741	2929
827.88	2990
828.02	2902
828.159	2967
828.298	3028
828.437	3123
828.577	3081
828.716	3222
828.855	3108
828.994	2944
829.134	2929
829.273	2956
829.412	2937
829.551	2876
829.69	2918
829.829	3024
829.968	3146
830.107	2994
830.246	3058
830.385	2956
830.524	2895
830.663	2800
830.802	2769
830.941	2674
831.08	2682
831.219	2777
831.357	2781
831.496	2979
831.635	2724
831.774	2640
831.913	2682
832.051	2541
832.19	2621
832.329	2708
832.467	2583
832.606	2518
832.744	2629
832.883	2629
833.022	2606
833.16	2636
833.299	2705
833.437	2678
833.576	2701
833.714	2712
833.852	2785
833.991	2796
834.129	2853
834.267	2819
834.406	2807
834.544	2910
834.682	2910
834.821	2899
834.959	3093
835.097	2941
835.235	3108
835.373	3001
835.511	3024
835.65	2971
835.788	2986
835.926	2826
836.064	2815
836.202	2872
836.34	3116
836.478	3176
836.615	3089
836.753	3150
836.891	3207
837.029	3161
837.167	3161
837.305	3135
837.443	3055
837.58	2990
837.718	3146
837.856	3104
837.993	3066
838.131	3146
838.269	3097
838.406	3135
838.544	3077
838.681	2937
838.819	2933
838.956	2868
839.094	2864
839.231	2918
839.369	3020
839.506	3389
839.643	3233
839.781	2994
839.918	3005
840.055	3070
840.193	3066
840.33	3104
840.467	3112
840.604	3138
840.742	3389
840.879	3051
841.016	3089
841.153	3127
841.29	3340
841.427	3329
841.564	3279
841.701	3351
841.838	3233
841.975	3214
842.112	3211
842.249	3108
842.385	3100
842.522	3329
842.659	3085
842.796	3097
842.933	3100
843.069	3051
843.206	3051
843.343	3230
843.479	3165
843.616	3135
843.752	2883
843.889	2895
844.025	3081
844.162	2914
844.298	3108
844.435	2975
844.571	2941
844.708	3089
844.844	3245
844.98	3272
845.117	3218
845.253	3112
845.389	3032
845.525	3135
845.661	3085
845.798	3024
845.934	3142
846.07	3032
846.206	3207
846.342	3317
846.478	3256
846.614	3127
846.75	3093
846.886	3017
847.022	3279
847.158	3157
847.294	3192
847.429	3272
847.565	3222
847.701	3500
847.837	3055
847.972	3020
848.108	3138
848.244	3157
848.379	3051
848.515	2929
848.65	2960
848.786	2986
848.921	3009
849.057	3135
849.192	3161
849.328	3104
849.463	3116
849.598	3081
849.734	3058
849.869	3013
850.004	2933
850.14	2967
850.275	2906
850.41	2883
850.545	2899
850.68	2941
850.815	2956
850.95	3013
851.085	3207
851.22	3112
851.355	3058
851.49	2990
851.625	3001
851.76	3017
851.895	2944
852.03	2891
852.165	2994
852.299	3119
852.434	3195
852.569	3146
852.703	3184
852.838	3233
852.973	3332
853.107	3329
853.242	3176
853.376	3123
853.511	2982
853.645	3024
853.78	3279
853.914	3150
854.048	3123
854.183	3085
854.317	3138
854.451	3310
854.585	3123
854.72	3089
854.854	3233
854.988	3081
855.122	3123
855.256	2986
855.39	3135
855.524	3245
855.658	3214
855.792	3165
855.926	3211
856.06	3203
856.194	3306
856.327	3165
856.461	3070
856.595	3077
856.729	3104
856.862	3222
856.996	3169
857.13	3192
857.263	3211
857.397	3279
857.53	3138
857.664	3211
857.797	3230
857.931	3268
858.064	3237
858.197	3241
858.331	3146
858.464	3131
858.597	3009
858.731	3131
858.864	3188
858.997	3104
859.13	3146
859.263	3157
859.396	3222
859.529	3081
859.662	3081
859.795	3051
859.928	3188
860.061	3291
860.194	3310
860.327	3188
860.46	3081
860.592	3249
860.725	3230
860.858	3264
860.99	3116
861.123	3089
861.256	3093
861.388	3150
861.521	3755
861.653	3017
861.786	3005
861.918	3013
862.05	3043
862.183	3093
862.315	3173
862.447	3203
862.58	3104
862.712	2944
862.844	2902
862.976	3009
863.108	3005
863.24	3454
863.372	2899
863.504	2979
863.636	2956
863.768	3032
863.9	2998
864.032	2937
864.164	2937
864.296	3058
864.428	3100
864.559	3108
864.691	3047
864.823	3093
864.954	3028
865.086	3066
865.217	3013
865.349	2963
865.48	2982
865.612	3009
865.743	3154
865.875	2975
866.006	2960
866.137	3005
866.269	2975
866.4	2941
866.531	2933
866.662	2861
866.793	2906
866.924	2902
867.055	2956
867.186	2941
867.317	2906
867.448	2864
867.579	2880
867.71	2872
867.841	2823
867.972	2918
868.103	2887
868.233	2883
868.364	2906
868.495	2906
868.625	3066
868.756	3195
868.886	2963
869.017	3036
869.147	3195
869.278	3161
869.408	3043
869.539	3036
869.669	3127
869.799	3024
869.929	3142
870.06	3116
870.19	3344
870.32	3329
870.45	3340
870.58	3340
870.71	3473
870.84	3428
870.97	3321
871.1	3211
871.23	3416
871.36	3469
871.489	3348
871.619	3378
871.749	3416
871.879	3473
872.008	3473
872.138	3321
872.267	3294
872.397	3157
872.526	3085
872.656	3005
872.785	3116
872.915	3237
873.044	3351
873.173	3245
873.303	3245
873.432	3218
873.561	3245
873.69	3127
873.819	3157
873.948	3195
874.077	3089
874.206	3039
874.335	3062
874.464	3207
874.593	3374
874.722	3253
874.851	3412
874.979	3359
875.108	3332
875.237	3176
875.365	3169
875.494	3169
875.623	3230
875.751	3112
875.88	3112
876.008	3184
876.136	3237
876.265	3367
876.393	3530
876.521	3416
876.65	3393
876.778	3389
876.906	3233
877.034	3211
877.162	3203
877.29	3180
877.418	3283
877.546	3260
877.674	3241
877.802	3222
877.93	3237
878.058	3154
878.185	3116
878.313	3184
878.441	3226
878.568	3074
878.696	3154
878.824	3222
878.951	3310
879.079	3469
879.206	3584
879.333	3382
879.461	3344
879.588	3355
879.715	3496
879.842	3595
879.97	3351
880.097	3184
880.224	3116
880.351	3207
880.478	3192
880.605	3135
880.732	3184
880.859	3515
880.986	3329
881.112	3302
881.239	3188
881.366	3089
881.493	3077
881.619	3028
881.746	3074
881.872	3066
881.999	3112
882.125	3169
882.252	3211
882.378	3325
882.505	3462
882.631	3287
882.757	3138
882.883	3214
883.01	3226
883.136	3146
883.262	3116
883.388	3104
883.514	3275
883.64	3363
883.766	3313
883.892	3169
884.018	3230
884.143	3405
884.269	3545
884.395	3222
884.52	3173
884.646	3184
884.772	3127
884.897	3127
885.023	3214
885.148	3344
885.274	3409
885.399	3367
885.524	3291
885.65	3264
885.775	3359
885.9	3218
886.025	3420
886.15	3336
886.275	3310
886.4	3237
886.525	3291
886.65	3291
886.775	3264
886.9	3488
887.025	3603
887.149	3374
887.274	3268
887.399	3188
887.523	3176
887.648	3199
887.773	3245
887.897	3355
888.021	3374
888.146	3302
888.27	3416
888.395	3526
888.519	3401
888.643	3443
888.767	3511
888.891	3294
889.015	3272
889.139	3272
889.263	3253
889.387	3382
889.511	3492
889.635	3435
889.759	3340
889.883	3268
890.006	3363
890.13	3466
890.254	3294
890.377	3351
890.501	3241
890.624	3184
890.748	3321
890.871	3176
890.995	3100
891.118	3047
891.241	3192
891.364	3233
891.488	3275
891.611	3142
891.734	3192
891.857	3294
891.98	3195
892.103	3313
892.226	3272
892.349	3180
892.471	3093
892.594	3241
892.717	3287
892.839	3233
892.962	3298
893.085	3348
893.207	3287
893.33	3150
893.452	3249
893.575	3359
893.697	3279
893.819	3496
893.941	3488
894.064	3435
894.186	3226
894.308	3241
894.43	3443
894.552	3511
894.674	3447
894.796	3245
894.918	3310
895.04	3272
895.161	3443
895.283	3374
895.405	3283
895.526	3355
895.648	3397
895.769	3443
895.891	3439
896.012	3500
896.134	3450
896.255	3393
896.376	3363
896.498	3367
896.619	3367
896.74	3397
896.861	3389
896.982	3660
897.103	3823
897.224	3584
897.345	3488
897.466	3428
897.587	3500
897.708	3599
897.828	3511
897.949	3420
898.07	3302
898.19	3405
898.311	3610
898.431	3424
898.552	3477
898.672	3584
898.792	3553
898.913	3523
899.033	3435
899.153	3310
899.273	3249
899.393	3256
899.513	3294
899.633	3313
899.753	3332
899.873	3329
899.993	3378
900.113	3336
900.232	3374
900.352	3367
900.472	3313
900.591	3214
900.711	3321
900.83	3249
900.95	3409
901.069	3496
901.189	3370
901.308	3195
901.427	3131
901.546	3199
901.665	3283
901.784	3321
901.904	3230
902.023	3135
902.141	3024
902.26	3001
902.379	3112
902.498	3081
902.617	3028
902.735	3214
902.854	3207
902.973	3180
903.091	3062
903.21	3135
903.328	3142
903.446	3150
903.565	3104
903.683	3173
903.801	3138
903.919	3279
904.038	3306
904.156	3180
904.274	3287
904.392	3245
904.51	3298
904.627	3336
904.745	3447
904.863	3492
904.981	3275
905.098	3184
905.216	3192
905.334	3253
905.451	3344
905.569	3310
905.686	3454
905.803	3428
905.921	3272
906.038	3409
906.155	3363
906.272	3272
906.389	3367
906.506	3237
906.623	3203
906.74	3283
906.857	3161
906.974	3245
907.091	3447
907.208	3584
907.324	3454
907.441	3389
907.557	3226
907.674	3237
907.79	3184
907.907	3287
908.023	3386
908.139	3359
908.256	3329
908.372	3382
908.488	3348
908.604	3291
908.72	3237
908.836	3294
908.952	3275
909.068	3317
909.184	3473
909.3	3416
909.415	3511
909.531	3466
909.647	3272
909.762	3329
909.878	3253
909.993	3348
910.108	3348
910.224	3359
910.339	3477
910.454	3340
910.57	3294
910.685	3253
910.8	3599
910.915	3538
911.03	3374
911.145	3268
911.259	3249
911.374	3359
911.489	3249
911.604	3214
911.718	3119
911.833	3169
911.947	3017
912.062	2967
912.176	3169
912.291	3203
912.405	3226
912.519	3424
912.633	3462
912.748	3344
912.862	3237
912.976	3173
913.09	3108
913.204	3131
913.318	3207
913.431	3298
913.545	3344
913.659	3409
913.772	3291
913.886	3184
914	3214
914.113	3363
914.226	3382
914.34	3363
914.453	3184
914.566	3405
914.68	3291
914.793	3321
914.906	3150
915.019	3097
915.132	3036
915.245	3184
915.358	3199
915.47	3214
915.583	3249
915.696	3329
915.809	3405
915.921	3424
916.034	3264
916.146	3294
916.259	3195
916.371	3393
916.483	3344
916.595	3264
916.708	3317
916.82	3340
916.932	3310
917.044	3336
917.156	3306
917.268	3283
917.38	3367
917.491	3317
917.603	3363
917.715	3416
917.826	3409
917.938	3397
918.049	3264
918.161	3393
918.272	3599
918.384	3595
918.495	3473
918.606	3340
918.717	3283
918.828	3389
918.939	3389
919.05	3294
919.161	3359
919.272	3176
919.383	3272
919.494	3473
919.604	3625
919.715	3485
919.826	3393
919.936	3428
920.047	3633
920.157	3561
920.267	3759
920.378	3576
920.488	3564
920.598	3740
920.708	3964
920.818	3819
920.928	3808
921.038	3968
921.148	3945
921.258	3759
921.368	3618
921.477	3557
921.587	3500
921.697	3466
921.806	3606
921.916	3534
922.025	3355
922.134	3340
922.244	3306
922.353	3454
922.462	3253
922.571	3264
922.68	3116
922.789	3051
922.898	3123
923.007	3127
923.116	3192
923.224	3184
923.333	3214
923.442	3127
923.55	3051
923.659	3127
923.767	3199
923.876	3119
923.984	3203
924.092	3085
924.201	3184
924.309	3237
924.417	3272
924.525	3192
924.633	3268
924.741	4013
924.849	3047
924.956	3260
925.064	3104
925.172	3066
925.279	3097
925.387	3214
925.494	3180
925.602	3359
925.709	3302
925.816	3169
925.924	3268
926.031	3374
926.138	3317
926.245	3332
926.352	3253
926.459	3401
926.566	3439
926.673	3325
926.779	3214
926.886	3279
926.993	3176
927.099	3150
927.206	3157
927.312	3127
927.419	3230
927.525	3207
927.631	3218
927.737	3104
927.843	3138
927.95	3024
928.056	3173
928.162	3150
928.267	3233
928.373	3759
928.479	3294
928.585	3043
928.69	3184
928.796	3249
928.901	3123
929.007	3032
929.112	3203
929.218	3192
929.323	3131
929.428	3131
929.533	3348
929.638	3127
929.743	3161
929.848	3260
929.953	3169
930.058	3135
930.163	3009
930.267	3039
930.372	3192
930.477	3036
930.581	3332
930.685	3192
930.79	3039
930.894	3116
930.998	3089
931.103	3306
931.207	2918
931.311	2960
931.415	2914
931.519	2754
931.623	2815
