Data from test_V78500241_673.txt Node
Date: Fri Mar 25 16:19:51 CST 2022
User: usil
Spectrometer: V785-0024
Trigger mode: 0
Integration Time (sec): 4.000000E-1
Scans to average: 1
Nonlinearity correction enabled: false
Boxcar width: 0
Storing dark spectrum: false
XAxis mode: Wavelengths
Number of Pixels in Spectrum: 1024
>>>>>Begin Spectral Data<<<<<
801.071	2880
801.214	2952
801.356	2880
801.499	2899
801.641	2872
801.783	2880
801.926	3020
802.068	2941
802.211	2986
802.353	2994
802.496	2979
802.638	3020
802.78	3028
802.923	3047
803.065	2963
803.208	2887
803.35	2887
803.492	2933
803.635	2895
803.777	2773
803.919	2868
804.061	3214
804.204	2933
804.346	2887
804.488	2838
804.63	2971
804.773	2853
804.915	2895
805.057	3062
805.199	2941
805.341	2994
805.483	3009
805.626	2986
805.768	2937
805.91	3081
806.052	3123
806.194	2994
806.336	3195
806.478	3017
806.62	2944
806.762	2956
806.904	3017
807.046	3150
807.188	2994
807.33	2887
807.472	2982
807.614	2906
807.756	3001
807.898	2929
808.04	2872
808.182	2956
808.324	2948
808.465	2883
808.607	2880
808.749	2785
808.891	2811
809.033	2937
809.174	2933
809.316	2880
809.458	2853
809.6	2762
809.741	2766
809.883	2769
810.025	2815
810.166	2807
810.308	2830
810.45	2819
810.591	2800
810.733	2777
810.875	2815
811.016	2800
811.158	2731
811.299	2861
811.441	2902
811.582	2895
811.724	2857
811.865	2830
812.007	2887
812.148	2868
812.29	2819
812.431	2872
812.573	2914
812.714	2990
812.855	3020
812.997	3051
813.138	3104
813.279	3001
813.421	2937
813.562	2956
813.703	2845
813.845	2880
813.986	2746
814.127	2712
814.268	2788
814.41	2830
814.551	2800
814.692	2872
814.833	2804
814.974	2887
815.115	2986
815.256	2826
815.397	2773
815.539	2845
815.68	2777
815.821	2781
815.962	2914
816.103	2918
816.244	2853
816.385	2857
816.526	2952
816.666	2906
816.807	2758
816.948	2853
817.089	2902
817.23	2861
817.371	2766
817.512	2796
817.653	2830
817.793	2815
817.934	2842
818.075	2963
818.216	2998
818.356	3013
818.497	2861
818.638	2796
818.778	2804
818.919	2804
819.06	2796
819.2	2849
819.341	2819
819.481	2815
819.622	2880
819.762	3123
819.903	3039
820.043	2967
820.184	2876
820.324	2899
820.465	3020
820.605	3017
820.746	3036
820.886	2922
821.026	3093
821.167	3131
821.307	3253
821.447	3275
821.588	3207
821.728	3169
821.868	3199
822.008	3104
822.149	3161
822.289	3222
822.429	3085
822.569	3051
822.709	3142
822.849	2998
822.99	3051
823.13	3135
823.27	3192
823.41	3093
823.55	3150
823.69	3135
823.83	3173
823.97	3116
824.11	2994
824.25	3017
824.389	3047
824.529	3116
824.669	3039
824.809	3192
824.949	3241
825.089	3192
825.228	3169
825.368	3017
825.508	2902
825.648	2960
825.787	2971
825.927	2998
826.067	2960
826.206	2967
826.346	3032
826.485	3070
826.625	3074
826.765	3226
826.904	3214
827.044	2960
827.183	2918
827.323	2853
827.462	2944
827.601	2918
827.741	2914
827.88	2925
828.02	2868
828.159	2971
828.298	3047
828.437	3085
828.577	3001
828.716	3237
828.855	3100
828.994	2887
829.134	2845
829.273	2914
829.412	2849
829.551	2838
829.69	2842
829.829	3001
829.968	3165
830.107	3032
830.246	3005
830.385	2922
830.524	2834
830.663	2830
830.802	2731
830.941	2632
831.08	2651
831.219	2785
831.357	2788
831.496	2960
831.635	2693
831.774	2655
831.913	2632
832.051	2537
832.19	2560
832.329	2655
832.467	2549
832.606	2446
832.744	2583
832.883	2579
833.022	2587
833.16	2663
833.299	2663
833.437	2663
833.576	2686
833.714	2693
833.852	2716
833.991	2716
834.129	2819
834.267	2830
834.406	2762
834.544	2845
834.682	2887
834.821	2883
834.959	3043
835.097	2853
835.235	3013
835.373	2982
835.511	2986
835.65	2948
835.788	2902
835.926	2826
836.064	2807
836.202	2811
836.34	3089
836.478	3116
836.615	3020
836.753	3108
836.891	3203
837.029	3142
837.167	3074
837.305	3070
837.443	3032
837.58	2933
837.718	3119
837.856	3039
837.993	3017
838.131	3104
838.269	3077
838.406	3070
838.544	3047
838.681	2918
838.819	2922
838.956	2811
839.094	2819
839.231	2906
839.369	3005
839.506	3359
839.643	3192
839.781	2971
839.918	2937
840.055	3039
840.193	3032
840.33	3043
840.467	3097
840.604	3146
840.742	3397
840.879	3017
841.016	3039
841.153	3074
841.29	3348
841.427	3245
841.564	3214
841.701	3275
841.838	3214
841.975	3146
842.112	3180
842.249	3070
842.385	3001
842.522	3279
842.659	3062
842.796	3043
842.933	3047
843.069	3009
843.206	3047
843.343	3165
843.479	3138
843.616	3116
843.752	2864
843.889	2849
844.025	3062
844.162	2830
844.298	3081
844.435	2933
844.571	2925
844.708	3055
844.844	3207
844.98	3207
845.117	3195
845.253	3055
845.389	3001
845.525	3074
845.661	3066
845.798	2982
845.934	3108
846.07	3032
846.206	3199
846.342	3321
846.478	3264
846.614	3085
846.75	3024
846.886	2982
847.022	3260
847.158	3131
847.294	3203
847.429	3245
847.565	3199
847.701	3466
847.837	3017
847.972	2975
848.108	3150
848.244	3150
848.379	2975
848.515	2925
848.65	2910
848.786	2944
848.921	3013
849.057	3062
849.192	3135
849.328	3055
849.463	3116
849.598	3032
849.734	3009
849.869	2967
850.004	2887
850.14	2956
850.275	2929
850.41	2826
850.545	2883
850.68	2914
850.815	2937
850.95	2952
851.085	3150
851.22	3066
851.355	3017
851.49	2960
851.625	2982
851.76	3024
851.895	2918
852.03	2902
852.165	3032
852.299	3116
852.434	3203
852.569	3119
852.703	3131
852.838	3203
852.973	3321
853.107	3321
853.242	3085
853.376	3055
853.511	3009
853.645	3039
853.78	3230
853.914	3131
854.048	3085
854.183	3051
854.317	3100
854.451	3264
854.585	3085
854.72	3036
854.854	3180
854.988	3055
855.122	3036
855.256	2963
855.39	3055
855.524	3245
855.658	3161
855.792	3116
855.926	3119
856.06	3226
856.194	3214
856.327	3146
856.461	3085
856.595	3058
856.729	3062
856.862	3176
856.996	3131
857.13	3161
857.263	3203
857.397	3272
857.53	3116
857.664	3161
857.797	3211
857.931	3256
858.064	3173
858.197	3199
858.331	3108
858.464	3104
858.597	2956
858.731	3112
858.864	3112
858.997	3081
859.13	3195
859.263	3176
859.396	3195
859.529	3070
859.662	3093
859.795	3039
859.928	3104
860.061	3253
860.194	3340
860.327	3119
860.46	3085
860.592	3237
860.725	3241
860.858	3294
860.99	3097
861.123	3077
861.256	3070
861.388	3173
861.521	3838
861.653	3028
861.786	2982
861.918	3005
862.05	3077
862.183	3058
862.315	3173
862.447	3218
862.58	3081
862.712	2952
862.844	2887
862.976	3058
863.108	3036
863.24	3428
863.372	2914
863.504	3005
863.636	2986
863.768	3005
863.9	3013
864.032	2922
864.164	2975
864.296	3058
864.428	3085
864.559	3154
864.691	3104
864.823	3062
864.954	3093
865.086	3081
865.217	3024
865.349	2979
865.48	3051
865.612	3024
865.743	3207
865.875	3055
866.006	2975
866.137	3024
866.269	2971
866.4	2933
866.531	2956
866.662	2975
866.793	2948
866.924	2941
867.055	3047
867.186	2975
867.317	2922
867.448	2861
867.579	2914
867.71	2895
867.841	2876
867.972	2937
868.103	2944
868.233	2941
868.364	2918
868.495	2925
868.625	3150
868.756	3237
868.886	3005
869.017	3055
869.147	3195
869.278	3195
869.408	3085
869.539	3074
869.669	3066
869.799	3043
869.929	3161
870.06	3108
870.19	3382
870.32	3332
870.45	3336
870.58	3397
870.71	3481
870.84	3473
870.97	3306
871.1	3294
871.23	3519
871.36	3492
871.489	3378
871.619	3420
871.749	3439
871.879	3443
872.008	3507
872.138	3367
872.267	3306
872.397	3211
872.526	3112
872.656	3039
872.785	3116
872.915	3249
873.044	3332
873.173	3306
873.303	3313
873.432	3294
873.561	3245
873.69	3173
873.819	3203
873.948	3233
874.077	3176
874.206	3074
874.335	3070
874.464	3245
874.593	3374
874.722	3302
874.851	3424
874.979	3363
875.108	3310
875.237	3241
875.365	3199
875.494	3207
875.623	3253
875.751	3131
875.88	3123
876.008	3249
876.136	3226
876.265	3401
876.393	3507
876.521	3458
876.65	3458
876.778	3287
876.906	3264
877.034	3218
877.162	3230
877.29	3214
877.418	3283
877.546	3283
877.674	3279
877.802	3245
877.93	3291
878.058	3150
878.185	3119
878.313	3233
878.441	3222
878.568	3085
878.696	3165
878.824	3279
878.951	3336
879.079	3469
879.206	3663
879.333	3443
879.461	3336
879.588	3382
879.715	3485
879.842	3599
879.97	3367
880.097	3199
880.224	3154
880.351	3199
880.478	3249
880.605	3256
880.732	3218
880.859	3557
880.986	3329
881.112	3359
881.239	3226
881.366	3119
881.493	3070
881.619	3051
881.746	3100
881.872	3112
881.999	3123
882.125	3131
882.252	3279
882.378	3317
882.505	3435
882.631	3287
882.757	3154
882.883	3207
883.01	3268
883.136	3192
883.262	3104
883.388	3173
883.514	3363
883.64	3412
883.766	3325
883.892	3199
884.018	3264
884.143	3420
884.269	3553
884.395	3249
884.52	3214
884.646	3207
884.772	3192
884.897	3116
885.023	3203
885.148	3378
885.274	3412
885.399	3409
885.524	3298
885.65	3287
885.775	3344
885.9	3260
886.025	3443
886.15	3382
886.275	3321
886.4	3283
886.525	3321
886.65	3272
886.775	3321
886.9	3523
887.025	3690
887.149	3450
887.274	3310
887.399	3176
887.523	3230
887.648	3214
887.773	3207
887.897	3397
888.021	3420
888.146	3340
888.27	3481
888.395	3557
888.519	3462
888.643	3500
888.767	3466
888.891	3374
889.015	3283
889.139	3283
889.263	3283
889.387	3439
889.511	3587
889.635	3458
889.759	3287
889.883	3283
890.006	3401
890.13	3545
890.254	3287
890.377	3405
890.501	3233
890.624	3214
890.748	3325
890.871	3249
890.995	3119
891.118	3108
891.241	3211
891.364	3264
891.488	3317
891.611	3199
891.734	3211
891.857	3291
891.98	3260
892.103	3370
892.226	3268
892.349	3260
892.471	3154
892.594	3226
892.717	3306
892.839	3283
892.962	3287
893.085	3389
893.207	3310
893.33	3214
893.452	3260
893.575	3386
893.697	3279
893.819	3500
893.941	3549
894.064	3473
894.186	3287
894.308	3279
894.43	3473
894.552	3553
894.674	3462
894.796	3291
894.918	3355
895.04	3272
895.161	3454
895.283	3416
895.405	3359
895.526	3389
895.648	3454
895.769	3443
895.891	3485
896.012	3488
896.134	3507
896.255	3431
896.376	3412
896.498	3355
896.619	3439
896.74	3393
896.861	3420
896.982	3713
897.103	3888
897.224	3595
897.345	3504
897.466	3439
897.587	3519
897.708	3663
897.828	3591
897.949	3458
898.07	3317
898.19	3401
898.311	3595
898.431	3473
898.552	3587
898.672	3591
898.792	3603
898.913	3572
899.033	3409
899.153	3294
899.273	3233
899.393	3321
899.513	3302
899.633	3336
899.753	3374
899.873	3344
899.993	3382
900.113	3351
900.232	3405
900.352	3370
900.472	3306
900.591	3245
900.711	3321
900.83	3222
900.95	3416
901.069	3530
901.189	3367
901.308	3169
901.427	3161
901.546	3233
901.665	3287
901.784	3336
901.904	3222
902.023	3199
902.141	3043
902.26	3043
902.379	3131
902.498	3081
902.617	3074
902.735	3249
902.854	3256
902.973	3195
903.091	3051
903.21	3081
903.328	3161
903.446	3138
903.565	3089
903.683	3226
903.801	3138
903.919	3294
904.038	3294
904.156	3222
904.274	3306
904.392	3249
904.51	3348
904.627	3355
904.745	3466
904.863	3504
904.981	3237
905.098	3176
905.216	3256
905.334	3317
905.451	3291
905.569	3321
905.686	3477
905.803	3469
905.921	3321
906.038	3450
906.155	3363
906.272	3298
906.389	3355
906.506	3256
906.623	3287
906.74	3268
906.857	3222
906.974	3275
907.091	3454
907.208	3603
907.324	3473
907.441	3370
907.557	3233
907.674	3249
907.79	3233
907.907	3310
908.023	3382
908.139	3382
908.256	3389
908.372	3420
908.488	3370
908.604	3283
908.72	3264
908.836	3287
908.952	3298
909.068	3344
909.184	3549
909.3	3435
909.415	3507
909.531	3500
909.647	3283
909.762	3313
909.878	3249
909.993	3359
910.108	3294
910.224	3378
910.339	3431
910.454	3329
910.57	3306
910.685	3260
910.8	3511
910.915	3561
911.03	3412
911.145	3283
911.259	3329
911.374	3348
911.489	3253
911.604	3264
911.718	3112
911.833	3195
911.947	3062
912.062	2994
912.176	3192
912.291	3237
912.405	3260
912.519	3485
912.633	3519
912.748	3336
912.862	3268
912.976	3169
913.09	3066
913.204	3195
913.318	3192
913.431	3348
913.545	3386
913.659	3424
913.772	3325
913.886	3195
914	3222
914.113	3336
914.226	3473
914.34	3424
914.453	3180
914.566	3439
914.68	3317
914.793	3336
914.906	3138
915.019	3108
915.132	3112
915.245	3222
915.358	3226
915.47	3249
915.583	3275
915.696	3302
915.809	3401
915.921	3485
916.034	3272
916.146	3302
916.259	3268
916.371	3412
916.483	3370
916.595	3291
916.708	3329
916.82	3332
916.932	3378
917.044	3355
917.156	3329
917.268	3283
917.38	3317
917.491	3298
917.603	3386
917.715	3458
917.826	3450
917.938	3428
918.049	3287
918.161	3416
918.272	3564
918.384	3580
918.495	3469
918.606	3351
918.717	3287
918.828	3405
918.939	3397
919.05	3374
919.161	3367
919.272	3211
919.383	3291
919.494	3507
919.604	3679
919.715	3530
919.826	3420
919.936	3458
920.047	3599
920.157	3591
920.267	3808
920.378	3610
920.488	3564
920.598	3797
920.708	3975
920.818	3823
920.928	3819
921.038	4021
921.148	3937
921.258	3713
921.368	3622
921.477	3564
921.587	3542
921.697	3412
921.806	3610
921.916	3523
922.025	3412
922.134	3374
922.244	3370
922.353	3409
922.462	3256
922.571	3249
922.68	3085
922.789	3062
922.898	3146
923.007	3135
923.116	3195
923.224	3192
923.333	3211
923.442	3119
923.55	3089
923.659	3127
923.767	3222
923.876	3108
923.984	3230
924.092	3112
924.201	3199
924.309	3256
924.417	3230
924.525	3184
924.633	3241
924.741	4017
924.849	3043
924.956	3310
925.064	3058
925.172	3036
925.279	3093
925.387	3192
925.494	3237
925.602	3348
925.709	3348
925.816	3211
925.924	3275
926.031	3420
926.138	3302
926.245	3370
926.352	3237
926.459	3401
926.566	3454
926.673	3344
926.779	3268
926.886	3253
926.993	3157
927.099	3165
927.206	3104
927.312	3104
927.419	3237
927.525	3230
927.631	3325
927.737	3123
927.843	3131
927.95	3039
928.056	3138
928.162	3214
928.267	3260
928.373	3743
928.479	3329
928.585	3093
928.69	3233
928.796	3302
928.901	3211
929.007	3039
929.112	3264
929.218	3176
929.323	3203
929.428	3192
929.533	3378
929.638	3142
929.743	3184
929.848	3287
929.953	3233
930.058	3165
930.163	3058
930.267	3070
930.372	3268
930.477	3074
930.581	3336
930.685	3233
930.79	3119
930.894	3150
930.998	3169
931.103	3313
931.207	2998
931.311	3017
931.415	2948
931.519	2864
931.623	2880
