Data from test_V78500241_1204.txt Node
Date: Fri Mar 25 16:23:32 CST 2022
User: usil
Spectrometer: V785-0024
Trigger mode: 0
Integration Time (sec): 4.000000E-1
Scans to average: 1
Nonlinearity correction enabled: false
Boxcar width: 0
Storing dark spectrum: false
XAxis mode: Wavelengths
Number of Pixels in Spectrum: 1024
>>>>>Begin Spectral Data<<<<<
801.071	2895
801.214	2941
801.356	2887
801.499	2906
801.641	2883
801.783	2922
801.926	3055
802.068	2956
802.211	3001
802.353	3051
802.496	2979
802.638	3005
802.78	3077
802.923	3074
803.065	3013
803.208	2899
803.35	2925
803.492	2910
803.635	2925
803.777	2727
803.919	2834
804.061	3203
804.204	2918
804.346	2925
804.488	2842
804.63	3020
804.773	2876
804.915	2925
805.057	3077
805.199	2887
805.341	2963
805.483	3081
805.626	2986
805.768	2963
805.91	3100
806.052	3112
806.194	3039
806.336	3218
806.478	3047
806.62	2963
806.762	2971
806.904	3047
807.046	3188
807.188	2975
807.33	2918
807.472	2967
807.614	2895
807.756	2990
807.898	2906
808.04	2918
808.182	2982
808.324	2933
808.465	2910
808.607	2861
808.749	2781
808.891	2849
809.033	2990
809.174	2956
809.316	2902
809.458	2906
809.6	2769
809.741	2788
809.883	2766
810.025	2823
810.166	2834
810.308	2845
810.45	2861
810.591	2769
810.733	2781
810.875	2838
811.016	2807
811.158	2758
811.299	2785
811.441	2925
811.582	2899
811.724	2838
811.865	2819
812.007	2891
812.148	2883
812.29	2849
812.431	2891
812.573	2960
812.714	3001
812.855	3036
812.997	3062
813.138	3081
813.279	3009
813.421	2975
813.562	2948
813.703	2857
813.845	2910
813.986	2758
814.127	2746
814.268	2826
814.41	2830
814.551	2766
814.692	2853
814.833	2819
814.974	2849
815.115	2944
815.256	2823
815.397	2819
815.539	2864
815.68	2796
815.821	2815
815.962	2922
816.103	2929
816.244	2853
816.385	2849
816.526	2963
816.666	2891
816.807	2754
816.948	2906
817.089	2944
817.23	2864
817.371	2766
817.512	2788
817.653	2830
817.793	2838
817.934	2842
818.075	2941
818.216	2979
818.356	3043
818.497	2891
818.638	2792
818.778	2826
818.919	2777
819.06	2766
819.2	2861
819.341	2815
819.481	2796
819.622	2960
819.762	3127
819.903	3062
820.043	2891
820.184	2887
820.324	2910
820.465	3036
820.605	3047
820.746	2986
820.886	2941
821.026	3112
821.167	3169
821.307	3256
821.447	3256
821.588	3249
821.728	3176
821.868	3203
822.008	3066
822.149	3180
822.289	3218
822.429	3085
822.569	3097
822.709	3199
822.849	3043
822.99	3062
823.13	3173
823.27	3199
823.41	3100
823.55	3131
823.69	3123
823.83	3195
823.97	3074
824.11	2982
824.25	3005
824.389	3123
824.529	3104
824.669	3017
824.809	3188
824.949	3260
825.089	3230
825.228	3173
825.368	3001
825.508	2963
825.648	2967
825.787	2956
825.927	3028
826.067	2971
826.206	2998
826.346	3058
826.485	3047
826.625	3066
826.765	3264
826.904	3222
827.044	3009
827.183	2906
827.323	2849
827.462	2979
827.601	2941
827.741	2922
827.88	2960
828.02	2883
828.159	2963
828.298	3005
828.437	3112
828.577	3089
828.716	3226
828.855	3085
828.994	2929
829.134	2922
829.273	2902
829.412	2834
829.551	2872
829.69	2887
829.829	2956
829.968	3123
830.107	3009
830.246	2979
830.385	2918
830.524	2842
830.663	2838
830.802	2712
830.941	2636
831.08	2640
831.219	2758
831.357	2746
831.496	2971
831.635	2746
831.774	2629
831.913	2659
832.051	2560
832.19	2598
832.329	2697
832.467	2537
832.606	2488
832.744	2587
832.883	2575
833.022	2549
833.16	2629
833.299	2667
833.437	2667
833.576	2682
833.714	2743
833.852	2712
833.991	2773
834.129	2800
834.267	2823
834.406	2792
834.544	2906
834.682	2864
834.821	2815
834.959	3058
835.097	2922
835.235	3089
835.373	3013
835.511	3043
835.65	2952
835.788	2979
835.926	2842
836.064	2807
836.202	2823
836.34	3127
836.478	3173
836.615	3047
836.753	3119
836.891	3199
837.029	3154
837.167	3100
837.305	3047
837.443	3032
837.58	2963
837.718	3154
837.856	3074
837.993	3013
838.131	3108
838.269	3077
838.406	3074
838.544	3051
838.681	2944
838.819	2910
838.956	2815
839.094	2830
839.231	2899
839.369	3020
839.506	3370
839.643	3249
839.781	3020
839.918	2960
840.055	3074
840.193	3074
840.33	3077
840.467	3123
840.604	3146
840.742	3420
840.879	3032
841.016	3013
841.153	3112
841.29	3340
841.427	3264
841.564	3260
841.701	3340
841.838	3192
841.975	3203
842.112	3199
842.249	3070
842.385	3013
842.522	3256
842.659	3058
842.796	3043
842.933	3104
843.069	3062
843.206	3032
843.343	3195
843.479	3074
843.616	3161
843.752	2887
843.889	2864
844.025	3070
844.162	2883
844.298	3070
844.435	2933
844.571	2887
844.708	3104
844.844	3199
844.98	3218
845.117	3211
845.253	3047
845.389	3009
845.525	3039
845.661	3112
845.798	3009
845.934	3135
846.07	3070
846.206	3245
846.342	3279
846.478	3214
846.614	3043
846.75	3047
846.886	3017
847.022	3226
847.158	3142
847.294	3211
847.429	3256
847.565	3207
847.701	3439
847.837	3039
847.972	2994
848.108	3199
848.244	3123
848.379	2986
848.515	2963
848.65	2902
848.786	2975
848.921	3013
849.057	3112
849.192	3116
849.328	3077
849.463	3104
849.598	3017
849.734	3020
849.869	2937
850.004	2937
850.14	2925
850.275	2895
850.41	2815
850.545	2902
850.68	2944
850.815	2941
850.95	2944
851.085	3184
851.22	3081
851.355	3013
851.49	2960
851.625	2963
851.76	2994
851.895	2937
852.03	2887
852.165	3005
852.299	3116
852.434	3150
852.569	3161
852.703	3161
852.838	3188
852.973	3344
853.107	3317
853.242	3142
853.376	3089
853.511	2967
853.645	3039
853.78	3195
853.914	3127
854.048	3070
854.183	3077
854.317	3173
854.451	3336
854.585	3108
854.72	3055
854.854	3230
854.988	3039
855.122	3047
855.256	2982
855.39	3131
855.524	3241
855.658	3146
855.792	3199
855.926	3195
856.06	3253
856.194	3275
856.327	3142
856.461	3070
856.595	3097
856.729	3047
856.862	3207
856.996	3093
857.13	3192
857.263	3211
857.397	3218
857.53	3089
857.664	3135
857.797	3214
857.931	3249
858.064	3157
858.197	3207
858.331	3127
858.464	3058
858.597	3020
858.731	3127
858.864	3157
858.997	3104
859.13	3150
859.263	3188
859.396	3188
859.529	3077
859.662	3070
859.795	3074
859.928	3138
860.061	3283
860.194	3268
860.327	3150
860.46	3100
860.592	3218
860.725	3230
860.858	3253
860.99	3093
861.123	3013
861.256	3066
861.388	3112
861.521	3705
861.653	3043
861.786	3013
861.918	2960
862.05	3062
862.183	3028
862.315	3131
862.447	3192
862.58	3070
862.712	2937
862.844	2880
862.976	3047
863.108	3036
863.24	3405
863.372	2853
863.504	2979
863.636	2952
863.768	3024
863.9	2994
864.032	2914
864.164	2937
864.296	2998
864.428	3108
864.559	3112
864.691	3047
864.823	3043
864.954	3047
865.086	3077
865.217	2998
865.349	2960
865.48	2944
865.612	3013
865.743	3127
865.875	2967
866.006	2952
866.137	2963
866.269	2899
866.4	2960
866.531	2925
866.662	2883
866.793	2895
866.924	2887
867.055	2956
867.186	2944
867.317	2876
867.448	2849
867.579	2796
867.71	2845
867.841	2834
867.972	2925
868.103	2899
868.233	2906
868.364	2838
868.495	2922
868.625	3077
868.756	3131
868.886	2933
869.017	3024
869.147	3165
869.278	3157
869.408	3058
869.539	3005
869.669	3066
869.799	3024
869.929	3142
870.06	3142
870.19	3329
870.32	3279
870.45	3260
870.58	3329
870.71	3458
870.84	3454
870.97	3230
871.1	3237
871.23	3504
871.36	3454
871.489	3351
871.619	3382
871.749	3412
871.879	3416
872.008	3473
872.138	3363
872.267	3313
872.397	3135
872.526	3074
872.656	3036
872.785	3085
872.915	3214
873.044	3340
873.173	3256
873.303	3256
873.432	3226
873.561	3253
873.69	3184
873.819	3142
873.948	3195
874.077	3077
874.206	3032
874.335	3085
874.464	3150
874.593	3336
874.722	3245
874.851	3393
874.979	3355
875.108	3325
875.237	3188
875.365	3169
875.494	3116
875.623	3283
875.751	3077
875.88	3104
876.008	3199
876.136	3222
876.265	3401
876.393	3553
876.521	3389
876.65	3443
876.778	3325
876.906	3233
877.034	3188
877.162	3226
877.29	3154
877.418	3207
877.546	3233
877.674	3226
877.802	3241
877.93	3222
878.058	3165
878.185	3104
878.313	3211
878.441	3214
878.568	3055
878.696	3138
878.824	3230
878.951	3302
879.079	3424
879.206	3610
879.333	3424
879.461	3287
879.588	3340
879.715	3485
879.842	3587
879.97	3416
880.097	3142
880.224	3127
880.351	3199
880.478	3233
880.605	3169
880.732	3135
880.859	3500
880.986	3298
881.112	3306
881.239	3184
881.366	3093
881.493	3055
881.619	2971
881.746	3077
881.872	3104
881.999	3135
882.125	3169
882.252	3230
882.378	3283
882.505	3382
882.631	3287
882.757	3138
882.883	3218
883.01	3192
883.136	3169
883.262	3089
883.388	3097
883.514	3302
883.64	3321
883.766	3302
883.892	3195
884.018	3211
884.143	3397
884.269	3564
884.395	3188
884.52	3173
884.646	3203
884.772	3112
884.897	3108
885.023	3195
885.148	3306
885.274	3401
885.399	3374
885.524	3237
885.65	3298
885.775	3332
885.9	3272
886.025	3458
886.15	3340
886.275	3317
886.4	3245
886.525	3321
886.65	3275
886.775	3287
886.9	3523
887.025	3637
887.149	3416
887.274	3237
887.399	3165
887.523	3188
887.648	3180
887.773	3154
887.897	3355
888.021	3416
888.146	3260
888.27	3420
888.395	3542
888.519	3439
888.643	3435
888.767	3473
888.891	3306
889.015	3199
889.139	3291
889.263	3241
889.387	3386
889.511	3523
889.635	3416
889.759	3279
889.883	3272
890.006	3355
890.13	3488
890.254	3279
890.377	3313
890.501	3211
890.624	3142
890.748	3264
890.871	3154
890.995	3104
891.118	3058
891.241	3195
891.364	3195
891.488	3310
891.611	3169
891.734	3214
891.857	3268
891.98	3237
892.103	3332
892.226	3256
892.349	3180
892.471	3100
892.594	3199
892.717	3275
892.839	3230
892.962	3302
893.085	3329
893.207	3302
893.33	3131
893.452	3218
893.575	3325
893.697	3226
893.819	3466
893.941	3504
894.064	3469
894.186	3249
894.308	3264
894.43	3450
894.552	3515
894.674	3488
894.796	3298
894.918	3321
895.04	3287
895.161	3420
895.283	3382
895.405	3291
895.526	3359
895.648	3405
895.769	3409
895.891	3435
896.012	3458
896.134	3435
896.255	3397
896.376	3370
896.498	3378
896.619	3428
896.74	3374
896.861	3386
896.982	3682
897.103	3838
897.224	3530
897.345	3507
897.466	3397
897.587	3473
897.708	3625
897.828	3549
897.949	3386
898.07	3340
898.19	3428
898.311	3564
898.431	3397
898.552	3485
898.672	3618
898.792	3542
898.913	3477
899.033	3401
899.153	3291
899.273	3230
899.393	3249
899.513	3272
899.633	3306
899.753	3310
899.873	3298
899.993	3397
900.113	3351
900.232	3351
900.352	3340
900.472	3275
900.591	3192
900.711	3249
900.83	3226
900.95	3397
901.069	3488
901.189	3374
901.308	3199
901.427	3089
901.546	3188
901.665	3283
901.784	3336
901.904	3214
902.023	3131
902.141	2986
902.26	3032
902.379	3093
902.498	3097
902.617	3036
902.735	3184
902.854	3222
902.973	3207
903.091	3036
903.21	3089
903.328	3169
903.446	3108
903.565	3055
903.683	3173
903.801	3089
903.919	3253
904.038	3321
904.156	3157
904.274	3283
904.392	3279
904.51	3302
904.627	3340
904.745	3409
904.863	3496
904.981	3275
905.098	3165
905.216	3230
905.334	3302
905.451	3294
905.569	3283
905.686	3424
905.803	3450
905.921	3317
906.038	3431
906.155	3336
906.272	3291
906.389	3321
906.506	3207
906.623	3241
906.74	3222
906.857	3226
906.974	3264
907.091	3462
907.208	3534
907.324	3462
907.441	3370
907.557	3237
907.674	3207
907.79	3199
907.907	3275
908.023	3393
908.139	3336
908.256	3351
908.372	3389
908.488	3359
908.604	3249
908.72	3249
908.836	3321
908.952	3256
909.068	3317
909.184	3469
909.3	3359
909.415	3496
909.531	3443
909.647	3272
909.762	3291
909.878	3294
909.993	3332
910.108	3332
910.224	3332
910.339	3431
910.454	3348
910.57	3272
910.685	3184
910.8	3603
910.915	3530
911.03	3435
911.145	3275
911.259	3253
911.374	3310
911.489	3230
911.604	3245
911.718	3119
911.833	3154
911.947	3043
912.062	2967
912.176	3180
912.291	3214
912.405	3169
912.519	3420
912.633	3458
912.748	3321
912.862	3253
912.976	3214
913.09	3047
913.204	3154
913.318	3230
913.431	3340
913.545	3336
913.659	3370
913.772	3313
913.886	3203
914	3222
914.113	3317
914.226	3428
914.34	3363
914.453	3203
914.566	3420
914.68	3249
914.793	3310
914.906	3142
915.019	3112
915.132	3055
915.245	3165
915.358	3214
915.47	3218
915.583	3279
915.696	3294
915.809	3393
915.921	3435
916.034	3241
916.146	3230
916.259	3230
916.371	3382
916.483	3332
916.595	3321
916.708	3378
916.82	3321
916.932	3336
917.044	3348
917.156	3321
917.268	3268
917.38	3283
917.491	3306
917.603	3329
917.715	3412
917.826	3454
917.938	3348
918.049	3275
918.161	3401
918.272	3587
918.384	3572
918.495	3496
918.606	3329
918.717	3260
918.828	3355
918.939	3363
919.05	3313
919.161	3412
919.272	3214
919.383	3264
919.494	3466
919.604	3709
919.715	3481
919.826	3386
919.936	3458
920.047	3595
920.157	3557
920.267	3736
920.378	3557
920.488	3561
920.598	3770
920.708	3949
920.818	3838
920.928	3823
921.038	4021
921.148	3983
921.258	3717
921.368	3606
921.477	3595
921.587	3542
921.697	3431
921.806	3629
921.916	3511
922.025	3355
922.134	3370
922.244	3317
922.353	3431
922.462	3260
922.571	3226
922.68	3058
922.789	3051
922.898	3146
923.007	3085
923.116	3233
923.224	3127
923.333	3207
923.442	3085
923.55	3058
923.659	3146
923.767	3180
923.876	3112
923.984	3222
924.092	3112
924.201	3173
924.309	3176
924.417	3233
924.525	3176
924.633	3180
924.741	4025
924.849	3039
924.956	3291
925.064	3081
925.172	3047
925.279	3097
925.387	3180
925.494	3192
925.602	3382
925.709	3336
925.816	3184
925.924	3256
926.031	3416
926.138	3336
926.245	3351
926.352	3283
926.459	3389
926.566	3431
926.673	3332
926.779	3306
926.886	3241
926.993	3161
927.099	3161
927.206	3104
927.312	3112
927.419	3249
927.525	3233
927.631	3272
927.737	3131
927.843	3112
927.95	3028
928.056	3138
928.162	3150
928.267	3218
928.373	3888
928.479	3313
928.585	3055
928.69	3237
928.796	3226
928.901	3199
929.007	3020
929.112	3199
929.218	3188
929.323	3154
929.428	3176
929.533	3321
929.638	3093
929.743	3108
929.848	3241
929.953	3214
930.058	3138
930.163	3032
930.267	3058
930.372	3233
930.477	3036
930.581	3336
930.685	3127
930.79	3047
930.894	3131
930.998	3100
931.103	3253
931.207	2937
931.311	2941
931.415	2941
931.519	2769
931.623	2785
