Data from test_V78500241_17.txt Node
Date: Fri Mar 25 16:15:19 CST 2022
User: usil
Spectrometer: V785-0024
Trigger mode: 0
Integration Time (sec): 4.000000E-1
Scans to average: 1
Nonlinearity correction enabled: false
Boxcar width: 0
Storing dark spectrum: false
XAxis mode: Wavelengths
Number of Pixels in Spectrum: 1024
>>>>>Begin Spectral Data<<<<<
801.071	2971
801.214	3013
801.356	2922
801.499	2963
801.641	2948
801.783	3001
801.926	3135
802.068	3001
802.211	3081
802.353	3127
802.496	3020
802.638	3070
802.78	3112
802.923	3131
803.065	3081
803.208	2998
803.35	2998
803.492	3036
803.635	3001
803.777	2815
803.919	2910
804.061	3256
804.204	3001
804.346	2956
804.488	2944
804.63	3085
804.773	2979
804.915	2948
805.057	3169
805.199	2986
805.341	2998
805.483	3100
805.626	3062
805.768	3017
805.91	3157
806.052	3214
806.194	3093
806.336	3306
806.478	3089
806.62	3020
806.762	3047
806.904	3138
807.046	3241
807.188	3051
807.33	2998
807.472	3051
807.614	2994
807.756	3039
807.898	2971
808.04	2971
808.182	3028
808.324	3055
808.465	2937
808.607	2952
808.749	2830
808.891	2902
809.033	3024
809.174	3039
809.316	2971
809.458	2944
809.6	2838
809.741	2811
809.883	2815
810.025	2887
810.166	2925
810.308	2937
810.45	2925
810.591	2853
810.733	2853
810.875	2887
811.016	2830
811.158	2838
811.299	2895
811.441	2948
811.582	2937
811.724	2902
811.865	2918
812.007	2990
812.148	2941
812.29	2933
812.431	2929
812.573	3043
812.714	3013
812.855	3142
812.997	3119
813.138	3195
813.279	3085
813.421	3043
813.562	3005
813.703	2922
813.845	2952
813.986	2834
814.127	2766
814.268	2864
814.41	2906
814.551	2868
814.692	2929
814.833	2845
814.974	2941
815.115	2994
815.256	2864
815.397	2857
815.539	2922
815.68	2830
815.821	2868
815.962	3005
816.103	2998
816.244	2937
816.385	2941
816.526	3036
816.666	2963
816.807	2792
816.948	2986
817.089	2986
817.23	2910
817.371	2796
817.512	2830
817.653	2948
817.793	2872
817.934	2952
818.075	2986
818.216	3043
818.356	3081
818.497	2937
818.638	2868
818.778	2857
818.919	2857
819.06	2842
819.2	2952
819.341	2849
819.481	2838
819.622	3036
819.762	3180
819.903	3081
820.043	2998
820.184	2937
820.324	2944
820.465	3039
820.605	3070
820.746	3112
820.886	2986
821.026	3184
821.167	3249
821.307	3329
821.447	3374
821.588	3249
821.728	3306
821.868	3226
822.008	3157
822.149	3241
822.289	3253
822.429	3165
822.569	3157
822.709	3264
822.849	3104
822.99	3142
823.13	3237
823.27	3253
823.41	3184
823.55	3241
823.69	3214
823.83	3241
823.97	3123
824.11	3074
824.25	3108
824.389	3131
824.529	3146
824.669	3131
824.809	3226
824.949	3317
825.089	3317
825.228	3176
825.368	3077
825.508	3051
825.648	3032
825.787	3089
825.927	3066
826.067	3032
826.206	3020
826.346	3089
826.485	3161
826.625	3169
826.765	3332
826.904	3241
827.044	3043
827.183	2982
827.323	2910
827.462	3066
827.601	2975
827.741	2990
827.88	3009
828.02	2929
828.159	3039
828.298	3036
828.437	3176
828.577	3100
828.716	3298
828.855	3123
828.994	2967
829.134	2941
829.273	2971
829.412	2906
829.551	2891
829.69	2960
829.829	3062
829.968	3173
830.107	3062
830.246	3081
830.385	2994
830.524	2971
830.663	2830
830.802	2788
830.941	2746
831.08	2724
831.219	2800
831.357	2785
831.496	2967
831.635	2800
831.774	2686
831.913	2727
832.051	2571
832.19	2655
832.329	2720
832.467	2606
832.606	2522
832.744	2644
832.883	2610
833.022	2613
833.16	2705
833.299	2720
833.437	2762
833.576	2743
833.714	2754
833.852	2811
833.991	2838
834.129	2891
834.267	2864
834.406	2861
834.544	2922
834.682	2941
834.821	2922
834.959	3146
835.097	2929
835.235	3127
835.373	3039
835.511	3081
835.65	2975
835.788	3036
835.926	2887
836.064	2853
836.202	2872
836.34	3119
836.478	3241
836.615	3127
836.753	3211
836.891	3264
837.029	3211
837.167	3184
837.305	3104
837.443	3116
837.58	3047
837.718	3195
837.856	3157
837.993	3062
838.131	3233
838.269	3150
838.406	3150
838.544	3184
838.681	2994
838.819	2979
838.956	2861
839.094	2872
839.231	2975
839.369	3081
839.506	3431
839.643	3302
839.781	3039
839.918	3081
840.055	3138
840.193	3089
840.33	3127
840.467	3173
840.604	3199
840.742	3458
840.879	3097
841.016	3104
841.153	3195
841.29	3378
841.427	3363
841.564	3348
841.701	3374
841.838	3298
841.975	3241
842.112	3268
842.249	3112
842.385	3119
842.522	3332
842.659	3146
842.796	3104
842.933	3138
843.069	3097
843.206	3146
843.343	3275
843.479	3157
843.616	3195
843.752	2929
843.889	2944
844.025	3138
844.162	2967
844.298	3154
844.435	2986
844.571	3020
844.708	3157
844.844	3222
844.98	3294
845.117	3283
845.253	3085
845.389	3039
845.525	3195
845.661	3150
845.798	3062
845.934	3192
846.07	3093
846.206	3294
846.342	3382
846.478	3313
846.614	3112
846.75	3077
846.886	3062
847.022	3313
847.158	3180
847.294	3249
847.429	3287
847.565	3268
847.701	3549
847.837	3066
847.972	3051
848.108	3173
848.244	3203
848.379	3047
848.515	2979
848.65	3013
848.786	3024
848.921	3070
849.057	3150
849.192	3157
849.328	3127
849.463	3188
849.598	3112
849.734	3119
849.869	3074
850.004	2986
850.14	2994
850.275	2971
850.41	2872
850.545	2937
850.68	2975
850.815	3009
850.95	3024
851.085	3253
851.22	3169
851.355	3108
851.49	3051
851.625	3081
851.76	3108
851.895	2982
852.03	2956
852.165	3085
852.299	3173
852.434	3233
852.569	3165
852.703	3237
852.838	3268
852.973	3363
853.107	3382
853.242	3245
853.376	3157
853.511	3036
853.645	3085
853.78	3268
853.914	3123
854.048	3161
854.183	3142
854.317	3192
854.451	3336
854.585	3150
854.72	3112
854.854	3237
854.988	3131
855.122	3135
855.256	3001
855.39	3180
855.524	3253
855.658	3313
855.792	3184
855.926	3268
856.06	3237
856.194	3310
856.327	3192
856.461	3074
856.595	3150
856.729	3150
856.862	3298
856.996	3211
857.13	3230
857.263	3291
857.397	3340
857.53	3169
857.664	3275
857.797	3291
857.931	3329
858.064	3230
858.197	3302
858.331	3138
858.464	3146
858.597	3032
858.731	3150
858.864	3199
858.997	3142
859.13	3249
859.263	3237
859.396	3260
859.529	3138
859.662	3104
859.795	3089
859.928	3192
860.061	3310
860.194	3393
860.327	3226
860.46	3146
860.592	3264
860.725	3302
860.858	3325
860.99	3154
861.123	3116
861.256	3112
861.388	3184
861.521	3762
861.653	3074
861.786	3051
861.918	3036
862.05	3131
862.183	3142
862.315	3256
862.447	3245
862.58	3142
862.712	2975
862.844	2948
862.976	3093
863.108	3043
863.24	3454
863.372	2906
863.504	3028
863.636	3001
863.768	3074
863.9	3039
864.032	2952
864.164	2967
864.296	3089
864.428	3165
864.559	3157
864.691	3127
864.823	3150
864.954	3077
865.086	3097
865.217	3036
865.349	2979
865.48	2994
865.612	3074
865.743	3230
865.875	3009
866.006	2990
866.137	3039
866.269	2990
866.4	2967
866.531	2994
866.662	2929
866.793	2979
866.924	2956
867.055	3039
867.186	2967
867.317	2967
867.448	2849
867.579	2876
867.71	2906
867.841	2861
867.972	2944
868.103	2944
868.233	2922
868.364	2922
868.495	2944
868.625	3112
868.756	3203
868.886	2998
869.017	3077
869.147	3211
869.278	3199
869.408	3116
869.539	3077
869.669	3138
869.799	3100
869.929	3184
870.06	3131
870.19	3386
870.32	3332
870.45	3348
870.58	3389
870.71	3492
870.84	3473
870.97	3370
871.1	3291
871.23	3572
871.36	3492
871.489	3412
871.619	3458
871.749	3500
871.879	3523
872.008	3538
872.138	3386
872.267	3332
872.397	3188
872.526	3169
872.656	3070
872.785	3104
872.915	3291
873.044	3386
873.173	3287
873.303	3245
873.432	3287
873.561	3272
873.69	3222
873.819	3188
873.948	3260
874.077	3161
874.206	3051
874.335	3108
874.464	3275
874.593	3382
874.722	3264
874.851	3466
874.979	3420
875.108	3351
875.237	3279
875.365	3222
875.494	3203
875.623	3325
875.751	3142
875.88	3203
876.008	3214
876.136	3272
876.265	3435
876.393	3587
876.521	3431
876.65	3431
876.778	3351
876.906	3294
877.034	3245
877.162	3222
877.29	3260
877.418	3306
877.546	3298
877.674	3332
877.802	3298
877.93	3313
878.058	3203
878.185	3161
878.313	3249
878.441	3298
878.568	3104
878.696	3188
878.824	3313
878.951	3393
879.079	3519
879.206	3717
879.333	3492
879.461	3367
879.588	3405
879.715	3542
879.842	3641
879.97	3424
880.097	3207
880.224	3161
880.351	3233
880.478	3298
880.605	3268
880.732	3268
880.859	3530
880.986	3344
881.112	3378
881.239	3264
881.366	3169
881.493	3100
881.619	3081
881.746	3097
881.872	3116
881.999	3119
882.125	3188
882.252	3256
882.378	3332
882.505	3469
882.631	3340
882.757	3192
882.883	3253
883.01	3256
883.136	3207
883.262	3157
883.388	3154
883.514	3351
883.64	3416
883.766	3363
883.892	3256
884.018	3245
884.143	3458
884.269	3564
884.395	3268
884.52	3195
884.646	3249
884.772	3123
884.897	3180
885.023	3279
885.148	3370
885.274	3507
885.399	3420
885.524	3351
885.65	3325
885.775	3409
885.9	3321
886.025	3488
886.15	3424
886.275	3325
886.4	3313
886.525	3340
886.65	3355
886.775	3294
886.9	3557
887.025	3705
887.149	3466
887.274	3283
887.399	3237
887.523	3237
887.648	3211
887.773	3241
887.897	3416
888.021	3450
888.146	3340
888.27	3450
888.395	3606
888.519	3477
888.643	3500
888.767	3564
888.891	3363
889.015	3287
889.139	3378
889.263	3313
889.387	3405
889.511	3572
889.635	3485
889.759	3336
889.883	3336
890.006	3454
890.13	3515
890.254	3336
890.377	3416
890.501	3279
890.624	3207
890.748	3351
890.871	3249
890.995	3135
891.118	3085
891.241	3253
891.364	3272
891.488	3363
891.611	3237
891.734	3275
891.857	3348
891.98	3298
892.103	3397
892.226	3310
892.349	3298
892.471	3165
892.594	3306
892.717	3275
892.839	3291
892.962	3325
893.085	3435
893.207	3355
893.33	3188
893.452	3245
893.575	3409
893.697	3264
893.819	3568
893.941	3572
894.064	3515
894.186	3302
894.308	3313
894.43	3454
894.552	3584
894.674	3523
894.796	3348
894.918	3329
895.04	3348
895.161	3443
895.283	3447
895.405	3416
895.526	3412
895.648	3488
895.769	3526
895.891	3488
896.012	3519
896.134	3542
896.255	3481
896.376	3420
896.498	3401
896.619	3488
896.74	3420
896.861	3447
896.982	3740
897.103	3918
897.224	3637
897.345	3606
897.466	3504
897.587	3549
897.708	3686
897.828	3606
897.949	3519
898.07	3389
898.19	3431
898.311	3641
898.431	3530
898.552	3545
898.672	3633
898.792	3633
898.913	3580
899.033	3496
899.153	3382
899.273	3264
899.393	3310
899.513	3363
899.633	3370
899.753	3351
899.873	3367
899.993	3416
900.113	3378
900.232	3450
900.352	3405
900.472	3351
900.591	3272
900.711	3348
900.83	3279
900.95	3435
901.069	3488
901.189	3420
901.308	3233
901.427	3199
901.546	3249
901.665	3389
901.784	3393
901.904	3272
902.023	3226
902.141	3074
902.26	3066
902.379	3188
902.498	3135
902.617	3100
902.735	3253
902.854	3275
902.973	3264
903.091	3104
903.21	3108
903.328	3214
903.446	3157
903.565	3184
903.683	3230
903.801	3180
903.919	3348
904.038	3355
904.156	3245
904.274	3344
904.392	3336
904.51	3370
904.627	3397
904.745	3477
904.863	3557
904.981	3306
905.098	3222
905.216	3287
905.334	3378
905.451	3386
905.569	3348
905.686	3466
905.803	3523
905.921	3317
906.038	3515
906.155	3409
906.272	3367
906.389	3355
906.506	3272
906.623	3321
906.74	3340
906.857	3272
906.974	3348
907.091	3477
907.208	3622
907.324	3557
907.441	3420
907.557	3332
907.674	3317
907.79	3256
907.907	3336
908.023	3431
908.139	3466
908.256	3374
908.372	3447
908.488	3462
908.604	3317
908.72	3294
908.836	3336
908.952	3294
909.068	3428
909.184	3568
909.3	3469
909.415	3591
909.531	3530
909.647	3363
909.762	3348
909.878	3340
909.993	3355
910.108	3409
910.224	3386
910.339	3428
910.454	3370
910.57	3351
910.685	3306
910.8	3610
910.915	3591
911.03	3488
911.145	3348
911.259	3355
911.374	3363
911.489	3272
911.604	3272
911.718	3184
911.833	3199
911.947	3055
912.062	3024
912.176	3218
912.291	3245
912.405	3264
912.519	3462
912.633	3504
912.748	3374
912.862	3378
912.976	3222
913.09	3119
913.204	3192
913.318	3279
913.431	3386
913.545	3428
913.659	3435
913.772	3382
913.886	3279
914	3230
914.113	3386
914.226	3496
914.34	3416
914.453	3241
914.566	3462
914.68	3340
914.793	3382
914.906	3169
915.019	3142
915.132	3123
915.245	3233
915.358	3218
915.47	3249
915.583	3302
915.696	3306
915.809	3454
915.921	3481
916.034	3321
916.146	3298
916.259	3249
916.371	3435
916.483	3409
916.595	3317
916.708	3397
916.82	3412
916.932	3431
917.044	3393
917.156	3412
917.268	3332
917.38	3302
917.491	3336
917.603	3424
917.715	3488
917.826	3462
917.938	3428
918.049	3321
918.161	3473
918.272	3618
918.384	3618
918.495	3534
918.606	3397
918.717	3340
918.828	3416
918.939	3481
919.05	3317
919.161	3424
919.272	3241
919.383	3348
919.494	3603
919.604	3759
919.715	3564
919.826	3454
919.936	3500
920.047	3622
920.157	3610
920.267	3766
920.378	3679
920.488	3637
920.598	3846
920.708	3983
920.818	3899
920.928	3911
921.038	4071
921.148	4071
921.258	3755
921.368	3728
921.477	3656
921.587	3610
921.697	3496
921.806	3698
921.916	3595
922.025	3397
922.134	3450
922.244	3363
922.353	3462
922.462	3329
922.571	3287
922.68	3176
922.789	3127
922.898	3150
923.007	3180
923.116	3264
923.224	3245
923.333	3230
923.442	3138
923.55	3142
923.659	3176
923.767	3241
923.876	3161
923.984	3294
924.092	3180
924.201	3275
924.309	3283
924.417	3298
924.525	3264
924.633	3298
924.741	4249
924.849	3112
924.956	3332
925.064	3157
925.172	3081
925.279	3150
925.387	3279
925.494	3218
925.602	3405
925.709	3378
925.816	3233
925.924	3336
926.031	3447
926.138	3401
926.245	3454
926.352	3283
926.459	3462
926.566	3534
926.673	3348
926.779	3351
926.886	3264
926.993	3230
927.099	3226
927.206	3173
927.312	3154
927.419	3268
927.525	3272
927.631	3340
927.737	3218
927.843	3146
927.95	3036
928.056	3188
928.162	3233
928.267	3310
928.373	3812
928.479	3351
928.585	3123
928.69	3272
928.796	3359
928.901	3237
929.007	3089
929.112	3287
929.218	3264
929.323	3222
929.428	3192
929.533	3348
929.638	3173
929.743	3230
929.848	3332
929.953	3275
930.058	3211
930.163	3020
930.267	3097
930.372	3241
930.477	3081
930.581	3378
930.685	3222
930.79	3127
930.894	3165
930.998	3119
931.103	3306
931.207	3024
931.311	3005
931.415	2967
931.519	2796
931.623	2842
