Data from test_V78500241_1388.txt Node
Date: Fri Mar 25 16:24:49 CST 2022
User: usil
Spectrometer: V785-0024
Trigger mode: 0
Integration Time (sec): 4.000000E-1
Scans to average: 1
Nonlinearity correction enabled: false
Boxcar width: 0
Storing dark spectrum: false
XAxis mode: Wavelengths
Number of Pixels in Spectrum: 1024
>>>>>Begin Spectral Data<<<<<
801.071	2922
801.214	2967
801.356	2876
801.499	2887
801.641	2853
801.783	2967
801.926	3070
802.068	2990
802.211	2956
802.353	3039
802.496	2979
802.638	3036
802.78	3039
802.923	3112
803.065	3017
803.208	2922
803.35	2956
803.492	2960
803.635	2922
803.777	2750
803.919	2857
804.061	3180
804.204	2975
804.346	2891
804.488	2864
804.63	3024
804.773	2891
804.915	2952
805.057	3112
805.199	2929
805.341	2990
805.483	3020
805.626	3001
805.768	2937
805.91	3119
806.052	3108
806.194	3074
806.336	3226
806.478	3047
806.62	2929
806.762	2967
806.904	3047
807.046	3146
807.188	2979
807.33	2902
807.472	2986
807.614	2910
807.756	2979
807.898	2899
808.04	2906
808.182	2941
808.324	2925
808.465	2891
808.607	2899
808.749	2781
808.891	2849
809.033	2960
809.174	2986
809.316	2910
809.458	2895
809.6	2766
809.741	2769
809.883	2796
810.025	2834
810.166	2823
810.308	2830
810.45	2880
810.591	2773
810.733	2781
810.875	2830
811.016	2769
811.158	2766
811.299	2830
811.441	2902
811.582	2925
811.724	2823
811.865	2796
812.007	2899
812.148	2864
812.29	2853
812.431	2914
812.573	2922
812.714	2956
812.855	3055
812.997	3036
813.138	3093
813.279	3020
813.421	2979
813.562	2967
813.703	2876
813.845	2883
813.986	2766
814.127	2735
814.268	2823
814.41	2842
814.551	2819
814.692	2880
814.833	2811
814.974	2868
815.115	2990
815.256	2864
815.397	2796
815.539	2883
815.68	2762
815.821	2777
815.962	2933
816.103	2880
816.244	2868
816.385	2849
816.526	2960
816.666	2906
816.807	2720
816.948	2895
817.089	2872
817.23	2834
817.371	2773
817.512	2811
817.653	2834
817.793	2766
817.934	2880
818.075	2975
818.216	2994
818.356	3028
818.497	2872
818.638	2815
818.778	2815
818.919	2777
819.06	2792
819.2	2868
819.341	2815
819.481	2773
819.622	2899
819.762	3085
819.903	3036
820.043	2906
820.184	2925
820.324	2902
820.465	3036
820.605	3032
820.746	3028
820.886	2906
821.026	3058
821.167	3199
821.307	3272
821.447	3321
821.588	3233
821.728	3199
821.868	3203
822.008	3104
822.149	3203
822.289	3287
822.429	3116
822.569	3135
822.709	3249
822.849	3047
822.99	3058
823.13	3192
823.27	3195
823.41	3119
823.55	3150
823.69	3192
823.83	3245
823.97	3127
824.11	3074
824.25	3013
824.389	3089
824.529	3146
824.669	3123
824.809	3241
824.949	3310
825.089	3222
825.228	3165
825.368	3047
825.508	2982
825.648	3020
825.787	3032
825.927	3074
826.067	3001
826.206	2994
826.346	3074
826.485	3119
826.625	3123
826.765	3336
826.904	3256
827.044	3039
827.183	2990
827.323	2876
827.462	2990
827.601	2990
827.741	2979
827.88	2948
828.02	2876
828.159	3032
828.298	3081
828.437	3146
828.577	3062
828.716	3268
828.855	3116
828.994	2971
829.134	2925
829.273	2971
829.412	2925
829.551	2868
829.69	2971
829.829	3055
829.968	3116
830.107	3058
830.246	3085
830.385	2910
830.524	2922
830.663	2838
830.802	2766
830.941	2686
831.08	2674
831.219	2781
831.357	2830
831.496	3005
831.635	2746
831.774	2659
831.913	2697
832.051	2602
832.19	2617
832.329	2727
832.467	2575
832.606	2522
832.744	2613
832.883	2640
833.022	2659
833.16	2674
833.299	2724
833.437	2724
833.576	2773
833.714	2785
833.852	2758
833.991	2830
834.129	2819
834.267	2864
834.406	2807
834.544	2902
834.682	2914
834.821	2918
834.959	3104
835.097	2925
835.235	3108
835.373	3070
835.511	3047
835.65	2982
835.788	2982
835.926	2883
836.064	2842
836.202	2910
836.34	3104
836.478	3218
836.615	3070
836.753	3180
836.891	3249
837.029	3165
837.167	3154
837.305	3112
837.443	3077
837.58	2963
837.718	3180
837.856	3104
837.993	3055
838.131	3146
838.269	3161
838.406	3108
838.544	3135
838.681	2971
838.819	2952
838.956	2849
839.094	2906
839.231	2925
839.369	3043
839.506	3397
839.643	3268
839.781	3001
839.918	3005
840.055	3039
840.193	3093
840.33	3100
840.467	3135
840.604	3150
840.742	3443
840.879	3097
841.016	3070
841.153	3108
841.29	3370
841.427	3283
841.564	3317
841.701	3340
841.838	3230
841.975	3195
842.112	3214
842.249	3100
842.385	3058
842.522	3287
842.659	3142
842.796	3070
842.933	3165
843.069	3074
843.206	3047
843.343	3226
843.479	3150
843.616	3154
843.752	2918
843.889	2868
844.025	3116
844.162	2902
844.298	3116
844.435	2952
844.571	2941
844.708	3093
844.844	3222
844.98	3256
845.117	3214
845.253	3085
845.389	3051
845.525	3131
845.661	3127
845.798	3020
845.934	3131
846.07	3100
846.206	3264
846.342	3329
846.478	3237
846.614	3108
846.75	3077
846.886	3058
847.022	3253
847.158	3142
847.294	3214
847.429	3287
847.565	3214
847.701	3507
847.837	3089
847.972	3009
848.108	3176
848.244	3176
848.379	2998
848.515	2994
848.65	2971
848.786	3017
848.921	3032
849.057	3116
849.192	3146
849.328	3070
849.463	3142
849.598	3127
849.734	3081
849.869	2994
850.004	2929
850.14	3024
850.275	2918
850.41	2891
850.545	2899
850.68	2963
850.815	2986
850.95	2971
851.085	3192
851.22	3127
851.355	3047
851.49	2990
851.625	3039
851.76	3039
851.895	2952
852.03	2941
852.165	3051
852.299	3157
852.434	3173
852.569	3154
852.703	3142
852.838	3256
852.973	3355
853.107	3363
853.242	3161
853.376	3116
853.511	3009
853.645	3043
853.78	3218
853.914	3161
854.048	3150
854.183	3089
854.317	3169
854.451	3317
854.585	3165
854.72	3119
854.854	3218
854.988	3062
855.122	3093
855.256	2982
855.39	3188
855.524	3306
855.658	3192
855.792	3154
855.926	3218
856.06	3245
856.194	3275
856.327	3150
856.461	3093
856.595	3097
856.729	3127
856.862	3260
856.996	3135
857.13	3207
857.263	3283
857.397	3287
857.53	3138
857.664	3195
857.797	3249
857.931	3298
858.064	3161
858.197	3226
858.331	3119
858.464	3108
858.597	3043
858.731	3093
858.864	3150
858.997	3112
859.13	3135
859.263	3176
859.396	3233
859.529	3131
859.662	3093
859.795	3066
859.928	3207
860.061	3313
860.194	3264
860.327	3157
860.46	3104
860.592	3230
860.725	3249
860.858	3233
860.99	3127
861.123	3074
861.256	3043
861.388	3211
861.521	3781
861.653	3020
861.786	3020
861.918	3043
862.05	3093
862.183	3085
862.315	3157
862.447	3256
862.58	3112
862.712	2990
862.844	2887
862.976	3077
863.108	3066
863.24	3329
863.372	2922
863.504	2975
863.636	2986
863.768	3036
863.9	3005
864.032	2902
864.164	2925
864.296	3005
864.428	3135
864.559	3127
864.691	3100
864.823	3093
864.954	3062
865.086	3070
865.217	3009
865.349	2941
865.48	3020
865.612	3043
865.743	3157
865.875	3017
866.006	2937
866.137	2975
866.269	2963
866.4	2933
866.531	2956
866.662	2925
866.793	2918
866.924	2922
867.055	2990
867.186	2963
867.317	2883
867.448	2834
867.579	2880
867.71	2838
867.841	2857
867.972	2918
868.103	2925
868.233	2929
868.364	2906
868.495	2899
868.625	3089
868.756	3192
868.886	2967
869.017	3055
869.147	3214
869.278	3192
869.408	3051
869.539	3058
869.669	3123
869.799	3104
869.929	3176
870.06	3138
870.19	3321
870.32	3291
870.45	3313
870.58	3416
870.71	3447
870.84	3428
870.97	3321
871.1	3233
871.23	3488
871.36	3488
871.489	3359
871.619	3424
871.749	3412
871.879	3431
872.008	3500
872.138	3386
872.267	3275
872.397	3161
872.526	3131
872.656	2998
872.785	3108
872.915	3245
873.044	3332
873.173	3249
873.303	3222
873.432	3260
873.561	3245
873.69	3161
873.819	3192
873.948	3226
874.077	3108
874.206	3070
874.335	3081
874.464	3184
874.593	3374
874.722	3264
874.851	3420
874.979	3359
875.108	3306
875.237	3241
875.365	3157
875.494	3173
875.623	3245
875.751	3100
875.88	3142
876.008	3218
876.136	3264
876.265	3378
876.393	3488
876.521	3382
876.65	3397
876.778	3359
876.906	3264
877.034	3211
877.162	3260
877.29	3214
877.418	3279
877.546	3256
877.674	3260
877.802	3283
877.93	3230
878.058	3138
878.185	3127
878.313	3218
878.441	3188
878.568	3074
878.696	3157
878.824	3237
878.951	3332
879.079	3492
879.206	3622
879.333	3481
879.461	3325
879.588	3374
879.715	3485
879.842	3595
879.97	3409
880.097	3203
880.224	3142
880.351	3233
880.478	3222
880.605	3173
880.732	3214
880.859	3526
880.986	3313
881.112	3355
881.239	3184
881.366	3119
881.493	3001
881.619	3043
881.746	3097
881.872	3112
881.999	3131
882.125	3131
882.252	3241
882.378	3302
882.505	3428
882.631	3298
882.757	3142
882.883	3233
883.01	3264
883.136	3207
883.262	3093
883.388	3093
883.514	3344
883.64	3378
883.766	3306
883.892	3165
884.018	3241
884.143	3466
884.269	3542
884.395	3230
884.52	3169
884.646	3180
884.772	3097
884.897	3119
885.023	3211
885.148	3340
885.274	3458
885.399	3370
885.524	3291
885.65	3253
885.775	3332
885.9	3260
886.025	3443
886.15	3348
886.275	3287
886.4	3283
886.525	3294
886.65	3313
886.775	3287
886.9	3519
887.025	3625
887.149	3405
887.274	3268
887.399	3192
887.523	3226
887.648	3211
887.773	3237
887.897	3363
888.021	3397
888.146	3321
888.27	3439
888.395	3564
888.519	3485
888.643	3450
888.767	3507
888.891	3294
889.015	3283
889.139	3317
889.263	3253
889.387	3401
889.511	3485
889.635	3466
889.759	3332
889.883	3313
890.006	3382
890.13	3488
890.254	3287
890.377	3370
890.501	3226
890.624	3142
890.748	3310
890.871	3199
890.995	3077
891.118	3039
891.241	3214
891.364	3233
891.488	3329
891.611	3188
891.734	3294
891.857	3287
891.98	3260
892.103	3367
892.226	3256
892.349	3230
892.471	3112
892.594	3237
892.717	3317
892.839	3256
892.962	3317
893.085	3340
893.207	3287
893.33	3165
893.452	3214
893.575	3378
893.697	3287
893.819	3462
893.941	3534
894.064	3469
894.186	3272
894.308	3275
894.43	3431
894.552	3538
894.674	3485
894.796	3260
894.918	3321
895.04	3272
895.161	3397
895.283	3393
895.405	3256
895.526	3348
895.648	3428
895.769	3431
895.891	3458
896.012	3443
896.134	3466
896.255	3443
896.376	3405
896.498	3382
896.619	3443
896.74	3374
896.861	3389
896.982	3717
897.103	3827
897.224	3591
897.345	3538
897.466	3443
897.587	3511
897.708	3652
897.828	3549
897.949	3454
898.07	3275
898.19	3409
898.311	3603
898.431	3481
898.552	3530
898.672	3572
898.792	3606
898.913	3511
899.033	3409
899.153	3321
899.273	3230
899.393	3310
899.513	3329
899.633	3306
899.753	3367
899.873	3313
899.993	3389
900.113	3336
900.232	3367
900.352	3363
900.472	3287
900.591	3218
900.711	3321
900.83	3272
900.95	3443
901.069	3504
901.189	3329
901.308	3192
901.427	3138
901.546	3199
901.665	3321
901.784	3363
901.904	3222
902.023	3135
902.141	3013
902.26	2952
902.379	3123
902.498	3085
902.617	3036
902.735	3188
902.854	3230
902.973	3176
903.091	3070
903.21	3074
903.328	3112
903.446	3097
903.565	3104
903.683	3150
903.801	3123
903.919	3241
904.038	3310
904.156	3135
904.274	3306
904.392	3233
904.51	3317
904.627	3340
904.745	3443
904.863	3477
904.981	3256
905.098	3169
905.216	3222
905.334	3332
905.451	3272
905.569	3294
905.686	3378
905.803	3458
905.921	3317
906.038	3428
906.155	3370
906.272	3275
906.389	3306
906.506	3253
906.623	3253
906.74	3264
906.857	3203
906.974	3249
907.091	3466
907.208	3538
907.324	3485
907.441	3405
907.557	3222
907.674	3256
907.79	3207
907.907	3310
908.023	3389
908.139	3382
908.256	3306
908.372	3428
908.488	3306
908.604	3272
908.72	3260
908.836	3294
908.952	3275
909.068	3313
909.184	3500
909.3	3397
909.415	3488
909.531	3500
909.647	3230
909.762	3298
909.878	3256
909.993	3367
910.108	3348
910.224	3348
910.339	3389
910.454	3306
910.57	3317
910.685	3237
910.8	3545
910.915	3542
911.03	3401
911.145	3272
911.259	3253
911.374	3317
911.489	3272
911.604	3249
911.718	3116
911.833	3142
911.947	3055
912.062	2979
912.176	3157
912.291	3207
912.405	3226
912.519	3412
912.633	3485
912.748	3355
912.862	3264
912.976	3169
913.09	3100
913.204	3138
913.318	3199
913.431	3291
913.545	3317
913.659	3412
913.772	3348
913.886	3249
914	3218
914.113	3367
914.226	3405
914.34	3386
914.453	3233
914.566	3401
914.68	3294
914.793	3275
914.906	3165
915.019	3097
915.132	3081
915.245	3150
915.358	3195
915.47	3245
915.583	3233
915.696	3313
915.809	3428
915.921	3435
916.034	3260
916.146	3256
916.259	3188
916.371	3355
916.483	3378
916.595	3245
916.708	3332
916.82	3340
916.932	3313
917.044	3348
917.156	3332
917.268	3230
917.38	3283
917.491	3313
917.603	3393
917.715	3416
917.826	3469
917.938	3378
918.049	3279
918.161	3435
918.272	3580
918.384	3587
918.495	3485
918.606	3321
918.717	3310
918.828	3370
918.939	3416
919.05	3283
919.161	3359
919.272	3203
919.383	3275
919.494	3496
919.604	3694
919.715	3500
919.826	3428
919.936	3416
920.047	3606
920.157	3587
920.267	3751
920.378	3549
920.488	3549
920.598	3743
920.708	3991
920.818	3823
920.928	3823
921.038	4059
921.148	3968
921.258	3717
921.368	3610
921.477	3614
921.587	3542
921.697	3462
921.806	3671
921.916	3485
922.025	3325
922.134	3348
922.244	3317
922.353	3386
922.462	3249
922.571	3241
922.68	3135
922.789	3043
922.898	3123
923.007	3108
923.116	3207
923.224	3188
923.333	3176
923.442	3104
923.55	3104
923.659	3131
923.767	3195
923.876	3119
923.984	3226
924.092	3077
924.201	3169
924.309	3211
924.417	3233
924.525	3195
924.633	3230
924.741	4044
924.849	3062
924.956	3272
925.064	3097
925.172	3028
925.279	3074
925.387	3135
925.494	3203
925.602	3336
925.709	3317
925.816	3188
925.924	3272
926.031	3348
926.138	3306
926.245	3386
926.352	3272
926.459	3401
926.566	3477
926.673	3340
926.779	3249
926.886	3256
926.993	3157
927.099	3119
927.206	3135
927.312	3108
927.419	3207
927.525	3192
927.631	3279
927.737	3138
927.843	3138
927.95	3032
928.056	3146
928.162	3173
928.267	3279
928.373	3876
928.479	3306
928.585	3043
928.69	3192
928.796	3268
928.901	3199
929.007	3077
929.112	3199
929.218	3218
929.323	3123
929.428	3161
929.533	3325
929.638	3135
929.743	3154
929.848	3291
929.953	3192
930.058	3154
930.163	3013
930.267	3039
930.372	3237
930.477	3020
930.581	3329
930.685	3195
930.79	3058
930.894	3108
930.998	3058
931.103	3283
931.207	2948
931.311	2948
931.415	2899
931.519	2766
931.623	2826
