Data from test_V78500241_390.txt Node
Date: Fri Mar 25 16:17:54 CST 2022
User: usil
Spectrometer: V785-0024
Trigger mode: 0
Integration Time (sec): 4.000000E-1
Scans to average: 1
Nonlinearity correction enabled: false
Boxcar width: 0
Storing dark spectrum: false
XAxis mode: Wavelengths
Number of Pixels in Spectrum: 1024
>>>>>Begin Spectral Data<<<<<
801.071	2918
801.214	2944
801.356	2853
801.499	2883
801.641	2864
801.783	2933
801.926	3058
802.068	2967
802.211	2979
802.353	3051
802.496	3005
802.638	3020
802.78	3047
802.923	3066
803.065	2982
803.208	2914
803.35	2925
803.492	2933
803.635	2925
803.777	2773
803.919	2845
804.061	3184
804.204	2948
804.346	2906
804.488	2868
804.63	2994
804.773	2876
804.915	2925
805.057	3123
805.199	2925
805.341	2975
805.483	3081
805.626	3009
805.768	2967
805.91	3089
806.052	3119
806.194	3024
806.336	3241
806.478	2986
806.62	2952
806.762	2975
806.904	3043
807.046	3195
807.188	2971
807.33	2929
807.472	2998
807.614	2880
807.756	2998
807.898	2952
808.04	2937
808.182	2986
808.324	2967
808.465	2899
808.607	2861
808.749	2796
808.891	2861
809.033	3001
809.174	2937
809.316	2887
809.458	2887
809.6	2746
809.741	2800
809.883	2800
810.025	2868
810.166	2857
810.308	2868
810.45	2876
810.591	2811
810.733	2754
810.875	2819
811.016	2766
811.158	2766
811.299	2762
811.441	2933
811.582	2902
811.724	2826
811.865	2857
812.007	2925
812.148	2842
812.29	2823
812.431	2876
812.573	2933
812.714	2975
812.855	3039
812.997	3089
813.138	3127
813.279	3017
813.421	2998
813.562	2944
813.703	2891
813.845	2910
813.986	2777
814.127	2792
814.268	2815
814.41	2845
814.551	2826
814.692	2887
814.833	2823
814.974	2880
815.115	2948
815.256	2838
815.397	2845
815.539	2845
815.68	2807
815.821	2777
815.962	2918
816.103	2933
816.244	2861
816.385	2876
816.526	2971
816.666	2967
816.807	2746
816.948	2895
817.089	2918
817.23	2842
817.371	2800
817.512	2842
817.653	2823
817.793	2838
817.934	2872
818.075	2944
818.216	2971
818.356	3043
818.497	2887
818.638	2811
818.778	2819
818.919	2800
819.06	2762
819.2	2853
819.341	2796
819.481	2815
819.622	2960
819.762	3081
819.903	3036
820.043	2914
820.184	2925
820.324	2891
820.465	3001
820.605	3005
820.746	3017
820.886	2933
821.026	3123
821.167	3119
821.307	3253
821.447	3298
821.588	3226
821.728	3184
821.868	3192
822.008	3100
822.149	3188
822.289	3268
822.429	3077
822.569	3093
822.709	3188
822.849	2998
822.99	3089
823.13	3142
823.27	3180
823.41	3112
823.55	3138
823.69	3157
823.83	3173
823.97	3108
824.11	3005
824.25	2998
824.389	3089
824.529	3100
824.669	3024
824.809	3207
824.949	3226
825.089	3222
825.228	3176
825.368	2986
825.508	2944
825.648	2960
825.787	3055
825.927	2998
826.067	2963
826.206	2937
826.346	3039
826.485	3020
826.625	3089
826.765	3222
826.904	3222
827.044	2986
827.183	2922
827.323	2876
827.462	2990
827.601	2929
827.741	2933
827.88	2967
828.02	2845
828.159	2990
828.298	3005
828.437	3097
828.577	3020
828.716	3241
828.855	3108
828.994	2887
829.134	2861
829.273	2914
829.412	2838
829.551	2891
829.69	2887
829.829	2967
829.968	3089
830.107	3024
830.246	3005
830.385	2918
830.524	2868
830.663	2826
830.802	2735
830.941	2644
831.08	2644
831.219	2785
831.357	2769
831.496	2952
831.635	2720
831.774	2640
831.913	2625
832.051	2568
832.19	2579
832.329	2667
832.467	2526
832.606	2465
832.744	2579
832.883	2590
833.022	2590
833.16	2625
833.299	2705
833.437	2674
833.576	2701
833.714	2716
833.852	2731
833.991	2777
834.129	2807
834.267	2823
834.406	2834
834.544	2845
834.682	2864
834.821	2872
834.959	3047
835.097	2914
835.235	3047
835.373	2975
835.511	3024
835.65	2956
835.788	2963
835.926	2849
836.064	2815
836.202	2857
836.34	3100
836.478	3138
836.615	3055
836.753	3100
836.891	3199
837.029	3173
837.167	3119
837.305	3062
837.443	3017
837.58	2937
837.718	3146
837.856	3077
837.993	3020
838.131	3100
838.269	3093
838.406	3104
838.544	3066
838.681	2933
838.819	2952
838.956	2811
839.094	2815
839.231	2906
839.369	2994
839.506	3344
839.643	3222
839.781	3017
839.918	2956
840.055	3051
840.193	3085
840.33	3039
840.467	3097
840.604	3154
840.742	3401
840.879	3024
841.016	3047
841.153	3074
841.29	3317
841.427	3275
841.564	3260
841.701	3310
841.838	3249
841.975	3192
842.112	3199
842.249	3047
842.385	3009
842.522	3264
842.659	3127
842.796	3058
842.933	3123
843.069	3017
843.206	3051
843.343	3195
843.479	3123
843.616	3142
843.752	2899
843.889	2895
844.025	3112
844.162	2864
844.298	3104
844.435	2937
844.571	2948
844.708	3074
844.844	3211
844.98	3218
845.117	3195
845.253	3043
845.389	3017
845.525	3081
845.661	3089
845.798	3009
845.934	3100
846.07	3074
846.206	3230
846.342	3313
846.478	3241
846.614	3062
846.75	3047
846.886	3036
847.022	3256
847.158	3165
847.294	3207
847.429	3275
847.565	3165
847.701	3477
847.837	3043
847.972	3005
848.108	3142
848.244	3146
848.379	2986
848.515	2952
848.65	2922
848.786	2941
848.921	3005
849.057	3131
849.192	3123
849.328	3039
849.463	3093
849.598	3066
849.734	3070
849.869	2979
850.004	2891
850.14	2975
850.275	2918
850.41	2845
850.545	2887
850.68	2929
850.815	2963
850.95	2971
851.085	3169
851.22	3100
851.355	3024
851.49	2933
851.625	2990
851.76	3028
851.895	2933
852.03	2891
852.165	3036
852.299	3104
852.434	3161
852.569	3127
852.703	3169
852.838	3222
852.973	3325
853.107	3321
853.242	3173
853.376	3089
853.511	2971
853.645	3032
853.78	3245
853.914	3119
854.048	3142
854.183	3089
854.317	3154
854.451	3279
854.585	3116
854.72	3043
854.854	3214
854.988	3074
855.122	3100
855.256	2979
855.39	3131
855.524	3230
855.658	3173
855.792	3146
855.926	3207
856.06	3188
856.194	3237
856.327	3165
856.461	3043
856.595	3039
856.729	3112
856.862	3237
856.996	3180
857.13	3203
857.263	3237
857.397	3260
857.53	3108
857.664	3165
857.797	3199
857.931	3253
858.064	3157
858.197	3214
858.331	3119
858.464	3104
858.597	2975
858.731	3100
858.864	3154
858.997	3077
859.13	3157
859.263	3154
859.396	3180
859.529	3047
859.662	3070
859.795	3051
859.928	3127
860.061	3298
860.194	3279
860.327	3154
860.46	3070
860.592	3222
860.725	3214
860.858	3260
860.99	3116
861.123	3051
861.256	3051
861.388	3157
861.521	3827
861.653	3009
861.786	3024
861.918	2986
862.05	3074
862.183	3081
862.315	3157
862.447	3211
862.58	3100
862.712	2902
862.844	2902
862.976	3020
863.108	2990
863.24	3412
863.372	2880
863.504	2925
863.636	2937
863.768	2998
863.9	2994
864.032	2887
864.164	2914
864.296	3013
864.428	3081
864.559	3135
864.691	3081
864.823	3039
864.954	3058
865.086	3047
865.217	2960
865.349	2952
865.48	3005
865.612	2994
865.743	3161
865.875	3017
866.006	2929
866.137	2986
866.269	2948
866.4	2895
866.531	2910
866.662	2883
866.793	2861
866.924	2895
867.055	2960
867.186	2937
867.317	2887
867.448	2826
867.579	2880
867.71	2864
867.841	2838
867.972	2902
868.103	2918
868.233	2876
868.364	2872
868.495	2906
868.625	3112
868.756	3184
868.886	2956
869.017	3013
869.147	3161
869.278	3161
869.408	3024
869.539	3017
869.669	3074
869.799	3028
869.929	3097
870.06	3070
870.19	3325
870.32	3214
870.45	3287
870.58	3367
870.71	3435
870.84	3416
870.97	3321
871.1	3245
871.23	3469
871.36	3428
871.489	3351
871.619	3424
871.749	3370
871.879	3424
872.008	3469
872.138	3329
872.267	3291
872.397	3131
872.526	3089
872.656	3017
872.785	3077
872.915	3249
873.044	3291
873.173	3222
873.303	3249
873.432	3241
873.561	3226
873.69	3119
873.819	3154
873.948	3199
874.077	3077
874.206	3047
874.335	3085
874.464	3233
874.593	3351
874.722	3233
874.851	3405
874.979	3321
875.108	3298
875.237	3169
875.365	3195
875.494	3138
875.623	3245
875.751	3077
875.88	3077
876.008	3173
876.136	3199
876.265	3348
876.393	3515
876.521	3393
876.65	3401
876.778	3325
876.906	3253
877.034	3211
877.162	3218
877.29	3249
877.418	3230
877.546	3260
877.674	3237
877.802	3272
877.93	3199
878.058	3161
878.185	3112
878.313	3222
878.441	3192
878.568	3039
878.696	3176
878.824	3253
878.951	3294
879.079	3439
879.206	3606
879.333	3420
879.461	3329
879.588	3344
879.715	3492
879.842	3610
879.97	3424
880.097	3146
880.224	3123
880.351	3222
880.478	3176
880.605	3150
880.732	3203
880.859	3492
880.986	3321
881.112	3313
881.239	3199
881.366	3074
881.493	3005
881.619	3001
881.746	3100
881.872	3100
881.999	3093
882.125	3135
882.252	3226
882.378	3313
882.505	3439
882.631	3260
882.757	3176
882.883	3195
883.01	3230
883.136	3142
883.262	3097
883.388	3097
883.514	3321
883.64	3367
883.766	3291
883.892	3192
884.018	3218
884.143	3424
884.269	3530
884.395	3199
884.52	3184
884.646	3184
884.772	3066
884.897	3127
885.023	3233
885.148	3336
885.274	3443
885.399	3370
885.524	3294
885.65	3211
885.775	3310
885.9	3249
886.025	3416
886.15	3389
886.275	3264
886.4	3226
886.525	3336
886.65	3294
886.775	3230
886.9	3481
887.025	3644
887.149	3397
887.274	3249
887.399	3214
887.523	3230
887.648	3203
887.773	3161
887.897	3348
888.021	3382
888.146	3306
888.27	3485
888.395	3504
888.519	3469
888.643	3443
888.767	3450
888.891	3306
889.015	3195
889.139	3325
889.263	3264
889.387	3462
889.511	3481
889.635	3443
889.759	3249
889.883	3294
890.006	3351
890.13	3500
890.254	3245
890.377	3340
890.501	3237
890.624	3199
890.748	3260
890.871	3169
890.995	3131
891.118	3047
891.241	3184
891.364	3203
891.488	3306
891.611	3169
891.734	3207
891.857	3313
891.98	3214
892.103	3291
892.226	3294
892.349	3237
892.471	3112
892.594	3226
892.717	3310
892.839	3279
892.962	3317
893.085	3405
893.207	3306
893.33	3142
893.452	3180
893.575	3313
893.697	3264
893.819	3435
893.941	3519
894.064	3454
894.186	3249
894.308	3256
894.43	3428
894.552	3572
894.674	3458
894.796	3264
894.918	3291
895.04	3291
895.161	3409
895.283	3382
895.405	3298
895.526	3344
895.648	3416
895.769	3454
895.891	3428
896.012	3462
896.134	3469
896.255	3386
896.376	3397
896.498	3401
896.619	3393
896.74	3329
896.861	3401
896.982	3641
897.103	3835
897.224	3614
897.345	3473
897.466	3401
897.587	3485
897.708	3599
897.828	3553
897.949	3431
898.07	3340
898.19	3382
898.311	3663
898.431	3431
898.552	3515
898.672	3572
898.792	3534
898.913	3542
899.033	3420
899.153	3279
899.273	3203
899.393	3241
899.513	3306
899.633	3332
899.753	3340
899.873	3287
899.993	3363
900.113	3363
900.232	3409
900.352	3382
900.472	3298
900.591	3207
900.711	3283
900.83	3222
900.95	3420
901.069	3496
901.189	3367
901.308	3157
901.427	3138
901.546	3157
901.665	3275
901.784	3355
901.904	3211
902.023	3123
902.141	3013
902.26	2982
902.379	3146
902.498	3066
902.617	3089
902.735	3188
902.854	3199
902.973	3199
903.091	3055
903.21	3032
903.328	3154
903.446	3127
903.565	3108
903.683	3180
903.801	3104
903.919	3253
904.038	3317
904.156	3161
904.274	3268
904.392	3245
904.51	3283
904.627	3302
904.745	3443
904.863	3500
904.981	3241
905.098	3157
905.216	3214
905.334	3291
905.451	3313
905.569	3302
905.686	3420
905.803	3443
905.921	3310
906.038	3431
906.155	3382
906.272	3256
906.389	3321
906.506	3192
906.623	3222
906.74	3237
906.857	3180
906.974	3272
907.091	3511
907.208	3591
907.324	3488
907.441	3374
907.557	3241
907.674	3199
907.79	3222
907.907	3237
908.023	3386
908.139	3374
908.256	3310
908.372	3378
908.488	3393
908.604	3237
908.72	3226
908.836	3287
908.952	3253
909.068	3340
909.184	3515
909.3	3409
909.415	3500
909.531	3496
909.647	3287
909.762	3302
909.878	3260
909.993	3355
910.108	3317
910.224	3306
910.339	3397
910.454	3313
910.57	3272
910.685	3237
910.8	3572
910.915	3542
911.03	3416
911.145	3218
911.259	3249
911.374	3287
911.489	3249
911.604	3188
911.718	3131
911.833	3108
911.947	3074
912.062	2986
912.176	3169
912.291	3203
912.405	3176
912.519	3393
912.633	3469
912.748	3310
912.862	3275
912.976	3150
913.09	3093
913.204	3116
913.318	3226
913.431	3306
913.545	3332
913.659	3450
913.772	3321
913.886	3211
914	3184
914.113	3370
914.226	3367
914.34	3386
914.453	3173
914.566	3370
914.68	3302
914.793	3310
914.906	3176
915.019	3104
915.132	3039
915.245	3180
915.358	3173
915.47	3214
915.583	3245
915.696	3275
915.809	3374
915.921	3382
916.034	3287
916.146	3245
916.259	3222
916.371	3370
916.483	3302
916.595	3310
916.708	3310
916.82	3325
916.932	3355
917.044	3336
917.156	3313
917.268	3256
917.38	3355
917.491	3291
917.603	3378
917.715	3443
917.826	3469
917.938	3359
918.049	3245
918.161	3447
918.272	3595
918.384	3564
918.495	3473
918.606	3355
918.717	3279
918.828	3386
918.939	3397
919.05	3268
919.161	3321
919.272	3161
919.383	3287
919.494	3488
919.604	3656
919.715	3481
919.826	3447
919.936	3450
920.047	3561
920.157	3530
920.267	3766
920.378	3610
920.488	3584
920.598	3747
920.708	3911
920.818	3800
920.928	3850
921.038	4021
921.148	4010
921.258	3682
921.368	3648
921.477	3549
921.587	3507
921.697	3454
921.806	3660
921.916	3534
922.025	3374
922.134	3386
922.244	3321
922.353	3458
922.462	3241
922.571	3199
922.68	3119
922.789	3066
922.898	3157
923.007	3127
923.116	3253
923.224	3173
923.333	3173
923.442	3077
923.55	3108
923.659	3119
923.767	3233
923.876	3127
923.984	3226
924.092	3100
924.201	3207
924.309	3214
924.417	3283
924.525	3165
924.633	3260
924.741	4158
924.849	3058
924.956	3237
925.064	3081
925.172	3062
925.279	3085
925.387	3184
925.494	3203
925.602	3370
925.709	3306
925.816	3161
925.924	3287
926.031	3370
926.138	3313
926.245	3355
926.352	3241
926.459	3409
926.566	3435
926.673	3340
926.779	3207
926.886	3283
926.993	3142
927.099	3146
927.206	3100
927.312	3119
927.419	3245
927.525	3249
927.631	3279
927.737	3108
927.843	3131
927.95	3013
928.056	3146
928.162	3203
928.267	3184
928.373	3873
928.479	3310
928.585	3058
928.69	3207
928.796	3268
928.901	3119
929.007	3017
929.112	3207
929.218	3161
929.323	3173
929.428	3127
929.533	3298
929.638	3131
929.743	3165
929.848	3268
929.953	3184
930.058	3146
930.163	2998
930.267	3066
930.372	3169
930.477	3028
930.581	3291
930.685	3173
930.79	3081
930.894	3112
930.998	3116
931.103	3279
931.207	2990
931.311	2933
931.415	2941
931.519	2766
931.623	2823
