Data from test_V78500241_412.txt Node
Date: Fri Mar 25 16:18:03 CST 2022
User: usil
Spectrometer: V785-0024
Trigger mode: 0
Integration Time (sec): 4.000000E-1
Scans to average: 1
Nonlinearity correction enabled: false
Boxcar width: 0
Storing dark spectrum: false
XAxis mode: Wavelengths
Number of Pixels in Spectrum: 1024
>>>>>Begin Spectral Data<<<<<
801.071	2906
801.214	2933
801.356	2868
801.499	2906
801.641	2857
801.783	2925
801.926	3093
802.068	2948
802.211	2986
802.353	2994
802.496	2975
802.638	3028
802.78	3032
802.923	3055
803.065	3017
803.208	2880
803.35	2899
803.492	2914
803.635	2925
803.777	2777
803.919	2804
804.061	3135
804.204	2922
804.346	2910
804.488	2853
804.63	2941
804.773	2872
804.915	2918
805.057	3081
805.199	2914
805.341	2963
805.483	3017
805.626	2948
805.768	2960
805.91	3047
806.052	3116
806.194	2998
806.336	3184
806.478	3017
806.62	2948
806.762	2967
806.904	3066
807.046	3165
807.188	2975
807.33	2899
807.472	2967
807.614	2861
807.756	2967
807.898	2922
808.04	2906
808.182	2952
808.324	2982
808.465	2853
808.607	2876
808.749	2800
808.891	2830
809.033	2952
809.174	2979
809.316	2883
809.458	2868
809.6	2773
809.741	2788
809.883	2735
810.025	2857
810.166	2853
810.308	2826
810.45	2838
810.591	2781
810.733	2750
810.875	2826
811.016	2773
811.158	2781
811.299	2788
811.441	2925
811.582	2868
811.724	2830
811.865	2819
812.007	2891
812.148	2868
812.29	2819
812.431	2876
812.573	2929
812.714	2944
812.855	3039
812.997	3017
813.138	3066
813.279	2982
813.421	3009
813.562	2929
813.703	2914
813.845	2861
813.986	2769
814.127	2754
814.268	2785
814.41	2845
814.551	2792
814.692	2880
814.833	2853
814.974	2868
815.115	2960
815.256	2811
815.397	2819
815.539	2842
815.68	2758
815.821	2777
815.962	2941
816.103	2937
816.244	2853
816.385	2864
816.526	2941
816.666	2937
816.807	2754
816.948	2876
817.089	2906
817.23	2838
817.371	2800
817.512	2758
817.653	2830
817.793	2804
817.934	2842
818.075	2960
818.216	3024
818.356	3024
818.497	2872
818.638	2754
818.778	2807
818.919	2762
819.06	2716
819.2	2868
819.341	2815
819.481	2807
819.622	2933
819.762	3100
819.903	3043
820.043	2910
820.184	2891
820.324	2876
820.465	2971
820.605	2963
820.746	2971
820.886	2944
821.026	3097
821.167	3157
821.307	3264
821.447	3279
821.588	3188
821.728	3188
821.868	3176
822.008	3077
822.149	3192
822.289	3233
822.429	3097
822.569	3085
822.709	3138
822.849	3013
822.99	3077
823.13	3146
823.27	3184
823.41	3146
823.55	3169
823.69	3173
823.83	3184
823.97	3097
824.11	2963
824.25	2986
824.389	3070
824.529	3123
824.669	3097
824.809	3154
824.949	3245
825.089	3180
825.228	3142
825.368	2990
825.508	2960
825.648	2948
825.787	3024
825.927	3001
826.067	2982
826.206	2952
826.346	3005
826.485	3085
826.625	3100
826.765	3287
826.904	3188
827.044	2975
827.183	2918
827.323	2857
827.462	2944
827.601	2887
827.741	2880
827.88	2963
828.02	2842
828.159	2948
828.298	3001
828.437	3104
828.577	3043
828.716	3272
828.855	3100
828.994	2895
829.134	2849
829.273	2933
829.412	2861
829.551	2864
829.69	2887
829.829	2967
829.968	3108
830.107	3005
830.246	3017
830.385	2910
830.524	2868
830.663	2811
830.802	2720
830.941	2651
831.08	2644
831.219	2739
831.357	2758
831.496	2963
831.635	2708
831.774	2617
831.913	2587
832.051	2522
832.19	2545
832.329	2678
832.467	2499
832.606	2461
832.744	2579
832.883	2571
833.022	2575
833.16	2640
833.299	2682
833.437	2682
833.576	2686
833.714	2708
833.852	2716
833.991	2743
834.129	2849
834.267	2845
834.406	2792
834.544	2849
834.682	2842
834.821	2849
834.959	3066
835.097	2910
835.235	3081
835.373	2979
835.511	2990
835.65	2948
835.788	2910
835.926	2796
836.064	2811
836.202	2864
836.34	3066
836.478	3142
836.615	3024
836.753	3104
836.891	3180
837.029	3192
837.167	3100
837.305	3055
837.443	3001
837.58	2979
837.718	3097
837.856	3066
837.993	3028
838.131	3119
838.269	3089
838.406	3097
838.544	3116
838.681	2902
838.819	2914
838.956	2811
839.094	2788
839.231	2922
839.369	2982
839.506	3370
839.643	3188
839.781	2982
839.918	2937
840.055	3043
840.193	3036
840.33	3047
840.467	3093
840.604	3127
840.742	3351
840.879	3043
841.016	3036
841.153	3131
841.29	3310
841.427	3279
841.564	3272
841.701	3313
841.838	3192
841.975	3176
842.112	3203
842.249	3093
842.385	2982
842.522	3222
842.659	3066
842.796	3039
842.933	3116
843.069	3013
843.206	3005
843.343	3165
843.479	3104
843.616	3123
843.752	2876
843.889	2834
844.025	3039
844.162	2895
844.298	3077
844.435	2895
844.571	2918
844.708	3077
844.844	3184
844.98	3230
845.117	3169
845.253	3020
845.389	2998
845.525	3066
845.661	3093
845.798	2998
845.934	3097
846.07	3028
846.206	3222
846.342	3317
846.478	3218
846.614	3066
846.75	3047
846.886	3013
847.022	3207
847.158	3127
847.294	3169
847.429	3249
847.565	3188
847.701	3454
847.837	3047
847.972	3017
848.108	3154
848.244	3131
848.379	3020
848.515	2933
848.65	2895
848.786	2971
848.921	3036
849.057	3108
849.192	3146
849.328	3058
849.463	3119
849.598	3058
849.734	3039
849.869	2963
850.004	2944
850.14	2998
850.275	2948
850.41	2914
850.545	2922
850.68	2971
850.815	3020
850.95	3020
851.085	3226
851.22	3131
851.355	3051
851.49	3005
851.625	3024
851.76	3020
851.895	2929
852.03	2960
852.165	3062
852.299	3135
852.434	3214
852.569	3203
852.703	3218
852.838	3272
852.973	3367
853.107	3325
853.242	3154
853.376	3074
853.511	3020
853.645	3100
853.78	3279
853.914	3165
854.048	3123
854.183	3112
854.317	3176
854.451	3332
854.585	3138
854.72	3123
854.854	3222
854.988	3131
855.122	3100
855.256	3001
855.39	3127
855.524	3279
855.658	3203
855.792	3161
855.926	3233
856.06	3275
856.194	3291
856.327	3195
856.461	3112
856.595	3116
856.729	3131
856.862	3268
856.996	3195
857.13	3233
857.263	3272
857.397	3348
857.53	3203
857.664	3264
857.797	3268
857.931	3256
858.064	3176
858.197	3249
858.331	3180
858.464	3116
858.597	3036
858.731	3123
858.864	3180
858.997	3100
859.13	3199
859.263	3184
859.396	3226
859.529	3112
859.662	3093
859.795	3051
859.928	3192
860.061	3313
860.194	3317
860.327	3173
860.46	3104
860.592	3291
860.725	3302
860.858	3260
860.99	3135
861.123	3119
861.256	3097
861.388	3146
861.521	3854
861.653	3074
861.786	3032
861.918	3013
862.05	3097
862.183	3119
862.315	3184
862.447	3260
862.58	3131
862.712	2967
862.844	2891
862.976	3081
863.108	3032
863.24	3435
863.372	2922
863.504	2986
863.636	2952
863.768	3047
863.9	2994
864.032	2948
864.164	3001
864.296	3043
864.428	3077
864.559	3146
864.691	3051
864.823	3097
864.954	3036
865.086	3097
865.217	3005
865.349	2975
865.48	2986
865.612	3066
865.743	3173
865.875	3013
866.006	2952
866.137	3039
866.269	2971
866.4	2986
866.531	2956
866.662	2925
866.793	2910
866.924	2941
867.055	2994
867.186	2918
867.317	2906
867.448	2853
867.579	2838
867.71	2857
867.841	2830
867.972	2918
868.103	2914
868.233	2891
868.364	2899
868.495	2937
868.625	3093
868.756	3176
868.886	2979
869.017	3039
869.147	3230
869.278	3173
869.408	3066
869.539	3036
869.669	3108
869.799	3066
869.929	3203
870.06	3119
870.19	3306
870.32	3321
870.45	3332
870.58	3412
870.71	3458
870.84	3450
870.97	3340
871.1	3283
871.23	3496
871.36	3473
871.489	3363
871.619	3409
871.749	3409
871.879	3450
872.008	3523
872.138	3428
872.267	3317
872.397	3169
872.526	3150
872.656	3043
872.785	3100
872.915	3256
873.044	3386
873.173	3237
873.303	3237
873.432	3264
873.561	3287
873.69	3161
873.819	3165
873.948	3226
874.077	3127
874.206	3085
874.335	3138
874.464	3226
874.593	3382
874.722	3268
874.851	3431
874.979	3374
875.108	3370
875.237	3207
875.365	3188
875.494	3154
875.623	3298
875.751	3108
875.88	3142
876.008	3199
876.136	3249
876.265	3401
876.393	3526
876.521	3431
876.65	3409
876.778	3367
876.906	3306
877.034	3218
877.162	3272
877.29	3207
877.418	3302
877.546	3237
877.674	3291
877.802	3245
877.93	3249
878.058	3154
878.185	3131
878.313	3218
878.441	3222
878.568	3119
878.696	3188
878.824	3313
878.951	3302
879.079	3462
879.206	3648
879.333	3481
879.461	3344
879.588	3386
879.715	3515
879.842	3622
879.97	3439
880.097	3199
880.224	3184
880.351	3203
880.478	3241
880.605	3253
880.732	3211
880.859	3492
880.986	3329
881.112	3332
881.239	3233
881.366	3085
881.493	3093
881.619	3043
881.746	3100
881.872	3123
881.999	3127
882.125	3169
882.252	3294
882.378	3294
882.505	3462
882.631	3321
882.757	3207
882.883	3237
883.01	3245
883.136	3157
883.262	3135
883.388	3131
883.514	3348
883.64	3409
883.766	3317
883.892	3230
884.018	3275
884.143	3477
884.269	3549
884.395	3180
884.52	3184
884.646	3192
884.772	3127
884.897	3165
885.023	3203
885.148	3370
885.274	3504
885.399	3389
885.524	3329
885.65	3279
885.775	3336
885.9	3325
886.025	3424
886.15	3424
886.275	3321
886.4	3249
886.525	3294
886.65	3294
886.775	3325
886.9	3507
887.025	3671
887.149	3378
887.274	3256
887.399	3249
887.523	3218
887.648	3176
887.773	3222
887.897	3386
888.021	3420
888.146	3310
888.27	3469
888.395	3545
888.519	3431
888.643	3458
888.767	3496
888.891	3348
889.015	3241
889.139	3344
889.263	3264
889.387	3397
889.511	3557
889.635	3492
889.759	3329
889.883	3313
890.006	3439
890.13	3496
890.254	3283
890.377	3401
890.501	3199
890.624	3214
890.748	3313
890.871	3230
890.995	3146
891.118	3127
891.241	3226
891.364	3260
891.488	3336
891.611	3176
891.734	3237
891.857	3291
891.98	3268
892.103	3351
892.226	3294
892.349	3211
892.471	3138
892.594	3279
892.717	3306
892.839	3287
892.962	3306
893.085	3363
893.207	3329
893.33	3142
893.452	3256
893.575	3359
893.697	3275
893.819	3496
893.941	3515
894.064	3416
894.186	3279
894.308	3264
894.43	3481
894.552	3545
894.674	3462
894.796	3291
894.918	3355
895.04	3313
895.161	3424
895.283	3405
895.405	3302
895.526	3386
895.648	3405
895.769	3443
895.891	3500
896.012	3481
896.134	3485
896.255	3412
896.376	3416
896.498	3359
896.619	3454
896.74	3344
896.861	3416
896.982	3701
897.103	3846
897.224	3618
897.345	3504
897.466	3443
897.587	3530
897.708	3644
897.828	3561
897.949	3469
898.07	3340
898.19	3424
898.311	3622
898.431	3504
898.552	3564
898.672	3610
898.792	3568
898.913	3549
899.033	3412
899.153	3279
899.273	3207
899.393	3291
899.513	3336
899.633	3325
899.753	3321
899.873	3329
899.993	3397
900.113	3325
900.232	3374
900.352	3355
900.472	3348
900.591	3192
900.711	3310
900.83	3249
900.95	3439
901.069	3504
901.189	3378
901.308	3192
901.427	3142
901.546	3211
901.665	3279
901.784	3344
901.904	3203
902.023	3169
902.141	3024
902.26	3001
902.379	3173
902.498	3104
902.617	3074
902.735	3207
902.854	3260
902.973	3203
903.091	3028
903.21	3062
903.328	3180
903.446	3108
903.565	3135
903.683	3195
903.801	3127
903.919	3260
904.038	3291
904.156	3192
904.274	3302
904.392	3256
904.51	3317
904.627	3359
904.745	3431
904.863	3500
904.981	3283
905.098	3184
905.216	3233
905.334	3306
905.451	3310
905.569	3332
905.686	3454
905.803	3439
905.921	3310
906.038	3458
906.155	3367
906.272	3321
906.389	3340
906.506	3249
906.623	3317
906.74	3279
906.857	3188
906.974	3260
907.091	3488
907.208	3599
907.324	3500
907.441	3424
907.557	3272
907.674	3253
907.79	3211
907.907	3294
908.023	3355
908.139	3340
908.256	3332
908.372	3393
908.488	3382
908.604	3237
908.72	3218
908.836	3268
908.952	3275
909.068	3367
909.184	3523
909.3	3370
909.415	3534
909.531	3485
909.647	3302
909.762	3260
909.878	3256
909.993	3370
910.108	3370
910.224	3382
910.339	3420
910.454	3325
910.57	3294
910.685	3256
910.8	3625
910.915	3507
911.03	3443
911.145	3272
911.259	3279
911.374	3279
911.489	3233
911.604	3245
911.718	3146
911.833	3135
911.947	3047
912.062	2994
912.176	3173
912.291	3214
912.405	3253
912.519	3435
912.633	3462
912.748	3374
912.862	3279
912.976	3199
913.09	3070
913.204	3138
913.318	3230
913.431	3317
913.545	3329
913.659	3367
913.772	3340
913.886	3260
914	3184
914.113	3359
914.226	3447
914.34	3405
914.453	3192
914.566	3401
914.68	3310
914.793	3321
914.906	3222
915.019	3131
915.132	3138
915.245	3154
915.358	3203
915.47	3275
915.583	3245
915.696	3321
915.809	3386
915.921	3428
916.034	3298
916.146	3298
916.259	3241
916.371	3409
916.483	3412
916.595	3275
916.708	3405
916.82	3344
916.932	3370
917.044	3401
917.156	3386
917.268	3313
917.38	3359
917.491	3329
917.603	3393
917.715	3473
917.826	3492
917.938	3428
918.049	3313
918.161	3454
918.272	3603
918.384	3576
918.495	3492
918.606	3359
918.717	3329
918.828	3424
918.939	3450
919.05	3359
919.161	3405
919.272	3233
919.383	3340
919.494	3538
919.604	3701
919.715	3542
919.826	3458
919.936	3511
920.047	3622
920.157	3568
920.267	3850
920.378	3629
920.488	3606
920.598	3831
920.708	3994
920.818	3861
920.928	3930
921.038	4059
921.148	4082
921.258	3728
921.368	3705
921.477	3614
921.587	3580
921.697	3488
921.806	3675
921.916	3534
922.025	3378
922.134	3405
922.244	3351
922.353	3439
922.462	3344
922.571	3272
922.68	3161
922.789	3138
922.898	3169
923.007	3093
923.116	3233
923.224	3245
923.333	3192
923.442	3146
923.55	3161
923.659	3192
923.767	3230
923.876	3161
923.984	3302
924.092	3184
924.201	3249
924.309	3249
924.417	3279
924.525	3237
924.633	3279
924.741	4230
924.849	3085
924.956	3241
925.064	3161
925.172	3093
925.279	3146
925.387	3218
925.494	3249
925.602	3416
925.709	3363
925.816	3237
925.924	3317
926.031	3409
926.138	3348
926.245	3363
926.352	3253
926.459	3450
926.566	3466
926.673	3367
926.779	3275
926.886	3272
926.993	3192
927.099	3173
927.206	3161
927.312	3157
927.419	3268
927.525	3245
927.631	3291
927.737	3176
927.843	3176
927.95	3085
928.056	3173
928.162	3237
928.267	3279
928.373	3922
928.479	3359
928.585	3089
928.69	3260
928.796	3291
928.901	3199
929.007	3074
929.112	3260
929.218	3192
929.323	3214
929.428	3195
929.533	3344
929.638	3154
929.743	3222
929.848	3302
929.953	3253
930.058	3176
930.163	3047
930.267	3097
930.372	3233
930.477	3108
930.581	3378
930.685	3249
930.79	3066
930.894	3195
930.998	3112
931.103	3332
931.207	3036
931.311	2944
931.415	2948
931.519	2823
931.623	2842
