Data from test_V78500241_1456.txt Node
Date: Fri Mar 25 16:25:17 CST 2022
User: usil
Spectrometer: V785-0024
Trigger mode: 0
Integration Time (sec): 4.000000E-1
Scans to average: 1
Nonlinearity correction enabled: false
Boxcar width: 0
Storing dark spectrum: false
XAxis mode: Wavelengths
Number of Pixels in Spectrum: 1024
>>>>>Begin Spectral Data<<<<<
801.071	2868
801.214	2902
801.356	2853
801.499	2899
801.641	2864
801.783	2906
801.926	3074
802.068	2994
802.211	2979
802.353	2990
802.496	2956
802.638	3017
802.78	3036
802.923	3070
803.065	2982
803.208	2883
803.35	2891
803.492	2948
803.635	2895
803.777	2746
803.919	2849
804.061	3188
804.204	2948
804.346	2902
804.488	2796
804.63	2990
804.773	2887
804.915	2902
805.057	3070
805.199	2891
805.341	2922
805.483	3020
805.626	2952
805.768	2918
805.91	3058
806.052	3077
806.194	3032
806.336	3237
806.478	3013
806.62	2960
806.762	2952
806.904	3051
807.046	3195
807.188	3009
807.33	2906
807.472	2941
807.614	2880
807.756	2982
807.898	2914
808.04	2883
808.182	2982
808.324	2925
808.465	2857
808.607	2887
808.749	2788
808.891	2815
809.033	2960
809.174	2933
809.316	2872
809.458	2838
809.6	2762
809.741	2792
809.883	2743
810.025	2823
810.166	2872
810.308	2807
810.45	2819
810.591	2762
810.733	2735
810.875	2834
811.016	2773
811.158	2746
811.299	2804
811.441	2902
811.582	2895
811.724	2815
811.865	2819
812.007	2868
812.148	2819
812.29	2796
812.431	2883
812.573	2895
812.714	2933
812.855	3039
812.997	3039
813.138	3104
813.279	3005
813.421	2967
813.562	2929
813.703	2872
813.845	2883
813.986	2743
814.127	2727
814.268	2815
814.41	2804
814.551	2815
814.692	2861
814.833	2823
814.974	2895
815.115	2975
815.256	2800
815.397	2804
815.539	2891
815.68	2762
815.821	2807
815.962	2914
816.103	2918
816.244	2857
816.385	2849
816.526	2941
816.666	2883
816.807	2724
816.948	2891
817.089	2887
817.23	2853
817.371	2766
817.512	2792
817.653	2849
817.793	2823
817.934	2864
818.075	2956
818.216	2971
818.356	3024
818.497	2868
818.638	2792
818.778	2861
818.919	2807
819.06	2758
819.2	2849
819.341	2769
819.481	2781
819.622	2910
819.762	3116
819.903	3047
820.043	2922
820.184	2914
820.324	2868
820.465	2990
820.605	2960
820.746	3058
820.886	2922
821.026	3074
821.167	3127
821.307	3237
821.447	3203
821.588	3230
821.728	3176
821.868	3169
822.008	3066
822.149	3150
822.289	3218
822.429	3081
822.569	3070
822.709	3199
822.849	3020
822.99	3070
823.13	3123
823.27	3180
823.41	3062
823.55	3070
823.69	3131
823.83	3161
823.97	3104
824.11	2979
824.25	2994
824.389	3017
824.529	3093
824.669	3028
824.809	3150
824.949	3272
825.089	3207
825.228	3142
825.368	2971
825.508	2948
825.648	2948
825.787	2979
825.927	3017
826.067	2925
826.206	2937
826.346	3047
826.485	3062
826.625	3123
826.765	3230
826.904	3214
827.044	2986
827.183	2887
827.323	2872
827.462	3005
827.601	2918
827.741	2948
827.88	2990
828.02	2834
828.159	2948
828.298	3077
828.437	3123
828.577	3028
828.716	3237
828.855	3108
828.994	2914
829.134	2902
829.273	2910
829.412	2880
829.551	2895
829.69	2918
829.829	3013
829.968	3142
830.107	3020
830.246	2998
830.385	2922
830.524	2887
830.663	2830
830.802	2746
830.941	2686
831.08	2659
831.219	2769
831.357	2785
831.496	2986
831.635	2697
831.774	2674
831.913	2667
832.051	2571
832.19	2598
832.329	2705
832.467	2568
832.606	2514
832.744	2594
832.883	2587
833.022	2621
833.16	2670
833.299	2739
833.437	2731
833.576	2720
833.714	2735
833.852	2769
833.991	2766
834.129	2864
834.267	2845
834.406	2811
834.544	2960
834.682	2902
834.821	2906
834.959	3070
835.097	2918
835.235	3131
835.373	3017
835.511	3001
835.65	3013
835.788	3024
835.926	2876
836.064	2845
836.202	2929
836.34	3081
836.478	3150
836.615	3058
836.753	3188
836.891	3241
837.029	3199
837.167	3154
837.305	3100
837.443	3074
837.58	2990
837.718	3157
837.856	3066
837.993	3058
838.131	3176
838.269	3142
838.406	3123
838.544	3138
838.681	2971
838.819	2967
838.956	2853
839.094	2910
839.231	2941
839.369	3047
839.506	3431
839.643	3233
839.781	3062
839.918	2982
840.055	3085
840.193	3055
840.33	3097
840.467	3135
840.604	3161
840.742	3431
840.879	3089
841.016	3055
841.153	3146
841.29	3363
841.427	3317
841.564	3340
841.701	3359
841.838	3256
841.975	3211
842.112	3245
842.249	3066
842.385	3093
842.522	3313
842.659	3089
842.796	3066
842.933	3161
843.069	3039
843.206	3074
843.343	3203
843.479	3116
843.616	3142
843.752	2941
843.889	2914
844.025	3085
844.162	2910
844.298	3097
844.435	2990
844.571	2956
844.708	3093
844.844	3203
844.98	3245
845.117	3241
845.253	3100
845.389	3028
845.525	3150
845.661	3104
845.798	3043
845.934	3150
846.07	3066
846.206	3214
846.342	3344
846.478	3275
846.614	3108
846.75	3089
846.886	3070
847.022	3249
847.158	3154
847.294	3218
847.429	3264
847.565	3260
847.701	3534
847.837	3058
847.972	3043
848.108	3161
848.244	3169
848.379	3009
848.515	2948
848.65	2975
848.786	2971
848.921	3024
849.057	3142
849.192	3173
849.328	3093
849.463	3165
849.598	3089
849.734	3119
849.869	3020
850.004	2975
850.14	2971
850.275	2941
850.41	2872
850.545	2899
850.68	2971
850.815	2967
850.95	2975
851.085	3253
851.22	3142
851.355	3058
851.49	3039
851.625	3028
851.76	3055
851.895	2922
852.03	2941
852.165	3097
852.299	3173
852.434	3195
852.569	3135
852.703	3203
852.838	3279
852.973	3370
853.107	3348
853.242	3176
853.376	3127
853.511	3024
853.645	3074
853.78	3241
853.914	3142
854.048	3093
854.183	3104
854.317	3173
854.451	3294
854.585	3161
854.72	3123
854.854	3211
854.988	3066
855.122	3138
855.256	2990
855.39	3127
855.524	3272
855.658	3192
855.792	3184
855.926	3214
856.06	3245
856.194	3256
856.327	3195
856.461	3085
856.595	3142
856.729	3093
856.862	3241
856.996	3157
857.13	3211
857.263	3279
857.397	3306
857.53	3135
857.664	3222
857.797	3268
857.931	3256
858.064	3173
858.197	3253
858.331	3154
858.464	3135
858.597	3032
858.731	3157
858.864	3157
858.997	3108
859.13	3173
859.263	3199
859.396	3203
859.529	3112
859.662	3093
859.795	3058
859.928	3146
860.061	3287
860.194	3291
860.327	3173
860.46	3116
860.592	3245
860.725	3264
860.858	3287
860.99	3093
861.123	3058
861.256	3070
861.388	3169
861.521	3884
861.653	3009
861.786	3017
861.918	3005
862.05	3093
862.183	3104
862.315	3165
862.447	3249
862.58	3127
862.712	2979
862.844	2906
862.976	3032
863.108	3047
863.24	3389
863.372	2922
863.504	3013
863.636	2979
863.768	3043
863.9	3005
864.032	2956
864.164	2948
864.296	3066
864.428	3119
864.559	3154
864.691	3058
864.823	3074
864.954	3047
865.086	3097
865.217	3028
865.349	2994
865.48	3009
865.612	3028
865.743	3169
865.875	2994
866.006	2937
866.137	2998
866.269	2956
866.4	2967
866.531	2994
866.662	2922
866.793	2925
866.924	2891
867.055	2986
867.186	2918
867.317	2899
867.448	2842
867.579	2872
867.71	2883
867.841	2845
867.972	2929
868.103	2918
868.233	2876
868.364	2918
868.495	2914
868.625	3097
868.756	3176
868.886	3001
869.017	3036
869.147	3203
869.278	3142
869.408	3058
869.539	3066
869.669	3135
869.799	3028
869.929	3150
870.06	3089
870.19	3363
870.32	3310
870.45	3336
870.58	3386
870.71	3447
870.84	3443
870.97	3306
871.1	3203
871.23	3477
871.36	3473
871.489	3389
871.619	3424
871.749	3370
871.879	3428
872.008	3473
872.138	3405
872.267	3245
872.397	3188
872.526	3100
872.656	3005
872.785	3100
872.915	3241
873.044	3397
873.173	3264
873.303	3249
873.432	3245
873.561	3268
873.69	3180
873.819	3180
873.948	3245
874.077	3089
874.206	3062
874.335	3093
874.464	3207
874.593	3359
874.722	3260
874.851	3382
874.979	3420
875.108	3336
875.237	3211
875.365	3165
875.494	3199
875.623	3272
875.751	3123
875.88	3127
876.008	3253
876.136	3245
876.265	3378
876.393	3526
876.521	3435
876.65	3378
876.778	3336
876.906	3283
877.034	3241
877.162	3230
877.29	3214
877.418	3275
877.546	3268
877.674	3275
877.802	3256
877.93	3199
878.058	3127
878.185	3081
878.313	3207
878.441	3260
878.568	3100
878.696	3157
878.824	3260
878.951	3294
879.079	3469
879.206	3618
879.333	3439
879.461	3359
879.588	3389
879.715	3500
879.842	3614
879.97	3382
880.097	3173
880.224	3127
880.351	3192
880.478	3226
880.605	3176
880.732	3188
880.859	3515
880.986	3302
881.112	3344
881.239	3207
881.366	3097
881.493	3028
881.619	3036
881.746	3108
881.872	3077
881.999	3081
882.125	3184
882.252	3275
882.378	3256
882.505	3466
882.631	3332
882.757	3150
882.883	3249
883.01	3233
883.136	3165
883.262	3116
883.388	3116
883.514	3329
883.64	3370
883.766	3317
883.892	3222
884.018	3287
884.143	3428
884.269	3526
884.395	3241
884.52	3150
884.646	3199
884.772	3173
884.897	3089
885.023	3218
885.148	3367
885.274	3443
885.399	3397
885.524	3317
885.65	3260
885.775	3317
885.9	3310
886.025	3488
886.15	3363
886.275	3310
886.4	3260
886.525	3302
886.65	3302
886.775	3306
886.9	3485
887.025	3637
887.149	3412
887.274	3279
887.399	3218
887.523	3249
887.648	3199
887.773	3180
887.897	3405
888.021	3412
888.146	3348
888.27	3458
888.395	3545
888.519	3435
888.643	3447
888.767	3481
888.891	3310
889.015	3249
889.139	3321
889.263	3279
889.387	3401
889.511	3549
889.635	3462
889.759	3329
889.883	3370
890.006	3397
890.13	3481
890.254	3241
890.377	3329
890.501	3199
890.624	3176
890.748	3317
890.871	3195
890.995	3131
891.118	3066
891.241	3218
891.364	3272
891.488	3336
891.611	3218
891.734	3214
891.857	3294
891.98	3233
892.103	3313
892.226	3298
892.349	3218
892.471	3131
892.594	3260
892.717	3313
892.839	3310
892.962	3306
893.085	3397
893.207	3313
893.33	3157
893.452	3237
893.575	3321
893.697	3222
893.819	3462
893.941	3500
894.064	3443
894.186	3214
894.308	3253
894.43	3447
894.552	3549
894.674	3443
894.796	3283
894.918	3310
895.04	3279
895.161	3443
895.283	3355
895.405	3329
895.526	3393
895.648	3428
895.769	3428
895.891	3450
896.012	3500
896.134	3469
896.255	3409
896.376	3378
896.498	3348
896.619	3443
896.74	3344
896.861	3420
896.982	3682
897.103	3873
897.224	3568
897.345	3507
897.466	3428
897.587	3515
897.708	3622
897.828	3587
897.949	3428
898.07	3340
898.19	3462
898.311	3599
898.431	3473
898.552	3534
898.672	3629
898.792	3576
898.913	3553
899.033	3401
899.153	3226
899.273	3214
899.393	3294
899.513	3321
899.633	3321
899.753	3336
899.873	3298
899.993	3359
900.113	3310
900.232	3382
900.352	3348
900.472	3272
900.591	3256
900.711	3329
900.83	3253
900.95	3409
901.069	3545
901.189	3351
901.308	3203
901.427	3146
901.546	3207
901.665	3329
901.784	3378
901.904	3230
902.023	3112
902.141	3028
902.26	2971
902.379	3154
902.498	3104
902.617	3001
902.735	3233
902.854	3260
902.973	3188
903.091	3066
903.21	3074
903.328	3173
903.446	3085
903.565	3165
903.683	3203
903.801	3127
903.919	3233
904.038	3283
904.156	3184
904.274	3302
904.392	3291
904.51	3291
904.627	3332
904.745	3439
904.863	3530
904.981	3279
905.098	3161
905.216	3207
905.334	3306
905.451	3340
905.569	3298
905.686	3431
905.803	3443
905.921	3245
906.038	3435
906.155	3378
906.272	3298
906.389	3359
906.506	3222
906.623	3275
906.74	3294
906.857	3192
906.974	3283
907.091	3409
907.208	3591
907.324	3466
907.441	3386
907.557	3222
907.674	3256
907.79	3211
907.907	3241
908.023	3370
908.139	3374
908.256	3355
908.372	3393
908.488	3332
908.604	3241
908.72	3253
908.836	3317
908.952	3302
909.068	3355
909.184	3458
909.3	3409
909.415	3458
909.531	3481
909.647	3298
909.762	3313
909.878	3268
909.993	3367
910.108	3310
910.224	3336
910.339	3409
910.454	3355
910.57	3283
910.685	3245
910.8	3599
910.915	3568
911.03	3473
911.145	3279
911.259	3287
911.374	3344
911.489	3253
911.604	3233
911.718	3108
911.833	3169
911.947	3051
912.062	2998
912.176	3157
912.291	3180
912.405	3169
912.519	3428
912.633	3462
912.748	3332
912.862	3275
912.976	3142
913.09	3066
913.204	3112
913.318	3211
913.431	3321
913.545	3325
913.659	3428
913.772	3329
913.886	3203
914	3211
914.113	3393
914.226	3382
914.34	3355
914.453	3264
914.566	3435
914.68	3287
914.793	3302
914.906	3123
915.019	3119
915.132	3070
915.245	3180
915.358	3199
915.47	3192
915.583	3264
915.696	3291
915.809	3409
915.921	3393
916.034	3291
916.146	3256
916.259	3275
916.371	3424
916.483	3378
916.595	3268
916.708	3310
916.82	3344
916.932	3329
917.044	3389
917.156	3348
917.268	3279
917.38	3306
917.491	3317
917.603	3359
917.715	3450
917.826	3447
917.938	3420
918.049	3298
918.161	3458
918.272	3572
918.384	3561
918.495	3519
918.606	3367
918.717	3313
918.828	3374
918.939	3485
919.05	3283
919.161	3393
919.272	3150
919.383	3279
919.494	3526
919.604	3694
919.715	3469
919.826	3382
919.936	3481
920.047	3538
920.157	3553
920.267	3751
920.378	3564
920.488	3576
920.598	3778
920.708	3956
920.818	3835
920.928	3846
921.038	4051
921.148	4006
921.258	3743
921.368	3648
921.477	3618
921.587	3572
921.697	3439
921.806	3610
921.916	3515
922.025	3317
922.134	3355
922.244	3313
922.353	3447
922.462	3283
922.571	3207
922.68	3066
922.789	3085
922.898	3154
923.007	3112
923.116	3184
923.224	3165
923.333	3195
923.442	3112
923.55	3085
923.659	3100
923.767	3180
923.876	3119
923.984	3226
924.092	3116
924.201	3214
924.309	3207
924.417	3214
924.525	3203
924.633	3203
924.741	4181
924.849	3055
924.956	3283
925.064	3089
925.172	3074
925.279	3081
925.387	3207
925.494	3192
925.602	3329
925.709	3355
925.816	3245
925.924	3287
926.031	3382
926.138	3348
926.245	3382
926.352	3245
926.459	3389
926.566	3477
926.673	3310
926.779	3203
926.886	3211
926.993	3157
927.099	3119
927.206	3135
927.312	3100
927.419	3253
927.525	3237
927.631	3310
927.737	3138
927.843	3123
927.95	3077
928.056	3127
928.162	3154
928.267	3245
928.373	3785
928.479	3294
928.585	3062
928.69	3195
928.796	3287
928.901	3195
929.007	3055
929.112	3188
929.218	3176
929.323	3154
929.428	3203
929.533	3283
929.638	3131
929.743	3180
929.848	3214
929.953	3154
930.058	3138
930.163	2998
930.267	3032
930.372	3203
930.477	3032
930.581	3313
930.685	3169
930.79	3055
930.894	3135
930.998	3081
931.103	3306
931.207	2941
931.311	2933
931.415	2937
931.519	2781
931.623	2796
