Data from test_V78500241_161.txt Node
Date: Fri Mar 25 16:16:19 CST 2022
User: usil
Spectrometer: V785-0024
Trigger mode: 0
Integration Time (sec): 4.000000E-1
Scans to average: 1
Nonlinearity correction enabled: false
Boxcar width: 0
Storing dark spectrum: false
XAxis mode: Wavelengths
Number of Pixels in Spectrum: 1024
>>>>>Begin Spectral Data<<<<<
801.071	2967
801.214	2986
801.356	2902
801.499	2910
801.641	2891
801.783	2925
801.926	3081
802.068	2967
802.211	3005
802.353	3047
802.496	2971
802.638	2994
802.78	3036
802.923	3085
803.065	3039
803.208	2948
803.35	2925
803.492	2922
803.635	2952
803.777	2773
803.919	2895
804.061	3211
804.204	2960
804.346	2922
804.488	2857
804.63	2967
804.773	2872
804.915	2906
805.057	3127
805.199	2971
805.341	3009
805.483	3081
805.626	2990
805.768	2982
805.91	3070
806.052	3116
806.194	3024
806.336	3222
806.478	3043
806.62	2982
806.762	2990
806.904	3077
807.046	3161
807.188	2982
807.33	2960
807.472	3036
807.614	2922
807.756	3024
807.898	2929
808.04	2895
808.182	2994
808.324	2971
808.465	2861
808.607	2883
808.749	2811
808.891	2815
809.033	3020
809.174	2971
809.316	2910
809.458	2933
809.6	2773
809.741	2773
809.883	2785
810.025	2887
810.166	2906
810.308	2838
810.45	2868
810.591	2804
810.733	2773
810.875	2826
811.016	2804
811.158	2785
811.299	2861
811.441	2944
811.582	2929
811.724	2838
811.865	2834
812.007	2914
812.148	2899
812.29	2853
812.431	2899
812.573	2967
812.714	2979
812.855	3051
812.997	3100
813.138	3127
813.279	3032
813.421	2994
813.562	2937
813.703	2868
813.845	2918
813.986	2754
814.127	2743
814.268	2823
814.41	2868
814.551	2815
814.692	2922
814.833	2830
814.974	2933
815.115	2982
815.256	2853
815.397	2811
815.539	2895
815.68	2838
815.821	2788
815.962	2914
816.103	2918
816.244	2864
816.385	2891
816.526	2967
816.666	2944
816.807	2781
816.948	2883
817.089	2922
817.23	2857
817.371	2792
817.512	2815
817.653	2899
817.793	2853
817.934	2952
818.075	2994
818.216	2979
818.356	3070
818.497	2906
818.638	2815
818.778	2823
818.919	2826
819.06	2762
819.2	2880
819.341	2830
819.481	2800
819.622	2944
819.762	3112
819.903	3070
820.043	2895
820.184	2887
820.324	2933
820.465	3055
820.605	3043
820.746	3055
820.886	2944
821.026	3100
821.167	3161
821.307	3256
821.447	3332
821.588	3291
821.728	3214
821.868	3199
822.008	3085
822.149	3218
822.289	3241
822.429	3131
822.569	3089
822.709	3188
822.849	3043
822.99	3131
823.13	3165
823.27	3218
823.41	3165
823.55	3188
823.69	3112
823.83	3203
823.97	3100
824.11	3017
824.25	3009
824.389	3074
824.529	3161
824.669	3081
824.809	3222
824.949	3260
825.089	3230
825.228	3184
825.368	2990
825.508	2998
825.648	2986
825.787	3009
825.927	3032
826.067	2979
826.206	2948
826.346	3085
826.485	3116
826.625	3161
826.765	3279
826.904	3233
827.044	3020
827.183	2952
827.323	2857
827.462	3013
827.601	2891
827.741	2906
827.88	2948
828.02	2842
828.159	2967
828.298	3077
828.437	3142
828.577	3047
828.716	3233
828.855	3085
828.994	2929
829.134	2891
829.273	2937
829.412	2895
829.551	2914
829.69	2902
829.829	3001
829.968	3100
830.107	3028
830.246	3058
830.385	2971
830.524	2899
830.663	2876
830.802	2739
830.941	2636
831.08	2648
831.219	2758
831.357	2796
831.496	2944
831.635	2712
831.774	2651
831.913	2655
832.051	2545
832.19	2617
832.329	2689
832.467	2575
832.606	2484
832.744	2632
832.883	2613
833.022	2632
833.16	2659
833.299	2705
833.437	2670
833.576	2727
833.714	2693
833.852	2743
833.991	2743
834.129	2842
834.267	2842
834.406	2792
834.544	2891
834.682	2891
834.821	2895
834.959	3047
835.097	2868
835.235	3062
835.373	3032
835.511	3020
835.65	2998
835.788	2982
835.926	2845
836.064	2853
836.202	2853
836.34	3104
836.478	3154
836.615	3024
836.753	3131
836.891	3230
837.029	3135
837.167	3135
837.305	3100
837.443	3051
837.58	2956
837.718	3169
837.856	3100
837.993	3036
838.131	3131
838.269	3127
838.406	3108
838.544	3108
838.681	2944
838.819	2899
838.956	2826
839.094	2845
839.231	2868
839.369	2998
839.506	3409
839.643	3218
839.781	3032
839.918	2910
840.055	3055
840.193	3085
840.33	3062
840.467	3085
840.604	3176
840.742	3466
840.879	3104
841.016	3085
841.153	3112
841.29	3325
841.427	3336
841.564	3264
841.701	3298
841.838	3214
841.975	3192
842.112	3249
842.249	3127
842.385	3062
842.522	3283
842.659	3104
842.796	3089
842.933	3104
843.069	3089
843.206	3077
843.343	3180
843.479	3074
843.616	3146
843.752	2906
843.889	2876
844.025	3077
844.162	2891
844.298	3055
844.435	2967
844.571	2922
844.708	3104
844.844	3195
844.98	3245
845.117	3207
845.253	3077
845.389	3039
845.525	3123
845.661	3108
845.798	3043
845.934	3165
846.07	3058
846.206	3233
846.342	3329
846.478	3192
846.614	3081
846.75	3081
846.886	3028
847.022	3256
847.158	3180
847.294	3233
847.429	3256
847.565	3226
847.701	3561
847.837	3047
847.972	3032
848.108	3184
848.244	3150
848.379	2994
848.515	2956
848.65	2937
848.786	2998
848.921	3032
849.057	3138
849.192	3142
849.328	3074
849.463	3093
849.598	3085
849.734	3051
849.869	2986
850.004	2937
850.14	2982
850.275	2899
850.41	2838
850.545	2872
850.68	2925
850.815	2963
850.95	2994
851.085	3192
851.22	3142
851.355	3028
851.49	2971
851.625	3005
851.76	2998
851.895	2960
852.03	2937
852.165	3039
852.299	3100
852.434	3176
852.569	3176
852.703	3169
852.838	3279
852.973	3355
853.107	3329
853.242	3135
853.376	3081
853.511	2975
853.645	3070
853.78	3256
853.914	3127
854.048	3146
854.183	3070
854.317	3127
854.451	3294
854.585	3104
854.72	3089
854.854	3264
854.988	3051
855.122	3081
855.256	2975
855.39	3127
855.524	3272
855.658	3173
855.792	3135
855.926	3230
856.06	3260
856.194	3268
856.327	3195
856.461	3093
856.595	3100
856.729	3085
856.862	3203
856.996	3154
857.13	3241
857.263	3241
857.397	3291
857.53	3146
857.664	3222
857.797	3260
857.931	3272
858.064	3211
858.197	3272
858.331	3127
858.464	3119
858.597	2967
858.731	3108
858.864	3142
858.997	3062
859.13	3169
859.263	3188
859.396	3176
859.529	3108
859.662	3081
859.795	3032
859.928	3112
860.061	3298
860.194	3272
860.327	3146
860.46	3127
860.592	3237
860.725	3233
860.858	3317
860.99	3116
861.123	3085
861.256	3039
861.388	3142
861.521	3747
861.653	3024
861.786	3009
861.918	3005
862.05	3077
862.183	3112
862.315	3157
862.447	3203
862.58	3081
862.712	2975
862.844	2876
862.976	3036
863.108	3017
863.24	3325
863.372	2918
863.504	3001
863.636	2929
863.768	3055
863.9	2979
864.032	2929
864.164	2941
864.296	3032
864.428	3089
864.559	3100
864.691	3085
864.823	3100
864.954	3017
865.086	3039
865.217	2948
865.349	2948
865.48	3017
865.612	2998
865.743	3157
865.875	2998
866.006	2948
866.137	2979
866.269	2986
866.4	2956
866.531	2948
866.662	2891
866.793	2918
866.924	2883
867.055	2963
867.186	2906
867.317	2902
867.448	2849
867.579	2864
867.71	2842
867.841	2842
867.972	2922
868.103	2937
868.233	2895
868.364	2918
868.495	2910
868.625	3108
868.756	3173
868.886	2982
869.017	3039
869.147	3165
869.278	3161
869.408	3058
869.539	3024
869.669	3131
869.799	3047
869.929	3169
870.06	3127
870.19	3321
870.32	3287
870.45	3313
870.58	3363
870.71	3492
870.84	3488
870.97	3317
871.1	3233
871.23	3515
871.36	3435
871.489	3367
871.619	3405
871.749	3477
871.879	3439
872.008	3504
872.138	3405
872.267	3302
872.397	3176
872.526	3138
872.656	3009
872.785	3127
872.915	3230
873.044	3336
873.173	3272
873.303	3214
873.432	3268
873.561	3249
873.69	3150
873.819	3184
873.948	3184
874.077	3066
874.206	3001
874.335	3051
874.464	3230
874.593	3389
874.722	3294
874.851	3397
874.979	3386
875.108	3332
875.237	3207
875.365	3188
875.494	3203
875.623	3253
875.751	3112
875.88	3131
876.008	3195
876.136	3233
876.265	3386
876.393	3568
876.521	3424
876.65	3378
876.778	3310
876.906	3272
877.034	3207
877.162	3249
877.29	3199
877.418	3264
877.546	3264
877.674	3253
877.802	3268
877.93	3237
878.058	3161
878.185	3108
878.313	3180
878.441	3211
878.568	3093
878.696	3176
878.824	3230
878.951	3283
879.079	3462
879.206	3637
879.333	3447
879.461	3336
879.588	3363
879.715	3523
879.842	3591
879.97	3431
880.097	3218
880.224	3135
880.351	3192
880.478	3218
880.605	3253
880.732	3184
880.859	3515
880.986	3283
881.112	3363
881.239	3203
881.366	3138
881.493	3017
881.619	3070
881.746	3070
881.872	3089
881.999	3100
882.125	3176
882.252	3226
882.378	3306
882.505	3450
882.631	3283
882.757	3154
882.883	3222
883.01	3211
883.136	3154
883.262	3112
883.388	3123
883.514	3325
883.64	3401
883.766	3317
883.892	3211
884.018	3237
884.143	3420
884.269	3523
884.395	3214
884.52	3135
884.646	3195
884.772	3112
884.897	3142
885.023	3188
885.148	3344
885.274	3454
885.399	3393
885.524	3287
885.65	3268
885.775	3306
885.9	3283
886.025	3424
886.15	3355
886.275	3340
886.4	3230
886.525	3287
886.65	3294
886.775	3325
886.9	3511
887.025	3641
887.149	3401
887.274	3298
887.399	3199
887.523	3184
887.648	3184
887.773	3203
887.897	3382
888.021	3416
888.146	3321
888.27	3447
888.395	3568
888.519	3462
888.643	3439
888.767	3477
888.891	3317
889.015	3241
889.139	3317
889.263	3264
889.387	3466
889.511	3526
889.635	3500
889.759	3272
889.883	3306
890.006	3420
890.13	3500
890.254	3260
890.377	3393
890.501	3294
890.624	3222
890.748	3329
890.871	3192
890.995	3150
891.118	3070
891.241	3203
891.364	3222
891.488	3321
891.611	3188
891.734	3230
891.857	3291
891.98	3256
892.103	3367
892.226	3275
892.349	3245
892.471	3150
892.594	3253
892.717	3306
892.839	3302
892.962	3298
893.085	3405
893.207	3302
893.33	3192
893.452	3275
893.575	3332
893.697	3226
893.819	3485
893.941	3481
894.064	3450
894.186	3268
894.308	3283
894.43	3496
894.552	3530
894.674	3473
894.796	3298
894.918	3329
895.04	3264
895.161	3454
895.283	3412
895.405	3313
895.526	3416
895.648	3409
895.769	3447
895.891	3454
896.012	3469
896.134	3443
896.255	3439
896.376	3405
896.498	3405
896.619	3507
896.74	3405
896.861	3416
896.982	3667
897.103	3873
897.224	3580
897.345	3526
897.466	3443
897.587	3492
897.708	3637
897.828	3591
897.949	3424
898.07	3317
898.19	3428
898.311	3595
898.431	3511
898.552	3519
898.672	3603
898.792	3580
898.913	3568
899.033	3401
899.153	3317
899.273	3245
899.393	3306
899.513	3306
899.633	3321
899.753	3348
899.873	3321
899.993	3401
900.113	3306
900.232	3435
900.352	3313
900.472	3279
900.591	3241
900.711	3340
900.83	3287
900.95	3409
901.069	3504
901.189	3367
901.308	3173
901.427	3131
901.546	3207
901.665	3336
901.784	3310
901.904	3222
902.023	3199
902.141	3032
902.26	2994
902.379	3157
902.498	3047
902.617	3070
902.735	3245
902.854	3253
902.973	3203
903.091	3039
903.21	3066
903.328	3188
903.446	3135
903.565	3085
903.683	3230
903.801	3146
903.919	3233
904.038	3291
904.156	3195
904.274	3283
904.392	3279
904.51	3302
904.627	3367
904.745	3469
904.863	3530
904.981	3256
905.098	3195
905.216	3226
905.334	3321
905.451	3332
905.569	3340
905.686	3412
905.803	3450
905.921	3279
906.038	3443
906.155	3359
906.272	3268
906.389	3351
906.506	3253
906.623	3222
906.74	3272
906.857	3203
906.974	3256
907.091	3462
907.208	3580
907.324	3477
907.441	3420
907.557	3214
907.674	3249
907.79	3230
907.907	3313
908.023	3412
908.139	3370
908.256	3348
908.372	3382
908.488	3389
908.604	3287
908.72	3264
908.836	3287
908.952	3313
909.068	3317
909.184	3507
909.3	3397
909.415	3530
909.531	3473
909.647	3279
909.762	3321
909.878	3306
909.993	3355
910.108	3336
910.224	3348
910.339	3412
910.454	3359
910.57	3302
910.685	3306
910.8	3591
910.915	3557
911.03	3454
911.145	3260
911.259	3313
911.374	3344
911.489	3287
911.604	3272
911.718	3169
911.833	3184
911.947	3062
912.062	2986
912.176	3173
912.291	3233
912.405	3233
912.519	3488
912.633	3481
912.748	3370
912.862	3275
912.976	3165
913.09	3097
913.204	3150
913.318	3264
913.431	3321
913.545	3332
913.659	3439
913.772	3344
913.886	3256
914	3199
914.113	3351
914.226	3405
914.34	3416
914.453	3237
914.566	3462
914.68	3329
914.793	3374
914.906	3165
915.019	3127
915.132	3074
915.245	3207
915.358	3226
915.47	3245
915.583	3306
915.696	3313
915.809	3424
915.921	3397
916.034	3313
916.146	3260
916.259	3272
916.371	3370
916.483	3378
916.595	3302
916.708	3355
916.82	3348
916.932	3367
917.044	3374
917.156	3374
917.268	3237
917.38	3340
917.491	3306
917.603	3382
917.715	3416
917.826	3481
917.938	3363
918.049	3264
918.161	3393
918.272	3614
918.384	3580
918.495	3530
918.606	3386
918.717	3294
918.828	3397
918.939	3424
919.05	3340
919.161	3382
919.272	3203
919.383	3317
919.494	3496
919.604	3728
919.715	3496
919.826	3450
919.936	3485
920.047	3614
920.157	3561
920.267	3800
920.378	3622
920.488	3599
920.598	3797
920.708	4002
920.818	3876
920.928	3850
921.038	4010
921.148	4036
921.258	3720
921.368	3618
921.477	3599
921.587	3564
921.697	3477
921.806	3667
921.916	3549
922.025	3329
922.134	3409
922.244	3348
922.353	3458
922.462	3317
922.571	3222
922.68	3123
922.789	3077
922.898	3138
923.007	3127
923.116	3253
923.224	3192
923.333	3169
923.442	3119
923.55	3093
923.659	3180
923.767	3211
923.876	3142
923.984	3253
924.092	3093
924.201	3165
924.309	3245
924.417	3233
924.525	3241
924.633	3230
924.741	4223
924.849	3024
924.956	3249
925.064	3131
925.172	3066
925.279	3135
925.387	3211
925.494	3222
925.602	3420
925.709	3313
925.816	3222
925.924	3336
926.031	3370
926.138	3382
926.245	3382
926.352	3241
926.459	3443
926.566	3473
926.673	3340
926.779	3283
926.886	3283
926.993	3226
927.099	3146
927.206	3188
927.312	3119
927.419	3237
927.525	3233
927.631	3253
927.737	3154
927.843	3135
927.95	3055
928.056	3157
928.162	3207
928.267	3302
928.373	3975
928.479	3336
928.585	3119
928.69	3207
928.796	3279
928.901	3211
929.007	3047
929.112	3211
929.218	3207
929.323	3154
929.428	3211
929.533	3287
929.638	3104
929.743	3192
929.848	3283
929.953	3241
930.058	3157
930.163	3013
930.267	3070
930.372	3253
930.477	3066
930.581	3325
930.685	3211
930.79	3074
930.894	3127
930.998	3104
931.103	3287
931.207	2960
931.311	2952
931.415	2922
931.519	2773
931.623	2811
