Data from test_V78500241_369.txt Node
Date: Fri Mar 25 16:17:45 CST 2022
User: usil
Spectrometer: V785-0024
Trigger mode: 0
Integration Time (sec): 4.000000E-1
Scans to average: 1
Nonlinearity correction enabled: false
Boxcar width: 0
Storing dark spectrum: false
XAxis mode: Wavelengths
Number of Pixels in Spectrum: 1024
>>>>>Begin Spectral Data<<<<<
801.071	2902
801.214	2975
801.356	2880
801.499	2883
801.641	2887
801.783	2895
801.926	3047
802.068	2960
802.211	2990
802.353	3017
802.496	2982
802.638	3032
802.78	3020
802.923	3081
803.065	2979
803.208	2902
803.35	2948
803.492	2899
803.635	2941
803.777	2716
803.919	2857
804.061	3154
804.204	2963
804.346	2891
804.488	2834
804.63	2982
804.773	2902
804.915	2918
805.057	3070
805.199	2899
805.341	2986
805.483	3058
805.626	3001
805.768	2937
805.91	3119
806.052	3081
806.194	3017
806.336	3230
806.478	3001
806.62	2925
806.762	3005
806.904	3032
807.046	3142
807.188	2960
807.33	2914
807.472	2979
807.614	2906
807.756	2994
807.898	2910
808.04	2922
808.182	2994
808.324	2933
808.465	2914
808.607	2895
808.749	2807
808.891	2853
809.033	2986
809.174	2979
809.316	2902
809.458	2895
809.6	2785
809.741	2788
809.883	2769
810.025	2876
810.166	2834
810.308	2823
810.45	2883
810.591	2773
810.733	2777
810.875	2823
811.016	2781
811.158	2746
811.299	2845
811.441	2925
811.582	2902
811.724	2800
811.865	2849
812.007	2842
812.148	2872
812.29	2842
812.431	2853
812.573	2906
812.714	2963
812.855	3066
812.997	3017
813.138	3135
813.279	3009
813.421	2956
813.562	2922
813.703	2838
813.845	2891
813.986	2762
814.127	2712
814.268	2826
814.41	2880
814.551	2804
814.692	2849
814.833	2842
814.974	2914
815.115	2979
815.256	2834
815.397	2823
815.539	2845
815.68	2766
815.821	2807
815.962	2941
816.103	2967
816.244	2887
816.385	2849
816.526	2982
816.666	2918
816.807	2781
816.948	2876
817.089	2891
817.23	2872
817.371	2800
817.512	2788
817.653	2853
817.793	2807
817.934	2895
818.075	2948
818.216	2982
818.356	3043
818.497	2868
818.638	2769
818.778	2815
818.919	2823
819.06	2731
819.2	2883
819.341	2804
819.481	2788
819.622	2922
819.762	3127
819.903	3058
820.043	2922
820.184	2857
820.324	2902
820.465	3005
820.605	3009
820.746	2998
820.886	2902
821.026	3089
821.167	3146
821.307	3260
821.447	3253
821.588	3226
821.728	3203
821.868	3222
822.008	3047
822.149	3195
822.289	3233
822.429	3089
822.569	3089
822.709	3188
822.849	3058
822.99	3066
823.13	3173
823.27	3241
823.41	3097
823.55	3127
823.69	3108
823.83	3131
823.97	3116
824.11	3028
824.25	2986
824.389	3047
824.529	3070
824.669	3043
824.809	3199
824.949	3253
825.089	3226
825.228	3154
825.368	3017
825.508	2952
825.648	2971
825.787	2982
825.927	3005
826.067	2948
826.206	2982
826.346	3028
826.485	3058
826.625	3089
826.765	3332
826.904	3195
827.044	3001
827.183	2948
827.323	2842
827.462	3020
827.601	2937
827.741	2937
827.88	2902
828.02	2838
828.159	2963
828.298	3043
828.437	3104
828.577	3017
828.716	3264
828.855	3077
828.994	2952
829.134	2887
829.273	2910
829.412	2883
829.551	2811
829.69	2887
829.829	2971
829.968	3123
830.107	3009
830.246	2990
830.385	2902
830.524	2887
830.663	2804
830.802	2724
830.941	2629
831.08	2670
831.219	2766
831.357	2746
831.496	2925
831.635	2712
831.774	2629
831.913	2632
832.051	2541
832.19	2571
832.329	2716
832.467	2564
832.606	2492
832.744	2568
832.883	2579
833.022	2579
833.16	2674
833.299	2697
833.437	2705
833.576	2716
833.714	2724
833.852	2750
833.991	2750
834.129	2819
834.267	2826
834.406	2804
834.544	2849
834.682	2864
834.821	2845
834.959	3039
835.097	2902
835.235	3070
835.373	2990
835.511	2994
835.65	2963
835.788	2994
835.926	2823
836.064	2788
836.202	2880
836.34	3043
836.478	3131
836.615	3024
836.753	3112
836.891	3180
837.029	3142
837.167	3100
837.305	3039
837.443	3005
837.58	2982
837.718	3146
837.856	3070
837.993	2982
838.131	3089
838.269	3116
838.406	3093
838.544	3074
838.681	2922
838.819	2902
838.956	2785
839.094	2838
839.231	2918
839.369	3017
839.506	3363
839.643	3195
839.781	3005
839.918	2960
840.055	3036
840.193	3058
840.33	3051
840.467	3100
840.604	3138
840.742	3405
840.879	3043
841.016	3024
841.153	3100
841.29	3332
841.427	3256
841.564	3233
841.701	3310
841.838	3207
841.975	3146
842.112	3192
842.249	3066
842.385	3001
842.522	3264
842.659	3085
842.796	3074
842.933	3112
843.069	3036
843.206	3032
843.343	3195
843.479	3081
843.616	3116
843.752	2914
843.889	2880
844.025	3093
844.162	2857
844.298	3074
844.435	2941
844.571	2906
844.708	3047
844.844	3165
844.98	3203
845.117	3176
845.253	3074
845.389	3028
845.525	3058
845.661	3112
845.798	3020
845.934	3081
846.07	3028
846.206	3230
846.342	3317
846.478	3230
846.614	3055
846.75	3013
846.886	3017
847.022	3245
847.158	3123
847.294	3233
847.429	3233
847.565	3241
847.701	3500
847.837	3058
847.972	2979
848.108	3165
848.244	3108
848.379	2960
848.515	2941
848.65	2944
848.786	2963
848.921	2990
849.057	3119
849.192	3123
849.328	3043
849.463	3123
849.598	3039
849.734	3051
849.869	3005
850.004	2910
850.14	2952
850.275	2922
850.41	2830
850.545	2861
850.68	2929
850.815	2941
850.95	2956
851.085	3203
851.22	3089
851.355	3047
851.49	2979
851.625	2986
851.76	2994
851.895	2956
852.03	2887
852.165	3005
852.299	3123
852.434	3188
852.569	3127
852.703	3165
852.838	3241
852.973	3275
853.107	3332
853.242	3192
853.376	3081
853.511	2967
853.645	3001
853.78	3226
853.914	3138
854.048	3104
854.183	3070
854.317	3150
854.451	3260
854.585	3100
854.72	3081
854.854	3199
854.988	3119
855.122	3085
855.256	2971
855.39	3131
855.524	3237
855.658	3176
855.792	3142
855.926	3165
856.06	3214
856.194	3256
856.327	3188
856.461	3062
856.595	3062
856.729	3085
856.862	3211
856.996	3173
857.13	3180
857.263	3207
857.397	3279
857.53	3085
857.664	3199
857.797	3226
857.931	3272
858.064	3146
858.197	3176
858.331	3108
858.464	3085
858.597	2979
858.731	3104
858.864	3100
858.997	3100
859.13	3150
859.263	3173
859.396	3192
859.529	3043
859.662	3062
859.795	3024
859.928	3173
860.061	3268
860.194	3272
860.327	3150
860.46	3093
860.592	3256
860.725	3195
860.858	3256
860.99	3112
861.123	3066
861.256	3066
861.388	3131
861.521	3789
861.653	3005
861.786	2994
861.918	3009
862.05	3047
862.183	3116
862.315	3192
862.447	3195
862.58	3112
862.712	2956
862.844	2887
862.976	2963
863.108	3009
863.24	3409
863.372	2880
863.504	2960
863.636	2960
863.768	3009
863.9	2971
864.032	2902
864.164	2922
864.296	3043
864.428	3089
864.559	3108
864.691	3085
864.823	3062
864.954	3028
865.086	3013
865.217	2975
865.349	2948
865.48	3009
865.612	3005
865.743	3157
865.875	3009
866.006	2925
866.137	2986
866.269	2925
866.4	2960
866.531	2906
866.662	2872
866.793	2887
866.924	2868
867.055	2998
867.186	2933
867.317	2857
867.448	2823
867.579	2857
867.71	2826
867.841	2800
867.972	2872
868.103	2891
868.233	2876
868.364	2845
868.495	2883
868.625	3093
868.756	3138
868.886	2975
869.017	3032
869.147	3169
869.278	3142
869.408	3024
869.539	3062
869.669	3093
869.799	3032
869.929	3150
870.06	3077
870.19	3344
870.32	3283
870.45	3329
870.58	3363
870.71	3458
870.84	3492
870.97	3268
871.1	3233
871.23	3473
871.36	3439
871.489	3367
871.619	3401
871.749	3382
871.879	3405
872.008	3481
872.138	3340
872.267	3230
872.397	3119
872.526	3093
872.656	2998
872.785	3070
872.915	3207
873.044	3287
873.173	3184
873.303	3249
873.432	3245
873.561	3222
873.69	3142
873.819	3112
873.948	3188
874.077	3077
874.206	3013
874.335	3112
874.464	3203
874.593	3348
874.722	3264
874.851	3412
874.979	3321
875.108	3336
875.237	3161
875.365	3142
875.494	3150
875.623	3275
875.751	3097
875.88	3119
876.008	3169
876.136	3233
876.265	3355
876.393	3515
876.521	3412
876.65	3401
876.778	3310
876.906	3203
877.034	3218
877.162	3222
877.29	3203
877.418	3214
877.546	3253
877.674	3245
877.802	3199
877.93	3214
878.058	3146
878.185	3127
878.313	3154
878.441	3222
878.568	3100
878.696	3150
878.824	3253
878.951	3351
879.079	3458
879.206	3625
879.333	3466
879.461	3298
879.588	3355
879.715	3481
879.842	3557
879.97	3393
880.097	3154
880.224	3135
880.351	3165
880.478	3211
880.605	3226
880.732	3146
880.859	3515
880.986	3294
881.112	3287
881.239	3199
881.366	3093
881.493	3017
881.619	2998
881.746	3089
881.872	3062
881.999	3089
882.125	3161
882.252	3245
882.378	3279
882.505	3450
882.631	3298
882.757	3142
882.883	3184
883.01	3241
883.136	3131
883.262	3081
883.388	3093
883.514	3294
883.64	3363
883.766	3306
883.892	3157
884.018	3245
884.143	3424
884.269	3538
884.395	3207
884.52	3138
884.646	3192
884.772	3135
884.897	3097
885.023	3199
885.148	3332
885.274	3401
885.399	3382
885.524	3283
885.65	3275
885.775	3313
885.9	3272
886.025	3386
886.15	3367
886.275	3325
886.4	3226
886.525	3298
886.65	3275
886.775	3294
886.9	3515
887.025	3641
887.149	3397
887.274	3253
887.399	3165
887.523	3218
887.648	3173
887.773	3176
887.897	3355
888.021	3363
888.146	3283
888.27	3424
888.395	3561
888.519	3397
888.643	3412
888.767	3454
888.891	3275
889.015	3222
889.139	3310
889.263	3249
889.387	3401
889.511	3481
889.635	3466
889.759	3268
889.883	3253
890.006	3409
890.13	3504
890.254	3272
890.377	3348
890.501	3218
890.624	3165
890.748	3310
890.871	3165
890.995	3123
891.118	3066
891.241	3203
891.364	3241
891.488	3310
891.611	3173
891.734	3211
891.857	3264
891.98	3195
892.103	3355
892.226	3279
892.349	3188
892.471	3123
892.594	3241
892.717	3253
892.839	3260
892.962	3291
893.085	3344
893.207	3268
893.33	3150
893.452	3173
893.575	3317
893.697	3245
893.819	3481
893.941	3458
894.064	3454
894.186	3226
894.308	3249
894.43	3409
894.552	3545
894.674	3466
894.796	3298
894.918	3325
895.04	3264
895.161	3374
895.283	3351
895.405	3291
895.526	3313
895.648	3439
895.769	3439
895.891	3462
896.012	3450
896.134	3473
896.255	3370
896.376	3348
896.498	3363
896.619	3435
896.74	3340
896.861	3386
896.982	3644
897.103	3835
897.224	3595
897.345	3481
897.466	3481
897.587	3454
897.708	3625
897.828	3523
897.949	3447
898.07	3294
898.19	3439
898.311	3610
898.431	3443
898.552	3526
898.672	3595
898.792	3576
898.913	3507
899.033	3386
899.153	3310
899.273	3214
899.393	3279
899.513	3310
899.633	3302
899.753	3317
899.873	3313
899.993	3386
900.113	3317
900.232	3401
900.352	3348
900.472	3275
900.591	3214
900.711	3317
900.83	3233
900.95	3431
901.069	3481
901.189	3340
901.308	3192
901.427	3169
901.546	3226
901.665	3329
901.784	3370
901.904	3184
902.023	3138
902.141	2998
902.26	3028
902.379	3119
902.498	3047
902.617	3062
902.735	3154
902.854	3245
902.973	3226
903.091	2994
903.21	3051
903.328	3142
903.446	3093
903.565	3058
903.683	3218
903.801	3100
903.919	3264
904.038	3291
904.156	3165
904.274	3264
904.392	3226
904.51	3264
904.627	3340
904.745	3401
904.863	3504
904.981	3218
905.098	3157
905.216	3226
905.334	3291
905.451	3313
905.569	3325
905.686	3412
905.803	3420
905.921	3283
906.038	3443
906.155	3363
906.272	3294
906.389	3321
906.506	3230
906.623	3233
906.74	3249
906.857	3222
906.974	3287
907.091	3466
907.208	3557
907.324	3504
907.441	3363
907.557	3211
907.674	3226
907.79	3230
907.907	3272
908.023	3374
908.139	3389
908.256	3325
908.372	3351
908.488	3348
908.604	3222
908.72	3279
908.836	3283
908.952	3279
909.068	3332
909.184	3450
909.3	3374
909.415	3492
909.531	3447
909.647	3279
909.762	3272
909.878	3230
909.993	3363
910.108	3344
910.224	3340
910.339	3412
910.454	3279
910.57	3321
910.685	3237
910.8	3599
910.915	3564
911.03	3462
911.145	3260
911.259	3298
911.374	3272
911.489	3237
911.604	3241
911.718	3135
911.833	3176
911.947	3039
912.062	2979
912.176	3161
912.291	3176
912.405	3192
912.519	3439
912.633	3466
912.748	3332
912.862	3287
912.976	3161
913.09	3066
913.204	3131
913.318	3203
913.431	3329
913.545	3279
913.659	3370
913.772	3325
913.886	3195
914	3218
914.113	3340
914.226	3389
914.34	3397
914.453	3199
914.566	3389
914.68	3279
914.793	3306
914.906	3123
915.019	3142
915.132	3097
915.245	3169
915.358	3222
915.47	3214
915.583	3249
915.696	3279
915.809	3370
915.921	3428
916.034	3253
916.146	3253
916.259	3207
916.371	3443
916.483	3367
916.595	3279
916.708	3355
916.82	3325
916.932	3310
917.044	3340
917.156	3355
917.268	3218
917.38	3294
917.491	3294
917.603	3367
917.715	3439
917.826	3458
917.938	3340
918.049	3310
918.161	3485
918.272	3599
918.384	3564
918.495	3507
918.606	3329
918.717	3272
918.828	3370
918.939	3409
919.05	3313
919.161	3393
919.272	3173
919.383	3298
919.494	3477
919.604	3667
919.715	3515
919.826	3439
919.936	3473
920.047	3580
920.157	3572
920.267	3747
920.378	3587
920.488	3572
920.598	3797
920.708	3922
920.818	3816
920.928	3850
921.038	4040
921.148	3991
921.258	3698
921.368	3629
921.477	3614
921.587	3519
921.697	3481
921.806	3629
921.916	3519
922.025	3336
922.134	3329
922.244	3313
922.353	3405
922.462	3256
922.571	3222
922.68	3112
922.789	3047
922.898	3142
923.007	3119
923.116	3188
923.224	3165
923.333	3195
923.442	3119
923.55	3081
923.659	3100
923.767	3218
923.876	3108
923.984	3245
924.092	3123
924.201	3184
924.309	3207
924.417	3222
924.525	3184
924.633	3237
924.741	4204
924.849	3024
924.956	3237
925.064	3077
925.172	3043
925.279	3085
925.387	3245
925.494	3199
925.602	3336
925.709	3332
925.816	3169
925.924	3275
926.031	3393
926.138	3321
926.245	3344
926.352	3253
926.459	3401
926.566	3443
926.673	3321
926.779	3245
926.886	3260
926.993	3157
927.099	3135
927.206	3131
927.312	3154
927.419	3226
927.525	3195
927.631	3264
927.737	3173
927.843	3108
927.95	3017
928.056	3123
928.162	3154
928.267	3233
928.373	3842
928.479	3310
928.585	3058
928.69	3230
928.796	3268
928.901	3169
929.007	3020
929.112	3230
929.218	3169
929.323	3116
929.428	3154
929.533	3294
929.638	3112
929.743	3173
929.848	3226
929.953	3199
930.058	3150
930.163	2994
930.267	3077
930.372	3188
930.477	3070
930.581	3313
930.685	3169
930.79	3028
930.894	3127
930.998	3108
931.103	3260
931.207	3001
931.311	2956
931.415	2918
931.519	2758
931.623	2800
