Data from test_V78500241_1040.txt Node
Date: Fri Mar 25 16:22:24 CST 2022
User: usil
Spectrometer: V785-0024
Trigger mode: 0
Integration Time (sec): 4.000000E-1
Scans to average: 1
Nonlinearity correction enabled: false
Boxcar width: 0
Storing dark spectrum: false
XAxis mode: Wavelengths
Number of Pixels in Spectrum: 1024
>>>>>Begin Spectral Data<<<<<
801.071	2944
801.214	2998
801.356	2910
801.499	2925
801.641	2918
801.783	2960
801.926	3089
802.068	2990
802.211	2998
802.353	3043
802.496	2975
802.638	3039
802.78	3070
802.923	3081
803.065	3039
803.208	2914
803.35	2906
803.492	2941
803.635	2960
803.777	2788
803.919	2868
804.061	3165
804.204	2975
804.346	2887
804.488	2857
804.63	3005
804.773	2914
804.915	2937
805.057	3085
805.199	2979
805.341	2986
805.483	3081
805.626	3077
805.768	2948
805.91	3085
806.052	3104
806.194	3043
806.336	3245
806.478	3051
806.62	2971
806.762	2979
806.904	3104
807.046	3195
807.188	3024
807.33	2963
807.472	3001
807.614	2895
807.756	3009
807.898	2956
808.04	2918
808.182	3001
808.324	2963
808.465	2944
808.607	2910
808.749	2826
808.891	2864
809.033	2979
809.174	3001
809.316	2937
809.458	2944
809.6	2762
809.741	2834
809.883	2777
810.025	2868
810.166	2883
810.308	2872
810.45	2845
810.591	2792
810.733	2777
810.875	2842
811.016	2796
811.158	2781
811.299	2811
811.441	2937
811.582	2910
811.724	2842
811.865	2864
812.007	2891
812.148	2902
812.29	2868
812.431	2922
812.573	2994
812.714	2967
812.855	3074
812.997	3066
813.138	3165
813.279	3032
813.421	2960
813.562	3017
813.703	2941
813.845	2887
813.986	2807
814.127	2697
814.268	2864
814.41	2876
814.551	2872
814.692	2876
814.833	2823
814.974	2933
815.115	3005
815.256	2845
815.397	2819
815.539	2861
815.68	2781
815.821	2785
815.962	2922
816.103	2967
816.244	2880
816.385	2906
816.526	2975
816.666	2914
816.807	2792
816.948	2899
817.089	2925
817.23	2853
817.371	2777
817.512	2800
817.653	2842
817.793	2842
817.934	2925
818.075	2990
818.216	2975
818.356	3020
818.497	2929
818.638	2838
818.778	2857
818.919	2823
819.06	2766
819.2	2868
819.341	2819
819.481	2834
819.622	2918
819.762	3100
819.903	3074
820.043	2918
820.184	2925
820.324	2895
820.465	3039
820.605	3074
820.746	3039
820.886	2963
821.026	3100
821.167	3195
821.307	3283
821.447	3268
821.588	3207
821.728	3203
821.868	3195
822.008	3112
822.149	3165
822.289	3264
822.429	3131
822.569	3089
822.709	3188
822.849	3058
822.99	3089
823.13	3180
823.27	3199
823.41	3169
823.55	3150
823.69	3142
823.83	3176
823.97	3146
824.11	3013
824.25	3028
824.389	3131
824.529	3119
824.669	3112
824.809	3180
824.949	3256
825.089	3226
825.228	3169
825.368	3013
825.508	2975
825.648	2990
825.787	3028
825.927	3032
826.067	3020
826.206	2975
826.346	3066
826.485	3135
826.625	3108
826.765	3298
826.904	3245
827.044	3013
827.183	2960
827.323	2880
827.462	3032
827.601	2922
827.741	2952
827.88	2906
828.02	2834
828.159	2975
828.298	3077
828.437	3135
828.577	3047
828.716	3279
828.855	3104
828.994	2902
829.134	2883
829.273	2910
829.412	2872
829.551	2864
829.69	2933
829.829	3032
829.968	3146
830.107	2986
830.246	3047
830.385	2922
830.524	2899
830.663	2826
830.802	2712
830.941	2674
831.08	2693
831.219	2781
831.357	2781
831.496	2925
831.635	2773
831.774	2663
831.913	2693
832.051	2560
832.19	2606
832.329	2697
832.467	2533
832.606	2522
832.744	2632
832.883	2598
833.022	2621
833.16	2667
833.299	2686
833.437	2689
833.576	2701
833.714	2701
833.852	2743
833.991	2762
834.129	2857
834.267	2842
834.406	2800
834.544	2941
834.682	2929
834.821	2864
834.959	3043
835.097	2906
835.235	3074
835.373	2986
835.511	3043
835.65	2963
835.788	2986
835.926	2853
836.064	2804
836.202	2864
836.34	3119
836.478	3173
836.615	3093
836.753	3157
836.891	3226
837.029	3165
837.167	3127
837.305	3104
837.443	3058
837.58	2952
837.718	3119
837.856	3074
837.993	3013
838.131	3093
838.269	3150
838.406	3123
838.544	3081
838.681	2975
838.819	2902
838.956	2830
839.094	2826
839.231	2960
839.369	3062
839.506	3389
839.643	3214
839.781	3005
839.918	2967
840.055	3058
840.193	3100
840.33	3066
840.467	3116
840.604	3165
840.742	3431
840.879	3077
841.016	3070
841.153	3131
841.29	3302
841.427	3313
841.564	3298
841.701	3310
841.838	3233
841.975	3184
842.112	3211
842.249	3097
842.385	3070
842.522	3279
842.659	3104
842.796	3058
842.933	3138
843.069	3051
843.206	3066
843.343	3188
843.479	3116
843.616	3116
843.752	2891
843.889	2887
844.025	3112
844.162	2868
844.298	3100
844.435	2937
844.571	2887
844.708	3058
844.844	3199
844.98	3245
845.117	3161
845.253	3062
845.389	3001
845.525	3066
845.661	3119
845.798	3001
845.934	3123
846.07	3055
846.206	3237
846.342	3321
846.478	3237
846.614	3112
846.75	3066
846.886	3043
847.022	3233
847.158	3154
847.294	3222
847.429	3256
847.565	3230
847.701	3481
847.837	3036
847.972	3001
848.108	3142
848.244	3116
848.379	3017
848.515	2956
848.65	2918
848.786	2956
848.921	3055
849.057	3097
849.192	3146
849.328	3036
849.463	3169
849.598	3058
849.734	3051
849.869	2986
850.004	2937
850.14	2979
850.275	2906
850.41	2845
850.545	2902
850.68	2952
850.815	2952
850.95	2971
851.085	3184
851.22	3127
851.355	3062
851.49	3017
851.625	3058
851.76	3020
851.895	2975
852.03	2960
852.165	3081
852.299	3127
852.434	3226
852.569	3138
852.703	3184
852.838	3245
852.973	3359
853.107	3382
853.242	3138
853.376	3150
853.511	3036
853.645	3081
853.78	3287
853.914	3135
854.048	3176
854.183	3131
854.317	3192
854.451	3363
854.585	3195
854.72	3104
854.854	3237
854.988	3093
855.122	3142
855.256	3009
855.39	3157
855.524	3268
855.658	3207
855.792	3169
855.926	3237
856.06	3245
856.194	3302
856.327	3188
856.461	3119
856.595	3066
856.729	3138
856.862	3287
856.996	3203
857.13	3264
857.263	3268
857.397	3294
857.53	3161
857.664	3230
857.797	3355
857.931	3298
858.064	3233
858.197	3279
858.331	3165
858.464	3138
858.597	3066
858.731	3176
858.864	3123
858.997	3100
859.13	3211
859.263	3195
859.396	3249
859.529	3127
859.662	3100
859.795	3077
859.928	3207
860.061	3306
860.194	3294
860.327	3173
860.46	3127
860.592	3294
860.725	3260
860.858	3287
860.99	3135
861.123	3089
861.256	3097
861.388	3161
861.521	3861
861.653	3036
861.786	3020
861.918	3017
862.05	3085
862.183	3161
862.315	3195
862.447	3233
862.58	3161
862.712	2956
862.844	2914
862.976	3081
863.108	3058
863.24	3443
863.372	2918
863.504	2971
863.636	2956
863.768	3047
863.9	3001
864.032	2929
864.164	2986
864.296	3043
864.428	3150
864.559	3135
864.691	3131
864.823	3089
864.954	3081
865.086	3051
865.217	3032
865.349	3013
865.48	3036
865.612	3039
865.743	3173
865.875	3020
866.006	2956
866.137	3001
866.269	2979
866.4	2967
866.531	2967
866.662	2948
866.793	2899
866.924	2941
867.055	3017
867.186	2933
867.317	2937
867.448	2883
867.579	2880
867.71	2880
867.841	2834
867.972	2941
868.103	2944
868.233	2941
868.364	2948
868.495	2956
868.625	3116
868.756	3199
868.886	3032
869.017	3077
869.147	3157
869.278	3214
869.408	3074
869.539	3047
869.669	3142
869.799	3051
869.929	3131
870.06	3150
870.19	3359
870.32	3329
870.45	3370
870.58	3412
870.71	3496
870.84	3462
870.97	3363
871.1	3287
871.23	3458
871.36	3485
871.489	3378
871.619	3416
871.749	3435
871.879	3466
872.008	3496
872.138	3378
872.267	3306
872.397	3180
872.526	3138
872.656	3032
872.785	3135
872.915	3260
873.044	3340
873.173	3237
873.303	3249
873.432	3287
873.561	3287
873.69	3169
873.819	3169
873.948	3233
874.077	3127
874.206	3104
874.335	3131
874.464	3218
874.593	3336
874.722	3294
874.851	3431
874.979	3386
875.108	3332
875.237	3199
875.365	3176
875.494	3203
875.623	3260
875.751	3112
875.88	3150
876.008	3230
876.136	3275
876.265	3359
876.393	3549
876.521	3477
876.65	3435
876.778	3329
876.906	3306
877.034	3214
877.162	3279
877.29	3211
877.418	3310
877.546	3279
877.674	3291
877.802	3253
877.93	3256
878.058	3161
878.185	3150
878.313	3245
878.441	3233
878.568	3100
878.696	3192
878.824	3272
878.951	3325
879.079	3435
879.206	3656
879.333	3462
879.461	3386
879.588	3382
879.715	3511
879.842	3644
879.97	3389
880.097	3192
880.224	3112
880.351	3226
880.478	3237
880.605	3222
880.732	3233
880.859	3500
880.986	3336
881.112	3359
881.239	3237
881.366	3146
881.493	3066
881.619	3066
881.746	3138
881.872	3119
881.999	3135
882.125	3176
882.252	3302
882.378	3329
882.505	3454
882.631	3279
882.757	3188
882.883	3275
883.01	3253
883.136	3173
883.262	3150
883.388	3138
883.514	3348
883.64	3367
883.766	3344
883.892	3211
884.018	3287
884.143	3435
884.269	3603
884.395	3249
884.52	3161
884.646	3207
884.772	3146
884.897	3146
885.023	3222
885.148	3370
885.274	3435
885.399	3355
885.524	3302
885.65	3272
885.775	3317
885.9	3306
886.025	3447
886.15	3378
886.275	3313
886.4	3294
886.525	3294
886.65	3287
886.775	3253
886.9	3511
887.025	3660
887.149	3454
887.274	3275
887.399	3218
887.523	3253
887.648	3230
887.773	3233
887.897	3355
888.021	3439
888.146	3317
888.27	3469
888.395	3564
888.519	3447
888.643	3439
888.767	3485
888.891	3355
889.015	3302
889.139	3272
889.263	3249
889.387	3416
889.511	3534
889.635	3462
889.759	3321
889.883	3336
890.006	3424
890.13	3477
890.254	3279
890.377	3386
890.501	3230
890.624	3203
890.748	3310
890.871	3249
890.995	3135
891.118	3085
891.241	3192
891.364	3233
891.488	3344
891.611	3237
891.734	3195
891.857	3317
891.98	3294
892.103	3332
892.226	3329
892.349	3218
892.471	3142
892.594	3253
892.717	3321
892.839	3264
892.962	3310
893.085	3378
893.207	3336
893.33	3165
893.452	3233
893.575	3348
893.697	3245
893.819	3462
893.941	3485
894.064	3454
894.186	3272
894.308	3317
894.43	3511
894.552	3568
894.674	3477
894.796	3321
894.918	3359
895.04	3279
895.161	3466
895.283	3416
895.405	3306
895.526	3329
895.648	3462
895.769	3462
895.891	3477
896.012	3477
896.134	3485
896.255	3458
896.376	3405
896.498	3386
896.619	3477
896.74	3348
896.861	3405
896.982	3747
897.103	3831
897.224	3622
897.345	3534
897.466	3447
897.587	3507
897.708	3694
897.828	3557
897.949	3466
898.07	3332
898.19	3409
898.311	3629
898.431	3443
898.552	3538
898.672	3614
898.792	3580
898.913	3542
899.033	3454
899.153	3344
899.273	3233
899.393	3294
899.513	3306
899.633	3294
899.753	3340
899.873	3329
899.993	3355
900.113	3329
900.232	3374
900.352	3344
900.472	3279
900.591	3211
900.711	3298
900.83	3291
900.95	3439
901.069	3454
901.189	3359
901.308	3180
901.427	3119
901.546	3222
901.665	3317
901.784	3336
901.904	3230
902.023	3150
902.141	3036
902.26	3013
902.379	3127
902.498	3104
902.617	3051
902.735	3253
902.854	3214
902.973	3222
903.091	3039
903.21	3081
903.328	3165
903.446	3116
903.565	3104
903.683	3222
903.801	3173
903.919	3283
904.038	3317
904.156	3184
904.274	3344
904.392	3268
904.51	3332
904.627	3344
904.745	3469
904.863	3481
904.981	3291
905.098	3226
905.216	3233
905.334	3332
905.451	3287
905.569	3336
905.686	3416
905.803	3416
905.921	3283
906.038	3458
906.155	3370
906.272	3302
906.389	3370
906.506	3203
906.623	3268
906.74	3283
906.857	3241
906.974	3291
907.091	3447
907.208	3599
907.324	3534
907.441	3401
907.557	3256
907.674	3256
907.79	3237
907.907	3302
908.023	3348
908.139	3412
908.256	3363
908.372	3393
908.488	3386
908.604	3245
908.72	3226
908.836	3321
908.952	3313
909.068	3351
909.184	3492
909.3	3393
909.415	3538
909.531	3450
909.647	3298
909.762	3336
909.878	3249
909.993	3351
910.108	3332
910.224	3351
910.339	3378
910.454	3310
910.57	3329
910.685	3275
910.8	3603
910.915	3564
911.03	3458
911.145	3291
911.259	3260
911.374	3294
911.489	3260
911.604	3260
911.718	3146
911.833	3146
911.947	3074
912.062	3020
912.176	3173
912.291	3214
912.405	3241
912.519	3420
912.633	3473
912.748	3348
912.862	3298
912.976	3165
913.09	3047
913.204	3135
913.318	3207
913.431	3393
913.545	3329
913.659	3428
913.772	3340
913.886	3233
914	3211
914.113	3344
914.226	3458
914.34	3344
914.453	3211
914.566	3428
914.68	3336
914.793	3298
914.906	3150
915.019	3173
915.132	3047
915.245	3176
915.358	3253
915.47	3218
915.583	3233
915.696	3313
915.809	3401
915.921	3409
916.034	3249
916.146	3294
916.259	3218
916.371	3397
916.483	3397
916.595	3253
916.708	3355
916.82	3336
916.932	3336
917.044	3374
917.156	3359
917.268	3268
917.38	3317
917.491	3325
917.603	3378
917.715	3477
917.826	3431
917.938	3363
918.049	3275
918.161	3450
918.272	3538
918.384	3553
918.495	3496
918.606	3351
918.717	3272
918.828	3412
918.939	3439
919.05	3332
919.161	3397
919.272	3192
919.383	3241
919.494	3500
919.604	3644
919.715	3511
919.826	3416
919.936	3481
920.047	3557
920.157	3564
920.267	3781
920.378	3599
920.488	3572
920.598	3835
920.708	3968
920.818	3774
920.928	3857
921.038	4032
921.148	3975
921.258	3713
921.368	3641
921.477	3610
921.587	3561
921.697	3424
921.806	3606
921.916	3534
922.025	3359
922.134	3367
922.244	3313
922.353	3435
922.462	3291
922.571	3253
922.68	3138
922.789	3093
922.898	3165
923.007	3142
923.116	3237
923.224	3176
923.333	3199
923.442	3085
923.55	3116
923.659	3135
923.767	3218
923.876	3135
923.984	3237
924.092	3119
924.201	3211
924.309	3237
924.417	3253
924.525	3203
924.633	3272
924.741	4185
924.849	3077
924.956	3253
925.064	3146
925.172	3058
925.279	3077
925.387	3188
925.494	3214
925.602	3355
925.709	3313
925.816	3199
925.924	3291
926.031	3386
926.138	3283
926.245	3363
926.352	3249
926.459	3405
926.566	3462
926.673	3336
926.779	3268
926.886	3275
926.993	3154
927.099	3127
927.206	3116
927.312	3104
927.419	3264
927.525	3203
927.631	3279
927.737	3169
927.843	3108
927.95	2990
928.056	3135
928.162	3176
928.267	3214
928.373	3831
928.479	3340
928.585	3108
928.69	3203
928.796	3260
928.901	3138
929.007	3032
929.112	3199
929.218	3203
929.323	3138
929.428	3146
929.533	3302
929.638	3169
929.743	3142
929.848	3230
929.953	3192
930.058	3123
930.163	2986
930.267	3039
930.372	3192
930.477	3070
930.581	3306
930.685	3192
930.79	3077
930.894	3104
930.998	3108
931.103	3329
931.207	2971
931.311	2944
931.415	2960
931.519	2777
931.623	2823
