Data from test_V78500241_61.txt Node
Date: Fri Mar 25 16:15:37 CST 2022
User: usil
Spectrometer: V785-0024
Trigger mode: 0
Integration Time (sec): 4.000000E-1
Scans to average: 1
Nonlinearity correction enabled: false
Boxcar width: 0
Storing dark spectrum: false
XAxis mode: Wavelengths
Number of Pixels in Spectrum: 1024
>>>>>Begin Spectral Data<<<<<
801.071	2956
801.214	2963
801.356	2922
801.499	2941
801.641	2910
801.783	2902
801.926	3081
802.068	3074
802.211	3047
802.353	3074
802.496	2982
802.638	3032
802.78	3055
802.923	3180
803.065	3058
803.208	2929
803.35	2941
803.492	2979
803.635	2944
803.777	2788
803.919	2914
804.061	3260
804.204	3009
804.346	2944
804.488	2914
804.63	3047
804.773	2944
804.915	2944
805.057	3135
805.199	2982
805.341	3005
805.483	3047
805.626	3036
805.768	3024
805.91	3138
806.052	3131
806.194	3093
806.336	3291
806.478	3070
806.62	2975
806.762	3017
806.904	3089
807.046	3188
807.188	3062
807.33	2929
807.472	3009
807.614	2944
807.756	3028
807.898	2998
808.04	2956
808.182	3043
808.324	2975
808.465	2918
808.607	2914
808.749	2880
808.891	2914
809.033	3024
809.174	3032
809.316	2933
809.458	2948
809.6	2804
809.741	2804
809.883	2766
810.025	2872
810.166	2914
810.308	2895
810.45	2880
810.591	2823
810.733	2811
810.875	2895
811.016	2830
811.158	2800
811.299	2857
811.441	2982
811.582	2929
811.724	2872
811.865	2883
812.007	2925
812.148	2941
812.29	2918
812.431	2960
812.573	2994
812.714	3032
812.855	3062
812.997	3081
813.138	3142
813.279	3058
813.421	3028
813.562	2986
813.703	2944
813.845	2929
813.986	2807
814.127	2769
814.268	2853
814.41	2842
814.551	2834
814.692	2944
814.833	2849
814.974	2925
815.115	3024
815.256	2868
815.397	2838
815.539	2868
815.68	2785
815.821	2845
815.962	2986
816.103	2948
816.244	2944
816.385	2914
816.526	3036
816.666	2971
816.807	2788
816.948	2922
817.089	2952
817.23	2883
817.371	2804
817.512	2849
817.653	2914
817.793	2891
817.934	2956
818.075	3001
818.216	3036
818.356	3085
818.497	2918
818.638	2834
818.778	2872
818.919	2826
819.06	2819
819.2	2937
819.341	2883
819.481	2842
819.622	2956
819.762	3165
819.903	3108
820.043	2986
820.184	2960
820.324	2952
820.465	3062
820.605	3055
820.746	3058
820.886	2975
821.026	3154
821.167	3203
821.307	3287
821.447	3298
821.588	3291
821.728	3233
821.868	3253
822.008	3119
822.149	3245
822.289	3302
822.429	3146
822.569	3138
822.709	3275
822.849	3074
822.99	3123
823.13	3180
823.27	3245
823.41	3150
823.55	3165
823.69	3169
823.83	3237
823.97	3119
824.11	3032
824.25	3066
824.389	3112
824.529	3161
824.669	3100
824.809	3283
824.949	3287
825.089	3272
825.228	3161
825.368	3032
825.508	2963
825.648	2982
825.787	3036
825.927	3055
826.067	3017
826.206	3001
826.346	3077
826.485	3066
826.625	3127
826.765	3291
826.904	3302
827.044	3058
827.183	2975
827.323	2971
827.462	2998
827.601	2944
827.741	2971
827.88	2971
828.02	2876
828.159	3036
828.298	3081
828.437	3161
828.577	3093
828.716	3279
828.855	3138
828.994	2975
829.134	2922
829.273	2967
829.412	2918
829.551	2902
829.69	2918
829.829	3070
829.968	3127
830.107	3036
830.246	3043
830.385	2967
830.524	2925
830.663	2853
830.802	2788
830.941	2682
831.08	2678
831.219	2773
831.357	2788
831.496	3013
831.635	2781
831.774	2712
831.913	2678
832.051	2579
832.19	2606
832.329	2712
832.467	2575
832.606	2495
832.744	2590
832.883	2617
833.022	2636
833.16	2697
833.299	2724
833.437	2739
833.576	2731
833.714	2727
833.852	2735
833.991	2788
834.129	2849
834.267	2857
834.406	2830
834.544	2910
834.682	2925
834.821	2880
834.959	3123
835.097	2929
835.235	3112
835.373	3036
835.511	3081
835.65	2998
835.788	2963
835.926	2842
836.064	2857
836.202	2887
836.34	3119
836.478	3226
836.615	3077
836.753	3184
836.891	3287
837.029	3195
837.167	3176
837.305	3108
837.443	3085
837.58	3036
837.718	3195
837.856	3097
837.993	3043
838.131	3184
838.269	3112
838.406	3173
838.544	3100
838.681	2979
838.819	2967
838.956	2834
839.094	2857
839.231	2925
839.369	3066
839.506	3428
839.643	3268
839.781	3085
839.918	2975
840.055	3051
840.193	3108
840.33	3085
840.467	3127
840.604	3161
840.742	3431
840.879	3085
841.016	3112
841.153	3157
841.29	3351
841.427	3332
841.564	3336
841.701	3363
841.838	3256
841.975	3211
842.112	3272
842.249	3081
842.385	3100
842.522	3313
842.659	3112
842.796	3108
842.933	3123
843.069	3066
843.206	3085
843.343	3245
843.479	3123
843.616	3157
843.752	2925
843.889	2891
844.025	3093
844.162	2895
844.298	3112
844.435	2979
844.571	2975
844.708	3077
844.844	3249
844.98	3253
845.117	3249
845.253	3097
845.389	3047
845.525	3135
845.661	3093
845.798	3047
845.934	3112
846.07	3112
846.206	3268
846.342	3370
846.478	3264
846.614	3157
846.75	3062
846.886	3081
847.022	3287
847.158	3146
847.294	3230
847.429	3268
847.565	3253
847.701	3496
847.837	3085
847.972	3009
848.108	3180
848.244	3188
848.379	3051
848.515	2982
848.65	2994
848.786	3001
848.921	3032
849.057	3154
849.192	3176
849.328	3138
849.463	3138
849.598	3077
849.734	3081
849.869	3013
850.004	2963
850.14	2975
850.275	2979
850.41	2849
850.545	2902
850.68	2971
850.815	2975
850.95	2994
851.085	3222
851.22	3138
851.355	3047
851.49	2990
851.625	3047
851.76	3039
851.895	2956
852.03	2906
852.165	3055
852.299	3161
852.434	3203
852.569	3203
852.703	3192
852.838	3313
852.973	3401
853.107	3370
853.242	3154
853.376	3127
853.511	2994
853.645	3077
853.78	3272
853.914	3135
854.048	3135
854.183	3112
854.317	3180
854.451	3294
854.585	3199
854.72	3112
854.854	3268
854.988	3089
855.122	3131
855.256	3005
855.39	3157
855.524	3268
855.658	3245
855.792	3226
855.926	3230
856.06	3272
856.194	3306
856.327	3135
856.461	3127
856.595	3123
856.729	3097
856.862	3287
856.996	3195
857.13	3249
857.263	3264
857.397	3283
857.53	3108
857.664	3256
857.797	3264
857.931	3302
858.064	3192
858.197	3264
858.331	3154
858.464	3138
858.597	3024
858.731	3161
858.864	3146
858.997	3116
859.13	3161
859.263	3218
859.396	3260
859.529	3123
859.662	3123
859.795	3100
859.928	3184
860.061	3298
860.194	3348
860.327	3165
860.46	3138
860.592	3268
860.725	3291
860.858	3298
860.99	3150
861.123	3089
861.256	3100
861.388	3135
861.521	3846
861.653	3051
861.786	2998
861.918	3066
862.05	3119
862.183	3146
862.315	3142
862.447	3241
862.58	3150
862.712	2967
862.844	2887
862.976	3039
863.108	3032
863.24	3313
863.372	2895
863.504	2971
863.636	3043
863.768	3043
863.9	3020
864.032	2948
864.164	2963
864.296	3036
864.428	3097
864.559	3184
864.691	3127
864.823	3070
864.954	3062
865.086	3081
865.217	3024
865.349	2979
865.48	3005
865.612	3039
865.743	3176
865.875	3017
866.006	2975
866.137	2975
866.269	2971
866.4	2937
866.531	2960
866.662	2914
866.793	2918
866.924	2941
867.055	3009
867.186	2956
867.317	2922
867.448	2876
867.579	2845
867.71	2899
867.841	2853
867.972	2933
868.103	2937
868.233	2906
868.364	2891
868.495	2902
868.625	3097
868.756	3214
868.886	2994
869.017	3062
869.147	3199
869.278	3218
869.408	3066
869.539	3058
869.669	3154
869.799	3074
869.929	3150
870.06	3188
870.19	3370
870.32	3268
870.45	3351
870.58	3435
870.71	3488
870.84	3473
870.97	3313
871.1	3264
871.23	3526
871.36	3488
871.489	3359
871.619	3431
871.749	3431
871.879	3492
872.008	3526
872.138	3428
872.267	3313
872.397	3169
872.526	3116
872.656	3009
872.785	3127
872.915	3268
873.044	3291
873.173	3249
873.303	3294
873.432	3260
873.561	3302
873.69	3173
873.819	3157
873.948	3237
874.077	3150
874.206	3051
874.335	3116
874.464	3226
874.593	3367
874.722	3279
874.851	3431
874.979	3405
875.108	3344
875.237	3241
875.365	3203
875.494	3207
875.623	3291
875.751	3093
875.88	3116
876.008	3192
876.136	3245
876.265	3424
876.393	3553
876.521	3462
876.65	3458
876.778	3332
876.906	3260
877.034	3237
877.162	3233
877.29	3211
877.418	3272
877.546	3317
877.674	3310
877.802	3291
877.93	3233
878.058	3192
878.185	3104
878.313	3222
878.441	3237
878.568	3074
878.696	3142
878.824	3264
878.951	3321
879.079	3473
879.206	3717
879.333	3477
879.461	3370
879.588	3401
879.715	3549
879.842	3629
879.97	3428
880.097	3169
880.224	3165
880.351	3268
880.478	3211
880.605	3222
880.732	3207
880.859	3557
880.986	3325
881.112	3397
881.239	3275
881.366	3112
881.493	3036
881.619	3028
881.746	3108
881.872	3119
881.999	3138
882.125	3157
882.252	3298
882.378	3325
882.505	3462
882.631	3268
882.757	3161
882.883	3298
883.01	3245
883.136	3199
883.262	3097
883.388	3127
883.514	3370
883.64	3416
883.766	3306
883.892	3245
884.018	3268
884.143	3492
884.269	3561
884.395	3226
884.52	3192
884.646	3214
884.772	3150
884.897	3142
885.023	3230
885.148	3401
885.274	3443
885.399	3393
885.524	3325
885.65	3298
885.775	3340
885.9	3336
886.025	3450
886.15	3416
886.275	3325
886.4	3287
886.525	3283
886.65	3321
886.775	3340
886.9	3561
887.025	3686
887.149	3435
887.274	3317
887.399	3222
887.523	3245
887.648	3192
887.773	3249
887.897	3431
888.021	3466
888.146	3340
888.27	3530
888.395	3572
888.519	3458
888.643	3492
888.767	3534
888.891	3336
889.015	3260
889.139	3351
889.263	3329
889.387	3458
889.511	3580
889.635	3504
889.759	3363
889.883	3294
890.006	3469
890.13	3572
890.254	3306
890.377	3359
890.501	3226
890.624	3230
890.748	3359
890.871	3245
890.995	3138
891.118	3119
891.241	3218
891.364	3275
891.488	3370
891.611	3226
891.734	3249
891.857	3310
891.98	3275
892.103	3416
892.226	3294
892.349	3233
892.471	3119
892.594	3256
892.717	3329
892.839	3321
892.962	3348
893.085	3389
893.207	3317
893.33	3199
893.452	3211
893.575	3367
893.697	3325
893.819	3523
893.941	3542
894.064	3469
894.186	3294
894.308	3291
894.43	3485
894.552	3572
894.674	3500
894.796	3268
894.918	3363
895.04	3340
895.161	3458
895.283	3428
895.405	3325
895.526	3447
895.648	3435
895.769	3477
895.891	3515
896.012	3507
896.134	3515
896.255	3450
896.376	3435
896.498	3431
896.619	3466
896.74	3405
896.861	3431
896.982	3728
897.103	3880
897.224	3622
897.345	3534
897.466	3515
897.587	3542
897.708	3652
897.828	3576
897.949	3477
898.07	3389
898.19	3424
898.311	3606
898.431	3519
898.552	3561
898.672	3667
898.792	3618
898.913	3561
899.033	3431
899.153	3367
899.273	3241
899.393	3313
899.513	3393
899.633	3370
899.753	3374
899.873	3340
899.993	3401
900.113	3378
900.232	3424
900.352	3359
900.472	3340
900.591	3237
900.711	3313
900.83	3279
900.95	3485
901.069	3549
901.189	3382
901.308	3211
901.427	3192
901.546	3195
901.665	3306
901.784	3359
901.904	3256
902.023	3169
902.141	3058
902.26	3005
902.379	3161
902.498	3104
902.617	3119
902.735	3268
902.854	3256
902.973	3230
903.091	3089
903.21	3077
903.328	3138
903.446	3150
903.565	3184
903.683	3272
903.801	3192
903.919	3287
904.038	3340
904.156	3176
904.274	3332
904.392	3291
904.51	3351
904.627	3351
904.745	3473
904.863	3526
904.981	3313
905.098	3211
905.216	3237
905.334	3306
905.451	3363
905.569	3336
905.686	3462
905.803	3466
905.921	3302
906.038	3500
906.155	3424
906.272	3268
906.389	3382
906.506	3279
906.623	3317
906.74	3332
906.857	3241
906.974	3272
907.091	3545
907.208	3584
907.324	3523
907.441	3420
907.557	3294
907.674	3287
907.79	3268
907.907	3329
908.023	3382
908.139	3393
908.256	3367
908.372	3447
908.488	3374
908.604	3317
908.72	3336
908.836	3302
908.952	3317
909.068	3367
909.184	3511
909.3	3431
909.415	3511
909.531	3526
909.647	3306
909.762	3317
909.878	3291
909.993	3378
910.108	3374
910.224	3386
910.339	3496
910.454	3367
910.57	3313
910.685	3287
910.8	3625
910.915	3603
911.03	3469
911.145	3306
911.259	3306
911.374	3336
911.489	3264
911.604	3218
911.718	3146
911.833	3203
911.947	3077
912.062	3020
912.176	3203
912.291	3241
912.405	3199
912.519	3454
912.633	3530
912.748	3351
912.862	3313
912.976	3192
913.09	3089
913.204	3195
913.318	3260
913.431	3359
913.545	3374
913.659	3454
913.772	3397
913.886	3306
914	3268
914.113	3367
914.226	3481
914.34	3443
914.453	3237
914.566	3431
914.68	3275
914.793	3363
914.906	3154
915.019	3173
915.132	3100
915.245	3222
915.358	3203
915.47	3260
915.583	3340
915.696	3313
915.809	3443
915.921	3466
916.034	3310
916.146	3279
916.259	3253
916.371	3420
916.483	3370
916.595	3264
916.708	3370
916.82	3367
916.932	3412
917.044	3386
917.156	3389
917.268	3336
917.38	3344
917.491	3317
917.603	3374
917.715	3458
917.826	3485
917.938	3420
918.049	3317
918.161	3450
918.272	3625
918.384	3652
918.495	3564
918.606	3378
918.717	3283
918.828	3397
918.939	3488
919.05	3310
919.161	3420
919.272	3226
919.383	3336
919.494	3504
919.604	3732
919.715	3542
919.826	3443
919.936	3477
920.047	3610
920.157	3576
920.267	3778
920.378	3667
920.488	3603
920.598	3842
920.708	4055
920.818	3861
920.928	3857
921.038	4048
921.148	4048
921.258	3701
921.368	3625
921.477	3606
921.587	3568
921.697	3534
921.806	3690
921.916	3553
922.025	3401
922.134	3405
922.244	3351
922.353	3477
922.462	3294
922.571	3287
922.68	3146
922.789	3093
922.898	3195
923.007	3161
923.116	3233
923.224	3180
923.333	3214
923.442	3123
923.55	3112
923.659	3195
923.767	3230
923.876	3138
923.984	3272
924.092	3097
924.201	3256
924.309	3279
924.417	3294
924.525	3214
924.633	3237
924.741	4227
924.849	3097
924.956	3291
925.064	3123
925.172	3081
925.279	3135
925.387	3241
925.494	3264
925.602	3409
925.709	3374
925.816	3268
925.924	3329
926.031	3370
926.138	3329
926.245	3389
926.352	3317
926.459	3435
926.566	3492
926.673	3409
926.779	3245
926.886	3275
926.993	3184
927.099	3169
927.206	3131
927.312	3165
927.419	3302
927.525	3203
927.631	3325
927.737	3184
927.843	3150
927.95	3047
928.056	3146
928.162	3169
928.267	3306
928.373	3838
928.479	3378
928.585	3104
928.69	3233
928.796	3241
928.901	3211
929.007	3058
929.112	3260
929.218	3214
929.323	3199
929.428	3214
929.533	3348
929.638	3157
929.743	3199
929.848	3275
929.953	3245
930.058	3203
930.163	3047
930.267	3085
930.372	3249
930.477	3085
930.581	3340
930.685	3222
930.79	3085
930.894	3146
930.998	3100
931.103	3287
931.207	3001
931.311	2986
931.415	2952
931.519	2800
931.623	2853
