Data from test_V78500241_1868.txt Node
Date: Fri Mar 25 16:28:08 CST 2022
User: usil
Spectrometer: V785-0024
Trigger mode: 0
Integration Time (sec): 4.000000E-1
Scans to average: 1
Nonlinearity correction enabled: false
Boxcar width: 0
Storing dark spectrum: false
XAxis mode: Wavelengths
Number of Pixels in Spectrum: 1024
>>>>>Begin Spectral Data<<<<<
801.071	2868
801.214	2937
801.356	2838
801.499	2910
801.641	2864
801.783	2948
801.926	3024
802.068	2952
802.211	2990
802.353	3043
802.496	2914
802.638	3013
802.78	3043
802.923	3081
803.065	2994
803.208	2880
803.35	2880
803.492	2910
803.635	2956
803.777	2800
803.919	2842
804.061	3195
804.204	2967
804.346	2876
804.488	2792
804.63	3024
804.773	2861
804.915	2883
805.057	3085
805.199	2922
805.341	2922
805.483	3058
805.626	2982
805.768	2998
805.91	3093
806.052	3150
806.194	3013
806.336	3230
806.478	3001
806.62	2952
806.762	2937
806.904	3085
807.046	3199
807.188	2990
807.33	2929
807.472	3009
807.614	2899
807.756	2967
807.898	2952
808.04	2914
808.182	2975
808.324	2975
808.465	2861
808.607	2887
808.749	2796
808.891	2823
809.033	2941
809.174	2937
809.316	2876
809.458	2914
809.6	2758
809.741	2746
809.883	2788
810.025	2861
810.166	2845
810.308	2842
810.45	2849
810.591	2823
810.733	2750
810.875	2819
811.016	2800
811.158	2762
811.299	2830
811.441	2914
811.582	2914
811.724	2781
811.865	2845
812.007	2914
812.148	2887
812.29	2849
812.431	2895
812.573	2967
812.714	2952
812.855	3043
812.997	3017
813.138	3138
813.279	3001
813.421	3020
813.562	2948
813.703	2872
813.845	2933
813.986	2800
814.127	2708
814.268	2845
814.41	2807
814.551	2766
814.692	2880
814.833	2800
814.974	2902
815.115	2941
815.256	2849
815.397	2800
815.539	2861
815.68	2781
815.821	2743
815.962	2914
816.103	2906
816.244	2891
816.385	2876
816.526	2971
816.666	2914
816.807	2758
816.948	2853
817.089	2933
817.23	2834
817.371	2792
817.512	2826
817.653	2864
817.793	2811
817.934	2891
818.075	2956
818.216	2979
818.356	3009
818.497	2880
818.638	2754
818.778	2819
818.919	2785
819.06	2785
819.2	2876
819.341	2842
819.481	2807
819.622	2902
819.762	3100
819.903	3070
820.043	2967
820.184	2891
820.324	2899
820.465	2971
820.605	3001
820.746	3013
820.886	2944
821.026	3112
821.167	3142
821.307	3230
821.447	3260
821.588	3233
821.728	3230
821.868	3165
822.008	3066
822.149	3157
822.289	3192
822.429	3097
822.569	3085
822.709	3146
822.849	3017
822.99	3123
823.13	3135
823.27	3245
823.41	3104
823.55	3119
823.69	3138
823.83	3222
823.97	3077
824.11	3024
824.25	2982
824.389	3024
824.529	3097
824.669	3066
824.809	3199
824.949	3241
825.089	3195
825.228	3131
825.368	2986
825.508	2933
825.648	2956
825.787	2986
825.927	3028
826.067	2960
826.206	2944
826.346	2998
826.485	3062
826.625	3085
826.765	3268
826.904	3165
827.044	3005
827.183	2937
827.323	2861
827.462	2982
827.601	2937
827.741	2925
827.88	2967
828.02	2853
828.159	2975
828.298	3005
828.437	3100
828.577	3013
828.716	3222
828.855	3093
828.994	2944
829.134	2883
829.273	2902
829.412	2891
829.551	2811
829.69	2857
829.829	2994
829.968	3127
830.107	2982
830.246	3062
830.385	2880
830.524	2887
830.663	2811
830.802	2746
830.941	2636
831.08	2606
831.219	2781
831.357	2701
831.496	2948
831.635	2731
831.774	2629
831.913	2629
832.051	2530
832.19	2556
832.329	2701
832.467	2526
832.606	2480
832.744	2587
832.883	2571
833.022	2598
833.16	2636
833.299	2651
833.437	2670
833.576	2667
833.714	2720
833.852	2724
833.991	2758
834.129	2804
834.267	2857
834.406	2785
834.544	2857
834.682	2842
834.821	2899
834.959	3081
835.097	2887
835.235	3066
835.373	2941
835.511	3009
835.65	2933
835.788	2956
835.926	2815
836.064	2807
836.202	2807
836.34	3077
836.478	3138
836.615	3055
836.753	3123
836.891	3188
837.029	3100
837.167	3089
837.305	3036
837.443	3009
837.58	2952
837.718	3161
837.856	3062
837.993	3032
838.131	3146
838.269	3116
838.406	3112
838.544	3055
838.681	2895
838.819	2902
838.956	2807
839.094	2811
839.231	2868
839.369	3017
839.506	3382
839.643	3245
839.781	3032
839.918	2937
840.055	3032
840.193	3020
840.33	3043
840.467	3066
840.604	3142
840.742	3397
840.879	3062
841.016	3047
841.153	3108
841.29	3336
841.427	3294
841.564	3233
841.701	3253
841.838	3226
841.975	3146
842.112	3226
842.249	3043
842.385	3089
842.522	3249
842.659	3097
842.796	3062
842.933	3093
843.069	3032
843.206	3017
843.343	3188
843.479	3070
843.616	3150
843.752	2891
843.889	2842
844.025	3055
844.162	2880
844.298	3051
844.435	2925
844.571	2910
844.708	3093
844.844	3192
844.98	3230
845.117	3207
845.253	3058
845.389	2982
845.525	3135
845.661	3100
845.798	3005
845.934	3112
846.07	3032
846.206	3184
846.342	3332
846.478	3226
846.614	3074
846.75	3032
846.886	3005
847.022	3253
847.158	3093
847.294	3188
847.429	3226
847.565	3192
847.701	3504
847.837	3051
847.972	3001
848.108	3138
848.244	3142
848.379	2998
848.515	2941
848.65	2937
848.786	2967
848.921	2986
849.057	3100
849.192	3169
849.328	3089
849.463	3108
849.598	3108
849.734	3062
849.869	3005
850.004	2910
850.14	2952
850.275	2910
850.41	2857
850.545	2853
850.68	2941
850.815	2956
850.95	2960
851.085	3195
851.22	3089
851.355	3024
851.49	2986
851.625	3032
851.76	2990
851.895	2899
852.03	2922
852.165	3013
852.299	3097
852.434	3180
852.569	3135
852.703	3211
852.838	3207
852.973	3332
853.107	3321
853.242	3093
853.376	3100
853.511	2956
853.645	3036
853.78	3173
853.914	3116
854.048	3097
854.183	3081
854.317	3135
854.451	3245
854.585	3108
854.72	3112
854.854	3230
854.988	3051
855.122	3093
855.256	2975
855.39	3119
855.524	3256
855.658	3161
855.792	3157
855.926	3203
856.06	3241
856.194	3260
856.327	3138
856.461	3051
856.595	3074
856.729	3047
856.862	3218
856.996	3138
857.13	3184
857.263	3184
857.397	3268
857.53	3108
857.664	3146
857.797	3233
857.931	3249
858.064	3165
858.197	3184
858.331	3119
858.464	3043
858.597	2982
858.731	3104
858.864	3104
858.997	3089
859.13	3135
859.263	3146
859.396	3230
859.529	3051
859.662	3062
859.795	3028
859.928	3146
860.061	3268
860.194	3287
860.327	3112
860.46	3058
860.592	3211
860.725	3241
860.858	3226
860.99	3123
861.123	3055
861.256	3036
861.388	3165
861.521	3785
861.653	2994
861.786	2986
861.918	2963
862.05	3043
862.183	3108
862.315	3154
862.447	3188
862.58	3089
862.712	2929
862.844	2876
862.976	3020
863.108	2986
863.24	3454
863.372	2910
863.504	2960
863.636	2948
863.768	3051
863.9	2990
864.032	2910
864.164	2929
864.296	3017
864.428	3055
864.559	3089
864.691	3077
864.823	3017
864.954	3013
865.086	3047
865.217	2994
865.349	2956
865.48	2986
865.612	2990
865.743	3195
865.875	2994
866.006	2963
866.137	2960
866.269	2899
866.4	2929
866.531	2910
866.662	2872
866.793	2853
866.924	2895
867.055	2948
867.186	2941
867.317	2876
867.448	2845
867.579	2864
867.71	2857
867.841	2800
867.972	2880
868.103	2891
868.233	2849
868.364	2857
868.495	2922
868.625	3032
868.756	3169
868.886	2933
869.017	2990
869.147	3161
869.278	3157
869.408	3066
869.539	3039
869.669	3085
869.799	3039
869.929	3085
870.06	3104
870.19	3310
870.32	3313
870.45	3313
870.58	3374
870.71	3450
870.84	3458
870.97	3272
871.1	3302
871.23	3496
871.36	3405
871.489	3344
871.619	3389
871.749	3405
871.879	3416
872.008	3428
872.138	3363
872.267	3275
872.397	3135
872.526	3131
872.656	3043
872.785	3066
872.915	3260
873.044	3298
873.173	3226
873.303	3268
873.432	3268
873.561	3222
873.69	3161
873.819	3142
873.948	3165
874.077	3097
874.206	3062
874.335	3066
874.464	3165
874.593	3313
874.722	3226
874.851	3386
874.979	3355
875.108	3336
875.237	3207
875.365	3176
875.494	3157
875.623	3260
875.751	3074
875.88	3112
876.008	3184
876.136	3237
876.265	3363
876.393	3515
876.521	3424
876.65	3397
876.778	3351
876.906	3230
877.034	3184
877.162	3199
877.29	3142
877.418	3253
877.546	3226
877.674	3249
877.802	3264
877.93	3233
878.058	3165
878.185	3097
878.313	3188
878.441	3222
878.568	3039
878.696	3157
878.824	3237
878.951	3283
879.079	3450
879.206	3584
879.333	3462
879.461	3302
879.588	3348
879.715	3477
879.842	3603
879.97	3351
880.097	3135
880.224	3131
880.351	3192
880.478	3180
880.605	3165
880.732	3211
880.859	3485
880.986	3241
881.112	3332
881.239	3138
881.366	3097
881.493	3066
881.619	3001
881.746	3047
881.872	3100
881.999	3097
882.125	3154
882.252	3249
882.378	3268
882.505	3431
882.631	3283
882.757	3192
882.883	3161
883.01	3233
883.136	3142
883.262	3062
883.388	3089
883.514	3283
883.64	3344
883.766	3294
883.892	3169
884.018	3222
884.143	3397
884.269	3564
884.395	3222
884.52	3176
884.646	3195
884.772	3112
884.897	3097
885.023	3237
885.148	3306
885.274	3420
885.399	3370
885.524	3272
885.65	3260
885.775	3313
885.9	3279
886.025	3420
886.15	3386
886.275	3287
886.4	3218
886.525	3298
886.65	3249
886.775	3264
886.9	3462
887.025	3614
887.149	3401
887.274	3260
887.399	3165
887.523	3203
887.648	3192
887.773	3188
887.897	3363
888.021	3416
888.146	3294
888.27	3378
888.395	3545
888.519	3420
888.643	3447
888.767	3481
888.891	3359
889.015	3214
889.139	3302
889.263	3195
889.387	3397
889.511	3507
889.635	3389
889.759	3298
889.883	3298
890.006	3412
890.13	3469
890.254	3260
890.377	3329
890.501	3192
890.624	3176
890.748	3291
890.871	3176
890.995	3100
891.118	3077
891.241	3165
891.364	3192
891.488	3306
891.611	3188
891.734	3214
891.857	3272
891.98	3233
892.103	3329
892.226	3253
892.349	3188
892.471	3104
892.594	3214
892.717	3275
892.839	3306
892.962	3268
893.085	3386
893.207	3287
893.33	3161
893.452	3199
893.575	3321
893.697	3275
893.819	3466
893.941	3500
894.064	3424
894.186	3272
894.308	3245
894.43	3443
894.552	3553
894.674	3435
894.796	3241
894.918	3321
895.04	3287
895.161	3435
895.283	3363
895.405	3294
895.526	3367
895.648	3435
895.769	3450
895.891	3409
896.012	3447
896.134	3428
896.255	3424
896.376	3340
896.498	3363
896.619	3428
896.74	3370
896.861	3424
896.982	3641
897.103	3854
897.224	3625
897.345	3454
897.466	3412
897.587	3511
897.708	3606
897.828	3515
897.949	3435
898.07	3325
898.19	3389
898.311	3595
898.431	3469
898.552	3500
898.672	3591
898.792	3576
898.913	3511
899.033	3397
899.153	3275
899.273	3199
899.393	3294
899.513	3321
899.633	3313
899.753	3313
899.873	3344
899.993	3382
900.113	3321
900.232	3367
900.352	3294
900.472	3272
900.591	3173
900.711	3310
900.83	3249
900.95	3416
901.069	3496
901.189	3313
901.308	3192
901.427	3089
901.546	3169
901.665	3264
901.784	3317
901.904	3233
902.023	3123
902.141	3009
902.26	2982
902.379	3123
902.498	3062
902.617	3043
902.735	3192
902.854	3207
902.973	3169
903.091	3028
903.21	3062
903.328	3066
903.446	3077
903.565	3066
903.683	3207
903.801	3112
903.919	3199
904.038	3237
904.156	3192
904.274	3279
904.392	3233
904.51	3329
904.627	3340
904.745	3428
904.863	3511
904.981	3294
905.098	3203
905.216	3245
905.334	3291
905.451	3344
905.569	3279
905.686	3409
905.803	3462
905.921	3321
906.038	3367
906.155	3374
906.272	3260
906.389	3302
906.506	3211
906.623	3245
906.74	3256
906.857	3150
906.974	3222
907.091	3428
907.208	3572
907.324	3485
907.441	3378
907.557	3207
907.674	3241
907.79	3203
907.907	3279
908.023	3405
908.139	3370
908.256	3348
908.372	3344
908.488	3355
908.604	3298
908.72	3218
908.836	3291
908.952	3298
909.068	3329
909.184	3466
909.3	3386
909.415	3485
909.531	3447
909.647	3275
909.762	3283
909.878	3245
909.993	3340
910.108	3355
910.224	3355
910.339	3450
910.454	3344
910.57	3272
910.685	3233
910.8	3568
910.915	3553
911.03	3420
911.145	3260
911.259	3279
911.374	3306
911.489	3245
911.604	3218
911.718	3089
911.833	3161
911.947	3055
912.062	2956
912.176	3146
912.291	3195
912.405	3184
912.519	3443
912.633	3477
912.748	3370
912.862	3253
912.976	3127
913.09	3074
913.204	3116
913.318	3199
913.431	3340
913.545	3287
913.659	3405
913.772	3359
913.886	3211
914	3195
914.113	3393
914.226	3412
914.34	3389
914.453	3211
914.566	3386
914.68	3275
914.793	3298
914.906	3161
915.019	3074
915.132	3077
915.245	3154
915.358	3226
915.47	3237
915.583	3275
915.696	3272
915.809	3412
915.921	3382
916.034	3279
916.146	3245
916.259	3188
916.371	3374
916.483	3348
916.595	3287
916.708	3344
916.82	3321
916.932	3355
917.044	3374
917.156	3325
917.268	3279
917.38	3313
917.491	3260
917.603	3332
917.715	3420
917.826	3492
917.938	3344
918.049	3272
918.161	3424
918.272	3561
918.384	3561
918.495	3466
918.606	3332
918.717	3264
918.828	3382
918.939	3401
919.05	3253
919.161	3344
919.272	3176
919.383	3306
919.494	3523
919.604	3656
919.715	3458
919.826	3405
919.936	3466
920.047	3538
920.157	3553
920.267	3766
920.378	3633
920.488	3568
920.598	3728
920.708	3930
920.818	3827
920.928	3819
921.038	3987
921.148	3979
921.258	3690
921.368	3618
921.477	3545
921.587	3523
921.697	3435
921.806	3637
921.916	3534
922.025	3348
922.134	3344
922.244	3302
922.353	3458
922.462	3272
922.571	3188
922.68	3135
922.789	3043
922.898	3173
923.007	3081
923.116	3218
923.224	3180
923.333	3161
923.442	3081
923.55	3077
923.659	3116
923.767	3214
923.876	3112
923.984	3241
924.092	3127
924.201	3192
924.309	3214
924.417	3237
924.525	3180
924.633	3230
924.741	3953
924.849	3081
924.956	3272
925.064	3108
925.172	3039
925.279	3055
925.387	3173
925.494	3184
925.602	3367
925.709	3332
925.816	3199
925.924	3256
926.031	3389
926.138	3344
926.245	3340
926.352	3207
926.459	3424
926.566	3424
926.673	3272
926.779	3237
926.886	3222
926.993	3131
927.099	3142
927.206	3085
927.312	3077
927.419	3207
927.525	3203
927.631	3256
927.737	3146
927.843	3100
927.95	3005
928.056	3146
928.162	3157
928.267	3207
928.373	3793
928.479	3283
928.585	3024
928.69	3222
928.796	3272
928.901	3169
929.007	3058
929.112	3188
929.218	3169
929.323	3100
929.428	3146
929.533	3294
929.638	3104
929.743	3146
929.848	3245
929.953	3211
930.058	3127
930.163	3005
930.267	3036
930.372	3169
930.477	3009
930.581	3310
930.685	3146
930.79	3009
930.894	3112
930.998	3093
931.103	3260
931.207	2929
931.311	2952
931.415	2906
931.519	2743
931.623	2804
