Data from test_V78500241_902.txt Node
Date: Fri Mar 25 16:21:27 CST 2022
User: usil
Spectrometer: V785-0024
Trigger mode: 0
Integration Time (sec): 4.000000E-1
Scans to average: 1
Nonlinearity correction enabled: false
Boxcar width: 0
Storing dark spectrum: false
XAxis mode: Wavelengths
Number of Pixels in Spectrum: 1024
>>>>>Begin Spectral Data<<<<<
801.071	2914
801.214	2944
801.356	2872
801.499	2838
801.641	2880
801.783	2910
801.926	3013
802.068	2963
802.211	2998
802.353	3017
802.496	2975
802.638	3017
802.78	3009
802.923	3055
803.065	2982
803.208	2853
803.35	2891
803.492	2918
803.635	2925
803.777	2762
803.919	2807
804.061	3195
804.204	2937
804.346	2887
804.488	2853
804.63	2971
804.773	2845
804.915	2925
805.057	3081
805.199	2899
805.341	2979
805.483	2994
805.626	2956
805.768	2960
805.91	3039
806.052	3104
806.194	3036
806.336	3256
806.478	3001
806.62	2899
806.762	2952
806.904	3074
807.046	3138
807.188	2944
807.33	2891
807.472	2990
807.614	2899
807.756	2971
807.898	2937
808.04	2857
808.182	2982
808.324	2948
808.465	2864
808.607	2918
808.749	2811
808.891	2804
809.033	2967
809.174	2971
809.316	2891
809.458	2861
809.6	2811
809.741	2769
809.883	2762
810.025	2830
810.166	2849
810.308	2834
810.45	2823
810.591	2762
810.733	2743
810.875	2868
811.016	2811
811.158	2762
811.299	2815
811.441	2868
811.582	2895
811.724	2830
811.865	2811
812.007	2914
812.148	2834
812.29	2815
812.431	2861
812.573	2902
812.714	2960
812.855	3020
812.997	3062
813.138	3112
813.279	3032
813.421	2967
813.562	2963
813.703	2857
813.845	2895
813.986	2766
814.127	2739
814.268	2807
814.41	2826
814.551	2785
814.692	2853
814.833	2823
814.974	2861
815.115	2952
815.256	2800
815.397	2788
815.539	2899
815.68	2773
815.821	2781
815.962	2899
816.103	2906
816.244	2891
816.385	2845
816.526	2922
816.666	2906
816.807	2769
816.948	2883
817.089	2880
817.23	2823
817.371	2777
817.512	2781
817.653	2826
817.793	2811
817.934	2864
818.075	2982
818.216	2986
818.356	3036
818.497	2891
818.638	2796
818.778	2811
818.919	2773
819.06	2762
819.2	2887
819.341	2788
819.481	2781
819.622	2929
819.762	3074
819.903	3047
820.043	2963
820.184	2880
820.324	2902
820.465	3001
820.605	2994
820.746	3020
820.886	2899
821.026	3089
821.167	3127
821.307	3298
821.447	3256
821.588	3241
821.728	3169
821.868	3169
822.008	3097
822.149	3184
822.289	3226
822.429	3077
822.569	3108
822.709	3176
822.849	3039
822.99	3028
823.13	3150
823.27	3188
823.41	3066
823.55	3176
823.69	3127
823.83	3135
823.97	3089
824.11	2990
824.25	2982
824.389	3036
824.529	3081
824.669	3043
824.809	3184
824.949	3260
825.089	3192
825.228	3169
825.368	3009
825.508	2929
825.648	2967
825.787	3001
825.927	3039
826.067	2941
826.206	2941
826.346	3047
826.485	3066
826.625	3119
826.765	3226
826.904	3214
827.044	2948
827.183	2941
827.323	2853
827.462	2941
827.601	2883
827.741	2914
827.88	2944
828.02	2864
828.159	2922
828.298	3001
828.437	3085
828.577	3055
828.716	3233
828.855	3081
828.994	2906
829.134	2887
829.273	2914
829.412	2815
829.551	2868
829.69	2872
829.829	2944
829.968	3100
830.107	3009
830.246	3024
830.385	2941
830.524	2925
830.663	2804
830.802	2731
830.941	2651
831.08	2617
831.219	2754
831.357	2743
831.496	2933
831.635	2705
831.774	2613
831.913	2613
832.051	2537
832.19	2537
832.329	2667
832.467	2545
832.606	2469
832.744	2575
832.883	2549
833.022	2590
833.16	2636
833.299	2659
833.437	2678
833.576	2689
833.714	2727
833.852	2754
833.991	2746
834.129	2823
834.267	2834
834.406	2823
834.544	2864
834.682	2906
834.821	2838
834.959	3028
835.097	2876
835.235	3055
835.373	2998
835.511	3024
835.65	2922
835.788	2944
835.926	2807
836.064	2796
836.202	2891
836.34	3077
836.478	3154
836.615	3043
836.753	3089
836.891	3203
837.029	3146
837.167	3104
837.305	3047
837.443	3062
837.58	2975
837.718	3089
837.856	3043
837.993	3013
838.131	3116
838.269	3062
838.406	3104
838.544	3081
838.681	2944
838.819	2902
838.956	2792
839.094	2819
839.231	2914
839.369	3028
839.506	3332
839.643	3211
839.781	2986
839.918	2967
840.055	3032
840.193	3047
840.33	3047
840.467	3062
840.604	3119
840.742	3374
840.879	3043
841.016	3020
841.153	3100
841.29	3348
841.427	3264
841.564	3211
841.701	3283
841.838	3176
841.975	3135
842.112	3195
842.249	3028
842.385	3032
842.522	3233
842.659	3074
842.796	3043
842.933	3047
843.069	3028
843.206	3005
843.343	3154
843.479	3062
843.616	3135
843.752	2861
843.889	2838
844.025	3070
844.162	2857
844.298	3055
844.435	2948
844.571	2883
844.708	3081
844.844	3176
844.98	3237
845.117	3173
845.253	3043
845.389	3005
845.525	3097
845.661	3093
845.798	3009
845.934	3116
846.07	3043
846.206	3226
846.342	3329
846.478	3218
846.614	3081
846.75	3062
846.886	3036
847.022	3249
847.158	3135
847.294	3188
847.429	3222
847.565	3195
847.701	3507
847.837	3051
847.972	3005
848.108	3161
848.244	3142
848.379	3001
848.515	2956
848.65	2937
848.786	2990
848.921	3039
849.057	3119
849.192	3157
849.328	3093
849.463	3150
849.598	3058
849.734	3116
849.869	3013
850.004	2960
850.14	3013
850.275	2937
850.41	2883
850.545	2929
850.68	2982
850.815	3009
850.95	3017
851.085	3218
851.22	3119
851.355	3036
851.49	3013
851.625	3051
851.76	3051
851.895	2982
852.03	2944
852.165	3039
852.299	3123
852.434	3264
852.569	3176
852.703	3203
852.838	3264
852.973	3382
853.107	3386
853.242	3222
853.376	3097
853.511	3005
853.645	3112
853.78	3230
853.914	3161
854.048	3150
854.183	3131
854.317	3138
854.451	3336
854.585	3192
854.72	3066
854.854	3272
854.988	3066
855.122	3150
855.256	3017
855.39	3150
855.524	3298
855.658	3207
855.792	3176
855.926	3214
856.06	3249
856.194	3287
856.327	3176
856.461	3097
856.595	3116
856.729	3138
856.862	3249
856.996	3195
857.13	3264
857.263	3237
857.397	3294
857.53	3169
857.664	3203
857.797	3253
857.931	3283
858.064	3195
858.197	3256
858.331	3131
858.464	3161
858.597	3024
858.731	3146
858.864	3146
858.997	3127
859.13	3165
859.263	3207
859.396	3203
859.529	3161
859.662	3112
859.795	3085
859.928	3165
860.061	3310
860.194	3336
860.327	3161
860.46	3142
860.592	3287
860.725	3260
860.858	3287
860.99	3131
861.123	3116
861.256	3074
861.388	3180
861.521	3850
861.653	3077
861.786	3013
861.918	3001
862.05	3081
862.183	3138
862.315	3176
862.447	3233
862.58	3127
862.712	2975
862.844	2906
862.976	3020
863.108	2998
863.24	3348
863.372	2899
863.504	2967
863.636	2971
863.768	3055
863.9	3024
864.032	2941
864.164	2971
864.296	3020
864.428	3089
864.559	3108
864.691	3051
864.823	3062
864.954	3051
865.086	3093
865.217	2979
865.349	2986
865.48	3001
865.612	3047
865.743	3154
865.875	3039
866.006	2979
866.137	2982
866.269	2998
866.4	2971
866.531	2937
866.662	2899
866.793	2944
866.924	2902
867.055	2990
867.186	2914
867.317	2887
867.448	2853
867.579	2883
867.71	2891
867.841	2807
867.972	2956
868.103	2910
868.233	2891
868.364	2895
868.495	2948
868.625	3093
868.756	3180
868.886	3017
869.017	3066
869.147	3180
869.278	3188
869.408	3070
869.539	3070
869.669	3146
869.799	3085
869.929	3169
870.06	3108
870.19	3340
870.32	3321
870.45	3325
870.58	3386
870.71	3462
870.84	3481
870.97	3294
871.1	3268
871.23	3473
871.36	3481
871.489	3367
871.619	3424
871.749	3458
871.879	3431
872.008	3504
872.138	3409
872.267	3287
872.397	3211
872.526	3131
872.656	3074
872.785	3146
872.915	3249
873.044	3329
873.173	3268
873.303	3294
873.432	3275
873.561	3317
873.69	3165
873.819	3157
873.948	3207
874.077	3176
874.206	3070
874.335	3093
874.464	3226
874.593	3389
874.722	3306
874.851	3431
874.979	3382
875.108	3313
875.237	3245
875.365	3184
875.494	3176
875.623	3268
875.751	3131
875.88	3112
876.008	3233
876.136	3279
876.265	3386
876.393	3530
876.521	3435
876.65	3488
876.778	3332
876.906	3264
877.034	3233
877.162	3249
877.29	3211
877.418	3256
877.546	3272
877.674	3321
877.802	3275
877.93	3256
878.058	3180
878.185	3123
878.313	3207
878.441	3241
878.568	3093
878.696	3180
878.824	3245
878.951	3329
879.079	3454
879.206	3667
879.333	3458
879.461	3363
879.588	3355
879.715	3515
879.842	3663
879.97	3416
880.097	3195
880.224	3173
880.351	3192
880.478	3245
880.605	3237
880.732	3222
880.859	3515
880.986	3344
881.112	3317
881.239	3237
881.366	3138
881.493	3062
881.619	3055
881.746	3077
881.872	3116
881.999	3150
882.125	3135
882.252	3268
882.378	3294
882.505	3450
882.631	3321
882.757	3127
882.883	3264
883.01	3256
883.136	3192
883.262	3131
883.388	3119
883.514	3302
883.64	3389
883.766	3336
883.892	3192
884.018	3256
884.143	3416
884.269	3618
884.395	3203
884.52	3157
884.646	3222
884.772	3157
884.897	3173
885.023	3207
885.148	3344
885.274	3393
885.399	3409
885.524	3268
885.65	3291
885.775	3344
885.9	3294
886.025	3447
886.15	3401
886.275	3317
886.4	3226
886.525	3321
886.65	3279
886.775	3283
886.9	3568
887.025	3663
887.149	3420
887.274	3275
887.399	3192
887.523	3237
887.648	3241
887.773	3226
887.897	3378
888.021	3439
888.146	3294
888.27	3462
888.395	3549
888.519	3492
888.643	3462
888.767	3496
888.891	3348
889.015	3233
889.139	3310
889.263	3306
889.387	3393
889.511	3549
889.635	3439
889.759	3348
889.883	3329
890.006	3367
890.13	3507
890.254	3294
890.377	3386
890.501	3195
890.624	3199
890.748	3313
890.871	3173
890.995	3097
891.118	3062
891.241	3192
891.364	3233
891.488	3359
891.611	3169
891.734	3249
891.857	3321
891.98	3264
892.103	3317
892.226	3302
892.349	3256
892.471	3180
892.594	3272
892.717	3256
892.839	3268
892.962	3332
893.085	3370
893.207	3279
893.33	3176
893.452	3245
893.575	3367
893.697	3275
893.819	3504
893.941	3504
894.064	3492
894.186	3287
894.308	3302
894.43	3473
894.552	3572
894.674	3511
894.796	3287
894.918	3332
895.04	3325
895.161	3466
895.283	3431
895.405	3325
895.526	3355
895.648	3450
895.769	3424
895.891	3481
896.012	3492
896.134	3511
896.255	3420
896.376	3374
896.498	3374
896.619	3447
896.74	3344
896.861	3409
896.982	3641
897.103	3854
897.224	3606
897.345	3523
897.466	3454
897.587	3538
897.708	3660
897.828	3553
897.949	3447
898.07	3378
898.19	3458
898.311	3625
898.431	3462
898.552	3549
898.672	3606
898.792	3625
898.913	3542
899.033	3450
899.153	3310
899.273	3222
899.393	3317
899.513	3378
899.633	3325
899.753	3370
899.873	3367
899.993	3405
900.113	3340
900.232	3420
900.352	3355
900.472	3310
900.591	3195
900.711	3355
900.83	3291
900.95	3443
901.069	3530
901.189	3355
901.308	3199
901.427	3169
901.546	3230
901.665	3310
901.784	3332
901.904	3211
902.023	3184
902.141	3028
902.26	3001
902.379	3161
902.498	3135
902.617	3047
902.735	3253
902.854	3279
902.973	3218
903.091	3066
903.21	3089
903.328	3176
903.446	3112
903.565	3089
903.683	3203
903.801	3169
903.919	3237
904.038	3279
904.156	3184
904.274	3336
904.392	3283
904.51	3298
904.627	3351
904.745	3424
904.863	3492
904.981	3249
905.098	3176
905.216	3279
905.334	3313
905.451	3332
905.569	3340
905.686	3416
905.803	3443
905.921	3283
906.038	3443
906.155	3382
906.272	3306
906.389	3348
906.506	3214
906.623	3272
906.74	3298
906.857	3230
906.974	3241
907.091	3428
907.208	3526
907.324	3477
907.441	3386
907.557	3279
907.674	3188
907.79	3233
907.907	3268
908.023	3397
908.139	3370
908.256	3355
908.372	3401
908.488	3393
908.604	3287
908.72	3249
908.836	3268
908.952	3294
909.068	3348
909.184	3466
909.3	3389
909.415	3473
909.531	3477
909.647	3268
909.762	3317
909.878	3237
909.993	3382
910.108	3325
910.224	3332
910.339	3393
910.454	3351
910.57	3279
910.685	3275
910.8	3599
910.915	3542
911.03	3428
911.145	3275
911.259	3298
911.374	3313
911.489	3256
911.604	3249
911.718	3135
911.833	3161
911.947	3036
912.062	2990
912.176	3176
912.291	3211
912.405	3249
912.519	3473
912.633	3473
912.748	3389
912.862	3279
912.976	3165
913.09	3066
913.204	3135
913.318	3226
913.431	3340
913.545	3378
913.659	3393
913.772	3351
913.886	3218
914	3222
914.113	3409
914.226	3412
914.34	3378
914.453	3214
914.566	3428
914.68	3287
914.793	3348
914.906	3169
915.019	3127
915.132	3089
915.245	3192
915.358	3214
915.47	3264
915.583	3302
915.696	3313
915.809	3397
915.921	3454
916.034	3279
916.146	3279
916.259	3230
916.371	3405
916.483	3405
916.595	3310
916.708	3336
916.82	3332
916.932	3370
917.044	3386
917.156	3401
917.268	3313
917.38	3332
917.491	3344
917.603	3424
917.715	3481
917.826	3466
917.938	3431
918.049	3272
918.161	3458
918.272	3606
918.384	3606
918.495	3530
918.606	3363
918.717	3306
918.828	3450
918.939	3504
919.05	3321
919.161	3435
919.272	3214
919.383	3317
919.494	3572
919.604	3701
919.715	3538
919.826	3477
919.936	3496
920.047	3656
920.157	3633
920.267	3797
920.378	3686
920.488	3652
920.598	3816
920.708	4010
920.818	3888
920.928	3865
921.038	4078
921.148	4071
921.258	3755
921.368	3667
921.477	3667
921.587	3572
921.697	3542
921.806	3656
921.916	3591
922.025	3378
922.134	3447
922.244	3367
922.353	3477
922.462	3340
922.571	3298
922.68	3157
922.789	3100
922.898	3176
923.007	3112
923.116	3226
923.224	3180
923.333	3233
923.442	3157
923.55	3150
923.659	3150
923.767	3268
923.876	3142
923.984	3233
924.092	3184
924.201	3241
924.309	3253
924.417	3287
924.525	3222
924.633	3313
924.741	4234
924.849	3077
924.956	3291
925.064	3138
925.172	3123
925.279	3116
925.387	3222
925.494	3241
925.602	3378
925.709	3393
925.816	3249
925.924	3332
926.031	3397
926.138	3416
926.245	3374
926.352	3310
926.459	3424
926.566	3557
926.673	3386
926.779	3291
926.886	3268
926.993	3184
927.099	3165
927.206	3131
927.312	3176
927.419	3291
927.525	3279
927.631	3279
927.737	3195
927.843	3154
927.95	3074
928.056	3157
928.162	3203
928.267	3275
928.373	3922
928.479	3355
928.585	3108
928.69	3249
928.796	3336
928.901	3192
929.007	3077
929.112	3249
929.218	3173
929.323	3195
929.428	3173
929.533	3325
929.638	3161
929.743	3180
929.848	3264
929.953	3222
930.058	3173
930.163	3051
930.267	3089
930.372	3233
930.477	3051
930.581	3340
930.685	3169
930.79	3074
930.894	3203
930.998	3154
931.103	3340
931.207	2979
931.311	2979
931.415	2925
931.519	2777
931.623	2845
