Data from test_V78500241_1845.txt Node
Date: Fri Mar 25 16:27:59 CST 2022
User: usil
Spectrometer: V785-0024
Trigger mode: 0
Integration Time (sec): 4.000000E-1
Scans to average: 1
Nonlinearity correction enabled: false
Boxcar width: 0
Storing dark spectrum: false
XAxis mode: Wavelengths
Number of Pixels in Spectrum: 1024
>>>>>Begin Spectral Data<<<<<
801.071	2895
801.214	2925
801.356	2857
801.499	2872
801.641	2838
801.783	2914
801.926	3047
802.068	2952
802.211	2975
802.353	3058
802.496	2933
802.638	3013
802.78	3032
802.923	3055
803.065	2979
803.208	2872
803.35	2922
803.492	2925
803.635	2941
803.777	2762
803.919	2834
804.061	3203
804.204	2906
804.346	2872
804.488	2849
804.63	2979
804.773	2880
804.915	2880
805.057	3036
805.199	2933
805.341	2952
805.483	3062
805.626	3001
805.768	2948
805.91	3066
806.052	3089
806.194	3020
806.336	3207
806.478	2990
806.62	2960
806.762	2982
806.904	3024
807.046	3188
807.188	2956
807.33	2925
807.472	3009
807.614	2910
807.756	2998
807.898	2918
808.04	2902
808.182	2948
808.324	2922
808.465	2864
808.607	2868
808.749	2781
808.891	2838
809.033	3017
809.174	2956
809.316	2876
809.458	2883
809.6	2762
809.741	2777
809.883	2777
810.025	2826
810.166	2842
810.308	2830
810.45	2826
810.591	2750
810.733	2766
810.875	2861
811.016	2773
811.158	2754
811.299	2823
811.441	2880
811.582	2891
811.724	2842
811.865	2861
812.007	2914
812.148	2868
812.29	2826
812.431	2861
812.573	2925
812.714	2975
812.855	3032
812.997	3093
813.138	3169
813.279	3009
813.421	2963
813.562	2986
813.703	2883
813.845	2918
813.986	2781
814.127	2735
814.268	2819
814.41	2811
814.551	2769
814.692	2883
814.833	2830
814.974	2868
815.115	2918
815.256	2800
815.397	2834
815.539	2876
815.68	2785
815.821	2800
815.962	2933
816.103	2944
816.244	2906
816.385	2872
816.526	2990
816.666	2918
816.807	2724
816.948	2868
817.089	2902
817.23	2861
817.371	2785
817.512	2823
817.653	2838
817.793	2853
817.934	2880
818.075	3009
818.216	2948
818.356	3036
818.497	2906
818.638	2807
818.778	2800
818.919	2792
819.06	2735
819.2	2861
819.341	2811
819.481	2807
819.622	2941
819.762	3074
819.903	3043
820.043	2956
820.184	2902
820.324	2910
820.465	3047
820.605	3005
820.746	3013
820.886	2925
821.026	3051
821.167	3165
821.307	3272
821.447	3241
821.588	3237
821.728	3173
821.868	3195
822.008	3085
822.149	3199
822.289	3218
822.429	3070
822.569	3089
822.709	3142
822.849	3024
822.99	3074
823.13	3157
823.27	3192
823.41	3116
823.55	3108
823.69	3154
823.83	3180
823.97	3116
824.11	3013
824.25	2998
824.389	3077
824.529	3116
824.669	3039
824.809	3211
824.949	3237
825.089	3226
825.228	3135
825.368	3024
825.508	2979
825.648	2994
825.787	3009
825.927	3020
826.067	2979
826.206	2963
826.346	3017
826.485	3062
826.625	3116
826.765	3226
826.904	3199
827.044	2998
827.183	2952
827.323	2876
827.462	2979
827.601	2902
827.741	2902
827.88	2956
828.02	2868
828.159	2990
828.298	3036
828.437	3104
828.577	3043
828.716	3214
828.855	3085
828.994	2864
829.134	2883
829.273	2887
829.412	2849
829.551	2872
829.69	2872
829.829	2971
829.968	3112
830.107	3024
830.246	2971
830.385	2899
830.524	2864
830.663	2804
830.802	2758
830.941	2632
831.08	2659
831.219	2788
831.357	2766
831.496	2952
831.635	2750
831.774	2659
831.913	2655
832.051	2556
832.19	2564
832.329	2701
832.467	2526
832.606	2446
832.744	2610
832.883	2606
833.022	2575
833.16	2663
833.299	2670
833.437	2670
833.576	2716
833.714	2712
833.852	2731
833.991	2762
834.129	2849
834.267	2815
834.406	2769
834.544	2861
834.682	2883
834.821	2834
834.959	3062
835.097	2868
835.235	3028
835.373	2975
835.511	3036
835.65	2952
835.788	2979
835.926	2788
836.064	2845
836.202	2826
836.34	3058
836.478	3146
836.615	3062
836.753	3112
836.891	3203
837.029	3135
837.167	3070
837.305	3081
837.443	3028
837.58	2963
837.718	3097
837.856	3089
837.993	3020
838.131	3123
838.269	3116
838.406	3097
838.544	3070
838.681	2941
838.819	2902
838.956	2788
839.094	2838
839.231	2899
839.369	3013
839.506	3363
839.643	3195
839.781	3001
839.918	2998
840.055	3047
840.193	3039
840.33	3017
840.467	3100
840.604	3146
840.742	3393
840.879	3020
841.016	3036
841.153	3104
841.29	3283
841.427	3325
841.564	3298
841.701	3287
841.838	3230
841.975	3222
842.112	3222
842.249	3066
842.385	3036
842.522	3253
842.659	3097
842.796	3077
842.933	3097
843.069	3062
843.206	3051
843.343	3211
843.479	3108
843.616	3157
843.752	2838
843.889	2857
844.025	3077
844.162	2880
844.298	3032
844.435	2944
844.571	2887
844.708	3081
844.844	3192
844.98	3199
845.117	3203
845.253	3055
845.389	3005
845.525	3093
845.661	3077
845.798	2960
845.934	3127
846.07	3055
846.206	3233
846.342	3317
846.478	3222
846.614	3093
846.75	3066
846.886	2998
847.022	3226
847.158	3123
847.294	3176
847.429	3249
847.565	3173
847.701	3450
847.837	3020
847.972	2990
848.108	3146
848.244	3119
848.379	2986
848.515	2922
848.65	2906
848.786	2963
848.921	3024
849.057	3097
849.192	3142
849.328	3055
849.463	3100
849.598	3058
849.734	3020
849.869	2990
850.004	2944
850.14	2967
850.275	2925
850.41	2861
850.545	2876
850.68	2925
850.815	2948
850.95	2960
851.085	3169
851.22	3104
851.355	3051
851.49	2956
851.625	2990
851.76	3032
851.895	2925
852.03	2864
852.165	2994
852.299	3085
852.434	3173
852.569	3097
852.703	3157
852.838	3249
852.973	3348
853.107	3336
853.242	3138
853.376	3100
853.511	2994
853.645	3017
853.78	3233
853.914	3081
854.048	3108
854.183	3097
854.317	3161
854.451	3264
854.585	3138
854.72	3070
854.854	3180
854.988	3047
855.122	3051
855.256	2952
855.39	3131
855.524	3249
855.658	3146
855.792	3142
855.926	3157
856.06	3264
856.194	3249
856.327	3154
856.461	3043
856.595	3020
856.729	3127
856.862	3207
856.996	3154
857.13	3169
857.263	3192
857.397	3268
857.53	3085
857.664	3131
857.797	3203
857.931	3268
858.064	3157
858.197	3207
858.331	3138
858.464	3081
858.597	2990
858.731	3116
858.864	3112
858.997	3093
859.13	3131
859.263	3135
859.396	3222
859.529	3074
859.662	3077
859.795	3024
859.928	3127
860.061	3256
860.194	3279
860.327	3127
860.46	3062
860.592	3203
860.725	3264
860.858	3272
860.99	3085
861.123	3032
861.256	3074
861.388	3135
861.521	3835
861.653	3024
861.786	2948
861.918	2994
862.05	2998
862.183	3062
862.315	3116
862.447	3233
862.58	3062
862.712	2944
862.844	2838
862.976	3043
863.108	3036
863.24	3401
863.372	2880
863.504	2933
863.636	2918
863.768	2990
863.9	2967
864.032	2922
864.164	2929
864.296	2994
864.428	3077
864.559	3131
864.691	3058
864.823	3058
864.954	2998
865.086	3032
865.217	2971
865.349	2918
865.48	3001
865.612	3013
865.743	3123
865.875	2967
866.006	2922
866.137	2937
866.269	2941
866.4	2937
866.531	2971
866.662	2899
866.793	2902
866.924	2902
867.055	3005
867.186	2883
867.317	2891
867.448	2845
867.579	2845
867.71	2826
867.841	2819
867.972	2902
868.103	2902
868.233	2845
868.364	2910
868.495	2880
868.625	3100
868.756	3161
868.886	2941
869.017	2986
869.147	3157
869.278	3157
869.408	3001
869.539	3047
869.669	3119
869.799	3043
869.929	3135
870.06	3074
870.19	3283
870.32	3256
870.45	3306
870.58	3344
870.71	3447
870.84	3458
870.97	3294
871.1	3214
871.23	3473
871.36	3431
871.489	3340
871.619	3367
871.749	3389
871.879	3454
872.008	3515
872.138	3332
872.267	3233
872.397	3161
872.526	3085
872.656	3005
872.785	3070
872.915	3203
873.044	3348
873.173	3230
873.303	3230
873.432	3260
873.561	3222
873.69	3131
873.819	3142
873.948	3188
874.077	3089
874.206	3017
874.335	3077
874.464	3222
874.593	3363
874.722	3264
874.851	3317
874.979	3332
875.108	3253
875.237	3230
875.365	3142
875.494	3188
875.623	3214
875.751	3089
875.88	3104
876.008	3195
876.136	3230
876.265	3378
876.393	3526
876.521	3439
876.65	3367
876.778	3355
876.906	3218
877.034	3241
877.162	3230
877.29	3176
877.418	3272
877.546	3245
877.674	3230
877.802	3218
877.93	3218
878.058	3135
878.185	3066
878.313	3260
878.441	3173
878.568	3062
878.696	3195
878.824	3188
878.951	3283
879.079	3466
879.206	3603
879.333	3428
879.461	3325
879.588	3363
879.715	3511
879.842	3614
879.97	3397
880.097	3157
880.224	3112
880.351	3169
880.478	3165
880.605	3211
880.732	3180
880.859	3473
880.986	3321
881.112	3329
881.239	3195
881.366	3077
881.493	3047
881.619	3024
881.746	3077
881.872	3131
881.999	3104
882.125	3119
882.252	3237
882.378	3298
882.505	3420
882.631	3275
882.757	3150
882.883	3226
883.01	3195
883.136	3138
883.262	3108
883.388	3108
883.514	3264
883.64	3340
883.766	3253
883.892	3176
884.018	3233
884.143	3393
884.269	3545
884.395	3157
884.52	3127
884.646	3214
884.772	3123
884.897	3100
885.023	3207
885.148	3340
885.274	3409
885.399	3355
885.524	3264
885.65	3245
885.775	3279
885.9	3294
886.025	3458
886.15	3329
886.275	3325
886.4	3214
886.525	3317
886.65	3253
886.775	3256
886.9	3473
887.025	3641
887.149	3405
887.274	3260
887.399	3165
887.523	3176
887.648	3154
887.773	3176
887.897	3405
888.021	3409
888.146	3298
888.27	3435
888.395	3557
888.519	3450
888.643	3389
888.767	3412
888.891	3310
889.015	3230
889.139	3302
889.263	3241
889.387	3344
889.511	3511
889.635	3447
889.759	3279
889.883	3306
890.006	3431
890.13	3469
890.254	3287
890.377	3332
890.501	3226
890.624	3180
890.748	3321
890.871	3161
890.995	3104
891.118	3039
891.241	3161
891.364	3211
891.488	3302
891.611	3154
891.734	3211
891.857	3279
891.98	3222
892.103	3325
892.226	3256
892.349	3165
892.471	3127
892.594	3241
892.717	3310
892.839	3279
892.962	3264
893.085	3374
893.207	3310
893.33	3154
893.452	3192
893.575	3302
893.697	3260
893.819	3439
893.941	3515
894.064	3431
894.186	3226
894.308	3325
894.43	3443
894.552	3526
894.674	3458
894.796	3313
894.918	3310
895.04	3275
895.161	3420
895.283	3351
895.405	3283
895.526	3359
895.648	3424
895.769	3420
895.891	3511
896.012	3447
896.134	3412
896.255	3382
896.376	3363
896.498	3355
896.619	3443
896.74	3336
896.861	3367
896.982	3679
897.103	3816
897.224	3572
897.345	3507
897.466	3412
897.587	3477
897.708	3595
897.828	3523
897.949	3447
898.07	3321
898.19	3374
898.311	3572
898.431	3431
898.552	3496
898.672	3606
898.792	3538
898.913	3511
899.033	3450
899.153	3241
899.273	3214
899.393	3306
899.513	3283
899.633	3302
899.753	3336
899.873	3275
899.993	3374
900.113	3298
900.232	3370
900.352	3397
900.472	3272
900.591	3222
900.711	3291
900.83	3237
900.95	3431
901.069	3488
901.189	3317
901.308	3176
901.427	3142
901.546	3192
901.665	3279
901.784	3306
901.904	3226
902.023	3138
902.141	3001
902.26	2963
902.379	3142
902.498	3043
902.617	3074
902.735	3146
902.854	3222
902.973	3195
903.091	3047
903.21	3009
903.328	3157
903.446	3074
903.565	3085
903.683	3211
903.801	3173
903.919	3249
904.038	3298
904.156	3154
904.274	3275
904.392	3272
904.51	3256
904.627	3313
904.745	3428
904.863	3481
904.981	3283
905.098	3161
905.216	3211
905.334	3321
905.451	3298
905.569	3321
905.686	3378
905.803	3481
905.921	3272
906.038	3420
906.155	3344
906.272	3268
906.389	3310
906.506	3192
906.623	3272
906.74	3275
906.857	3184
906.974	3287
907.091	3435
907.208	3568
907.324	3469
907.441	3397
907.557	3207
907.674	3222
907.79	3218
907.907	3294
908.023	3344
908.139	3355
908.256	3272
908.372	3378
908.488	3382
908.604	3230
908.72	3211
908.836	3268
908.952	3253
909.068	3317
909.184	3462
909.3	3393
909.415	3481
909.531	3492
909.647	3245
909.762	3272
909.878	3222
909.993	3325
910.108	3344
910.224	3336
910.339	3397
910.454	3340
910.57	3313
910.685	3264
910.8	3576
910.915	3549
911.03	3450
911.145	3249
911.259	3283
911.374	3306
911.489	3264
911.604	3222
911.718	3135
911.833	3116
911.947	2994
912.062	2956
912.176	3127
912.291	3203
912.405	3233
912.519	3416
912.633	3485
912.748	3310
912.862	3272
912.976	3184
913.09	3047
913.204	3161
913.318	3218
913.431	3370
913.545	3367
913.659	3367
913.772	3313
913.886	3195
914	3192
914.113	3363
914.226	3386
914.34	3355
914.453	3211
914.566	3401
914.68	3249
914.793	3313
914.906	3104
915.019	3131
915.132	3055
915.245	3199
915.358	3211
915.47	3211
915.583	3260
915.696	3298
915.809	3424
915.921	3416
916.034	3233
916.146	3218
916.259	3230
916.371	3397
916.483	3378
916.595	3298
916.708	3332
916.82	3336
916.932	3344
917.044	3336
917.156	3355
917.268	3249
917.38	3287
917.491	3275
917.603	3332
917.715	3439
917.826	3469
917.938	3397
918.049	3260
918.161	3439
918.272	3614
918.384	3568
918.495	3477
918.606	3332
918.717	3275
918.828	3367
918.939	3424
919.05	3260
919.161	3332
919.272	3173
919.383	3294
919.494	3492
919.604	3656
919.715	3458
919.826	3454
919.936	3439
920.047	3561
920.157	3580
920.267	3770
920.378	3622
920.488	3515
920.598	3800
920.708	3968
920.818	3835
920.928	3850
921.038	4032
921.148	4002
921.258	3694
921.368	3629
921.477	3561
921.587	3542
921.697	3439
921.806	3603
921.916	3530
922.025	3370
922.134	3348
922.244	3306
922.353	3389
922.462	3260
922.571	3233
922.68	3100
922.789	3036
922.898	3116
923.007	3058
923.116	3184
923.224	3188
923.333	3184
923.442	3104
923.55	3070
923.659	3112
923.767	3207
923.876	3127
923.984	3222
924.092	3112
924.201	3214
924.309	3218
924.417	3253
924.525	3165
924.633	3203
924.741	4169
924.849	3058
924.956	3260
925.064	3062
925.172	3051
925.279	3116
925.387	3150
925.494	3195
925.602	3374
925.709	3306
925.816	3157
925.924	3241
926.031	3336
926.138	3321
926.245	3355
926.352	3260
926.459	3424
926.566	3500
926.673	3321
926.779	3180
926.886	3245
926.993	3165
927.099	3135
927.206	3112
927.312	3135
927.419	3233
927.525	3218
927.631	3260
927.737	3154
927.843	3089
927.95	2986
928.056	3127
928.162	3173
928.267	3188
928.373	3812
928.479	3279
928.585	3081
928.69	3233
928.796	3279
928.901	3176
929.007	3039
929.112	3195
929.218	3150
929.323	3154
929.428	3127
929.533	3340
929.638	3089
929.743	3218
929.848	3264
929.953	3230
930.058	3116
930.163	3017
930.267	3032
930.372	3230
930.477	3032
930.581	3317
930.685	3176
930.79	3047
930.894	3150
930.998	3116
931.103	3268
931.207	2914
931.311	2929
931.415	2918
931.519	2769
931.623	2823
