Data from test_V78500241_1200.txt Node
Date: Fri Mar 25 16:23:30 CST 2022
User: usil
Spectrometer: V785-0024
Trigger mode: 0
Integration Time (sec): 4.000000E-1
Scans to average: 1
Nonlinearity correction enabled: false
Boxcar width: 0
Storing dark spectrum: false
XAxis mode: Wavelengths
Number of Pixels in Spectrum: 1024
>>>>>Begin Spectral Data<<<<<
801.071	2902
801.214	2956
801.356	2872
801.499	2891
801.641	2880
801.783	2975
801.926	3055
802.068	3001
802.211	2960
802.353	3036
802.496	2979
802.638	2994
802.78	3047
802.923	3104
803.065	3028
803.208	2918
803.35	2941
803.492	2956
803.635	2899
803.777	2788
803.919	2872
804.061	3192
804.204	2948
804.346	2910
804.488	2876
804.63	2960
804.773	2815
804.915	2906
805.057	3097
805.199	2956
805.341	2952
805.483	3062
805.626	3055
805.768	2967
805.91	3051
806.052	3093
806.194	3009
806.336	3260
806.478	3043
806.62	2967
806.762	2990
806.904	3058
807.046	3157
807.188	2986
807.33	2933
807.472	2971
807.614	2864
807.756	2967
807.898	2937
808.04	2887
808.182	2990
808.324	2948
808.465	2880
808.607	2857
808.749	2796
808.891	2872
809.033	2963
809.174	2971
809.316	2880
809.458	2857
809.6	2754
809.741	2815
809.883	2819
810.025	2838
810.166	2861
810.308	2819
810.45	2823
810.591	2777
810.733	2785
810.875	2811
811.016	2777
811.158	2792
811.299	2815
811.441	2941
811.582	2857
811.724	2853
811.865	2845
812.007	2902
812.148	2868
812.29	2842
812.431	2933
812.573	2899
812.714	2948
812.855	3081
812.997	3055
813.138	3100
813.279	2998
813.421	2975
813.562	2956
813.703	2853
813.845	2868
813.986	2769
814.127	2724
814.268	2811
814.41	2838
814.551	2777
814.692	2872
814.833	2804
814.974	2902
815.115	2929
815.256	2857
815.397	2819
815.539	2845
815.68	2796
815.821	2777
815.962	2960
816.103	2948
816.244	2853
816.385	2864
816.526	2956
816.666	2922
816.807	2739
816.948	2838
817.089	2925
817.23	2853
817.371	2788
817.512	2796
817.653	2807
817.793	2838
817.934	2823
818.075	2956
818.216	2979
818.356	3024
818.497	2887
818.638	2796
818.778	2811
818.919	2811
819.06	2735
819.2	2864
819.341	2800
819.481	2777
819.622	2933
819.762	3112
819.903	3032
820.043	2910
820.184	2872
820.324	2876
820.465	3024
820.605	3058
820.746	3032
820.886	2948
821.026	3123
821.167	3165
821.307	3249
821.447	3233
821.588	3275
821.728	3214
821.868	3184
822.008	3081
822.149	3176
822.289	3245
822.429	3070
822.569	3100
822.709	3203
822.849	3051
822.99	3070
823.13	3154
823.27	3207
823.41	3116
823.55	3123
823.69	3180
823.83	3154
823.97	3085
824.11	3001
824.25	2986
824.389	3062
824.529	3116
824.669	3093
824.809	3199
824.949	3279
825.089	3241
825.228	3142
825.368	2998
825.508	2960
825.648	2982
825.787	3070
825.927	3005
826.067	2967
826.206	2998
826.346	3043
826.485	3108
826.625	3112
826.765	3256
826.904	3237
827.044	3032
827.183	2960
827.323	2834
827.462	2963
827.601	2941
827.741	2982
827.88	3024
828.02	2880
828.159	3005
828.298	3047
828.437	3116
828.577	3047
828.716	3264
828.855	3093
828.994	3001
829.134	2956
829.273	2948
829.412	2918
829.551	2899
829.69	2929
829.829	3028
829.968	3211
830.107	3036
830.246	3097
830.385	2967
830.524	2891
830.663	2868
830.802	2750
830.941	2712
831.08	2705
831.219	2815
831.357	2804
831.496	2998
831.635	2720
831.774	2708
831.913	2667
832.051	2590
832.19	2598
832.329	2720
832.467	2549
832.606	2552
832.744	2644
832.883	2629
833.022	2629
833.16	2705
833.299	2705
833.437	2708
833.576	2746
833.714	2777
833.852	2750
833.991	2792
834.129	2891
834.267	2857
834.406	2826
834.544	2906
834.682	2876
834.821	2902
834.959	3085
835.097	2941
835.235	3119
835.373	3051
835.511	3047
835.65	2994
835.788	3020
835.926	2857
836.064	2857
836.202	2895
836.34	3108
836.478	3173
836.615	3116
836.753	3165
836.891	3233
837.029	3195
837.167	3142
837.305	3062
837.443	3070
837.58	3001
837.718	3138
837.856	3112
837.993	3028
838.131	3131
838.269	3127
838.406	3146
838.544	3138
838.681	2918
838.819	2952
838.956	2830
839.094	2876
839.231	2925
839.369	3013
839.506	3389
839.643	3256
839.781	3032
839.918	2994
840.055	3070
840.193	3089
840.33	3108
840.467	3112
840.604	3165
840.742	3439
840.879	3085
841.016	3097
841.153	3150
841.29	3329
841.427	3367
841.564	3306
841.701	3370
841.838	3237
841.975	3237
842.112	3256
842.249	3093
842.385	3062
842.522	3294
842.659	3119
842.796	3093
842.933	3112
843.069	3055
843.206	3051
843.343	3188
843.479	3127
843.616	3154
843.752	2929
843.889	2868
844.025	3108
844.162	2891
844.298	3131
844.435	2952
844.571	2933
844.708	3058
844.844	3211
844.98	3298
845.117	3245
845.253	3089
845.389	3024
845.525	3138
845.661	3127
845.798	3043
845.934	3116
846.07	3135
846.206	3268
846.342	3344
846.478	3253
846.614	3116
846.75	3085
846.886	3020
847.022	3283
847.158	3184
847.294	3253
847.429	3287
847.565	3233
847.701	3511
847.837	3074
847.972	3039
848.108	3184
848.244	3184
848.379	3017
848.515	2967
848.65	2956
848.786	2967
848.921	3058
849.057	3138
849.192	3138
849.328	3077
849.463	3157
849.598	3074
849.734	3074
849.869	2986
850.004	2906
850.14	2979
850.275	2925
850.41	2853
850.545	2876
850.68	2929
850.815	2963
850.95	2994
851.085	3226
851.22	3100
851.355	3055
851.49	2975
851.625	3055
851.76	3055
851.895	2975
852.03	2914
852.165	3032
852.299	3108
852.434	3214
852.569	3173
852.703	3207
852.838	3283
852.973	3359
853.107	3374
853.242	3192
853.376	3112
853.511	2998
853.645	3051
853.78	3233
853.914	3127
854.048	3123
854.183	3104
854.317	3207
854.451	3272
854.585	3161
854.72	3119
854.854	3260
854.988	3077
855.122	3100
855.256	2952
855.39	3154
855.524	3264
855.658	3195
855.792	3184
855.926	3214
856.06	3283
856.194	3275
856.327	3180
856.461	3138
856.595	3119
856.729	3123
856.862	3256
856.996	3203
857.13	3272
857.263	3233
857.397	3275
857.53	3131
857.664	3180
857.797	3275
857.931	3310
858.064	3218
858.197	3272
858.331	3135
858.464	3116
858.597	3005
858.731	3097
858.864	3157
858.997	3112
859.13	3188
859.263	3233
859.396	3226
859.529	3123
859.662	3066
859.795	3051
859.928	3131
860.061	3260
860.194	3313
860.327	3154
860.46	3131
860.592	3241
860.725	3275
860.858	3275
860.99	3116
861.123	3077
861.256	3081
861.388	3165
861.521	3743
861.653	3058
861.786	3013
861.918	3017
862.05	3036
862.183	3112
862.315	3173
862.447	3203
862.58	3165
862.712	2948
862.844	2883
862.976	3043
863.108	3001
863.24	3386
863.372	2902
863.504	2994
863.636	2975
863.768	3009
863.9	3001
864.032	2929
864.164	3001
864.296	3047
864.428	3074
864.559	3108
864.691	3062
864.823	3077
864.954	2998
865.086	3066
865.217	3028
865.349	2967
865.48	2982
865.612	3032
865.743	3180
865.875	2994
866.006	2941
866.137	3028
866.269	2975
866.4	2937
866.531	2960
866.662	2883
866.793	2906
866.924	2891
867.055	3017
867.186	2956
867.317	2857
867.448	2872
867.579	2845
867.71	2857
867.841	2823
867.972	2914
868.103	2979
868.233	2906
868.364	2899
868.495	2925
868.625	3123
868.756	3112
868.886	2925
869.017	3036
869.147	3199
869.278	3165
869.408	3085
869.539	3058
869.669	3112
869.799	3074
869.929	3184
870.06	3108
870.19	3336
870.32	3317
870.45	3294
870.58	3355
870.71	3469
870.84	3500
870.97	3302
871.1	3237
871.23	3511
871.36	3454
871.489	3374
871.619	3397
871.749	3431
871.879	3439
872.008	3481
872.138	3359
872.267	3298
872.397	3161
872.526	3100
872.656	3020
872.785	3131
872.915	3253
873.044	3348
873.173	3260
873.303	3287
873.432	3264
873.561	3302
873.69	3161
873.819	3169
873.948	3260
874.077	3089
874.206	3005
874.335	3108
874.464	3230
874.593	3344
874.722	3237
874.851	3351
874.979	3382
875.108	3344
875.237	3169
875.365	3214
875.494	3131
875.623	3291
875.751	3085
875.88	3131
876.008	3176
876.136	3226
876.265	3363
876.393	3515
876.521	3405
876.65	3424
876.778	3329
876.906	3253
877.034	3222
877.162	3249
877.29	3173
877.418	3302
877.546	3226
877.674	3260
877.802	3268
877.93	3241
878.058	3188
878.185	3169
878.313	3207
878.441	3192
878.568	3074
878.696	3165
878.824	3279
878.951	3325
879.079	3439
879.206	3641
879.333	3485
879.461	3359
879.588	3348
879.715	3488
879.842	3591
879.97	3351
880.097	3192
880.224	3150
880.351	3237
880.478	3249
880.605	3241
880.732	3203
880.859	3507
880.986	3302
881.112	3359
881.239	3192
881.366	3127
881.493	3051
881.619	2986
881.746	3100
881.872	3100
881.999	3108
882.125	3154
882.252	3306
882.378	3291
882.505	3454
882.631	3310
882.757	3154
882.883	3256
883.01	3264
883.136	3169
883.262	3112
883.388	3131
883.514	3317
883.64	3401
883.766	3332
883.892	3207
884.018	3237
884.143	3409
884.269	3534
884.395	3222
884.52	3203
884.646	3176
884.772	3119
884.897	3116
885.023	3214
885.148	3332
885.274	3439
885.399	3382
885.524	3268
885.65	3253
885.775	3348
885.9	3298
886.025	3454
886.15	3351
886.275	3313
886.4	3222
886.525	3287
886.65	3294
886.775	3264
886.9	3523
887.025	3633
887.149	3416
887.274	3275
887.399	3173
887.523	3211
887.648	3203
887.773	3222
887.897	3405
888.021	3374
888.146	3302
888.27	3431
888.395	3564
888.519	3409
888.643	3496
888.767	3443
888.891	3332
889.015	3245
889.139	3291
889.263	3268
889.387	3397
889.511	3504
889.635	3496
889.759	3310
889.883	3306
890.006	3397
890.13	3530
890.254	3291
890.377	3306
890.501	3268
890.624	3195
890.748	3264
890.871	3188
890.995	3100
891.118	3062
891.241	3176
891.364	3241
891.488	3332
891.611	3222
891.734	3249
891.857	3279
891.98	3245
892.103	3329
892.226	3283
892.349	3249
892.471	3112
892.594	3226
892.717	3291
892.839	3222
892.962	3336
893.085	3355
893.207	3310
893.33	3150
893.452	3207
893.575	3374
893.697	3256
893.819	3450
893.941	3496
894.064	3485
894.186	3298
894.308	3294
894.43	3481
894.552	3564
894.674	3443
894.796	3332
894.918	3336
895.04	3302
895.161	3447
895.283	3409
895.405	3298
895.526	3363
895.648	3450
895.769	3405
895.891	3469
896.012	3469
896.134	3466
896.255	3424
896.376	3374
896.498	3378
896.619	3405
896.74	3348
896.861	3428
896.982	3694
897.103	3865
897.224	3568
897.345	3477
897.466	3439
897.587	3504
897.708	3599
897.828	3580
897.949	3435
898.07	3344
898.19	3424
898.311	3606
898.431	3462
898.552	3515
898.672	3595
898.792	3576
898.913	3523
899.033	3416
899.153	3283
899.273	3218
899.393	3302
899.513	3325
899.633	3310
899.753	3340
899.873	3306
899.993	3397
900.113	3367
900.232	3416
900.352	3355
900.472	3272
900.591	3199
900.711	3317
900.83	3222
900.95	3439
901.069	3458
901.189	3348
901.308	3184
901.427	3142
901.546	3173
901.665	3325
901.784	3332
901.904	3249
902.023	3154
902.141	3032
902.26	2990
902.379	3165
902.498	3055
902.617	3070
902.735	3211
902.854	3245
902.973	3218
903.091	3070
903.21	3104
903.328	3131
903.446	3116
903.565	3093
903.683	3157
903.801	3135
903.919	3253
904.038	3279
904.156	3173
904.274	3313
904.392	3275
904.51	3291
904.627	3306
904.745	3458
904.863	3466
904.981	3294
905.098	3135
905.216	3214
905.334	3268
905.451	3359
905.569	3310
905.686	3454
905.803	3450
905.921	3302
906.038	3431
906.155	3355
906.272	3294
906.389	3310
906.506	3211
906.623	3260
906.74	3226
906.857	3211
906.974	3287
907.091	3469
907.208	3580
907.324	3477
907.441	3412
907.557	3241
907.674	3249
907.79	3184
907.907	3272
908.023	3370
908.139	3370
908.256	3367
908.372	3363
908.488	3382
908.604	3256
908.72	3192
908.836	3306
908.952	3298
909.068	3332
909.184	3454
909.3	3363
909.415	3485
909.531	3462
909.647	3283
909.762	3306
909.878	3253
909.993	3367
910.108	3355
910.224	3325
910.339	3386
910.454	3355
910.57	3321
910.685	3291
910.8	3606
910.915	3542
911.03	3397
911.145	3264
911.259	3279
911.374	3329
911.489	3249
911.604	3211
911.718	3138
911.833	3131
911.947	3032
912.062	2998
912.176	3165
912.291	3203
912.405	3203
912.519	3428
912.633	3488
912.748	3332
912.862	3279
912.976	3142
913.09	3081
913.204	3161
913.318	3214
913.431	3344
913.545	3348
913.659	3443
913.772	3332
913.886	3180
914	3222
914.113	3397
914.226	3412
914.34	3428
914.453	3214
914.566	3416
914.68	3283
914.793	3298
914.906	3127
915.019	3154
915.132	3066
915.245	3169
915.358	3195
915.47	3233
915.583	3241
915.696	3317
915.809	3393
915.921	3443
916.034	3298
916.146	3249
916.259	3237
916.371	3336
916.483	3374
916.595	3279
916.708	3321
916.82	3351
916.932	3332
917.044	3317
917.156	3325
917.268	3268
917.38	3317
917.491	3329
917.603	3389
917.715	3424
917.826	3488
917.938	3389
918.049	3287
918.161	3389
918.272	3538
918.384	3591
918.495	3469
918.606	3310
918.717	3310
918.828	3317
918.939	3386
919.05	3306
919.161	3378
919.272	3195
919.383	3245
919.494	3496
919.604	3675
919.715	3500
919.826	3424
919.936	3431
920.047	3606
920.157	3572
920.267	3740
920.378	3587
920.488	3549
920.598	3812
920.708	3960
920.818	3873
920.928	3865
921.038	4048
921.148	3983
921.258	3667
921.368	3633
921.477	3591
921.587	3542
921.697	3473
921.806	3652
921.916	3466
922.025	3344
922.134	3336
922.244	3332
922.353	3409
922.462	3272
922.571	3230
922.68	3074
922.789	3097
922.898	3150
923.007	3112
923.116	3199
923.224	3199
923.333	3214
923.442	3097
923.55	3070
923.659	3146
923.767	3199
923.876	3135
923.984	3199
924.092	3135
924.201	3176
924.309	3203
924.417	3218
924.525	3233
924.633	3230
924.741	4021
924.849	3074
924.956	3264
925.064	3127
925.172	3024
925.279	3093
925.387	3180
925.494	3188
925.602	3313
925.709	3348
925.816	3180
925.924	3264
926.031	3374
926.138	3302
926.245	3359
926.352	3237
926.459	3389
926.566	3462
926.673	3287
926.779	3283
926.886	3249
926.993	3119
927.099	3112
927.206	3142
927.312	3085
927.419	3230
927.525	3218
927.631	3256
927.737	3131
927.843	3116
927.95	3036
928.056	3119
928.162	3192
928.267	3222
928.373	3823
928.479	3302
928.585	3074
928.69	3218
928.796	3268
928.901	3211
929.007	3070
929.112	3230
929.218	3173
929.323	3135
929.428	3165
929.533	3306
929.638	3104
929.743	3180
929.848	3268
929.953	3218
930.058	3161
930.163	3017
930.267	3047
930.372	3173
930.477	3062
930.581	3260
930.685	3146
930.79	3047
930.894	3112
930.998	3112
931.103	3260
931.207	2971
931.311	2929
931.415	2914
931.519	2762
931.623	2819
