Data from test_V78500241_467.txt Node
Date: Fri Mar 25 16:18:26 CST 2022
User: usil
Spectrometer: V785-0024
Trigger mode: 0
Integration Time (sec): 4.000000E-1
Scans to average: 1
Nonlinearity correction enabled: false
Boxcar width: 0
Storing dark spectrum: false
XAxis mode: Wavelengths
Number of Pixels in Spectrum: 1024
>>>>>Begin Spectral Data<<<<<
801.071	2963
801.214	2944
801.356	2864
801.499	2880
801.641	2883
801.783	2929
801.926	3024
802.068	2990
802.211	2979
802.353	3047
802.496	2944
802.638	3043
802.78	3036
802.923	3089
803.065	3028
803.208	2937
803.35	2922
803.492	2956
803.635	2937
803.777	2762
803.919	2857
804.061	3146
804.204	2952
804.346	2906
804.488	2861
804.63	2975
804.773	2887
804.915	2929
805.057	3085
805.199	2933
805.341	2971
805.483	3058
805.626	2975
805.768	2963
805.91	3108
806.052	3116
806.194	3017
806.336	3203
806.478	3039
806.62	2914
806.762	2967
806.904	3028
807.046	3119
807.188	2967
807.33	2857
807.472	2956
807.614	2906
807.756	2982
807.898	2883
808.04	2922
808.182	2963
808.324	2956
808.465	2914
808.607	2864
808.749	2785
808.891	2883
809.033	2979
809.174	2960
809.316	2929
809.458	2876
809.6	2785
809.741	2792
809.883	2777
810.025	2826
810.166	2857
810.308	2864
810.45	2868
810.591	2777
810.733	2766
810.875	2811
811.016	2781
811.158	2739
811.299	2781
811.441	2941
811.582	2902
811.724	2811
811.865	2842
812.007	2910
812.148	2883
812.29	2834
812.431	2868
812.573	2925
812.714	2975
812.855	3032
812.997	3074
813.138	3135
813.279	3005
813.421	2986
813.562	2979
813.703	2880
813.845	2876
813.986	2796
814.127	2720
814.268	2796
814.41	2842
814.551	2815
814.692	2853
814.833	2800
814.974	2868
815.115	2963
815.256	2842
815.397	2807
815.539	2838
815.68	2769
815.821	2781
815.962	2929
816.103	2933
816.244	2883
816.385	2826
816.526	2944
816.666	2952
816.807	2705
816.948	2876
817.089	2876
817.23	2868
817.371	2796
817.512	2781
817.653	2826
817.793	2800
817.934	2857
818.075	2933
818.216	2975
818.356	3032
818.497	2891
818.638	2762
818.778	2830
818.919	2769
819.06	2731
819.2	2883
819.341	2796
819.481	2819
819.622	2956
819.762	3127
819.903	3032
820.043	2941
820.184	2891
820.324	2922
820.465	3013
820.605	3062
820.746	3058
820.886	2944
821.026	3097
821.167	3157
821.307	3275
821.447	3272
821.588	3233
821.728	3233
821.868	3249
822.008	3074
822.149	3214
822.289	3272
822.429	3100
822.569	3070
822.709	3195
822.849	3066
822.99	3108
823.13	3176
823.27	3287
823.41	3104
823.55	3188
823.69	3195
823.83	3268
823.97	3138
824.11	3013
824.25	3017
824.389	3097
824.529	3123
824.669	3097
824.809	3260
824.949	3249
825.089	3256
825.228	3207
825.368	3036
825.508	3001
825.648	2960
825.787	3051
825.927	2986
826.067	3024
826.206	3013
826.346	3081
826.485	3161
826.625	3154
826.765	3287
826.904	3268
827.044	3051
827.183	2994
827.323	2918
827.462	2998
827.601	2929
827.741	2952
827.88	3001
828.02	2922
828.159	3032
828.298	3074
828.437	3135
828.577	3058
828.716	3283
828.855	3131
828.994	2979
829.134	2906
829.273	2960
829.412	2902
829.551	2883
829.69	2929
829.829	3009
829.968	3150
830.107	3085
830.246	3055
830.385	2963
830.524	2929
830.663	2861
830.802	2781
830.941	2693
831.08	2659
831.219	2804
831.357	2834
831.496	2994
831.635	2766
831.774	2686
831.913	2689
832.051	2568
832.19	2644
832.329	2743
832.467	2587
832.606	2533
832.744	2648
832.883	2644
833.022	2617
833.16	2697
833.299	2724
833.437	2724
833.576	2712
833.714	2739
833.852	2777
833.991	2804
834.129	2895
834.267	2876
834.406	2834
834.544	2918
834.682	2906
834.821	2902
834.959	3093
835.097	2906
835.235	3097
835.373	3005
835.511	3032
835.65	2998
835.788	3024
835.926	2902
836.064	2845
836.202	2861
836.34	3131
836.478	3188
836.615	3001
836.753	3169
836.891	3241
837.029	3203
837.167	3150
837.305	3074
837.443	3047
837.58	2998
837.718	3180
837.856	3119
837.993	3089
838.131	3138
838.269	3116
838.406	3100
838.544	3142
838.681	2937
838.819	2956
838.956	2823
839.094	2872
839.231	2925
839.369	3039
839.506	3416
839.643	3275
839.781	3066
839.918	3009
840.055	3043
840.193	3074
840.33	3074
840.467	3146
840.604	3157
840.742	3443
840.879	3146
841.016	3097
841.153	3127
841.29	3348
841.427	3336
841.564	3298
841.701	3359
841.838	3256
841.975	3176
842.112	3230
842.249	3100
842.385	3085
842.522	3310
842.659	3077
842.796	3043
842.933	3207
843.069	3062
843.206	3074
843.343	3237
843.479	3119
843.616	3154
843.752	2899
843.889	2902
844.025	3146
844.162	2922
844.298	3077
844.435	2990
844.571	2971
844.708	3089
844.844	3188
844.98	3245
845.117	3233
845.253	3051
845.389	3020
845.525	3112
845.661	3112
845.798	3020
845.934	3180
846.07	3104
846.206	3275
846.342	3359
846.478	3260
846.614	3104
846.75	3066
846.886	3047
847.022	3245
847.158	3165
847.294	3264
847.429	3291
847.565	3237
847.701	3511
847.837	3043
847.972	3051
848.108	3188
848.244	3157
848.379	3024
848.515	2971
848.65	2967
848.786	2967
848.921	2998
849.057	3138
849.192	3154
849.328	3097
849.463	3169
849.598	3097
849.734	3062
849.869	2998
850.004	2963
850.14	2960
850.275	2960
850.41	2838
850.545	2910
850.68	2975
850.815	3001
850.95	2975
851.085	3180
851.22	3123
851.355	3058
851.49	2994
851.625	3043
851.76	2994
851.895	2929
852.03	2944
852.165	3032
852.299	3146
852.434	3207
852.569	3173
852.703	3214
852.838	3291
852.973	3359
853.107	3344
853.242	3165
853.376	3123
853.511	2994
853.645	3066
853.78	3211
853.914	3123
854.048	3131
854.183	3093
854.317	3157
854.451	3310
854.585	3123
854.72	3097
854.854	3195
854.988	3077
855.122	3108
855.256	3001
855.39	3150
855.524	3321
855.658	3180
855.792	3169
855.926	3214
856.06	3245
856.194	3291
856.327	3169
856.461	3066
856.595	3097
856.729	3112
856.862	3199
856.996	3199
857.13	3195
857.263	3253
857.397	3298
857.53	3138
857.664	3214
857.797	3233
857.931	3298
858.064	3154
858.197	3233
858.331	3157
858.464	3146
858.597	3028
858.731	3123
858.864	3142
858.997	3089
859.13	3188
859.263	3173
859.396	3226
859.529	3116
859.662	3077
859.795	3093
859.928	3150
860.061	3287
860.194	3294
860.327	3157
860.46	3146
860.592	3256
860.725	3279
860.858	3272
860.99	3135
861.123	3081
861.256	3066
861.388	3157
861.521	3945
861.653	3047
861.786	3005
861.918	3047
862.05	3062
862.183	3116
862.315	3184
862.447	3222
862.58	3100
862.712	2979
862.844	2895
862.976	3058
863.108	2990
863.24	3359
863.372	2872
863.504	2994
863.636	2967
863.768	3036
863.9	3005
864.032	2929
864.164	2998
864.296	3043
864.428	3116
864.559	3123
864.691	3081
864.823	3112
864.954	3081
865.086	3123
865.217	3028
865.349	2967
865.48	3017
865.612	3028
865.743	3142
865.875	3001
866.006	2944
866.137	2979
866.269	2929
866.4	2982
866.531	2944
866.662	2910
866.793	2944
866.924	2933
867.055	3001
867.186	2937
867.317	2929
867.448	2891
867.579	2861
867.71	2876
867.841	2872
867.972	2971
868.103	2948
868.233	2887
868.364	2864
868.495	2937
868.625	3093
868.756	3199
868.886	2994
869.017	3062
869.147	3169
869.278	3135
869.408	3058
869.539	3013
869.669	3085
869.799	3047
869.929	3176
870.06	3131
870.19	3340
870.32	3260
870.45	3313
870.58	3409
870.71	3424
870.84	3466
870.97	3249
871.1	3279
871.23	3485
871.36	3462
871.489	3355
871.619	3409
871.749	3450
871.879	3473
872.008	3492
872.138	3367
872.267	3272
872.397	3169
872.526	3097
872.656	3024
872.785	3100
872.915	3203
873.044	3317
873.173	3256
873.303	3253
873.432	3260
873.561	3249
873.69	3169
873.819	3180
873.948	3192
874.077	3116
874.206	3009
874.335	3123
874.464	3233
874.593	3351
874.722	3256
874.851	3405
874.979	3370
875.108	3332
875.237	3241
875.365	3188
875.494	3199
875.623	3233
875.751	3081
875.88	3116
876.008	3195
876.136	3180
876.265	3378
876.393	3545
876.521	3443
876.65	3439
876.778	3359
876.906	3279
877.034	3176
877.162	3195
877.29	3184
877.418	3256
877.546	3264
877.674	3253
877.802	3237
877.93	3230
878.058	3169
878.185	3119
878.313	3211
878.441	3211
878.568	3070
878.696	3176
878.824	3268
878.951	3306
879.079	3462
879.206	3622
879.333	3458
879.461	3317
879.588	3321
879.715	3488
879.842	3610
879.97	3397
880.097	3176
880.224	3138
880.351	3214
880.478	3237
880.605	3230
880.732	3207
880.859	3511
880.986	3329
881.112	3340
881.239	3176
881.366	3081
881.493	3028
881.619	3062
881.746	3077
881.872	3097
881.999	3097
882.125	3165
882.252	3241
882.378	3329
882.505	3443
882.631	3329
882.757	3161
882.883	3214
883.01	3241
883.136	3176
883.262	3100
883.388	3146
883.514	3306
883.64	3367
883.766	3329
883.892	3173
884.018	3245
884.143	3439
884.269	3553
884.395	3237
884.52	3176
884.646	3188
884.772	3157
884.897	3112
885.023	3222
885.148	3313
885.274	3397
885.399	3378
885.524	3291
885.65	3233
885.775	3332
885.9	3329
886.025	3420
886.15	3359
886.275	3336
886.4	3241
886.525	3321
886.65	3294
886.775	3264
886.9	3492
887.025	3663
887.149	3374
887.274	3245
887.399	3165
887.523	3203
887.648	3199
887.773	3214
887.897	3359
888.021	3428
888.146	3279
888.27	3466
888.395	3561
888.519	3435
888.643	3466
888.767	3447
888.891	3325
889.015	3256
889.139	3275
889.263	3245
889.387	3454
889.511	3523
889.635	3412
889.759	3245
889.883	3283
890.006	3409
890.13	3496
890.254	3279
890.377	3313
890.501	3226
890.624	3207
890.748	3306
890.871	3195
890.995	3112
891.118	3097
891.241	3203
891.364	3222
891.488	3313
891.611	3180
891.734	3245
891.857	3272
891.98	3222
892.103	3340
892.226	3317
892.349	3237
892.471	3100
892.594	3253
892.717	3291
892.839	3264
892.962	3283
893.085	3374
893.207	3313
893.33	3150
893.452	3226
893.575	3386
893.697	3253
893.819	3439
893.941	3515
894.064	3473
894.186	3260
894.308	3287
894.43	3439
894.552	3549
894.674	3469
894.796	3275
894.918	3313
895.04	3264
895.161	3409
895.283	3386
895.405	3313
895.526	3397
895.648	3439
895.769	3397
895.891	3450
896.012	3469
896.134	3424
896.255	3435
896.376	3378
896.498	3363
896.619	3450
896.74	3378
896.861	3386
896.982	3686
897.103	3850
897.224	3584
897.345	3492
897.466	3462
897.587	3523
897.708	3652
897.828	3580
897.949	3466
898.07	3332
898.19	3428
898.311	3614
898.431	3439
898.552	3515
898.672	3576
898.792	3591
898.913	3500
899.033	3412
899.153	3294
899.273	3241
899.393	3298
899.513	3367
899.633	3340
899.753	3348
899.873	3313
899.993	3340
900.113	3321
900.232	3389
900.352	3370
900.472	3287
900.591	3241
900.711	3287
900.83	3272
900.95	3405
901.069	3485
901.189	3332
901.308	3195
901.427	3108
901.546	3218
901.665	3306
901.784	3313
901.904	3222
902.023	3127
902.141	3039
902.26	3001
902.379	3135
902.498	3077
902.617	3036
902.735	3230
902.854	3211
902.973	3214
903.091	3062
903.21	3055
903.328	3150
903.446	3108
903.565	3123
903.683	3256
903.801	3135
903.919	3226
904.038	3260
904.156	3176
904.274	3291
904.392	3256
904.51	3306
904.627	3321
904.745	3405
904.863	3466
904.981	3264
905.098	3180
905.216	3260
905.334	3283
905.451	3298
905.569	3321
905.686	3431
905.803	3454
905.921	3275
906.038	3409
906.155	3325
906.272	3310
906.389	3332
906.506	3272
906.623	3245
906.74	3264
906.857	3150
906.974	3294
907.091	3428
907.208	3603
907.324	3488
907.441	3420
907.557	3214
907.674	3256
907.79	3195
907.907	3272
908.023	3397
908.139	3378
908.256	3291
908.372	3386
908.488	3401
908.604	3218
908.72	3245
908.836	3329
908.952	3321
909.068	3306
909.184	3481
909.3	3420
909.415	3500
909.531	3454
909.647	3306
909.762	3340
909.878	3264
909.993	3382
910.108	3359
910.224	3348
910.339	3435
910.454	3321
910.57	3279
910.685	3256
910.8	3545
910.915	3530
911.03	3420
911.145	3268
911.259	3275
911.374	3275
911.489	3218
911.604	3226
911.718	3085
911.833	3161
911.947	3043
912.062	2982
912.176	3176
912.291	3192
912.405	3176
912.519	3431
912.633	3447
912.748	3344
912.862	3279
912.976	3195
913.09	3043
913.204	3165
913.318	3230
913.431	3336
913.545	3344
913.659	3389
913.772	3344
913.886	3230
914	3203
914.113	3348
914.226	3393
914.34	3363
914.453	3268
914.566	3397
914.68	3283
914.793	3291
914.906	3127
915.019	3146
915.132	3036
915.245	3173
915.358	3199
915.47	3245
915.583	3253
915.696	3256
915.809	3416
915.921	3412
916.034	3253
916.146	3268
916.259	3237
916.371	3382
916.483	3336
916.595	3260
916.708	3317
916.82	3329
916.932	3340
917.044	3359
917.156	3374
917.268	3241
917.38	3298
917.491	3310
917.603	3355
917.715	3431
917.826	3496
917.938	3386
918.049	3230
918.161	3420
918.272	3584
918.384	3553
918.495	3504
918.606	3363
918.717	3275
918.828	3382
918.939	3420
919.05	3325
919.161	3321
919.272	3150
919.383	3245
919.494	3492
919.604	3694
919.715	3466
919.826	3397
919.936	3481
920.047	3587
920.157	3542
920.267	3736
920.378	3622
920.488	3561
920.598	3747
920.708	3941
920.818	3789
920.928	3831
921.038	4010
921.148	3994
921.258	3720
921.368	3652
921.477	3576
921.587	3526
921.697	3409
921.806	3606
921.916	3534
922.025	3321
922.134	3332
922.244	3275
922.353	3409
922.462	3272
922.571	3199
922.68	3070
922.789	3081
922.898	3131
923.007	3116
923.116	3226
923.224	3157
923.333	3203
923.442	3112
923.55	3104
923.659	3154
923.767	3214
923.876	3173
923.984	3272
924.092	3081
924.201	3226
924.309	3214
924.417	3230
924.525	3180
924.633	3253
924.741	4010
924.849	3051
924.956	3233
925.064	3077
925.172	3001
925.279	3116
925.387	3165
925.494	3214
925.602	3367
925.709	3336
925.816	3195
925.924	3275
926.031	3412
926.138	3363
926.245	3359
926.352	3237
926.459	3431
926.566	3409
926.673	3298
926.779	3256
926.886	3260
926.993	3165
927.099	3127
927.206	3116
927.312	3112
927.419	3218
927.525	3165
927.631	3260
927.737	3123
927.843	3146
927.95	3032
928.056	3146
928.162	3165
928.267	3222
928.373	3781
928.479	3279
928.585	3100
928.69	3188
928.796	3245
928.901	3169
929.007	3074
929.112	3230
929.218	3203
929.323	3142
929.428	3138
929.533	3279
929.638	3112
929.743	3161
929.848	3207
929.953	3264
930.058	3157
930.163	3005
930.267	3024
930.372	3173
930.477	3055
930.581	3325
930.685	3146
930.79	3081
930.894	3100
930.998	3081
931.103	3287
931.207	2948
931.311	2952
931.415	2941
931.519	2800
931.623	2811
