Data from test_V78500241_655.txt Node
Date: Fri Mar 25 16:19:44 CST 2022
User: usil
Spectrometer: V785-0024
Trigger mode: 0
Integration Time (sec): 4.000000E-1
Scans to average: 1
Nonlinearity correction enabled: false
Boxcar width: 0
Storing dark spectrum: false
XAxis mode: Wavelengths
Number of Pixels in Spectrum: 1024
>>>>>Begin Spectral Data<<<<<
801.071	2914
801.214	2960
801.356	2914
801.499	2922
801.641	2891
801.783	2929
801.926	3051
802.068	2994
802.211	3017
802.353	3028
802.496	2956
802.638	3036
802.78	3081
802.923	3074
803.065	3013
803.208	2910
803.35	2918
803.492	2960
803.635	2944
803.777	2807
803.919	2883
804.061	3173
804.204	2925
804.346	2910
804.488	2842
804.63	2979
804.773	2895
804.915	2933
805.057	3100
805.199	2929
805.341	3001
805.483	3062
805.626	3028
805.768	2960
805.91	3093
806.052	3100
806.194	3055
806.336	3233
806.478	3055
806.62	2952
806.762	2975
806.904	3104
807.046	3154
807.188	2971
807.33	2914
807.472	2990
807.614	2941
807.756	3005
807.898	2906
808.04	2922
808.182	2998
808.324	2956
808.465	2864
808.607	2902
808.749	2823
808.891	2857
809.033	2971
809.174	2998
809.316	2864
809.458	2902
809.6	2781
809.741	2750
809.883	2785
810.025	2853
810.166	2838
810.308	2861
810.45	2830
810.591	2746
810.733	2766
810.875	2838
811.016	2788
811.158	2769
811.299	2842
811.441	2952
811.582	2899
811.724	2849
811.865	2842
812.007	2899
812.148	2864
812.29	2906
812.431	2902
812.573	2956
812.714	2967
812.855	3081
812.997	3058
813.138	3138
813.279	3028
813.421	3009
813.562	2941
813.703	2902
813.845	2891
813.986	2804
814.127	2708
814.268	2853
814.41	2842
814.551	2785
814.692	2906
814.833	2849
814.974	2876
815.115	2960
815.256	2807
815.397	2823
815.539	2849
815.68	2785
815.821	2842
815.962	2960
816.103	2982
816.244	2883
816.385	2887
816.526	2998
816.666	2929
816.807	2762
816.948	2902
817.089	2895
817.23	2849
817.371	2762
817.512	2823
817.653	2849
817.793	2845
817.934	2861
818.075	2941
818.216	3020
818.356	3001
818.497	2906
818.638	2807
818.778	2811
818.919	2823
819.06	2792
819.2	2887
819.341	2804
819.481	2826
819.622	2948
819.762	3081
819.903	3058
820.043	2914
820.184	2906
820.324	2891
820.465	3020
820.605	3062
820.746	3020
820.886	2925
821.026	3116
821.167	3222
821.307	3230
821.447	3249
821.588	3245
821.728	3245
821.868	3169
822.008	3112
822.149	3207
822.289	3272
822.429	3116
822.569	3138
822.709	3184
822.849	3066
822.99	3093
823.13	3176
823.27	3222
823.41	3100
823.55	3165
823.69	3176
823.83	3161
823.97	3104
824.11	3020
824.25	2998
824.389	3043
824.529	3123
824.669	3070
824.809	3211
824.949	3283
825.089	3169
825.228	3169
825.368	3017
825.508	2979
825.648	3009
825.787	2986
825.927	2990
826.067	2948
826.206	2982
826.346	3066
826.485	3100
826.625	3127
826.765	3283
826.904	3195
827.044	3005
827.183	2925
827.323	2906
827.462	2956
827.601	2891
827.741	2971
827.88	2944
828.02	2853
828.159	2986
828.298	3036
828.437	3131
828.577	3047
828.716	3256
828.855	3077
828.994	2952
829.134	2883
829.273	2922
829.412	2906
829.551	2872
829.69	2899
829.829	2960
829.968	3135
830.107	3024
830.246	3058
830.385	2925
830.524	2883
830.663	2819
830.802	2708
830.941	2651
831.08	2636
831.219	2750
831.357	2762
831.496	2960
831.635	2708
831.774	2689
831.913	2667
832.051	2541
832.19	2571
832.329	2682
832.467	2541
832.606	2469
832.744	2587
832.883	2610
833.022	2602
833.16	2636
833.299	2667
833.437	2697
833.576	2739
833.714	2697
833.852	2781
833.991	2754
834.129	2845
834.267	2845
834.406	2785
834.544	2857
834.682	2876
834.821	2899
834.959	3062
835.097	2922
835.235	3051
835.373	2967
835.511	3013
835.65	2922
835.788	2967
835.926	2842
836.064	2838
836.202	2823
836.34	3093
836.478	3165
836.615	3062
836.753	3150
836.891	3233
837.029	3150
837.167	3116
837.305	3047
837.443	3032
837.58	2948
837.718	3123
837.856	3066
837.993	3047
838.131	3100
838.269	3119
838.406	3116
838.544	3131
838.681	2967
838.819	2918
838.956	2804
839.094	2834
839.231	2933
839.369	3005
839.506	3363
839.643	3226
839.781	3017
839.918	2982
840.055	3058
840.193	3058
840.33	3062
840.467	3085
840.604	3131
840.742	3405
840.879	3055
841.016	3089
841.153	3127
841.29	3348
841.427	3272
841.564	3298
841.701	3317
841.838	3214
841.975	3184
842.112	3180
842.249	3104
842.385	3043
842.522	3233
842.659	3081
842.796	3032
842.933	3116
843.069	3036
843.206	3017
843.343	3165
843.479	3089
843.616	3123
843.752	2895
843.889	2910
844.025	3097
844.162	2891
844.298	3074
844.435	2944
844.571	2880
844.708	3074
844.844	3146
844.98	3233
845.117	3180
845.253	3058
845.389	2975
845.525	3089
845.661	3036
845.798	2986
845.934	3100
846.07	3058
846.206	3249
846.342	3291
846.478	3195
846.614	3081
846.75	3055
846.886	3043
847.022	3207
847.158	3138
847.294	3195
847.429	3218
847.565	3192
847.701	3492
847.837	3009
847.972	3032
848.108	3176
848.244	3127
848.379	3009
848.515	2944
848.65	2960
848.786	2971
848.921	2963
849.057	3100
849.192	3169
849.328	3070
849.463	3112
849.598	3070
849.734	3013
849.869	2971
850.004	2899
850.14	2933
850.275	2891
850.41	2838
850.545	2902
850.68	2971
850.815	2963
850.95	2967
851.085	3173
851.22	3058
851.355	3028
851.49	2982
851.625	3024
851.76	3009
851.895	2929
852.03	2899
852.165	3028
852.299	3108
852.434	3188
852.569	3154
852.703	3127
852.838	3249
852.973	3355
853.107	3348
853.242	3123
853.376	3089
853.511	3001
853.645	3032
853.78	3260
853.914	3131
854.048	3112
854.183	3058
854.317	3127
854.451	3317
854.585	3146
854.72	3055
854.854	3195
854.988	3077
855.122	3104
855.256	2979
855.39	3127
855.524	3279
855.658	3176
855.792	3131
855.926	3214
856.06	3188
856.194	3222
856.327	3176
856.461	3066
856.595	3066
856.729	3108
856.862	3233
856.996	3116
857.13	3226
857.263	3207
857.397	3256
857.53	3138
857.664	3207
857.797	3253
857.931	3249
858.064	3184
858.197	3188
858.331	3127
858.464	3077
858.597	2998
858.731	3138
858.864	3119
858.997	3104
859.13	3135
859.263	3123
859.396	3203
859.529	3028
859.662	3047
859.795	3039
859.928	3165
860.061	3275
860.194	3283
860.327	3135
860.46	3093
860.592	3230
860.725	3218
860.858	3268
860.99	3100
861.123	3039
861.256	3005
861.388	3169
861.521	3831
861.653	3005
861.786	2979
861.918	2975
862.05	3032
862.183	3070
862.315	3127
862.447	3184
862.58	3093
862.712	2937
862.844	2857
862.976	3055
863.108	3024
863.24	3435
863.372	2842
863.504	2963
863.636	2922
863.768	3047
863.9	2979
864.032	2929
864.164	2941
864.296	3017
864.428	3093
864.559	3142
864.691	3093
864.823	3047
864.954	3051
865.086	3062
865.217	2967
865.349	2952
865.48	3001
865.612	3028
865.743	3138
865.875	2979
866.006	2937
866.137	2967
866.269	2925
866.4	2960
866.531	2906
866.662	2918
866.793	2910
866.924	2876
867.055	2986
867.186	2899
867.317	2883
867.448	2830
867.579	2834
867.71	2902
867.841	2807
867.972	2864
868.103	2902
868.233	2887
868.364	2864
868.495	2876
868.625	3039
868.756	3131
868.886	2944
869.017	3032
869.147	3131
869.278	3165
869.408	3039
869.539	3051
869.669	3081
869.799	2990
869.929	3138
870.06	3077
870.19	3340
870.32	3279
870.45	3298
870.58	3397
870.71	3431
870.84	3473
870.97	3306
871.1	3233
871.23	3458
871.36	3485
871.489	3374
871.619	3382
871.749	3363
871.879	3435
872.008	3454
872.138	3363
872.267	3260
872.397	3154
872.526	3108
872.656	3024
872.785	3104
872.915	3222
873.044	3313
873.173	3199
873.303	3249
873.432	3245
873.561	3230
873.69	3154
873.819	3138
873.948	3154
874.077	3119
874.206	3055
874.335	3093
874.464	3218
874.593	3310
874.722	3260
874.851	3382
874.979	3351
875.108	3332
875.237	3188
875.365	3157
875.494	3146
875.623	3268
875.751	3058
875.88	3119
876.008	3138
876.136	3222
876.265	3363
876.393	3561
876.521	3428
876.65	3363
876.778	3272
876.906	3237
877.034	3188
877.162	3222
877.29	3188
877.418	3272
877.546	3249
877.674	3230
877.802	3245
877.93	3218
878.058	3100
878.185	3100
878.313	3169
878.441	3188
878.568	3047
878.696	3135
878.824	3211
878.951	3321
879.079	3428
879.206	3633
879.333	3431
879.461	3321
879.588	3363
879.715	3519
879.842	3599
879.97	3367
880.097	3157
880.224	3131
880.351	3165
880.478	3173
880.605	3226
880.732	3135
880.859	3488
880.986	3283
881.112	3302
881.239	3226
881.366	3085
881.493	3036
881.619	3032
881.746	3074
881.872	3058
881.999	3062
882.125	3146
882.252	3268
882.378	3279
882.505	3389
882.631	3268
882.757	3138
882.883	3173
883.01	3195
883.136	3108
883.262	3062
883.388	3066
883.514	3321
883.64	3359
883.766	3298
883.892	3173
884.018	3233
884.143	3370
884.269	3511
884.395	3211
884.52	3165
884.646	3165
884.772	3150
884.897	3104
885.023	3176
885.148	3321
885.274	3393
885.399	3389
885.524	3279
885.65	3245
885.775	3283
885.9	3264
886.025	3393
886.15	3363
886.275	3294
886.4	3272
886.525	3317
886.65	3268
886.775	3310
886.9	3473
887.025	3625
887.149	3382
887.274	3256
887.399	3150
887.523	3214
887.648	3180
887.773	3169
887.897	3389
888.021	3424
888.146	3306
888.27	3428
888.395	3534
888.519	3469
888.643	3443
888.767	3405
888.891	3294
889.015	3226
889.139	3298
889.263	3260
889.387	3378
889.511	3545
889.635	3458
889.759	3260
889.883	3298
890.006	3374
890.13	3473
890.254	3302
890.377	3348
890.501	3245
890.624	3142
890.748	3287
890.871	3173
890.995	3062
891.118	3051
891.241	3214
891.364	3199
891.488	3291
891.611	3165
891.734	3233
891.857	3287
891.98	3237
892.103	3359
892.226	3302
892.349	3203
892.471	3074
892.594	3211
892.717	3329
892.839	3275
892.962	3294
893.085	3336
893.207	3283
893.33	3192
893.452	3161
893.575	3378
893.697	3264
893.819	3481
893.941	3515
894.064	3473
894.186	3245
894.308	3283
894.43	3458
894.552	3530
894.674	3469
894.796	3253
894.918	3291
895.04	3249
895.161	3431
895.283	3412
895.405	3310
895.526	3378
895.648	3409
895.769	3397
895.891	3447
896.012	3443
896.134	3450
896.255	3428
896.376	3363
896.498	3336
896.619	3469
896.74	3363
896.861	3351
896.982	3694
897.103	3827
897.224	3564
897.345	3519
897.466	3447
897.587	3500
897.708	3648
897.828	3542
897.949	3443
898.07	3355
898.19	3409
898.311	3557
898.431	3435
898.552	3492
898.672	3622
898.792	3584
898.913	3477
899.033	3370
899.153	3302
899.273	3188
899.393	3279
899.513	3310
899.633	3275
899.753	3321
899.873	3321
899.993	3359
900.113	3329
900.232	3420
900.352	3340
900.472	3279
900.591	3184
900.711	3302
900.83	3264
900.95	3401
901.069	3507
901.189	3332
901.308	3131
901.427	3108
901.546	3203
901.665	3272
901.784	3367
901.904	3192
902.023	3127
902.141	2971
902.26	3017
902.379	3112
902.498	3070
902.617	2994
902.735	3233
902.854	3226
902.973	3180
903.091	3017
903.21	3047
903.328	3146
903.446	3119
903.565	3127
903.683	3203
903.801	3112
903.919	3249
904.038	3268
904.156	3138
904.274	3298
904.392	3233
904.51	3294
904.627	3313
904.745	3443
904.863	3488
904.981	3268
905.098	3180
905.216	3207
905.334	3268
905.451	3344
905.569	3294
905.686	3439
905.803	3416
905.921	3294
906.038	3431
906.155	3374
906.272	3275
906.389	3329
906.506	3237
906.623	3218
906.74	3279
906.857	3237
906.974	3226
907.091	3439
907.208	3523
907.324	3511
907.441	3386
907.557	3222
907.674	3203
907.79	3192
907.907	3275
908.023	3370
908.139	3370
908.256	3344
908.372	3344
908.488	3378
908.604	3256
908.72	3199
908.836	3294
908.952	3272
909.068	3325
909.184	3504
909.3	3363
909.415	3477
909.531	3492
909.647	3249
909.762	3230
909.878	3237
909.993	3355
910.108	3313
910.224	3325
910.339	3397
910.454	3332
910.57	3317
910.685	3249
910.8	3629
910.915	3507
911.03	3439
911.145	3256
911.259	3272
911.374	3291
911.489	3230
911.604	3203
911.718	3112
911.833	3142
911.947	3005
912.062	2971
912.176	3138
912.291	3199
912.405	3195
912.519	3409
912.633	3447
912.748	3306
912.862	3275
912.976	3135
913.09	3017
913.204	3135
913.318	3192
913.431	3302
913.545	3302
913.659	3409
913.772	3321
913.886	3218
914	3226
914.113	3336
914.226	3370
914.34	3386
914.453	3222
914.566	3397
914.68	3332
914.793	3329
914.906	3146
915.019	3070
915.132	3062
915.245	3180
915.358	3161
915.47	3188
915.583	3264
915.696	3310
915.809	3469
915.921	3439
916.034	3253
916.146	3253
916.259	3203
916.371	3374
916.483	3378
916.595	3264
916.708	3370
916.82	3317
916.932	3329
917.044	3294
917.156	3363
917.268	3283
917.38	3287
917.491	3317
917.603	3332
917.715	3450
917.826	3485
917.938	3363
918.049	3264
918.161	3409
918.272	3504
918.384	3542
918.495	3507
918.606	3351
918.717	3310
918.828	3405
918.939	3416
919.05	3291
919.161	3378
919.272	3180
919.383	3283
919.494	3504
919.604	3690
919.715	3466
919.826	3374
919.936	3500
920.047	3572
920.157	3564
920.267	3686
920.378	3591
920.488	3542
920.598	3819
920.708	3994
920.818	3808
920.928	3857
921.038	4029
921.148	4017
921.258	3667
921.368	3675
921.477	3564
921.587	3523
921.697	3466
921.806	3633
921.916	3504
922.025	3363
922.134	3340
922.244	3317
922.353	3435
922.462	3275
922.571	3237
922.68	3097
922.789	3089
922.898	3127
923.007	3097
923.116	3165
923.224	3211
923.333	3161
923.442	3135
923.55	3074
923.659	3112
923.767	3226
923.876	3100
923.984	3260
924.092	3093
924.201	3199
924.309	3192
924.417	3264
924.525	3184
924.633	3230
924.741	3994
924.849	3039
924.956	3306
925.064	3123
925.172	3093
925.279	3070
925.387	3211
925.494	3222
925.602	3363
925.709	3329
925.816	3195
925.924	3283
926.031	3344
926.138	3298
926.245	3336
926.352	3249
926.459	3458
926.566	3435
926.673	3329
926.779	3233
926.886	3249
926.993	3104
927.099	3146
927.206	3104
927.312	3089
927.419	3222
927.525	3218
927.631	3272
927.737	3157
927.843	3131
927.95	3043
928.056	3116
928.162	3188
928.267	3211
928.373	3793
928.479	3306
928.585	3119
928.69	3249
928.796	3275
928.901	3188
929.007	3058
929.112	3207
929.218	3165
929.323	3157
929.428	3146
929.533	3310
929.638	3089
929.743	3165
929.848	3256
929.953	3207
930.058	3135
930.163	2979
930.267	3039
930.372	3180
930.477	3028
930.581	3332
930.685	3207
930.79	3051
930.894	3123
930.998	3108
931.103	3287
931.207	2963
931.311	2967
931.415	2910
931.519	2777
931.623	2785
