Data from test_V78500241_1205.txt Node
Date: Fri Mar 25 16:23:33 CST 2022
User: usil
Spectrometer: V785-0024
Trigger mode: 0
Integration Time (sec): 4.000000E-1
Scans to average: 1
Nonlinearity correction enabled: false
Boxcar width: 0
Storing dark spectrum: false
XAxis mode: Wavelengths
Number of Pixels in Spectrum: 1024
>>>>>Begin Spectral Data<<<<<
801.071	2899
801.214	2918
801.356	2887
801.499	2857
801.641	2864
801.783	2914
801.926	3058
802.068	2986
802.211	2952
802.353	3036
802.496	2971
802.638	3009
802.78	3036
802.923	3074
803.065	3017
803.208	2876
803.35	2948
803.492	2963
803.635	2963
803.777	2750
803.919	2880
804.061	3214
804.204	2918
804.346	2929
804.488	2857
804.63	2967
804.773	2876
804.915	2918
805.057	3119
805.199	2967
805.341	2990
805.483	3081
805.626	2986
805.768	2944
805.91	3104
806.052	3123
806.194	3055
806.336	3253
806.478	3028
806.62	2967
806.762	2998
806.904	3051
807.046	3230
807.188	2990
807.33	2918
807.472	3047
807.614	2960
807.756	3005
807.898	2925
808.04	2910
808.182	3009
808.324	2979
808.465	2925
808.607	2895
808.749	2853
808.891	2872
809.033	2971
809.174	3039
809.316	2937
809.458	2922
809.6	2811
809.741	2807
809.883	2792
810.025	2880
810.166	2864
810.308	2826
810.45	2864
810.591	2815
810.733	2830
810.875	2895
811.016	2796
811.158	2777
811.299	2800
811.441	2952
811.582	2925
811.724	2845
811.865	2861
812.007	2929
812.148	2872
812.29	2887
812.431	2918
812.573	2948
812.714	3009
812.855	3047
812.997	3081
813.138	3154
813.279	3028
813.421	3032
813.562	2971
813.703	2891
813.845	2948
813.986	2823
814.127	2766
814.268	2842
814.41	2910
814.551	2857
814.692	2876
814.833	2842
814.974	2910
815.115	2963
815.256	2849
815.397	2857
815.539	2902
815.68	2762
815.821	2823
815.962	2979
816.103	2952
816.244	2883
816.385	2872
816.526	2998
816.666	2933
816.807	2800
816.948	2914
817.089	2948
817.23	2902
817.371	2815
817.512	2811
817.653	2895
817.793	2849
817.934	2906
818.075	2941
818.216	2998
818.356	3047
818.497	2960
818.638	2796
818.778	2861
818.919	2796
819.06	2792
819.2	2910
819.341	2861
819.481	2845
819.622	2944
819.762	3135
819.903	3051
820.043	2990
820.184	2922
820.324	2929
820.465	3028
820.605	3051
820.746	3024
820.886	2967
821.026	3135
821.167	3195
821.307	3230
821.447	3291
821.588	3245
821.728	3230
821.868	3211
822.008	3119
822.149	3188
822.289	3253
822.429	3074
822.569	3104
822.709	3188
822.849	3032
822.99	3081
823.13	3184
823.27	3268
823.41	3138
823.55	3165
823.69	3131
823.83	3207
823.97	3093
824.11	3039
824.25	3020
824.389	3055
824.529	3127
824.669	3058
824.809	3272
824.949	3287
825.089	3272
825.228	3154
825.368	3009
825.508	2998
825.648	3001
825.787	3047
825.927	3024
826.067	2982
826.206	2963
826.346	3058
826.485	3097
826.625	3135
826.765	3294
826.904	3237
827.044	3047
827.183	2979
827.323	2857
827.462	2990
827.601	2952
827.741	2922
827.88	2967
828.02	2845
828.159	2967
828.298	3085
828.437	3100
828.577	3074
828.716	3279
828.855	3116
828.994	2910
829.134	2902
829.273	2941
829.412	2864
829.551	2922
829.69	2937
829.829	2982
829.968	3112
830.107	3043
830.246	3032
830.385	2956
830.524	2895
830.663	2849
830.802	2750
830.941	2651
831.08	2632
831.219	2823
831.357	2777
831.496	2975
831.635	2777
831.774	2701
831.913	2651
832.051	2571
832.19	2613
832.329	2693
832.467	2552
832.606	2511
832.744	2610
832.883	2625
833.022	2606
833.16	2670
833.299	2712
833.437	2739
833.576	2724
833.714	2766
833.852	2746
833.991	2804
834.129	2857
834.267	2845
834.406	2826
834.544	2914
834.682	2918
834.821	2902
834.959	3089
835.097	2944
835.235	3081
835.373	3001
835.511	3047
835.65	2975
835.788	2982
835.926	2845
836.064	2826
836.202	2868
836.34	3108
836.478	3188
836.615	3074
836.753	3180
836.891	3211
837.029	3214
837.167	3146
837.305	3077
837.443	3070
837.58	2963
837.718	3176
837.856	3081
837.993	3062
838.131	3150
838.269	3093
838.406	3070
838.544	3100
838.681	2941
838.819	2948
838.956	2830
839.094	2830
839.231	2922
839.369	3055
839.506	3367
839.643	3211
839.781	2998
839.918	3001
840.055	3077
840.193	3055
840.33	3062
840.467	3138
840.604	3192
840.742	3416
840.879	3097
841.016	3116
841.153	3127
841.29	3370
841.427	3325
841.564	3268
841.701	3336
841.838	3256
841.975	3203
842.112	3214
842.249	3066
842.385	3062
842.522	3272
842.659	3116
842.796	3074
842.933	3112
843.069	3062
843.206	3066
843.343	3218
843.479	3100
843.616	3161
843.752	2944
843.889	2902
844.025	3077
844.162	2910
844.298	3138
844.435	2937
844.571	2967
844.708	3119
844.844	3211
844.98	3226
845.117	3180
845.253	3081
845.389	3020
845.525	3123
845.661	3131
845.798	3043
845.934	3131
846.07	3043
846.206	3241
846.342	3348
846.478	3226
846.614	3138
846.75	3047
846.886	3001
847.022	3233
847.158	3146
847.294	3176
847.429	3260
847.565	3222
847.701	3492
847.837	3055
847.972	2998
848.108	3176
848.244	3127
848.379	3009
848.515	2986
848.65	2944
848.786	2979
848.921	3009
849.057	3104
849.192	3135
849.328	3112
849.463	3123
849.598	3093
849.734	3039
849.869	2963
850.004	2944
850.14	2982
850.275	2929
850.41	2861
850.545	2918
850.68	2937
850.815	2956
850.95	2971
851.085	3203
851.22	3108
851.355	3058
851.49	2979
851.625	3009
851.76	3017
851.895	2929
852.03	2929
852.165	3093
852.299	3123
852.434	3226
852.569	3131
852.703	3161
852.838	3275
852.973	3348
853.107	3351
853.242	3161
853.376	3157
853.511	2967
853.645	3043
853.78	3226
853.914	3119
854.048	3097
854.183	3100
854.317	3146
854.451	3310
854.585	3104
854.72	3119
854.854	3268
854.988	3047
855.122	3074
855.256	2967
855.39	3131
855.524	3233
855.658	3176
855.792	3138
855.926	3192
856.06	3260
856.194	3275
856.327	3188
856.461	3070
856.595	3085
856.729	3070
856.862	3253
856.996	3157
857.13	3241
857.263	3249
857.397	3253
857.53	3138
857.664	3188
857.797	3233
857.931	3256
858.064	3173
858.197	3222
858.331	3097
858.464	3112
858.597	3017
858.731	3116
858.864	3108
858.997	3104
859.13	3169
859.263	3135
859.396	3211
859.529	3093
859.662	3081
859.795	3043
859.928	3199
860.061	3256
860.194	3310
860.327	3154
860.46	3097
860.592	3214
860.725	3211
860.858	3294
860.99	3081
861.123	3085
861.256	3051
861.388	3097
861.521	3804
861.653	3039
861.786	2960
861.918	3001
862.05	3032
862.183	3093
862.315	3173
862.447	3226
862.58	3104
862.712	2952
862.844	2902
862.976	3036
863.108	2975
863.24	3469
863.372	2906
863.504	2998
863.636	2963
863.768	3032
863.9	2998
864.032	2902
864.164	2975
864.296	2998
864.428	3074
864.559	3097
864.691	3043
864.823	3077
864.954	3066
865.086	3051
865.217	3017
865.349	2975
865.48	2979
865.612	3020
865.743	3157
865.875	2971
866.006	2922
866.137	2986
866.269	2986
866.4	2929
866.531	2948
866.662	2876
866.793	2906
866.924	2883
867.055	2982
867.186	2902
867.317	2887
867.448	2861
867.579	2823
867.71	2826
867.841	2826
867.972	2925
868.103	2887
868.233	2910
868.364	2853
868.495	2922
868.625	3066
868.756	3184
868.886	2979
869.017	3009
869.147	3199
869.278	3192
869.408	3066
869.539	3028
869.669	3066
869.799	3039
869.929	3135
870.06	3108
870.19	3367
870.32	3268
870.45	3313
870.58	3393
870.71	3435
870.84	3443
870.97	3325
871.1	3272
871.23	3492
871.36	3496
871.489	3378
871.619	3424
871.749	3443
871.879	3420
872.008	3496
872.138	3378
872.267	3268
872.397	3116
872.526	3104
872.656	2998
872.785	3123
872.915	3218
873.044	3313
873.173	3207
873.303	3230
873.432	3253
873.561	3226
873.69	3123
873.819	3165
873.948	3173
874.077	3135
874.206	3036
874.335	3066
874.464	3218
874.593	3397
874.722	3135
874.851	3397
874.979	3306
875.108	3287
875.237	3176
875.365	3188
875.494	3146
875.623	3272
875.751	3097
875.88	3123
876.008	3184
876.136	3188
876.265	3367
876.393	3534
876.521	3439
876.65	3389
876.778	3344
876.906	3264
877.034	3214
877.162	3207
877.29	3157
877.418	3218
877.546	3272
877.674	3222
877.802	3207
877.93	3207
878.058	3165
878.185	3123
878.313	3146
878.441	3230
878.568	3055
878.696	3146
878.824	3291
878.951	3291
879.079	3466
879.206	3610
879.333	3412
879.461	3340
879.588	3386
879.715	3477
879.842	3576
879.97	3382
880.097	3173
880.224	3199
880.351	3188
880.478	3203
880.605	3211
880.732	3192
880.859	3504
880.986	3306
881.112	3325
881.239	3241
881.366	3104
881.493	3058
881.619	2994
881.746	3081
881.872	3135
881.999	3100
882.125	3154
882.252	3264
882.378	3351
882.505	3458
882.631	3340
882.757	3180
882.883	3249
883.01	3207
883.136	3188
883.262	3146
883.388	3173
883.514	3363
883.64	3386
883.766	3321
883.892	3222
884.018	3287
884.143	3481
884.269	3599
884.395	3169
884.52	3226
884.646	3207
884.772	3169
884.897	3131
885.023	3264
885.148	3363
885.274	3439
885.399	3389
885.524	3310
885.65	3336
885.775	3340
885.9	3336
886.025	3473
886.15	3374
886.275	3367
886.4	3260
886.525	3340
886.65	3340
886.775	3359
886.9	3511
887.025	3656
887.149	3435
887.274	3336
887.399	3207
887.523	3237
887.648	3218
887.773	3253
887.897	3428
888.021	3481
888.146	3367
888.27	3439
888.395	3606
888.519	3454
888.643	3488
888.767	3526
888.891	3367
889.015	3275
889.139	3313
889.263	3275
889.387	3428
889.511	3530
889.635	3477
889.759	3351
889.883	3321
890.006	3420
890.13	3526
890.254	3279
890.377	3359
890.501	3249
890.624	3253
890.748	3336
890.871	3199
890.995	3138
891.118	3119
891.241	3207
891.364	3283
891.488	3355
891.611	3195
891.734	3233
891.857	3313
891.98	3298
892.103	3378
892.226	3348
892.349	3214
892.471	3195
892.594	3268
892.717	3336
892.839	3298
892.962	3321
893.085	3351
893.207	3332
893.33	3203
893.452	3279
893.575	3382
893.697	3298
893.819	3504
893.941	3534
894.064	3450
894.186	3294
894.308	3313
894.43	3447
894.552	3557
894.674	3530
894.796	3313
894.918	3367
895.04	3321
895.161	3462
895.283	3420
895.405	3348
895.526	3370
895.648	3420
895.769	3450
895.891	3507
896.012	3526
896.134	3515
896.255	3435
896.376	3409
896.498	3370
896.619	3466
896.74	3435
896.861	3428
896.982	3713
897.103	3884
897.224	3606
897.345	3526
897.466	3469
897.587	3504
897.708	3637
897.828	3580
897.949	3500
898.07	3397
898.19	3443
898.311	3671
898.431	3435
898.552	3526
898.672	3625
898.792	3641
898.913	3580
899.033	3431
899.153	3340
899.273	3203
899.393	3348
899.513	3332
899.633	3325
899.753	3393
899.873	3344
899.993	3409
900.113	3370
900.232	3424
900.352	3409
900.472	3351
900.591	3253
900.711	3294
900.83	3260
900.95	3401
901.069	3515
901.189	3393
901.308	3218
901.427	3184
901.546	3203
901.665	3348
901.784	3359
901.904	3245
902.023	3176
902.141	3043
902.26	3036
902.379	3161
902.498	3119
902.617	3108
902.735	3233
902.854	3245
902.973	3233
903.091	3093
903.21	3119
903.328	3157
903.446	3135
903.565	3150
903.683	3222
903.801	3123
903.919	3241
904.038	3302
904.156	3218
904.274	3329
904.392	3256
904.51	3302
904.627	3317
904.745	3462
904.863	3553
904.981	3298
905.098	3184
905.216	3253
905.334	3294
905.451	3359
905.569	3329
905.686	3466
905.803	3492
905.921	3302
906.038	3428
906.155	3351
906.272	3279
906.389	3397
906.506	3272
906.623	3283
906.74	3306
906.857	3222
906.974	3264
907.091	3496
907.208	3633
907.324	3534
907.441	3428
907.557	3272
907.674	3256
907.79	3241
907.907	3298
908.023	3389
908.139	3401
908.256	3313
908.372	3378
908.488	3355
908.604	3272
908.72	3291
908.836	3332
908.952	3294
909.068	3351
909.184	3496
909.3	3397
909.415	3477
909.531	3526
909.647	3253
909.762	3321
909.878	3256
909.993	3405
910.108	3355
910.224	3378
910.339	3450
910.454	3344
910.57	3313
910.685	3260
910.8	3656
910.915	3572
911.03	3409
911.145	3294
911.259	3283
911.374	3344
911.489	3237
911.604	3199
911.718	3104
911.833	3161
911.947	3116
912.062	3013
912.176	3188
912.291	3203
912.405	3233
912.519	3439
912.633	3500
912.748	3355
912.862	3306
912.976	3176
913.09	3058
913.204	3176
913.318	3245
913.431	3405
913.545	3370
913.659	3420
913.772	3359
913.886	3264
914	3218
914.113	3370
914.226	3450
914.34	3393
914.453	3249
914.566	3424
914.68	3313
914.793	3351
914.906	3154
915.019	3104
915.132	3093
915.245	3176
915.358	3218
915.47	3249
915.583	3317
915.696	3306
915.809	3447
915.921	3443
916.034	3313
916.146	3268
916.259	3260
916.371	3435
916.483	3382
916.595	3298
916.708	3367
916.82	3329
916.932	3374
917.044	3382
917.156	3344
917.268	3279
917.38	3302
917.491	3310
917.603	3386
917.715	3435
917.826	3496
917.938	3370
918.049	3279
918.161	3485
918.272	3553
918.384	3584
918.495	3511
918.606	3374
918.717	3268
918.828	3386
918.939	3405
919.05	3325
919.161	3382
919.272	3188
919.383	3313
919.494	3507
919.604	3724
919.715	3515
919.826	3443
919.936	3462
920.047	3584
920.157	3564
920.267	3770
920.378	3603
920.488	3587
920.598	3800
920.708	3998
920.818	3808
920.928	3846
921.038	4059
921.148	4010
921.258	3720
921.368	3637
921.477	3610
921.587	3561
921.697	3454
921.806	3682
921.916	3523
922.025	3389
922.134	3389
922.244	3313
922.353	3431
922.462	3287
922.571	3222
922.68	3157
922.789	3104
922.898	3142
923.007	3074
923.116	3226
923.224	3199
923.333	3195
923.442	3142
923.55	3104
923.659	3176
923.767	3230
923.876	3077
923.984	3203
924.092	3093
924.201	3233
924.309	3207
924.417	3260
924.525	3173
924.633	3230
924.741	4029
924.849	3066
924.956	3294
925.064	3131
925.172	3062
925.279	3123
925.387	3233
925.494	3207
925.602	3382
925.709	3340
925.816	3173
925.924	3272
926.031	3389
926.138	3317
926.245	3393
926.352	3275
926.459	3416
926.566	3496
926.673	3340
926.779	3275
926.886	3245
926.993	3150
927.099	3176
927.206	3112
927.312	3165
927.419	3272
927.525	3237
927.631	3287
927.737	3150
927.843	3127
927.95	3036
928.056	3157
928.162	3192
928.267	3245
928.373	3888
928.479	3317
928.585	3062
928.69	3260
928.796	3272
928.901	3214
929.007	3062
929.112	3249
929.218	3199
929.323	3195
929.428	3176
929.533	3313
929.638	3116
929.743	3218
929.848	3275
929.953	3214
930.058	3161
930.163	3039
930.267	3070
930.372	3230
930.477	3032
930.581	3329
930.685	3188
930.79	3135
930.894	3169
930.998	3142
931.103	3291
931.207	2979
931.311	2967
931.415	2948
931.519	2830
931.623	2807
