Data from test_V78500241_870.txt Node
Date: Fri Mar 25 16:21:13 CST 2022
User: usil
Spectrometer: V785-0024
Trigger mode: 0
Integration Time (sec): 4.000000E-1
Scans to average: 1
Nonlinearity correction enabled: false
Boxcar width: 0
Storing dark spectrum: false
XAxis mode: Wavelengths
Number of Pixels in Spectrum: 1024
>>>>>Begin Spectral Data<<<<<
801.071	2925
801.214	2933
801.356	2864
801.499	2895
801.641	2883
801.783	2960
801.926	3024
802.068	2975
802.211	2971
802.353	3020
802.496	2941
802.638	2998
802.78	3028
802.923	3070
803.065	2979
803.208	2872
803.35	2906
803.492	2933
803.635	2906
803.777	2724
803.919	2853
804.061	3180
804.204	2933
804.346	2891
804.488	2834
804.63	2956
804.773	2876
804.915	2899
805.057	3077
805.199	2922
805.341	2979
805.483	3055
805.626	3020
805.768	2967
805.91	3036
806.052	3104
806.194	3024
806.336	3195
806.478	3020
806.62	2925
806.762	2990
806.904	3047
807.046	3138
807.188	2994
807.33	2899
807.472	2990
807.614	2895
807.756	2967
807.898	2929
808.04	2883
808.182	2933
808.324	2899
808.465	2902
808.607	2876
808.749	2811
808.891	2842
809.033	2929
809.174	2941
809.316	2922
809.458	2868
809.6	2743
809.741	2754
809.883	2754
810.025	2853
810.166	2853
810.308	2864
810.45	2826
810.591	2750
810.733	2766
810.875	2834
811.016	2777
811.158	2781
811.299	2788
811.441	2910
811.582	2887
811.724	2819
811.865	2777
812.007	2899
812.148	2868
812.29	2823
812.431	2864
812.573	2918
812.714	2982
812.855	3043
812.997	2994
813.138	3127
813.279	3024
813.421	3005
813.562	2960
813.703	2864
813.845	2891
813.986	2773
814.127	2724
814.268	2815
814.41	2823
814.551	2800
814.692	2864
814.833	2807
814.974	2880
815.115	2998
815.256	2842
815.397	2838
815.539	2880
815.68	2766
815.821	2773
815.962	2960
816.103	2952
816.244	2861
816.385	2864
816.526	2948
816.666	2887
816.807	2746
816.948	2922
817.089	2891
817.23	2834
817.371	2769
817.512	2792
817.653	2834
817.793	2823
817.934	2895
818.075	2960
818.216	2986
818.356	3024
818.497	2864
818.638	2796
818.778	2838
818.919	2811
819.06	2785
819.2	2830
819.341	2773
819.481	2819
819.622	2967
819.762	3119
819.903	3009
820.043	2857
820.184	2899
820.324	2880
820.465	3009
820.605	3009
820.746	3017
820.886	2975
821.026	3104
821.167	3127
821.307	3264
821.447	3260
821.588	3226
821.728	3161
821.868	3203
822.008	3062
822.149	3161
822.289	3207
822.429	3108
822.569	3112
822.709	3157
822.849	3062
822.99	3058
823.13	3146
823.27	3203
823.41	3108
823.55	3138
823.69	3135
823.83	3161
823.97	3100
824.11	2990
824.25	2948
824.389	3036
824.529	3131
824.669	3055
824.809	3218
824.949	3256
825.089	3230
825.228	3154
825.368	3017
825.508	2948
825.648	2948
825.787	3005
825.927	3032
826.067	2944
826.206	2948
826.346	3032
826.485	3093
826.625	3085
826.765	3237
826.904	3211
827.044	2952
827.183	2902
827.323	2842
827.462	2952
827.601	2914
827.741	2929
827.88	2944
828.02	2823
828.159	2967
828.298	3036
828.437	3100
828.577	3036
828.716	3241
828.855	3081
828.994	2902
829.134	2880
829.273	2887
829.412	2845
829.551	2857
829.69	2922
829.829	2967
829.968	3089
830.107	3032
830.246	3032
830.385	2868
830.524	2857
830.663	2826
830.802	2727
830.941	2655
831.08	2625
831.219	2746
831.357	2766
831.496	2933
831.635	2724
831.774	2655
831.913	2644
832.051	2552
832.19	2533
832.329	2644
832.467	2533
832.606	2469
832.744	2579
832.883	2587
833.022	2575
833.16	2629
833.299	2659
833.437	2720
833.576	2689
833.714	2754
833.852	2689
833.991	2716
834.129	2811
834.267	2811
834.406	2788
834.544	2842
834.682	2876
834.821	2868
834.959	3039
835.097	2899
835.235	3058
835.373	3009
835.511	2990
835.65	2960
835.788	2937
835.926	2849
836.064	2792
836.202	2823
836.34	3112
836.478	3161
836.615	3028
836.753	3097
836.891	3192
837.029	3150
837.167	3089
837.305	3058
837.443	3062
837.58	2956
837.718	3127
837.856	3032
837.993	3039
838.131	3104
838.269	3089
838.406	3112
838.544	3085
838.681	2929
838.819	2925
838.956	2823
839.094	2849
839.231	2918
839.369	3036
839.506	3367
839.643	3230
839.781	2990
839.918	2956
840.055	3055
840.193	3028
840.33	3066
840.467	3116
840.604	3116
840.742	3397
840.879	3055
841.016	3039
841.153	3108
841.29	3310
841.427	3294
841.564	3275
841.701	3268
841.838	3184
841.975	3184
842.112	3203
842.249	3058
842.385	2998
842.522	3233
842.659	3104
842.796	3081
842.933	3100
843.069	3051
843.206	3032
843.343	3192
843.479	3097
843.616	3157
843.752	2876
843.889	2853
844.025	3066
844.162	2845
844.298	3081
844.435	2948
844.571	2922
844.708	3093
844.844	3188
844.98	3226
845.117	3161
845.253	3066
845.389	2998
845.525	3097
845.661	3093
845.798	2982
845.934	3108
846.07	3055
846.206	3230
846.342	3302
846.478	3237
846.614	3089
846.75	3039
846.886	2994
847.022	3211
847.158	3135
847.294	3161
847.429	3211
847.565	3230
847.701	3458
847.837	3036
847.972	3001
848.108	3123
848.244	3127
848.379	2994
848.515	2906
848.65	2895
848.786	2952
848.921	3017
849.057	3089
849.192	3150
849.328	3039
849.463	3104
849.598	3074
849.734	2998
849.869	2967
850.004	2922
850.14	2937
850.275	2887
850.41	2826
850.545	2887
850.68	2948
850.815	2941
850.95	2933
851.085	3169
851.22	3131
851.355	3005
851.49	3013
851.625	2986
851.76	2971
851.895	2906
852.03	2902
852.165	2990
852.299	3093
852.434	3176
852.569	3161
852.703	3146
852.838	3241
852.973	3310
853.107	3306
853.242	3157
853.376	3043
853.511	2979
853.645	3028
853.78	3230
853.914	3108
854.048	3112
854.183	3066
854.317	3165
854.451	3279
854.585	3077
854.72	3081
854.854	3169
854.988	3039
855.122	3074
855.256	2960
855.39	3112
855.524	3272
855.658	3226
855.792	3192
855.926	3199
856.06	3184
856.194	3249
856.327	3127
856.461	3036
856.595	3058
856.729	3112
856.862	3214
856.996	3176
857.13	3184
857.263	3249
857.397	3253
857.53	3093
857.664	3157
857.797	3195
857.931	3272
858.064	3173
858.197	3218
858.331	3112
858.464	3089
858.597	2990
858.731	3093
858.864	3135
858.997	3097
859.13	3146
859.263	3173
859.396	3218
859.529	3066
859.662	3043
859.795	3005
859.928	3161
860.061	3302
860.194	3264
860.327	3135
860.46	3093
860.592	3249
860.725	3264
860.858	3245
860.99	3104
861.123	3066
861.256	3058
861.388	3135
861.521	3797
861.653	3020
861.786	2963
861.918	3013
862.05	3058
862.183	3104
862.315	3146
862.447	3165
862.58	3116
862.712	2914
862.844	2876
862.976	3020
863.108	2979
863.24	3313
863.372	2891
863.504	2960
863.636	2956
863.768	3028
863.9	2941
864.032	2883
864.164	2963
864.296	2998
864.428	3093
864.559	3093
864.691	3066
864.823	3055
864.954	3020
865.086	3081
865.217	2979
865.349	2922
865.48	2982
865.612	3009
865.743	3142
865.875	2960
866.006	2937
866.137	2982
866.269	2956
866.4	2933
866.531	2876
866.662	2899
866.793	2876
866.924	2880
867.055	2948
867.186	2906
867.317	2899
867.448	2807
867.579	2868
867.71	2857
867.841	2807
867.972	2883
868.103	2910
868.233	2899
868.364	2891
868.495	2906
868.625	3097
868.756	3169
868.886	2960
869.017	3013
869.147	3119
869.278	3161
869.408	3070
869.539	3039
869.669	3074
869.799	2990
869.929	3127
870.06	3085
870.19	3306
870.32	3275
870.45	3321
870.58	3401
870.71	3443
870.84	3435
870.97	3317
871.1	3256
871.23	3485
871.36	3439
871.489	3355
871.619	3401
871.749	3409
871.879	3443
872.008	3488
872.138	3325
872.267	3233
872.397	3123
872.526	3066
872.656	3001
872.785	3085
872.915	3226
873.044	3294
873.173	3222
873.303	3245
873.432	3222
873.561	3233
873.69	3195
873.819	3123
873.948	3161
874.077	3127
874.206	3051
874.335	3051
874.464	3214
874.593	3325
874.722	3245
874.851	3431
874.979	3374
875.108	3302
875.237	3184
875.365	3180
875.494	3157
875.623	3279
875.751	3108
875.88	3131
876.008	3176
876.136	3226
876.265	3351
876.393	3507
876.521	3416
876.65	3393
876.778	3317
876.906	3245
877.034	3180
877.162	3207
877.29	3142
877.418	3241
877.546	3253
877.674	3275
877.802	3218
877.93	3188
878.058	3123
878.185	3055
878.313	3195
878.441	3165
878.568	3066
878.696	3184
878.824	3226
878.951	3287
879.079	3431
879.206	3629
879.333	3435
879.461	3348
879.588	3359
879.715	3466
879.842	3580
879.97	3351
880.097	3203
880.224	3142
880.351	3203
880.478	3192
880.605	3176
880.732	3165
880.859	3545
880.986	3279
881.112	3348
881.239	3199
881.366	3089
881.493	2994
881.619	3005
881.746	3043
881.872	3116
881.999	3104
882.125	3135
882.252	3241
882.378	3287
882.505	3420
882.631	3264
882.757	3146
882.883	3211
883.01	3218
883.136	3173
883.262	3097
883.388	3123
883.514	3291
883.64	3359
883.766	3317
883.892	3199
884.018	3211
884.143	3416
884.269	3534
884.395	3207
884.52	3154
884.646	3184
884.772	3127
884.897	3077
885.023	3222
885.148	3374
885.274	3420
885.399	3348
885.524	3283
885.65	3245
885.775	3310
885.9	3294
886.025	3424
886.15	3340
886.275	3260
886.4	3222
886.525	3302
886.65	3256
886.775	3275
886.9	3450
887.025	3637
887.149	3416
887.274	3237
887.399	3173
887.523	3192
887.648	3184
887.773	3199
887.897	3374
888.021	3409
888.146	3237
888.27	3416
888.395	3530
888.519	3397
888.643	3439
888.767	3462
888.891	3294
889.015	3226
889.139	3272
889.263	3218
889.387	3420
889.511	3523
889.635	3458
889.759	3283
889.883	3329
890.006	3359
890.13	3466
890.254	3253
890.377	3317
890.501	3203
890.624	3180
890.748	3291
890.871	3173
890.995	3077
891.118	3032
891.241	3188
891.364	3192
891.488	3287
891.611	3184
891.734	3233
891.857	3256
891.98	3253
892.103	3340
892.226	3260
892.349	3233
892.471	3146
892.594	3253
892.717	3260
892.839	3272
892.962	3272
893.085	3359
893.207	3298
893.33	3119
893.452	3203
893.575	3329
893.697	3230
893.819	3500
893.941	3469
894.064	3469
894.186	3256
894.308	3268
894.43	3405
894.552	3507
894.674	3428
894.796	3283
894.918	3317
895.04	3291
895.161	3439
895.283	3397
895.405	3291
895.526	3401
895.648	3378
895.769	3439
895.891	3439
896.012	3477
896.134	3431
896.255	3401
896.376	3378
896.498	3370
896.619	3431
896.74	3378
896.861	3389
896.982	3652
897.103	3812
897.224	3618
897.345	3485
897.466	3428
897.587	3488
897.708	3599
897.828	3538
897.949	3431
898.07	3340
898.19	3431
898.311	3595
898.431	3431
898.552	3481
898.672	3580
898.792	3561
898.913	3519
899.033	3439
899.153	3268
899.273	3211
899.393	3260
899.513	3351
899.633	3317
899.753	3332
899.873	3302
899.993	3405
900.113	3332
900.232	3386
900.352	3325
900.472	3268
900.591	3214
900.711	3336
900.83	3249
900.95	3435
901.069	3496
901.189	3359
901.308	3173
901.427	3138
901.546	3192
901.665	3325
901.784	3329
901.904	3176
902.023	3116
902.141	3013
902.26	2986
902.379	3123
902.498	3066
902.617	3066
902.735	3173
902.854	3275
902.973	3188
903.091	3047
903.21	3055
903.328	3161
903.446	3108
903.565	3089
903.683	3173
903.801	3142
903.919	3253
904.038	3275
904.156	3161
904.274	3275
904.392	3275
904.51	3264
904.627	3306
904.745	3439
904.863	3485
904.981	3256
905.098	3161
905.216	3230
905.334	3294
905.451	3264
905.569	3283
905.686	3397
905.803	3462
905.921	3283
906.038	3447
906.155	3336
906.272	3287
906.389	3351
906.506	3214
906.623	3256
906.74	3264
906.857	3188
906.974	3253
907.091	3454
907.208	3538
907.324	3443
907.441	3405
907.557	3264
907.674	3226
907.79	3199
907.907	3283
908.023	3405
908.139	3393
908.256	3321
908.372	3359
908.488	3344
908.604	3275
908.72	3218
908.836	3306
908.952	3283
909.068	3332
909.184	3473
909.3	3355
909.415	3492
909.531	3511
909.647	3279
909.762	3321
909.878	3256
909.993	3336
910.108	3313
910.224	3294
910.339	3370
910.454	3348
910.57	3310
910.685	3222
910.8	3553
910.915	3523
911.03	3428
911.145	3306
911.259	3245
911.374	3302
911.489	3222
911.604	3233
911.718	3093
911.833	3157
911.947	3013
912.062	2994
912.176	3150
912.291	3222
912.405	3233
912.519	3412
912.633	3488
912.748	3348
912.862	3287
912.976	3165
913.09	3077
913.204	3138
913.318	3199
913.431	3287
913.545	3355
913.659	3439
913.772	3359
913.886	3214
914	3211
914.113	3355
914.226	3428
914.34	3378
914.453	3226
914.566	3397
914.68	3291
914.793	3332
914.906	3135
915.019	3108
915.132	3036
915.245	3157
915.358	3192
915.47	3241
915.583	3279
915.696	3279
915.809	3389
915.921	3401
916.034	3253
916.146	3253
916.259	3211
916.371	3386
916.483	3344
916.595	3256
916.708	3313
916.82	3310
916.932	3363
917.044	3382
917.156	3321
917.268	3249
917.38	3317
917.491	3260
917.603	3374
917.715	3473
917.826	3462
917.938	3359
918.049	3272
918.161	3428
918.272	3530
918.384	3610
918.495	3481
918.606	3336
918.717	3298
918.828	3401
918.939	3409
919.05	3291
919.161	3336
919.272	3169
919.383	3260
919.494	3523
919.604	3667
919.715	3500
919.826	3431
919.936	3462
920.047	3576
920.157	3568
920.267	3736
920.378	3584
920.488	3564
920.598	3804
920.708	3934
920.818	3857
920.928	3808
921.038	3994
921.148	3956
921.258	3705
921.368	3633
921.477	3580
921.587	3564
921.697	3473
921.806	3614
921.916	3526
922.025	3340
922.134	3348
922.244	3241
922.353	3401
922.462	3245
922.571	3211
922.68	3074
922.789	3100
922.898	3146
923.007	3104
923.116	3211
923.224	3138
923.333	3184
923.442	3058
923.55	3097
923.659	3135
923.767	3241
923.876	3112
923.984	3245
924.092	3085
924.201	3211
924.309	3211
924.417	3188
924.525	3176
924.633	3222
924.741	4177
924.849	3055
924.956	3279
925.064	3081
925.172	3020
925.279	3081
925.387	3176
925.494	3180
925.602	3363
925.709	3329
925.816	3195
925.924	3264
926.031	3370
926.138	3332
926.245	3340
926.352	3249
926.459	3416
926.566	3469
926.673	3329
926.779	3253
926.886	3218
926.993	3184
927.099	3184
927.206	3123
927.312	3116
927.419	3245
927.525	3218
927.631	3256
927.737	3142
927.843	3161
927.95	3047
928.056	3142
928.162	3195
928.267	3203
928.373	3785
928.479	3272
928.585	3043
928.69	3199
928.796	3287
928.901	3146
929.007	3047
929.112	3173
929.218	3173
929.323	3127
929.428	3108
929.533	3317
929.638	3100
929.743	3169
929.848	3256
929.953	3195
930.058	3150
930.163	3039
930.267	3024
930.372	3199
930.477	3028
930.581	3310
930.685	3165
930.79	3047
930.894	3108
930.998	3074
931.103	3268
931.207	2948
931.311	2929
931.415	2891
931.519	2746
931.623	2842
