Data from test_V78500241_1244.txt Node
Date: Fri Mar 25 16:23:49 CST 2022
User: usil
Spectrometer: V785-0024
Trigger mode: 0
Integration Time (sec): 4.000000E-1
Scans to average: 1
Nonlinearity correction enabled: false
Boxcar width: 0
Storing dark spectrum: false
XAxis mode: Wavelengths
Number of Pixels in Spectrum: 1024
>>>>>Begin Spectral Data<<<<<
801.071	2906
801.214	2902
801.356	2868
801.499	2880
801.641	2872
801.783	2876
801.926	3058
802.068	2918
802.211	2994
802.353	3032
802.496	2952
802.638	3013
802.78	3062
802.923	3032
803.065	2990
803.208	2876
803.35	2895
803.492	2910
803.635	2952
803.777	2766
803.919	2823
804.061	3184
804.204	2933
804.346	2906
804.488	2834
804.63	2986
804.773	2872
804.915	2891
805.057	3089
805.199	2918
805.341	2922
805.483	3020
805.626	2990
805.768	2963
805.91	3066
806.052	3116
806.194	3005
806.336	3214
806.478	3013
806.62	2967
806.762	2979
806.904	3058
807.046	3157
807.188	2990
807.33	2933
807.472	2948
807.614	2880
807.756	2990
807.898	2929
808.04	2902
808.182	2979
808.324	2952
808.465	2857
808.607	2838
808.749	2826
808.891	2857
809.033	2952
809.174	2956
809.316	2887
809.458	2838
809.6	2781
809.741	2766
809.883	2777
810.025	2861
810.166	2826
810.308	2838
810.45	2819
810.591	2758
810.733	2769
810.875	2823
811.016	2766
811.158	2766
811.299	2769
811.441	2929
811.582	2922
811.724	2796
811.865	2811
812.007	2910
812.148	2872
812.29	2834
812.431	2906
812.573	2922
812.714	2922
812.855	3020
812.997	3036
813.138	3089
813.279	2994
813.421	2990
813.562	2963
813.703	2849
813.845	2906
813.986	2766
814.127	2724
814.268	2823
814.41	2823
814.551	2807
814.692	2891
814.833	2807
814.974	2880
815.115	2952
815.256	2849
815.397	2800
815.539	2868
815.68	2750
815.821	2781
815.962	2944
816.103	2887
816.244	2880
816.385	2864
816.526	2971
816.666	2895
816.807	2724
816.948	2891
817.089	2906
817.23	2842
817.371	2773
817.512	2766
817.653	2842
817.793	2834
817.934	2910
818.075	2967
818.216	3020
818.356	3009
818.497	2842
818.638	2758
818.778	2807
818.919	2773
819.06	2746
819.2	2845
819.341	2785
819.481	2781
819.622	2906
819.762	3085
819.903	3070
820.043	2899
820.184	2933
820.324	2880
820.465	3051
820.605	3028
820.746	3001
820.886	2922
821.026	3112
821.167	3123
821.307	3253
821.447	3253
821.588	3245
821.728	3218
821.868	3192
822.008	3077
822.149	3180
822.289	3211
822.429	3085
822.569	3081
822.709	3150
822.849	3017
822.99	3062
823.13	3123
823.27	3154
823.41	3119
823.55	3146
823.69	3165
823.83	3180
823.97	3104
824.11	2956
824.25	2990
824.389	3043
824.529	3093
824.669	3093
824.809	3188
824.949	3230
825.089	3260
825.228	3135
825.368	3032
825.508	2963
825.648	2948
825.787	2979
825.927	3028
826.067	2956
826.206	2941
826.346	3062
826.485	3062
826.625	3104
826.765	3279
826.904	3188
827.044	2982
827.183	2883
827.323	2880
827.462	2998
827.601	2929
827.741	2956
827.88	2944
828.02	2838
828.159	2960
828.298	3036
828.437	3077
828.577	3013
828.716	3188
828.855	3081
828.994	2906
829.134	2864
829.273	2906
829.412	2864
829.551	2876
829.69	2906
829.829	2982
829.968	3116
830.107	3009
830.246	3013
830.385	2895
830.524	2872
830.663	2823
830.802	2716
830.941	2636
831.08	2655
831.219	2758
831.357	2766
831.496	2960
831.635	2682
831.774	2651
831.913	2629
832.051	2526
832.19	2526
832.329	2689
832.467	2511
832.606	2461
832.744	2560
832.883	2571
833.022	2564
833.16	2659
833.299	2674
833.437	2678
833.576	2705
833.714	2663
833.852	2743
833.991	2743
834.129	2819
834.267	2834
834.406	2777
834.544	2849
834.682	2834
834.821	2849
834.959	3058
835.097	2842
835.235	3043
835.373	2960
835.511	3017
835.65	2952
835.788	2918
835.926	2830
836.064	2792
836.202	2842
836.34	3097
836.478	3116
836.615	3013
836.753	3116
836.891	3184
837.029	3146
837.167	3089
837.305	3043
837.443	3013
837.58	2960
837.718	3127
837.856	3036
837.993	3028
838.131	3070
838.269	3055
838.406	3108
838.544	3024
838.681	2937
838.819	2883
838.956	2807
839.094	2823
839.231	2902
839.369	2986
839.506	3363
839.643	3207
839.781	2998
839.918	2956
840.055	3055
840.193	3066
840.33	3074
840.467	3081
840.604	3135
840.742	3401
840.879	3028
841.016	3043
841.153	3100
841.29	3306
841.427	3287
841.564	3253
841.701	3264
841.838	3207
841.975	3142
842.112	3199
842.249	3066
842.385	3020
842.522	3256
842.659	3055
842.796	3039
842.933	3146
843.069	3032
843.206	3017
843.343	3195
843.479	3123
843.616	3157
843.752	2902
843.889	2868
844.025	3043
844.162	2891
844.298	3074
844.435	2914
844.571	2899
844.708	3043
844.844	3150
844.98	3203
845.117	3154
845.253	3047
845.389	3013
845.525	3097
845.661	3112
845.798	2971
845.934	3119
846.07	3058
846.206	3214
846.342	3275
846.478	3237
846.614	3062
846.75	3020
846.886	3020
847.022	3222
847.158	3112
847.294	3253
847.429	3233
847.565	3192
847.701	3469
847.837	3005
847.972	2990
848.108	3127
848.244	3173
848.379	2929
848.515	2883
848.65	2914
848.786	2918
848.921	2963
849.057	3108
849.192	3100
849.328	3062
849.463	3085
849.598	3036
849.734	3017
849.869	2967
850.004	2883
850.14	2952
850.275	2887
850.41	2800
850.545	2861
850.68	2902
850.815	2922
850.95	2971
851.085	3169
851.22	3070
851.355	3013
851.49	2990
851.625	2971
851.76	2982
851.895	2918
852.03	2914
852.165	3005
852.299	3108
852.434	3207
852.569	3085
852.703	3154
852.838	3241
852.973	3275
853.107	3340
853.242	3119
853.376	3066
853.511	2967
853.645	3032
853.78	3218
853.914	3081
854.048	3131
854.183	3058
854.317	3157
854.451	3298
854.585	3074
854.72	3039
854.854	3176
854.988	3051
855.122	3055
855.256	2941
855.39	3100
855.524	3195
855.658	3154
855.792	3154
855.926	3173
856.06	3211
856.194	3283
856.327	3142
856.461	3077
856.595	3070
856.729	3058
856.862	3207
856.996	3123
857.13	3184
857.263	3180
857.397	3241
857.53	3093
857.664	3146
857.797	3249
857.931	3218
858.064	3169
858.197	3218
858.331	3123
858.464	3074
858.597	3028
858.731	3085
858.864	3104
858.997	3039
859.13	3138
859.263	3195
859.396	3207
859.529	3081
859.662	3070
859.795	3039
859.928	3150
860.061	3237
860.194	3287
860.327	3142
860.46	3104
860.592	3268
860.725	3260
860.858	3268
860.99	3100
861.123	3074
861.256	3066
861.388	3154
861.521	3728
861.653	3024
861.786	3020
861.918	3058
862.05	3074
862.183	3112
862.315	3176
862.447	3237
862.58	3108
862.712	2960
862.844	2933
862.976	3074
863.108	2994
863.24	3359
863.372	2895
863.504	2986
863.636	2986
863.768	3047
863.9	3017
864.032	2914
864.164	2960
864.296	3047
864.428	3146
864.559	3112
864.691	3100
864.823	3089
864.954	3039
865.086	3081
865.217	3055
865.349	2990
865.48	3020
865.612	3047
865.743	3165
865.875	3036
866.006	2944
866.137	3017
866.269	3013
866.4	2986
866.531	2960
866.662	2929
866.793	2944
866.924	2960
867.055	2982
867.186	3005
867.317	2925
867.448	2872
867.579	2891
867.71	2895
867.841	2845
867.972	2902
868.103	2899
868.233	2929
868.364	2944
868.495	2925
868.625	3089
868.756	3161
868.886	3001
869.017	3051
869.147	3165
869.278	3195
869.408	3043
869.539	3066
869.669	3116
869.799	3070
869.929	3192
870.06	3123
870.19	3329
870.32	3317
870.45	3336
870.58	3420
870.71	3473
870.84	3504
870.97	3325
871.1	3287
871.23	3542
871.36	3447
871.489	3389
871.619	3420
871.749	3435
871.879	3477
872.008	3454
872.138	3412
872.267	3340
872.397	3188
872.526	3108
872.656	3039
872.785	3116
872.915	3253
873.044	3336
873.173	3283
873.303	3272
873.432	3230
873.561	3287
873.69	3199
873.819	3207
873.948	3233
874.077	3119
874.206	3089
874.335	3081
874.464	3253
874.593	3405
874.722	3256
874.851	3416
874.979	3386
875.108	3367
875.237	3245
875.365	3176
875.494	3180
875.623	3283
875.751	3131
875.88	3154
876.008	3233
876.136	3272
876.265	3409
876.393	3557
876.521	3428
876.65	3382
876.778	3431
876.906	3241
877.034	3260
877.162	3272
877.29	3199
877.418	3306
877.546	3249
877.674	3253
877.802	3294
877.93	3207
878.058	3188
878.185	3123
878.313	3226
878.441	3253
878.568	3036
878.696	3203
878.824	3291
878.951	3298
879.079	3473
879.206	3667
879.333	3458
879.461	3363
879.588	3367
879.715	3538
879.842	3629
879.97	3416
880.097	3192
880.224	3169
880.351	3222
880.478	3245
880.605	3256
880.732	3199
880.859	3500
880.986	3344
881.112	3321
881.239	3211
881.366	3135
881.493	3074
881.619	3043
881.746	3058
881.872	3127
881.999	3097
882.125	3169
882.252	3264
882.378	3332
882.505	3447
882.631	3355
882.757	3116
882.883	3233
883.01	3253
883.136	3207
883.262	3127
883.388	3112
883.514	3378
883.64	3416
883.766	3306
883.892	3211
884.018	3275
884.143	3424
884.269	3519
884.395	3226
884.52	3207
884.646	3218
884.772	3142
884.897	3112
885.023	3241
885.148	3355
885.274	3416
885.399	3382
885.524	3298
885.65	3306
885.775	3336
885.9	3340
886.025	3443
886.15	3397
886.275	3351
886.4	3264
886.525	3348
886.65	3287
886.775	3317
886.9	3545
887.025	3625
887.149	3420
887.274	3275
887.399	3245
887.523	3233
887.648	3226
887.773	3218
887.897	3416
888.021	3424
888.146	3329
888.27	3439
888.395	3553
888.519	3447
888.643	3557
888.767	3504
888.891	3329
889.015	3268
889.139	3329
889.263	3256
889.387	3439
889.511	3572
889.635	3496
889.759	3325
889.883	3306
890.006	3409
890.13	3477
890.254	3294
890.377	3340
890.501	3241
890.624	3207
890.748	3355
890.871	3199
890.995	3131
891.118	3100
891.241	3199
891.364	3230
891.488	3344
891.611	3188
891.734	3260
891.857	3256
891.98	3256
892.103	3370
892.226	3298
892.349	3245
892.471	3127
892.594	3256
892.717	3325
892.839	3325
892.962	3279
893.085	3351
893.207	3321
893.33	3176
893.452	3241
893.575	3367
893.697	3306
893.819	3481
893.941	3504
894.064	3454
894.186	3279
894.308	3298
894.43	3450
894.552	3549
894.674	3500
894.796	3310
894.918	3340
895.04	3291
895.161	3473
895.283	3393
895.405	3306
895.526	3401
895.648	3496
895.769	3431
895.891	3504
896.012	3485
896.134	3485
896.255	3374
896.376	3405
896.498	3378
896.619	3466
896.74	3374
896.861	3416
896.982	3656
897.103	3835
897.224	3625
897.345	3538
897.466	3405
897.587	3515
897.708	3648
897.828	3591
897.949	3466
898.07	3344
898.19	3393
898.311	3622
898.431	3477
898.552	3564
898.672	3606
898.792	3629
898.913	3564
899.033	3412
899.153	3291
899.273	3253
899.393	3279
899.513	3329
899.633	3382
899.753	3332
899.873	3351
899.993	3412
900.113	3363
900.232	3409
900.352	3344
900.472	3321
900.591	3230
900.711	3317
900.83	3291
900.95	3454
901.069	3511
901.189	3401
901.308	3188
901.427	3184
901.546	3211
901.665	3317
901.784	3348
901.904	3272
902.023	3165
902.141	3051
902.26	3020
902.379	3157
902.498	3074
902.617	3093
902.735	3230
902.854	3214
902.973	3218
903.091	3051
903.21	3112
903.328	3154
903.446	3138
903.565	3131
903.683	3157
903.801	3150
903.919	3272
904.038	3283
904.156	3157
904.274	3325
904.392	3275
904.51	3313
904.627	3317
904.745	3443
904.863	3530
904.981	3283
905.098	3192
905.216	3256
905.334	3294
905.451	3294
905.569	3332
905.686	3473
905.803	3450
905.921	3332
906.038	3481
906.155	3329
906.272	3302
906.389	3348
906.506	3272
906.623	3302
906.74	3294
906.857	3218
906.974	3260
907.091	3477
907.208	3576
907.324	3473
907.441	3397
907.557	3211
907.674	3241
907.79	3253
907.907	3332
908.023	3393
908.139	3412
908.256	3348
908.372	3409
908.488	3401
908.604	3268
908.72	3241
908.836	3275
908.952	3321
909.068	3355
909.184	3500
909.3	3386
909.415	3511
909.531	3469
909.647	3298
909.762	3351
909.878	3279
909.993	3348
910.108	3344
910.224	3370
910.339	3439
910.454	3351
910.57	3302
910.685	3233
910.8	3595
910.915	3519
911.03	3443
911.145	3291
911.259	3272
911.374	3317
911.489	3241
911.604	3237
911.718	3173
911.833	3195
911.947	3055
912.062	3001
912.176	3146
912.291	3249
912.405	3233
912.519	3492
912.633	3469
912.748	3348
912.862	3260
912.976	3150
913.09	3089
913.204	3093
913.318	3226
913.431	3332
913.545	3329
913.659	3424
913.772	3332
913.886	3253
914	3237
914.113	3351
914.226	3401
914.34	3389
914.453	3253
914.566	3351
914.68	3302
914.793	3340
914.906	3138
915.019	3077
915.132	3077
915.245	3180
915.358	3218
915.47	3245
915.583	3275
915.696	3332
915.809	3412
915.921	3428
916.034	3272
916.146	3275
916.259	3245
916.371	3393
916.483	3355
916.595	3260
916.708	3336
916.82	3351
916.932	3348
917.044	3348
917.156	3348
917.268	3287
917.38	3302
917.491	3291
917.603	3409
917.715	3492
917.826	3443
917.938	3409
918.049	3340
918.161	3405
918.272	3610
918.384	3584
918.495	3534
918.606	3351
918.717	3260
918.828	3393
918.939	3420
919.05	3363
919.161	3393
919.272	3218
919.383	3332
919.494	3519
919.604	3629
919.715	3507
919.826	3431
919.936	3462
920.047	3568
920.157	3561
920.267	3781
920.378	3629
920.488	3591
920.598	3785
920.708	3941
920.818	3823
920.928	3819
921.038	4055
921.148	4013
921.258	3648
921.368	3629
921.477	3633
921.587	3523
921.697	3500
921.806	3641
921.916	3507
922.025	3348
922.134	3378
922.244	3321
922.353	3428
922.462	3253
922.571	3291
922.68	3146
922.789	3100
922.898	3138
923.007	3074
923.116	3241
923.224	3173
923.333	3184
923.442	3085
923.55	3077
923.659	3161
923.767	3207
923.876	3108
923.984	3249
924.092	3150
924.201	3195
924.309	3199
924.417	3253
924.525	3207
924.633	3245
924.741	4044
924.849	3047
924.956	3329
925.064	3116
925.172	3020
925.279	3097
925.387	3199
925.494	3192
925.602	3367
925.709	3306
925.816	3154
925.924	3260
926.031	3412
926.138	3355
926.245	3351
926.352	3268
926.459	3378
926.566	3500
926.673	3329
926.779	3218
926.886	3237
926.993	3165
927.099	3161
927.206	3123
927.312	3157
927.419	3241
927.525	3230
927.631	3268
927.737	3192
927.843	3127
927.95	3043
928.056	3154
928.162	3195
928.267	3253
928.373	3915
928.479	3344
928.585	3089
928.69	3199
928.796	3302
928.901	3184
929.007	3062
929.112	3233
929.218	3241
929.323	3222
929.428	3203
929.533	3336
929.638	3157
929.743	3207
929.848	3264
929.953	3253
930.058	3207
930.163	3058
930.267	3131
930.372	3268
930.477	3077
930.581	3340
930.685	3230
930.79	3074
930.894	3214
930.998	3180
931.103	3351
931.207	3005
931.311	2990
931.415	2952
931.519	2823
931.623	2842
