Data from test_V78500241_1820.txt Node
Date: Fri Mar 25 16:27:48 CST 2022
User: usil
Spectrometer: V785-0024
Trigger mode: 0
Integration Time (sec): 4.000000E-1
Scans to average: 1
Nonlinearity correction enabled: false
Boxcar width: 0
Storing dark spectrum: false
XAxis mode: Wavelengths
Number of Pixels in Spectrum: 1024
>>>>>Begin Spectral Data<<<<<
801.071	2941
801.214	2971
801.356	2902
801.499	2925
801.641	2918
801.783	2971
801.926	3085
802.068	3005
802.211	3005
802.353	3039
802.496	3005
802.638	3055
802.78	3077
802.923	3066
803.065	2990
803.208	2929
803.35	2925
803.492	2922
803.635	2971
803.777	2773
803.919	2887
804.061	3184
804.204	2914
804.346	2891
804.488	2883
804.63	2963
804.773	2857
804.915	2948
805.057	3070
805.199	2952
805.341	2986
805.483	3036
805.626	3013
805.768	2975
805.91	3097
806.052	3116
806.194	3081
806.336	3275
806.478	3043
806.62	2967
806.762	2971
806.904	3074
807.046	3173
807.188	2998
807.33	2910
807.472	3005
807.614	2929
807.756	2963
807.898	2933
808.04	2925
808.182	2937
808.324	2960
808.465	2861
808.607	2883
808.749	2800
808.891	2861
809.033	2979
809.174	2990
809.316	2902
809.458	2899
809.6	2788
809.741	2766
809.883	2769
810.025	2880
810.166	2838
810.308	2849
810.45	2849
810.591	2811
810.733	2781
810.875	2830
811.016	2819
811.158	2754
811.299	2792
811.441	2933
811.582	2906
811.724	2849
811.865	2838
812.007	2899
812.148	2914
812.29	2864
812.431	2902
812.573	2937
812.714	2952
812.855	3070
812.997	3062
813.138	3108
813.279	3051
813.421	3009
813.562	2948
813.703	2914
813.845	2868
813.986	2777
814.127	2743
814.268	2853
814.41	2853
814.551	2861
814.692	2887
814.833	2800
814.974	2887
815.115	2994
815.256	2842
815.397	2845
815.539	2895
815.68	2792
815.821	2804
815.962	2944
816.103	2998
816.244	2876
816.385	2872
816.526	2979
816.666	2899
816.807	2769
816.948	2910
817.089	2941
817.23	2849
817.371	2777
817.512	2830
817.653	2883
817.793	2830
817.934	2891
818.075	2963
818.216	2982
818.356	3066
818.497	2883
818.638	2777
818.778	2830
818.919	2769
819.06	2762
819.2	2887
819.341	2834
819.481	2815
819.622	2944
819.762	3070
819.903	2998
820.043	2952
820.184	2902
820.324	2929
820.465	3024
820.605	3058
820.746	3017
820.886	2937
821.026	3131
821.167	3146
821.307	3291
821.447	3279
821.588	3272
821.728	3237
821.868	3211
822.008	3058
822.149	3203
822.289	3222
822.429	3131
822.569	3093
822.709	3195
822.849	3032
822.99	3077
823.13	3138
823.27	3207
823.41	3116
823.55	3180
823.69	3161
823.83	3195
823.97	3100
824.11	2998
824.25	2986
824.389	3070
824.529	3135
824.669	3089
824.809	3165
824.949	3241
825.089	3268
825.228	3154
825.368	3017
825.508	3009
825.648	2982
825.787	3001
825.927	3028
826.067	2967
826.206	2960
826.346	3036
826.485	3043
826.625	3127
826.765	3275
826.904	3214
827.044	2979
827.183	2960
827.323	2880
827.462	2960
827.601	2941
827.741	2944
827.88	2944
828.02	2842
828.159	2998
828.298	3047
828.437	3089
828.577	3024
828.716	3310
828.855	3093
828.994	2910
829.134	2883
829.273	2933
829.412	2895
829.551	2876
829.69	2880
829.829	2990
829.968	3135
830.107	3013
830.246	3024
830.385	2910
830.524	2895
830.663	2861
830.802	2750
830.941	2686
831.08	2648
831.219	2754
831.357	2739
831.496	2956
831.635	2731
831.774	2655
831.913	2678
832.051	2545
832.19	2579
832.329	2739
832.467	2533
832.606	2503
832.744	2590
832.883	2583
833.022	2598
833.16	2648
833.299	2674
833.437	2686
833.576	2708
833.714	2712
833.852	2727
833.991	2758
834.129	2826
834.267	2864
834.406	2811
834.544	2899
834.682	2922
834.821	2857
834.959	3108
835.097	2880
835.235	3055
835.373	3009
835.511	3017
835.65	2963
835.788	2937
835.926	2842
836.064	2819
836.202	2823
836.34	3062
836.478	3173
836.615	3017
836.753	3138
836.891	3211
837.029	3135
837.167	3100
837.305	3077
837.443	3047
837.58	2956
837.718	3138
837.856	3062
837.993	3070
838.131	3131
838.269	3131
838.406	3104
838.544	3077
838.681	2948
838.819	2952
838.956	2807
839.094	2853
839.231	2899
839.369	2986
839.506	3389
839.643	3214
839.781	3020
839.918	2960
840.055	3081
840.193	3062
840.33	3047
840.467	3089
840.604	3142
840.742	3374
840.879	3028
841.016	3055
841.153	3089
841.29	3298
841.427	3283
841.564	3268
841.701	3332
841.838	3230
841.975	3188
842.112	3222
842.249	3058
842.385	3024
842.522	3218
842.659	3062
842.796	3077
842.933	3085
843.069	3036
843.206	3051
843.343	3157
843.479	3131
843.616	3127
843.752	2887
843.889	2857
844.025	3070
844.162	2880
844.298	3047
844.435	2922
844.571	2880
844.708	3081
844.844	3157
844.98	3207
845.117	3192
845.253	3043
845.389	3028
845.525	3093
845.661	3108
845.798	3017
845.934	3074
846.07	3055
846.206	3237
846.342	3363
846.478	3226
846.614	3070
846.75	3074
846.886	3051
847.022	3222
847.158	3089
847.294	3199
847.429	3211
847.565	3241
847.701	3485
847.837	3013
847.972	3024
848.108	3180
848.244	3154
848.379	2986
848.515	2952
848.65	2895
848.786	2975
848.921	2982
849.057	3097
849.192	3112
849.328	3070
849.463	3157
849.598	3070
849.734	3013
849.869	2952
850.004	2944
850.14	3009
850.275	2933
850.41	2861
850.545	2895
850.68	2944
850.815	2944
850.95	3005
851.085	3188
851.22	3085
851.355	3066
851.49	2971
851.625	3009
851.76	2960
851.895	2922
852.03	2910
852.165	3024
852.299	3104
852.434	3199
852.569	3157
852.703	3161
852.838	3237
852.973	3329
853.107	3348
853.242	3188
853.376	3104
853.511	2986
853.645	3066
853.78	3226
853.914	3112
854.048	3089
854.183	3051
854.317	3150
854.451	3275
854.585	3112
854.72	3043
854.854	3192
854.988	3077
855.122	3097
855.256	2952
855.39	3135
855.524	3226
855.658	3173
855.792	3131
855.926	3161
856.06	3211
856.194	3260
856.327	3150
856.461	3089
856.595	3066
856.729	3058
856.862	3211
856.996	3176
857.13	3195
857.263	3184
857.397	3249
857.53	3150
857.664	3154
857.797	3241
857.931	3218
858.064	3195
858.197	3188
858.331	3142
858.464	3116
858.597	3017
858.731	3089
858.864	3131
858.997	3062
859.13	3138
859.263	3184
859.396	3199
859.529	3089
859.662	3077
859.795	3070
859.928	3123
860.061	3272
860.194	3272
860.327	3119
860.46	3116
860.592	3241
860.725	3264
860.858	3226
860.99	3116
861.123	3036
861.256	3028
861.388	3108
861.521	3873
861.653	3028
861.786	2979
861.918	3032
862.05	3047
862.183	3055
862.315	3173
862.447	3203
862.58	3108
862.712	2963
862.844	2861
862.976	3017
863.108	3005
863.24	3386
863.372	2861
863.504	2960
863.636	2937
863.768	3005
863.9	2982
864.032	2918
864.164	2952
864.296	3009
864.428	3066
864.559	3112
864.691	3074
864.823	3051
864.954	3066
865.086	3055
865.217	3032
865.349	2975
865.48	2975
865.612	3020
865.743	3169
865.875	2975
866.006	2937
866.137	2929
866.269	2922
866.4	2906
866.531	2925
866.662	2861
866.793	2902
866.924	2891
867.055	2967
867.186	2906
867.317	2895
867.448	2819
867.579	2826
867.71	2834
867.841	2800
867.972	2906
868.103	2895
868.233	2880
868.364	2838
868.495	2895
868.625	3081
868.756	3146
868.886	2971
869.017	3013
869.147	3176
869.278	3169
869.408	3024
869.539	3001
869.669	3093
869.799	3043
869.929	3150
870.06	3093
870.19	3279
870.32	3302
870.45	3283
870.58	3367
870.71	3420
870.84	3405
870.97	3260
871.1	3245
871.23	3466
871.36	3450
871.489	3306
871.619	3367
871.749	3412
871.879	3424
872.008	3481
872.138	3359
872.267	3272
872.397	3173
872.526	3066
872.656	3020
872.785	3093
872.915	3260
873.044	3336
873.173	3218
873.303	3249
873.432	3253
873.561	3237
873.69	3150
873.819	3127
873.948	3207
874.077	3100
874.206	3036
874.335	3055
874.464	3211
874.593	3359
874.722	3268
874.851	3370
874.979	3332
875.108	3306
875.237	3184
875.365	3169
875.494	3165
875.623	3275
875.751	3058
875.88	3104
876.008	3184
876.136	3241
876.265	3340
876.393	3504
876.521	3435
876.65	3397
876.778	3294
876.906	3230
877.034	3203
877.162	3264
877.29	3161
877.418	3237
877.546	3264
877.674	3275
877.802	3233
877.93	3279
878.058	3161
878.185	3100
878.313	3214
878.441	3218
878.568	3062
878.696	3165
878.824	3222
878.951	3325
879.079	3447
879.206	3599
879.333	3409
879.461	3317
879.588	3382
879.715	3450
879.842	3549
879.97	3389
880.097	3127
880.224	3150
880.351	3192
880.478	3218
880.605	3211
880.732	3230
880.859	3462
880.986	3302
881.112	3344
881.239	3150
881.366	3123
881.493	3058
881.619	3028
881.746	3077
881.872	3077
881.999	3089
882.125	3154
882.252	3249
882.378	3268
882.505	3466
882.631	3279
882.757	3180
882.883	3173
883.01	3214
883.136	3131
883.262	3085
883.388	3119
883.514	3325
883.64	3355
883.766	3294
883.892	3142
884.018	3207
884.143	3401
884.269	3553
884.395	3176
884.52	3176
884.646	3173
884.772	3123
884.897	3097
885.023	3176
885.148	3363
885.274	3424
885.399	3340
885.524	3264
885.65	3230
885.775	3329
885.9	3256
886.025	3389
886.15	3374
886.275	3298
886.4	3245
886.525	3298
886.65	3294
886.775	3275
886.9	3473
887.025	3614
887.149	3370
887.274	3230
887.399	3161
887.523	3199
887.648	3157
887.773	3157
887.897	3397
888.021	3389
888.146	3294
888.27	3450
888.395	3523
888.519	3500
888.643	3405
888.767	3466
888.891	3279
889.015	3237
889.139	3268
889.263	3230
889.387	3393
889.511	3504
889.635	3439
889.759	3275
889.883	3264
890.006	3378
890.13	3462
890.254	3298
890.377	3382
890.501	3173
890.624	3157
890.748	3325
890.871	3176
890.995	3119
891.118	3043
891.241	3211
891.364	3188
891.488	3325
891.611	3184
891.734	3245
891.857	3272
891.98	3230
892.103	3336
892.226	3272
892.349	3188
892.471	3112
892.594	3237
892.717	3302
892.839	3275
892.962	3294
893.085	3332
893.207	3306
893.33	3146
893.452	3233
893.575	3313
893.697	3207
893.819	3462
893.941	3439
894.064	3450
894.186	3275
894.308	3249
894.43	3431
894.552	3545
894.674	3458
894.796	3264
894.918	3302
895.04	3264
895.161	3431
895.283	3386
895.405	3298
895.526	3367
895.648	3443
895.769	3409
895.891	3462
896.012	3450
896.134	3481
896.255	3412
896.376	3374
896.498	3317
896.619	3466
896.74	3332
896.861	3405
896.982	3648
897.103	3869
897.224	3641
897.345	3473
897.466	3416
897.587	3504
897.708	3618
897.828	3557
897.949	3458
898.07	3298
898.19	3382
898.311	3580
898.431	3462
898.552	3519
898.672	3587
898.792	3564
898.913	3504
899.033	3431
899.153	3306
899.273	3207
899.393	3226
899.513	3363
899.633	3310
899.753	3313
899.873	3355
899.993	3397
900.113	3359
900.232	3389
900.352	3359
900.472	3298
900.591	3192
900.711	3306
900.83	3188
900.95	3409
901.069	3496
901.189	3351
901.308	3135
901.427	3157
901.546	3241
901.665	3245
901.784	3313
901.904	3233
902.023	3108
902.141	2998
902.26	2982
902.379	3100
902.498	3077
902.617	3009
902.735	3249
902.854	3211
902.973	3211
903.091	3028
903.21	3047
903.328	3173
903.446	3112
903.565	3089
903.683	3199
903.801	3150
903.919	3253
904.038	3291
904.156	3161
904.274	3260
904.392	3264
904.51	3329
904.627	3306
904.745	3409
904.863	3473
904.981	3241
905.098	3180
905.216	3260
905.334	3264
905.451	3275
905.569	3321
905.686	3409
905.803	3443
905.921	3275
906.038	3420
906.155	3310
906.272	3249
906.389	3321
906.506	3214
906.623	3291
906.74	3268
906.857	3180
906.974	3253
907.091	3435
907.208	3534
907.324	3485
907.441	3397
907.557	3218
907.674	3222
907.79	3195
907.907	3291
908.023	3363
908.139	3386
908.256	3310
908.372	3359
908.488	3336
908.604	3222
908.72	3230
908.836	3264
908.952	3256
909.068	3321
909.184	3477
909.3	3397
909.415	3496
909.531	3485
909.647	3241
909.762	3332
909.878	3245
909.993	3321
910.108	3389
910.224	3317
910.339	3389
910.454	3325
910.57	3287
910.685	3211
910.8	3622
910.915	3511
911.03	3443
911.145	3222
911.259	3256
911.374	3260
911.489	3237
911.604	3233
911.718	3135
911.833	3150
911.947	3062
912.062	2975
912.176	3142
912.291	3203
912.405	3222
912.519	3439
912.633	3435
912.748	3325
912.862	3264
912.976	3146
913.09	3039
913.204	3112
913.318	3245
913.431	3279
913.545	3287
913.659	3397
913.772	3317
913.886	3226
914	3199
914.113	3298
914.226	3416
914.34	3374
914.453	3180
914.566	3386
914.68	3287
914.793	3264
914.906	3100
915.019	3058
915.132	3058
915.245	3131
915.358	3222
915.47	3245
915.583	3218
915.696	3325
915.809	3401
915.921	3359
916.034	3230
916.146	3268
916.259	3214
916.371	3378
916.483	3359
916.595	3249
916.708	3340
916.82	3332
916.932	3321
917.044	3329
917.156	3317
917.268	3272
917.38	3325
917.491	3306
917.603	3359
917.715	3428
917.826	3450
917.938	3351
918.049	3241
918.161	3405
918.272	3595
918.384	3584
918.495	3462
918.606	3329
918.717	3256
918.828	3348
918.939	3447
919.05	3321
919.161	3359
919.272	3169
919.383	3253
919.494	3469
919.604	3701
919.715	3526
919.826	3431
919.936	3488
920.047	3595
920.157	3545
920.267	3747
920.378	3648
920.488	3595
920.598	3770
920.708	3956
920.818	3838
920.928	3816
921.038	4006
921.148	3991
921.258	3694
921.368	3644
921.477	3595
921.587	3545
921.697	3450
921.806	3648
921.916	3473
922.025	3306
922.134	3340
922.244	3310
922.353	3389
922.462	3283
922.571	3222
922.68	3058
922.789	3043
922.898	3165
923.007	3085
923.116	3169
923.224	3169
923.333	3188
923.442	3097
923.55	3123
923.659	3135
923.767	3211
923.876	3104
923.984	3233
924.092	3112
924.201	3199
924.309	3230
924.417	3264
924.525	3222
924.633	3226
924.741	4131
924.849	3062
924.956	3249
925.064	3146
925.172	3039
925.279	3104
925.387	3176
925.494	3211
925.602	3386
925.709	3310
925.816	3184
925.924	3275
926.031	3393
926.138	3298
926.245	3382
926.352	3207
926.459	3416
926.566	3439
926.673	3325
926.779	3237
926.886	3256
926.993	3176
927.099	3157
927.206	3116
927.312	3119
927.419	3233
927.525	3211
927.631	3260
927.737	3165
927.843	3104
927.95	3028
928.056	3165
928.162	3173
928.267	3218
928.373	3827
928.479	3313
928.585	3047
928.69	3214
928.796	3283
928.901	3169
929.007	3051
929.112	3207
929.218	3161
929.323	3142
929.428	3154
929.533	3287
929.638	3116
929.743	3173
929.848	3287
929.953	3214
930.058	3173
930.163	2990
930.267	3055
930.372	3195
930.477	3020
930.581	3325
930.685	3173
930.79	3047
930.894	3119
930.998	3104
931.103	3264
931.207	2979
931.311	2941
931.415	2937
931.519	2746
931.623	2807
