Data from test_V78500241_316.txt Node
Date: Fri Mar 25 16:17:23 CST 2022
User: usil
Spectrometer: V785-0024
Trigger mode: 0
Integration Time (sec): 4.000000E-1
Scans to average: 1
Nonlinearity correction enabled: false
Boxcar width: 0
Storing dark spectrum: false
XAxis mode: Wavelengths
Number of Pixels in Spectrum: 1024
>>>>>Begin Spectral Data<<<<<
801.071	2937
801.214	2963
801.356	2830
801.499	2887
801.641	2899
801.783	2941
801.926	3047
802.068	2956
802.211	2971
802.353	3043
802.496	2986
802.638	2994
802.78	3062
802.923	3119
803.065	3001
803.208	2910
803.35	2899
803.492	2918
803.635	2933
803.777	2769
803.919	2842
804.061	3203
804.204	2952
804.346	2956
804.488	2830
804.63	3013
804.773	2880
804.915	2918
805.057	3085
805.199	2922
805.341	2929
805.483	3062
805.626	2971
805.768	2925
805.91	3093
806.052	3108
806.194	3047
806.336	3222
806.478	3039
806.62	2982
806.762	2948
806.904	3055
807.046	3184
807.188	3005
807.33	2960
807.472	3017
807.614	2895
807.756	2998
807.898	2967
808.04	2925
808.182	2967
808.324	2971
808.465	2868
808.607	2872
808.749	2804
808.891	2861
809.033	2956
809.174	2975
809.316	2929
809.458	2872
809.6	2792
809.741	2754
809.883	2800
810.025	2876
810.166	2849
810.308	2910
810.45	2811
810.591	2788
810.733	2762
810.875	2876
811.016	2815
811.158	2746
811.299	2868
811.441	2982
811.582	2864
811.724	2830
811.865	2838
812.007	2895
812.148	2902
812.29	2891
812.431	2880
812.573	2971
812.714	2982
812.855	3051
812.997	3100
813.138	3123
813.279	3005
813.421	3005
813.562	2975
813.703	2883
813.845	2914
813.986	2788
814.127	2720
814.268	2849
814.41	2845
814.551	2777
814.692	2876
814.833	2826
814.974	2933
815.115	2948
815.256	2849
815.397	2811
815.539	2842
815.68	2788
815.821	2804
815.962	2933
816.103	2925
816.244	2864
816.385	2895
816.526	2982
816.666	2948
816.807	2781
816.948	2899
817.089	2944
817.23	2872
817.371	2769
817.512	2807
817.653	2849
817.793	2857
817.934	2891
818.075	2982
818.216	2948
818.356	3058
818.497	2891
818.638	2811
818.778	2815
818.919	2785
819.06	2724
819.2	2906
819.341	2804
819.481	2807
819.622	2937
819.762	3112
819.903	3024
820.043	2933
820.184	2902
820.324	2902
820.465	2979
820.605	3039
820.746	3020
820.886	2937
821.026	3089
821.167	3176
821.307	3218
821.447	3256
821.588	3253
821.728	3184
821.868	3173
822.008	3093
822.149	3222
822.289	3237
822.429	3112
822.569	3112
822.709	3154
822.849	3032
822.99	3062
823.13	3119
823.27	3199
823.41	3116
823.55	3146
823.69	3138
823.83	3192
823.97	3112
824.11	3009
824.25	3028
824.389	3070
824.529	3089
824.669	3081
824.809	3211
824.949	3245
825.089	3218
825.228	3150
825.368	3024
825.508	2971
825.648	2975
825.787	3005
825.927	2998
826.067	2956
826.206	2956
826.346	3043
826.485	3032
826.625	3116
826.765	3291
826.904	3150
827.044	3005
827.183	2967
827.323	2868
827.462	2979
827.601	2922
827.741	2963
827.88	2941
828.02	2845
828.159	2933
828.298	3028
828.437	3127
828.577	3039
828.716	3245
828.855	3097
828.994	2891
829.134	2902
829.273	2902
829.412	2880
829.551	2876
829.69	2861
829.829	2982
829.968	3154
830.107	3039
830.246	3028
830.385	2887
830.524	2899
830.663	2823
830.802	2735
830.941	2636
831.08	2659
831.219	2788
831.357	2781
831.496	2952
831.635	2708
831.774	2655
831.913	2670
832.051	2568
832.19	2621
832.329	2712
832.467	2526
832.606	2488
832.744	2579
832.883	2594
833.022	2564
833.16	2621
833.299	2693
833.437	2724
833.576	2674
833.714	2701
833.852	2720
833.991	2762
834.129	2826
834.267	2796
834.406	2788
834.544	2868
834.682	2887
834.821	2880
834.959	3089
835.097	2887
835.235	3051
835.373	3020
835.511	3020
835.65	2956
835.788	2994
835.926	2815
836.064	2811
836.202	2861
836.34	3097
836.478	3165
836.615	3036
836.753	3108
836.891	3207
837.029	3154
837.167	3077
837.305	3039
837.443	3009
837.58	2971
837.718	3138
837.856	3085
837.993	3020
838.131	3100
838.269	3108
838.406	3070
838.544	3097
838.681	2937
838.819	2906
838.956	2853
839.094	2868
839.231	2956
839.369	3036
839.506	3393
839.643	3222
839.781	2979
839.918	2963
840.055	3032
840.193	3066
840.33	3074
840.467	3097
840.604	3131
840.742	3401
840.879	3058
841.016	3070
841.153	3131
841.29	3351
841.427	3306
841.564	3317
841.701	3386
841.838	3230
841.975	3169
842.112	3214
842.249	3108
842.385	3066
842.522	3249
842.659	3108
842.796	3058
842.933	3062
843.069	3055
843.206	3032
843.343	3176
843.479	3089
843.616	3138
843.752	2868
843.889	2864
844.025	3108
844.162	2872
844.298	3097
844.435	2952
844.571	2929
844.708	3055
844.844	3176
844.98	3253
845.117	3199
845.253	3077
845.389	2998
845.525	3119
845.661	3100
845.798	3009
845.934	3097
846.07	3032
846.206	3222
846.342	3317
846.478	3253
846.614	3093
846.75	3036
846.886	3017
847.022	3211
847.158	3154
847.294	3192
847.429	3264
847.565	3203
847.701	3473
847.837	3024
847.972	3013
848.108	3188
848.244	3116
848.379	3001
848.515	2910
848.65	2941
848.786	2990
848.921	3009
849.057	3112
849.192	3146
849.328	3085
849.463	3100
849.598	3089
849.734	3066
849.869	2963
850.004	2895
850.14	2948
850.275	2887
850.41	2861
850.545	2895
850.68	2929
850.815	2979
850.95	2963
851.085	3135
851.22	3093
851.355	3043
851.49	3001
851.625	3009
851.76	2982
851.895	2952
852.03	2899
852.165	3036
852.299	3135
852.434	3207
852.569	3157
852.703	3161
852.838	3230
852.973	3359
853.107	3355
853.242	3146
853.376	3081
853.511	3009
853.645	3066
853.78	3195
853.914	3123
854.048	3142
854.183	3085
854.317	3150
854.451	3313
854.585	3169
854.72	3097
854.854	3188
854.988	3074
855.122	3085
855.256	3013
855.39	3127
855.524	3218
855.658	3165
855.792	3165
855.926	3169
856.06	3226
856.194	3222
856.327	3176
856.461	3100
856.595	3074
856.729	3093
856.862	3214
856.996	3165
857.13	3203
857.263	3207
857.397	3283
857.53	3116
857.664	3195
857.797	3253
857.931	3245
858.064	3157
858.197	3207
858.331	3081
858.464	3093
858.597	2971
858.731	3146
858.864	3127
858.997	3089
859.13	3119
859.263	3184
859.396	3211
859.529	3066
859.662	3100
859.795	3043
859.928	3131
860.061	3272
860.194	3291
860.327	3119
860.46	3116
860.592	3226
860.725	3237
860.858	3264
860.99	3108
861.123	3058
861.256	3066
861.388	3161
861.521	3861
861.653	3032
861.786	2982
861.918	2967
862.05	3066
862.183	3104
862.315	3131
862.447	3173
862.58	3077
862.712	2937
862.844	2853
862.976	3017
863.108	3001
863.24	3351
863.372	2891
863.504	2990
863.636	2994
863.768	3013
863.9	2975
864.032	2910
864.164	2967
864.296	3032
864.428	3051
864.559	3081
864.691	3085
864.823	3085
864.954	3047
865.086	3043
865.217	2963
865.349	2929
865.48	2998
865.612	3013
865.743	3119
865.875	3032
866.006	2960
866.137	2929
866.269	2933
866.4	2963
866.531	2914
866.662	2872
866.793	2891
866.924	2876
867.055	2998
867.186	2914
867.317	2891
867.448	2830
867.579	2826
867.71	2830
867.841	2807
867.972	2914
868.103	2937
868.233	2887
868.364	2861
868.495	2902
868.625	3089
868.756	3123
868.886	2979
869.017	3028
869.147	3127
869.278	3150
869.408	3028
869.539	3013
869.669	3089
869.799	3036
869.929	3150
870.06	3100
870.19	3336
870.32	3302
870.45	3279
870.58	3393
870.71	3469
870.84	3450
870.97	3294
871.1	3241
871.23	3458
871.36	3424
871.489	3329
871.619	3420
871.749	3389
871.879	3439
872.008	3488
872.138	3370
872.267	3268
872.397	3161
872.526	3131
872.656	3009
872.785	3093
872.915	3268
873.044	3329
873.173	3218
873.303	3237
873.432	3241
873.561	3230
873.69	3135
873.819	3165
873.948	3195
874.077	3077
874.206	3051
874.335	3081
874.464	3218
874.593	3348
874.722	3233
874.851	3386
874.979	3363
875.108	3325
875.237	3180
875.365	3169
875.494	3142
875.623	3241
875.751	3051
875.88	3108
876.008	3184
876.136	3211
876.265	3348
876.393	3477
876.521	3416
876.65	3382
876.778	3332
876.906	3272
877.034	3237
877.162	3245
877.29	3146
877.418	3260
877.546	3272
877.674	3245
877.802	3230
877.93	3222
878.058	3131
878.185	3131
878.313	3233
878.441	3211
878.568	3039
878.696	3157
878.824	3230
878.951	3253
879.079	3447
879.206	3652
879.333	3420
879.461	3310
879.588	3363
879.715	3477
879.842	3591
879.97	3386
880.097	3161
880.224	3157
880.351	3150
880.478	3241
880.605	3233
880.732	3184
880.859	3511
880.986	3298
881.112	3359
881.239	3180
881.366	3077
881.493	3017
881.619	3036
881.746	3055
881.872	3089
881.999	3093
882.125	3142
882.252	3272
882.378	3302
882.505	3424
882.631	3283
882.757	3157
882.883	3195
883.01	3233
883.136	3169
883.262	3081
883.388	3116
883.514	3310
883.64	3340
883.766	3306
883.892	3188
884.018	3260
884.143	3389
884.269	3561
884.395	3199
884.52	3165
884.646	3230
884.772	3119
884.897	3116
885.023	3233
885.148	3348
885.274	3424
885.399	3363
885.524	3275
885.65	3275
885.775	3325
885.9	3310
886.025	3416
886.15	3363
886.275	3283
886.4	3230
886.525	3332
886.65	3230
886.775	3260
886.9	3485
887.025	3633
887.149	3416
887.274	3256
887.399	3180
887.523	3184
887.648	3195
887.773	3245
887.897	3351
888.021	3428
888.146	3302
888.27	3458
888.395	3538
888.519	3435
888.643	3450
888.767	3496
888.891	3329
889.015	3222
889.139	3310
889.263	3241
889.387	3367
889.511	3492
889.635	3450
889.759	3264
889.883	3313
890.006	3374
890.13	3485
890.254	3241
890.377	3355
890.501	3218
890.624	3226
890.748	3306
890.871	3173
890.995	3100
891.118	3100
891.241	3211
891.364	3211
891.488	3340
891.611	3169
891.734	3222
891.857	3279
891.98	3222
892.103	3336
892.226	3275
892.349	3249
892.471	3127
892.594	3279
892.717	3298
892.839	3279
892.962	3287
893.085	3370
893.207	3317
893.33	3165
893.452	3218
893.575	3359
893.697	3249
893.819	3507
893.941	3504
894.064	3488
894.186	3245
894.308	3283
894.43	3443
894.552	3530
894.674	3435
894.796	3264
894.918	3317
895.04	3291
895.161	3447
895.283	3351
895.405	3329
895.526	3363
895.648	3401
895.769	3428
895.891	3443
896.012	3492
896.134	3492
896.255	3405
896.376	3367
896.498	3386
896.619	3439
896.74	3340
896.861	3397
896.982	3709
897.103	3781
897.224	3618
897.345	3466
897.466	3458
897.587	3496
897.708	3599
897.828	3530
897.949	3420
898.07	3325
898.19	3424
898.311	3633
898.431	3450
898.552	3477
898.672	3561
898.792	3576
898.913	3504
899.033	3401
899.153	3302
899.273	3218
899.393	3325
899.513	3317
899.633	3302
899.753	3359
899.873	3306
899.993	3405
900.113	3336
900.232	3389
900.352	3294
900.472	3302
900.591	3188
900.711	3313
900.83	3245
900.95	3420
901.069	3504
901.189	3382
901.308	3214
901.427	3161
901.546	3192
901.665	3313
901.784	3340
901.904	3199
902.023	3131
902.141	3001
902.26	3024
902.379	3161
902.498	3093
902.617	3051
902.735	3203
902.854	3249
902.973	3173
903.091	3043
903.21	3085
903.328	3112
903.446	3093
903.565	3097
903.683	3188
903.801	3123
903.919	3283
904.038	3298
904.156	3180
904.274	3279
904.392	3253
904.51	3279
904.627	3325
904.745	3409
904.863	3515
904.981	3245
905.098	3180
905.216	3241
905.334	3283
905.451	3325
905.569	3313
905.686	3469
905.803	3405
905.921	3264
906.038	3431
906.155	3355
906.272	3249
906.389	3283
906.506	3233
906.623	3275
906.74	3279
906.857	3237
906.974	3268
907.091	3447
907.208	3595
907.324	3485
907.441	3378
907.557	3249
907.674	3233
907.79	3230
907.907	3260
908.023	3389
908.139	3397
908.256	3370
908.372	3378
908.488	3382
908.604	3214
908.72	3214
908.836	3294
908.952	3264
909.068	3348
909.184	3500
909.3	3447
909.415	3488
909.531	3477
909.647	3268
909.762	3310
909.878	3256
909.993	3401
910.108	3340
910.224	3310
910.339	3397
910.454	3310
910.57	3291
910.685	3245
910.8	3564
910.915	3557
911.03	3416
911.145	3260
911.259	3291
911.374	3332
911.489	3268
911.604	3275
911.718	3150
911.833	3135
911.947	3066
912.062	2960
912.176	3214
912.291	3195
912.405	3188
912.519	3428
912.633	3466
912.748	3340
912.862	3283
912.976	3154
913.09	3043
913.204	3138
913.318	3211
913.431	3329
913.545	3332
913.659	3424
913.772	3332
913.886	3188
914	3214
914.113	3344
914.226	3439
914.34	3386
914.453	3245
914.566	3409
914.68	3275
914.793	3268
914.906	3180
915.019	3112
915.132	3085
915.245	3127
915.358	3199
915.47	3233
915.583	3230
915.696	3291
915.809	3382
915.921	3435
916.034	3279
916.146	3256
916.259	3233
916.371	3386
916.483	3405
916.595	3241
916.708	3329
916.82	3317
916.932	3329
917.044	3363
917.156	3382
917.268	3268
917.38	3294
917.491	3321
917.603	3389
917.715	3450
917.826	3462
917.938	3389
918.049	3237
918.161	3428
918.272	3553
918.384	3587
918.495	3515
918.606	3332
918.717	3313
918.828	3378
918.939	3447
919.05	3302
919.161	3412
919.272	3214
919.383	3230
919.494	3462
919.604	3705
919.715	3496
919.826	3443
919.936	3443
920.047	3599
920.157	3519
920.267	3800
920.378	3625
920.488	3538
920.598	3740
920.708	3964
920.818	3812
920.928	3823
921.038	4017
921.148	3991
921.258	3701
921.368	3625
921.477	3610
921.587	3511
921.697	3431
921.806	3610
921.916	3538
922.025	3329
922.134	3382
922.244	3313
922.353	3428
922.462	3256
922.571	3233
922.68	3108
922.789	3089
922.898	3142
923.007	3097
923.116	3211
923.224	3169
923.333	3165
923.442	3108
923.55	3100
923.659	3127
923.767	3214
923.876	3081
923.984	3218
924.092	3074
924.201	3173
924.309	3237
924.417	3272
924.525	3203
924.633	3268
924.741	4177
924.849	3066
924.956	3279
925.064	3085
925.172	3032
925.279	3104
925.387	3218
925.494	3199
925.602	3401
925.709	3355
925.816	3195
925.924	3298
926.031	3378
926.138	3351
926.245	3382
926.352	3233
926.459	3401
926.566	3473
926.673	3378
926.779	3256
926.886	3230
926.993	3123
927.099	3165
927.206	3142
927.312	3123
927.419	3222
927.525	3230
927.631	3302
927.737	3169
927.843	3108
927.95	3020
928.056	3127
928.162	3146
928.267	3256
928.373	3857
928.479	3310
928.585	3066
928.69	3180
928.796	3264
928.901	3195
929.007	3097
929.112	3214
929.218	3199
929.323	3142
929.428	3138
929.533	3306
929.638	3142
929.743	3157
929.848	3245
929.953	3245
930.058	3165
930.163	3017
930.267	3051
930.372	3211
930.477	3028
930.581	3325
930.685	3199
930.79	3062
930.894	3112
930.998	3154
931.103	3287
931.207	2960
931.311	2925
931.415	2891
931.519	2773
931.623	2826
