Data from test_V78500241_307.txt Node
Date: Fri Mar 25 16:17:19 CST 2022
User: usil
Spectrometer: V785-0024
Trigger mode: 0
Integration Time (sec): 4.000000E-1
Scans to average: 1
Nonlinearity correction enabled: false
Boxcar width: 0
Storing dark spectrum: false
XAxis mode: Wavelengths
Number of Pixels in Spectrum: 1024
>>>>>Begin Spectral Data<<<<<
801.071	2910
801.214	2922
801.356	2834
801.499	2872
801.641	2853
801.783	2937
801.926	3036
802.068	2986
802.211	2971
802.353	3001
802.496	2929
802.638	3020
802.78	3024
802.923	3070
803.065	2975
803.208	2861
803.35	2914
803.492	2922
803.635	2948
803.777	2727
803.919	2876
804.061	3203
804.204	2960
804.346	2902
804.488	2864
804.63	2986
804.773	2842
804.915	2937
805.057	3070
805.199	2925
805.341	2986
805.483	3013
805.626	2982
805.768	2975
805.91	3119
806.052	3131
806.194	3036
806.336	3211
806.478	3001
806.62	2963
806.762	2990
806.904	3066
807.046	3184
807.188	2963
807.33	2922
807.472	2971
807.614	2910
807.756	2971
807.898	2971
808.04	2864
808.182	2990
808.324	2979
808.465	2883
808.607	2861
808.749	2769
808.891	2834
809.033	3001
809.174	2986
809.316	2895
809.458	2883
809.6	2750
809.741	2777
809.883	2762
810.025	2864
810.166	2834
810.308	2819
810.45	2842
810.591	2788
810.733	2785
810.875	2872
811.016	2804
811.158	2727
811.299	2792
811.441	2933
811.582	2918
811.724	2804
811.865	2830
812.007	2914
812.148	2887
812.29	2864
812.431	2925
812.573	2944
812.714	2967
812.855	3077
812.997	3062
813.138	3108
813.279	3013
813.421	2975
813.562	2963
813.703	2880
813.845	2861
813.986	2800
814.127	2731
814.268	2845
814.41	2830
814.551	2804
814.692	2868
814.833	2834
814.974	2899
815.115	2960
815.256	2800
815.397	2800
815.539	2845
815.68	2785
815.821	2807
815.962	2929
816.103	2918
816.244	2861
816.385	2902
816.526	2956
816.666	2929
816.807	2735
816.948	2864
817.089	2925
817.23	2872
817.371	2769
817.512	2796
817.653	2857
817.793	2845
817.934	2914
818.075	2960
818.216	2982
818.356	3024
818.497	2914
818.638	2815
818.778	2830
818.919	2773
819.06	2769
819.2	2887
819.341	2788
819.481	2815
819.622	2944
819.762	3100
819.903	3032
820.043	2880
820.184	2914
820.324	2887
820.465	3001
820.605	2998
820.746	3009
820.886	2914
821.026	3100
821.167	3169
821.307	3253
821.447	3253
821.588	3279
821.728	3207
821.868	3199
822.008	3051
822.149	3165
822.289	3188
822.429	3089
822.569	3085
822.709	3195
822.849	2971
822.99	3081
823.13	3127
823.27	3138
823.41	3116
823.55	3123
823.69	3211
823.83	3161
823.97	3108
824.11	3043
824.25	3001
824.389	3062
824.529	3093
824.669	3070
824.809	3176
824.949	3249
825.089	3207
825.228	3135
825.368	3001
825.508	2986
825.648	2975
825.787	2967
825.927	3032
826.067	2975
826.206	2933
826.346	3028
826.485	3070
826.625	3142
826.765	3233
826.904	3233
827.044	2971
827.183	2910
827.323	2826
827.462	2986
827.601	2902
827.741	2922
827.88	2963
828.02	2834
828.159	2967
828.298	3047
828.437	3127
828.577	3017
828.716	3241
828.855	3093
828.994	2914
829.134	2902
829.273	2914
829.412	2891
829.551	2891
829.69	2910
829.829	2979
829.968	3123
830.107	2994
830.246	3028
830.385	2918
830.524	2880
830.663	2815
830.802	2758
830.941	2663
831.08	2682
831.219	2750
831.357	2750
831.496	2937
831.635	2712
831.774	2636
831.913	2682
832.051	2541
832.19	2579
832.329	2674
832.467	2514
832.606	2480
832.744	2583
832.883	2575
833.022	2571
833.16	2659
833.299	2659
833.437	2659
833.576	2697
833.714	2727
833.852	2720
833.991	2750
834.129	2834
834.267	2834
834.406	2777
834.544	2876
834.682	2887
834.821	2864
834.959	3055
835.097	2899
835.235	3009
835.373	3043
835.511	3009
835.65	2956
835.788	2944
835.926	2811
836.064	2823
836.202	2811
836.34	3108
836.478	3146
836.615	3074
836.753	3119
836.891	3154
837.029	3123
837.167	3104
837.305	3058
837.443	3051
837.58	2963
837.718	3116
837.856	3028
837.993	3009
838.131	3165
838.269	3104
838.406	3070
838.544	3074
838.681	2933
838.819	2902
838.956	2826
839.094	2849
839.231	2895
839.369	3009
839.506	3409
839.643	3165
839.781	2982
839.918	2937
840.055	3051
840.193	3039
840.33	3081
840.467	3085
840.604	3119
840.742	3382
840.879	3047
841.016	3036
841.153	3108
841.29	3336
841.427	3283
841.564	3279
841.701	3340
841.838	3195
841.975	3161
842.112	3218
842.249	3089
842.385	3028
842.522	3264
842.659	3070
842.796	3024
842.933	3097
843.069	3009
843.206	3043
843.343	3157
843.479	3135
843.616	3180
843.752	2880
843.889	2864
844.025	3058
844.162	2891
844.298	3051
844.435	2948
844.571	2906
844.708	3077
844.844	3157
844.98	3245
845.117	3184
845.253	3047
845.389	2998
845.525	3085
845.661	3097
845.798	2967
845.934	3100
846.07	3032
846.206	3230
846.342	3313
846.478	3211
846.614	3116
846.75	3055
846.886	3020
847.022	3268
847.158	3142
847.294	3184
847.429	3233
847.565	3169
847.701	3454
847.837	3058
847.972	2998
848.108	3169
848.244	3123
848.379	3024
848.515	2941
848.65	2918
848.786	2971
848.921	3013
849.057	3116
849.192	3135
849.328	3043
849.463	3112
849.598	3051
849.734	3066
849.869	2963
850.004	2918
850.14	2956
850.275	2910
850.41	2834
850.545	2899
850.68	2876
850.815	2963
850.95	2975
851.085	3188
851.22	3116
851.355	3017
851.49	2975
851.625	2979
851.76	3043
851.895	2933
852.03	2914
852.165	3024
852.299	3112
852.434	3176
852.569	3154
852.703	3146
852.838	3214
852.973	3348
853.107	3355
853.242	3142
853.376	3039
853.511	2937
853.645	3036
853.78	3237
853.914	3123
854.048	3123
854.183	3077
854.317	3146
854.451	3291
854.585	3116
854.72	3066
854.854	3203
854.988	3055
855.122	3070
855.256	3001
855.39	3100
855.524	3237
855.658	3176
855.792	3146
855.926	3176
856.06	3230
856.194	3253
856.327	3203
856.461	3135
856.595	3047
856.729	3097
856.862	3233
856.996	3104
857.13	3211
857.263	3218
857.397	3310
857.53	3123
857.664	3222
857.797	3249
857.931	3218
858.064	3169
858.197	3207
858.331	3142
858.464	3081
858.597	3013
858.731	3112
858.864	3089
858.997	3055
859.13	3188
859.263	3165
859.396	3203
859.529	3093
859.662	3066
859.795	3028
859.928	3127
860.061	3279
860.194	3245
860.327	3104
860.46	3112
860.592	3233
860.725	3249
860.858	3287
860.99	3112
861.123	3058
861.256	3043
861.388	3108
861.521	3823
861.653	3024
861.786	2998
861.918	3005
862.05	3051
862.183	3066
862.315	3173
862.447	3218
862.58	3108
862.712	2910
862.844	2876
862.976	3009
863.108	2986
863.24	3332
863.372	2868
863.504	2937
863.636	2922
863.768	3028
863.9	2971
864.032	2906
864.164	2933
864.296	3005
864.428	3051
864.559	3100
864.691	3066
864.823	3020
864.954	3017
865.086	3017
865.217	2986
865.349	2941
865.48	2986
865.612	3013
865.743	3112
865.875	2994
866.006	2918
866.137	2982
866.269	2952
866.4	2929
866.531	2952
866.662	2899
866.793	2910
866.924	2880
867.055	2952
867.186	2933
867.317	2910
867.448	2830
867.579	2830
867.71	2845
867.841	2845
867.972	2861
868.103	2906
868.233	2864
868.364	2891
868.495	2902
868.625	3055
868.756	3161
868.886	2986
869.017	3009
869.147	3131
869.278	3154
869.408	3043
869.539	3005
869.669	3055
869.799	3039
869.929	3154
870.06	3104
870.19	3298
870.32	3272
870.45	3317
870.58	3363
870.71	3435
870.84	3431
870.97	3272
871.1	3245
871.23	3466
871.36	3435
871.489	3313
871.619	3370
871.749	3431
871.879	3389
872.008	3500
872.138	3363
872.267	3283
872.397	3138
872.526	3154
872.656	3017
872.785	3066
872.915	3253
873.044	3340
873.173	3214
873.303	3253
873.432	3180
873.561	3260
873.69	3192
873.819	3146
873.948	3199
874.077	3093
874.206	3024
874.335	3089
874.464	3199
874.593	3302
874.722	3245
874.851	3409
874.979	3344
875.108	3291
875.237	3165
875.365	3142
875.494	3157
875.623	3230
875.751	3062
875.88	3089
876.008	3218
876.136	3226
876.265	3367
876.393	3526
876.521	3386
876.65	3405
876.778	3321
876.906	3256
877.034	3230
877.162	3230
877.29	3184
877.418	3264
877.546	3253
877.674	3249
877.802	3226
877.93	3241
878.058	3184
878.185	3116
878.313	3222
878.441	3192
878.568	3077
878.696	3188
878.824	3253
878.951	3268
879.079	3431
879.206	3618
879.333	3454
879.461	3336
879.588	3405
879.715	3500
879.842	3584
879.97	3393
880.097	3165
880.224	3104
880.351	3192
880.478	3241
880.605	3218
880.732	3192
880.859	3492
880.986	3298
881.112	3317
881.239	3211
881.366	3074
881.493	3020
881.619	2979
881.746	3089
881.872	3097
881.999	3112
882.125	3157
882.252	3230
882.378	3336
882.505	3443
882.631	3272
882.757	3142
882.883	3188
883.01	3233
883.136	3138
883.262	3097
883.388	3116
883.514	3306
883.64	3393
883.766	3306
883.892	3188
884.018	3256
884.143	3401
884.269	3511
884.395	3203
884.52	3176
884.646	3176
884.772	3112
884.897	3097
885.023	3199
885.148	3325
885.274	3397
885.399	3367
885.524	3264
885.65	3230
885.775	3321
885.9	3325
886.025	3420
886.15	3359
886.275	3291
886.4	3237
886.525	3291
886.65	3253
886.775	3275
886.9	3454
887.025	3679
887.149	3412
887.274	3279
887.399	3203
887.523	3211
887.648	3226
887.773	3207
887.897	3340
888.021	3409
888.146	3287
888.27	3435
888.395	3523
888.519	3420
888.643	3458
888.767	3462
888.891	3329
889.015	3211
889.139	3306
889.263	3241
889.387	3409
889.511	3526
889.635	3439
889.759	3298
889.883	3302
890.006	3386
890.13	3515
890.254	3253
890.377	3336
890.501	3211
890.624	3150
890.748	3298
890.871	3195
890.995	3100
891.118	3100
891.241	3176
891.364	3253
891.488	3306
891.611	3207
891.734	3203
891.857	3287
891.98	3226
892.103	3321
892.226	3275
892.349	3222
892.471	3123
892.594	3264
892.717	3294
892.839	3268
892.962	3287
893.085	3321
893.207	3291
893.33	3157
893.452	3230
893.575	3340
893.697	3249
893.819	3420
893.941	3515
894.064	3454
894.186	3298
894.308	3279
894.43	3447
894.552	3534
894.674	3469
894.796	3256
894.918	3306
895.04	3287
895.161	3424
895.283	3401
895.405	3306
895.526	3363
895.648	3412
895.769	3435
895.891	3469
896.012	3462
896.134	3481
896.255	3428
896.376	3378
896.498	3329
896.619	3412
896.74	3340
896.861	3370
896.982	3747
897.103	3857
897.224	3614
897.345	3542
897.466	3405
897.587	3473
897.708	3584
897.828	3549
897.949	3428
898.07	3317
898.19	3401
898.311	3599
898.431	3420
898.552	3515
898.672	3595
898.792	3564
898.913	3519
899.033	3412
899.153	3256
899.273	3207
899.393	3283
899.513	3329
899.633	3321
899.753	3340
899.873	3332
899.993	3363
900.113	3313
900.232	3405
900.352	3393
900.472	3253
900.591	3218
900.711	3279
900.83	3249
900.95	3412
901.069	3473
901.189	3344
901.308	3169
901.427	3100
901.546	3157
901.665	3291
901.784	3313
901.904	3199
902.023	3123
902.141	3005
902.26	2960
902.379	3154
902.498	3074
902.617	3017
902.735	3230
902.854	3237
902.973	3207
903.091	3032
903.21	3055
903.328	3157
903.446	3135
903.565	3112
903.683	3169
903.801	3116
903.919	3253
904.038	3329
904.156	3146
904.274	3294
904.392	3260
904.51	3298
904.627	3294
904.745	3454
904.863	3507
904.981	3268
905.098	3180
905.216	3272
905.334	3310
905.451	3294
905.569	3313
905.686	3450
905.803	3447
905.921	3268
906.038	3420
906.155	3355
906.272	3272
906.389	3275
906.506	3184
906.623	3249
906.74	3264
906.857	3150
906.974	3253
907.091	3412
907.208	3549
907.324	3454
907.441	3340
907.557	3218
907.674	3241
907.79	3199
907.907	3256
908.023	3374
908.139	3363
908.256	3336
908.372	3393
908.488	3344
908.604	3260
908.72	3226
908.836	3291
908.952	3291
909.068	3348
909.184	3500
909.3	3386
909.415	3481
909.531	3488
909.647	3272
909.762	3275
909.878	3268
909.993	3348
910.108	3359
910.224	3325
910.339	3439
910.454	3344
910.57	3313
910.685	3218
910.8	3599
910.915	3515
911.03	3431
911.145	3325
911.259	3291
911.374	3321
911.489	3287
911.604	3283
911.718	3146
911.833	3176
911.947	3036
912.062	3005
912.176	3211
912.291	3226
912.405	3207
912.519	3412
912.633	3507
912.748	3382
912.862	3298
912.976	3176
913.09	3104
913.204	3207
913.318	3291
913.431	3355
913.545	3389
913.659	3458
913.772	3355
913.886	3245
914	3256
914.113	3389
914.226	3439
914.34	3397
914.453	3256
914.566	3454
914.68	3302
914.793	3340
914.906	3165
915.019	3161
915.132	3089
915.245	3256
915.358	3218
915.47	3287
915.583	3351
915.696	3287
915.809	3389
915.921	3450
916.034	3272
916.146	3264
916.259	3287
916.371	3424
916.483	3397
916.595	3313
916.708	3355
916.82	3420
916.932	3389
917.044	3405
917.156	3378
917.268	3283
917.38	3340
917.491	3325
917.603	3416
917.715	3488
917.826	3534
917.938	3431
918.049	3306
918.161	3458
918.272	3599
918.384	3595
918.495	3523
918.606	3370
918.717	3321
918.828	3416
918.939	3405
919.05	3340
919.161	3416
919.272	3214
919.383	3363
919.494	3557
919.604	3698
919.715	3496
919.826	3412
919.936	3496
920.047	3633
920.157	3557
920.267	3804
920.378	3652
920.488	3572
920.598	3823
920.708	3979
920.818	3896
920.928	3926
921.038	4063
921.148	4010
921.258	3740
921.368	3740
921.477	3641
921.587	3614
921.697	3473
921.806	3663
921.916	3553
922.025	3405
922.134	3378
922.244	3393
922.353	3462
922.462	3310
922.571	3272
922.68	3150
922.789	3093
922.898	3173
923.007	3131
923.116	3241
923.224	3184
923.333	3207
923.442	3142
923.55	3123
923.659	3173
923.767	3230
923.876	3116
923.984	3291
924.092	3161
924.201	3256
924.309	3233
924.417	3279
924.525	3218
924.633	3283
924.741	4188
924.849	3062
924.956	3294
925.064	3123
925.172	3077
925.279	3108
925.387	3222
925.494	3230
925.602	3416
925.709	3374
925.816	3203
925.924	3298
926.031	3416
926.138	3348
926.245	3393
926.352	3302
926.459	3458
926.566	3530
926.673	3351
926.779	3275
926.886	3279
926.993	3184
927.099	3154
927.206	3142
927.312	3169
927.419	3245
927.525	3214
927.631	3313
927.737	3173
927.843	3184
927.95	3024
928.056	3161
928.162	3203
928.267	3291
928.373	3884
928.479	3367
928.585	3119
928.69	3222
928.796	3317
928.901	3192
929.007	3043
929.112	3233
929.218	3230
929.323	3188
929.428	3180
929.533	3340
929.638	3146
929.743	3211
929.848	3344
929.953	3207
930.058	3157
930.163	3093
930.267	3051
930.372	3241
930.477	3093
930.581	3332
930.685	3226
930.79	3085
930.894	3150
930.998	3119
931.103	3313
931.207	2986
931.311	2982
931.415	2948
931.519	2788
931.623	2857
