Data from test_V78500241_388.txt Node
Date: Fri Mar 25 16:17:53 CST 2022
User: usil
Spectrometer: V785-0024
Trigger mode: 0
Integration Time (sec): 4.000000E-1
Scans to average: 1
Nonlinearity correction enabled: false
Boxcar width: 0
Storing dark spectrum: false
XAxis mode: Wavelengths
Number of Pixels in Spectrum: 1024
>>>>>Begin Spectral Data<<<<<
801.071	2918
801.214	2948
801.356	2861
801.499	2857
801.641	2838
801.783	2899
801.926	3058
802.068	2967
802.211	3043
802.353	3020
802.496	2948
802.638	3043
802.78	3028
802.923	3066
803.065	3001
803.208	2891
803.35	2914
803.492	2910
803.635	2918
803.777	2743
803.919	2857
804.061	3192
804.204	2925
804.346	2922
804.488	2861
804.63	2986
804.773	2880
804.915	2891
805.057	3036
805.199	2891
805.341	2937
805.483	3013
805.626	2990
805.768	3001
805.91	3074
806.052	3108
806.194	3017
806.336	3211
806.478	3028
806.62	2937
806.762	2979
806.904	3062
807.046	3192
807.188	2967
807.33	2925
807.472	2971
807.614	2906
807.756	2986
807.898	2933
808.04	2883
808.182	2941
808.324	2922
808.465	2880
808.607	2857
808.749	2762
808.891	2838
809.033	2971
809.174	2975
809.316	2891
809.458	2891
809.6	2766
809.741	2800
809.883	2766
810.025	2842
810.166	2823
810.308	2826
810.45	2849
810.591	2777
810.733	2796
810.875	2861
811.016	2781
811.158	2758
811.299	2823
811.441	2944
811.582	2864
811.724	2819
811.865	2838
812.007	2887
812.148	2842
812.29	2861
812.431	2864
812.573	2922
812.714	2967
812.855	3055
812.997	3043
813.138	3127
813.279	3024
813.421	2933
813.562	2975
813.703	2838
813.845	2902
813.986	2785
814.127	2739
814.268	2800
814.41	2849
814.551	2815
814.692	2853
814.833	2807
814.974	2861
815.115	2948
815.256	2838
815.397	2819
815.539	2876
815.68	2781
815.821	2815
815.962	2922
816.103	2925
816.244	2845
816.385	2864
816.526	2971
816.666	2922
816.807	2750
816.948	2861
817.089	2925
817.23	2830
817.371	2781
817.512	2766
817.653	2845
817.793	2823
817.934	2910
818.075	2963
818.216	2986
818.356	3051
818.497	2895
818.638	2811
818.778	2826
818.919	2777
819.06	2766
819.2	2883
819.341	2773
819.481	2815
819.622	2910
819.762	3070
819.903	3043
820.043	2902
820.184	2899
820.324	2902
820.465	3013
820.605	3062
820.746	3005
820.886	2902
821.026	3123
821.167	3146
821.307	3264
821.447	3283
821.588	3222
821.728	3199
821.868	3195
822.008	3085
822.149	3173
822.289	3184
822.429	3081
822.569	3104
822.709	3165
822.849	3047
822.99	3020
823.13	3135
823.27	3188
823.41	3070
823.55	3123
823.69	3176
823.83	3211
823.97	3081
824.11	2994
824.25	3009
824.389	3013
824.529	3085
824.669	3036
824.809	3180
824.949	3272
825.089	3222
825.228	3154
825.368	3024
825.508	2963
825.648	3009
825.787	3020
825.927	2994
826.067	2944
826.206	2941
826.346	3051
826.485	3077
826.625	3100
826.765	3260
826.904	3176
827.044	2990
827.183	2925
827.323	2857
827.462	2982
827.601	2891
827.741	2902
827.88	2933
828.02	2868
828.159	2952
828.298	3020
828.437	3123
828.577	3036
828.716	3203
828.855	3077
828.994	2948
829.134	2868
829.273	2899
829.412	2883
829.551	2849
829.69	2857
829.829	2963
829.968	3135
830.107	3001
830.246	3017
830.385	2895
830.524	2853
830.663	2811
830.802	2754
830.941	2636
831.08	2670
831.219	2754
831.357	2762
831.496	2956
831.635	2693
831.774	2625
831.913	2610
832.051	2533
832.19	2602
832.329	2667
832.467	2530
832.606	2457
832.744	2590
832.883	2594
833.022	2571
833.16	2632
833.299	2674
833.437	2701
833.576	2731
833.714	2697
833.852	2731
833.991	2716
834.129	2781
834.267	2804
834.406	2811
834.544	2861
834.682	2891
834.821	2830
834.959	3020
835.097	2899
835.235	3055
835.373	2944
835.511	3047
835.65	2922
835.788	2952
835.926	2815
836.064	2800
836.202	2842
836.34	3093
836.478	3154
836.615	3074
836.753	3119
836.891	3184
837.029	3135
837.167	3089
837.305	3055
837.443	3055
837.58	2994
837.718	3123
837.856	3070
837.993	3020
838.131	3112
838.269	3108
838.406	3077
838.544	3066
838.681	2933
838.819	2880
838.956	2838
839.094	2849
839.231	2891
839.369	2986
839.506	3321
839.643	3233
839.781	3024
839.918	2967
840.055	3024
840.193	3066
840.33	3039
840.467	3100
840.604	3123
840.742	3428
840.879	3070
841.016	3051
841.153	3119
841.29	3329
841.427	3291
841.564	3279
841.701	3268
841.838	3253
841.975	3138
842.112	3188
842.249	3116
842.385	3036
842.522	3192
842.659	3062
842.796	3066
842.933	3112
843.069	3058
843.206	3032
843.343	3184
843.479	3081
843.616	3131
843.752	2834
843.889	2842
844.025	3074
844.162	2880
844.298	3066
844.435	2910
844.571	2937
844.708	3074
844.844	3154
844.98	3272
845.117	3188
845.253	3032
845.389	2982
845.525	3074
845.661	3135
845.798	3009
845.934	3138
846.07	3039
846.206	3230
846.342	3310
846.478	3230
846.614	3039
846.75	3032
846.886	2971
847.022	3237
847.158	3150
847.294	3218
847.429	3249
847.565	3192
847.701	3435
847.837	3039
847.972	2986
848.108	3112
848.244	3112
848.379	2963
848.515	2956
848.65	2948
848.786	2994
848.921	3009
849.057	3100
849.192	3116
849.328	3039
849.463	3135
849.598	3074
849.734	3001
849.869	2948
850.004	2895
850.14	2944
850.275	2895
850.41	2842
850.545	2872
850.68	2941
850.815	2986
850.95	2967
851.085	3169
851.22	3127
851.355	3051
851.49	2979
851.625	3017
851.76	3017
851.895	2910
852.03	2883
852.165	3005
852.299	3112
852.434	3173
852.569	3135
852.703	3161
852.838	3256
852.973	3336
853.107	3351
853.242	3157
853.376	3051
853.511	2975
853.645	3013
853.78	3222
853.914	3112
854.048	3116
854.183	3032
854.317	3127
854.451	3294
854.585	3138
854.72	3074
854.854	3199
854.988	3058
855.122	3089
855.256	2948
855.39	3150
855.524	3218
855.658	3180
855.792	3146
855.926	3237
856.06	3211
856.194	3268
856.327	3138
856.461	3070
856.595	3058
856.729	3116
856.862	3207
856.996	3131
857.13	3226
857.263	3230
857.397	3218
857.53	3097
857.664	3195
857.797	3230
857.931	3279
858.064	3184
858.197	3180
858.331	3123
858.464	3085
858.597	2979
858.731	3135
858.864	3127
858.997	3108
859.13	3127
859.263	3165
859.396	3218
859.529	3081
859.662	3070
859.795	3047
859.928	3154
860.061	3260
860.194	3222
860.327	3123
860.46	3104
860.592	3226
860.725	3256
860.858	3253
860.99	3093
861.123	3058
861.256	3020
861.388	3127
861.521	3850
861.653	2982
861.786	2944
861.918	2960
862.05	3066
862.183	3077
862.315	3180
862.447	3157
862.58	3097
862.712	2922
862.844	2899
862.976	3028
863.108	2982
863.24	3416
863.372	2887
863.504	2952
863.636	2963
863.768	3017
863.9	2948
864.032	2899
864.164	2944
864.296	2986
864.428	3089
864.559	3055
864.691	3051
864.823	3062
864.954	3001
865.086	3039
865.217	2979
865.349	2941
865.48	3005
865.612	2986
865.743	3108
865.875	2971
866.006	2944
866.137	2944
866.269	2902
866.4	2922
866.531	2910
866.662	2891
866.793	2864
866.924	2864
867.055	2986
867.186	2941
867.317	2857
867.448	2845
867.579	2864
867.71	2883
867.841	2811
867.972	2902
868.103	2857
868.233	2872
868.364	2849
868.495	2891
868.625	3066
868.756	3146
868.886	2948
869.017	3013
869.147	3165
869.278	3157
869.408	3028
869.539	3024
869.669	3062
869.799	3051
869.929	3138
870.06	3108
870.19	3344
870.32	3253
870.45	3268
870.58	3370
870.71	3450
870.84	3469
870.97	3245
871.1	3253
871.23	3450
871.36	3454
871.489	3374
871.619	3409
871.749	3447
871.879	3409
872.008	3469
872.138	3367
872.267	3279
872.397	3135
872.526	3058
872.656	2948
872.785	3093
872.915	3264
873.044	3283
873.173	3203
873.303	3192
873.432	3207
873.561	3241
873.69	3138
873.819	3127
873.948	3195
874.077	3081
874.206	3024
874.335	3089
874.464	3214
874.593	3321
874.722	3283
874.851	3397
874.979	3355
875.108	3317
875.237	3184
875.365	3154
875.494	3150
875.623	3195
875.751	3058
875.88	3081
876.008	3184
876.136	3268
876.265	3302
876.393	3481
876.521	3416
876.65	3348
876.778	3329
876.906	3253
877.034	3199
877.162	3199
877.29	3188
877.418	3222
877.546	3207
877.674	3245
877.802	3222
877.93	3165
878.058	3150
878.185	3108
878.313	3188
878.441	3154
878.568	3081
878.696	3112
878.824	3260
878.951	3294
879.079	3458
879.206	3584
879.333	3435
879.461	3325
879.588	3344
879.715	3481
879.842	3572
879.97	3374
880.097	3165
880.224	3116
880.351	3184
880.478	3218
880.605	3188
880.732	3173
880.859	3485
880.986	3283
881.112	3332
881.239	3203
881.366	3077
881.493	3036
881.619	3001
881.746	3036
881.872	3089
881.999	3104
882.125	3127
882.252	3256
882.378	3310
882.505	3405
882.631	3253
882.757	3127
882.883	3180
883.01	3180
883.136	3112
883.262	3081
883.388	3085
883.514	3310
883.64	3389
883.766	3291
883.892	3161
884.018	3218
884.143	3409
884.269	3561
884.395	3188
884.52	3123
884.646	3176
884.772	3119
884.897	3093
885.023	3157
885.148	3325
885.274	3420
885.399	3378
885.524	3241
885.65	3253
885.775	3317
885.9	3264
886.025	3454
886.15	3336
886.275	3264
886.4	3192
886.525	3329
886.65	3298
886.775	3279
886.9	3473
887.025	3675
887.149	3420
887.274	3253
887.399	3131
887.523	3169
887.648	3169
887.773	3150
887.897	3363
888.021	3359
888.146	3275
888.27	3435
888.395	3534
888.519	3397
888.643	3439
888.767	3500
888.891	3298
889.015	3203
889.139	3283
889.263	3230
889.387	3439
889.511	3504
889.635	3469
889.759	3279
889.883	3306
890.006	3386
890.13	3488
890.254	3249
890.377	3317
890.501	3180
890.624	3161
890.748	3298
890.871	3119
890.995	3077
891.118	3070
891.241	3146
891.364	3245
891.488	3287
891.611	3157
891.734	3207
891.857	3233
891.98	3241
892.103	3325
892.226	3268
892.349	3222
892.471	3108
892.594	3245
892.717	3272
892.839	3253
892.962	3298
893.085	3340
893.207	3302
893.33	3135
893.452	3203
893.575	3363
893.697	3226
893.819	3507
893.941	3500
894.064	3447
894.186	3268
894.308	3260
894.43	3428
894.552	3542
894.674	3523
894.796	3279
894.918	3325
895.04	3302
895.161	3439
895.283	3431
895.405	3294
895.526	3355
895.648	3428
895.769	3447
895.891	3485
896.012	3523
896.134	3462
896.255	3424
896.376	3397
896.498	3405
896.619	3447
896.74	3389
896.861	3458
896.982	3682
897.103	3884
897.224	3641
897.345	3526
897.466	3466
897.587	3561
897.708	3671
897.828	3618
897.949	3466
898.07	3340
898.19	3450
898.311	3648
898.431	3458
898.552	3523
898.672	3641
898.792	3633
898.913	3549
899.033	3447
899.153	3344
899.273	3275
899.393	3287
899.513	3355
899.633	3355
899.753	3340
899.873	3367
899.993	3431
900.113	3374
900.232	3477
900.352	3386
900.472	3325
900.591	3264
900.711	3336
900.83	3291
900.95	3466
901.069	3515
901.189	3389
901.308	3230
901.427	3169
901.546	3230
901.665	3313
901.784	3439
901.904	3237
902.023	3188
902.141	3039
902.26	3024
902.379	3165
902.498	3077
902.617	3093
902.735	3233
902.854	3237
902.973	3230
903.091	3119
903.21	3131
903.328	3157
903.446	3100
903.565	3112
903.683	3226
903.801	3180
903.919	3260
904.038	3298
904.156	3207
904.274	3344
904.392	3253
904.51	3317
904.627	3367
904.745	3469
904.863	3511
904.981	3279
905.098	3199
905.216	3279
905.334	3317
905.451	3321
905.569	3329
905.686	3443
905.803	3469
905.921	3325
906.038	3435
906.155	3386
906.272	3287
906.389	3370
906.506	3306
906.623	3279
906.74	3268
906.857	3214
906.974	3268
907.091	3511
907.208	3595
907.324	3477
907.441	3454
907.557	3264
907.674	3256
907.79	3230
907.907	3310
908.023	3416
908.139	3420
908.256	3378
908.372	3409
908.488	3340
908.604	3310
908.72	3294
908.836	3367
908.952	3340
909.068	3393
909.184	3462
909.3	3424
909.415	3504
909.531	3507
909.647	3310
909.762	3291
909.878	3321
909.993	3405
910.108	3367
910.224	3420
910.339	3443
910.454	3386
910.57	3355
910.685	3279
910.8	3625
910.915	3507
911.03	3466
911.145	3291
911.259	3298
911.374	3306
911.489	3241
911.604	3268
911.718	3157
911.833	3233
911.947	3081
912.062	3047
912.176	3188
912.291	3218
912.405	3279
912.519	3443
912.633	3496
912.748	3340
912.862	3302
912.976	3222
913.09	3135
913.204	3176
913.318	3264
913.431	3363
913.545	3374
913.659	3447
913.772	3355
913.886	3264
914	3222
914.113	3348
914.226	3466
914.34	3367
914.453	3237
914.566	3428
914.68	3313
914.793	3355
914.906	3184
915.019	3127
915.132	3116
915.245	3199
915.358	3241
915.47	3272
915.583	3302
915.696	3329
915.809	3447
915.921	3454
916.034	3283
916.146	3283
916.259	3272
916.371	3416
916.483	3393
916.595	3283
916.708	3329
916.82	3374
916.932	3386
917.044	3397
917.156	3363
917.268	3306
917.38	3332
917.491	3321
917.603	3378
917.715	3496
917.826	3477
917.938	3389
918.049	3287
918.161	3462
918.272	3625
918.384	3614
918.495	3530
918.606	3355
918.717	3291
918.828	3378
918.939	3435
919.05	3332
919.161	3397
919.272	3230
919.383	3310
919.494	3507
919.604	3679
919.715	3526
919.826	3458
919.936	3492
920.047	3618
920.157	3595
920.267	3808
920.378	3618
920.488	3610
920.598	3838
920.708	4010
920.818	3865
920.928	3846
921.038	4055
921.148	4040
921.258	3774
921.368	3652
921.477	3610
921.587	3553
921.697	3439
921.806	3625
921.916	3542
922.025	3401
922.134	3370
922.244	3348
922.353	3412
922.462	3321
922.571	3287
922.68	3150
922.789	3142
922.898	3195
923.007	3112
923.116	3226
923.224	3188
923.333	3199
923.442	3146
923.55	3100
923.659	3165
923.767	3233
923.876	3135
923.984	3253
924.092	3123
924.201	3203
924.309	3253
924.417	3260
924.525	3211
924.633	3291
924.741	4185
924.849	3097
924.956	3294
925.064	3131
925.172	3081
925.279	3188
925.387	3203
925.494	3222
925.602	3386
925.709	3367
925.816	3256
925.924	3302
926.031	3405
926.138	3348
926.245	3405
926.352	3298
926.459	3416
926.566	3504
926.673	3382
926.779	3260
926.886	3283
926.993	3169
927.099	3146
927.206	3146
927.312	3135
927.419	3245
927.525	3218
927.631	3264
927.737	3157
927.843	3184
927.95	3058
928.056	3169
928.162	3180
928.267	3283
928.373	3888
928.479	3302
928.585	3089
928.69	3218
928.796	3310
928.901	3211
929.007	3066
929.112	3230
929.218	3188
929.323	3180
929.428	3176
929.533	3344
929.638	3142
929.743	3226
929.848	3336
929.953	3245
930.058	3180
930.163	3032
930.267	3077
930.372	3184
930.477	3039
930.581	3336
930.685	3203
930.79	3070
930.894	3188
930.998	3123
931.103	3336
931.207	3017
931.311	2998
931.415	2948
931.519	2830
931.623	2819
