Data from test_V78500241_1450.txt Node
Date: Fri Mar 25 16:25:14 CST 2022
User: usil
Spectrometer: V785-0024
Trigger mode: 0
Integration Time (sec): 4.000000E-1
Scans to average: 1
Nonlinearity correction enabled: false
Boxcar width: 0
Storing dark spectrum: false
XAxis mode: Wavelengths
Number of Pixels in Spectrum: 1024
>>>>>Begin Spectral Data<<<<<
801.071	2925
801.214	2960
801.356	2902
801.499	2861
801.641	2864
801.783	2914
801.926	3024
802.068	2971
802.211	2994
802.353	3039
802.496	2975
802.638	2979
802.78	3058
802.923	3081
803.065	2990
803.208	2880
803.35	2906
803.492	2922
803.635	2914
803.777	2762
803.919	2845
804.061	3184
804.204	2933
804.346	2887
804.488	2864
804.63	3009
804.773	2849
804.915	2925
805.057	3100
805.199	2925
805.341	2979
805.483	3051
805.626	2963
805.768	2948
805.91	3062
806.052	3131
806.194	3036
806.336	3195
806.478	3062
806.62	2944
806.762	2975
806.904	3062
807.046	3161
807.188	3001
807.33	2925
807.472	2982
807.614	2910
807.756	2975
807.898	2891
808.04	2880
808.182	2971
808.324	2941
808.465	2842
808.607	2872
808.749	2834
808.891	2823
809.033	3013
809.174	2967
809.316	2861
809.458	2895
809.6	2807
809.741	2769
809.883	2750
810.025	2815
810.166	2868
810.308	2834
810.45	2834
810.591	2796
810.733	2815
810.875	2842
811.016	2762
811.158	2773
811.299	2834
811.441	2952
811.582	2880
811.724	2811
811.865	2811
812.007	2880
812.148	2872
812.29	2845
812.431	2868
812.573	2944
812.714	2922
812.855	3036
812.997	3039
813.138	3104
813.279	2986
813.421	2960
813.562	3005
813.703	2857
813.845	2895
813.986	2762
814.127	2727
814.268	2807
814.41	2815
814.551	2804
814.692	2880
814.833	2811
814.974	2899
815.115	2933
815.256	2826
815.397	2796
815.539	2872
815.68	2773
815.821	2819
815.962	2914
816.103	2941
816.244	2861
816.385	2845
816.526	2975
816.666	2922
816.807	2758
816.948	2895
817.089	2899
817.23	2868
817.371	2769
817.512	2773
817.653	2834
817.793	2819
817.934	2872
818.075	2918
818.216	3024
818.356	3028
818.497	2868
818.638	2781
818.778	2819
818.919	2807
819.06	2773
819.2	2876
819.341	2807
819.481	2815
819.622	2929
819.762	3047
819.903	3036
820.043	2933
820.184	2910
820.324	2876
820.465	3039
820.605	3036
820.746	3017
820.886	2933
821.026	3123
821.167	3154
821.307	3237
821.447	3321
821.588	3211
821.728	3207
821.868	3218
822.008	3066
822.149	3207
822.289	3226
822.429	3081
822.569	3070
822.709	3146
822.849	2971
822.99	3032
823.13	3135
823.27	3211
823.41	3127
823.55	3116
823.69	3135
823.83	3165
823.97	3058
824.11	2986
824.25	3024
824.389	3062
824.529	3135
824.669	3081
824.809	3184
824.949	3233
825.089	3199
825.228	3131
825.368	2994
825.508	2982
825.648	2979
825.787	3020
825.927	2994
826.067	2971
826.206	2956
826.346	3066
826.485	3051
826.625	3119
826.765	3264
826.904	3199
827.044	2990
827.183	2910
827.323	2861
827.462	3009
827.601	2918
827.741	2929
827.88	2941
828.02	2819
828.159	2975
828.298	3028
828.437	3093
828.577	3055
828.716	3203
828.855	3085
828.994	2895
829.134	2925
829.273	2925
829.412	2861
829.551	2838
829.69	2883
829.829	3001
829.968	3112
830.107	2998
830.246	3047
830.385	2902
830.524	2872
830.663	2838
830.802	2689
830.941	2636
831.08	2644
831.219	2781
831.357	2746
831.496	2952
831.635	2735
831.774	2617
831.913	2655
832.051	2560
832.19	2575
832.329	2682
832.467	2552
832.606	2495
832.744	2587
832.883	2552
833.022	2594
833.16	2648
833.299	2693
833.437	2674
833.576	2686
833.714	2785
833.852	2735
833.991	2792
834.129	2823
834.267	2792
834.406	2800
834.544	2853
834.682	2891
834.821	2849
834.959	3055
835.097	2883
835.235	3005
835.373	2990
835.511	3036
835.65	2960
835.788	2895
835.926	2815
836.064	2781
836.202	2853
836.34	3089
836.478	3142
836.615	3047
836.753	3123
836.891	3195
837.029	3157
837.167	3108
837.305	3058
837.443	3051
837.58	2952
837.718	3112
837.856	3055
837.993	3028
838.131	3093
838.269	3131
838.406	3127
838.544	3062
838.681	2922
838.819	2910
838.956	2781
839.094	2819
839.231	2914
839.369	2994
839.506	3359
839.643	3233
839.781	3055
839.918	2956
840.055	3055
840.193	3058
840.33	3119
840.467	3104
840.604	3093
840.742	3382
840.879	3024
841.016	3062
841.153	3123
841.29	3325
841.427	3249
841.564	3283
841.701	3313
841.838	3211
841.975	3184
842.112	3184
842.249	3093
842.385	3024
842.522	3253
842.659	3055
842.796	3028
842.933	3066
843.069	3074
843.206	3028
843.343	3173
843.479	3097
843.616	3154
843.752	2857
843.889	2868
844.025	3119
844.162	2853
844.298	3085
844.435	2952
844.571	2883
844.708	3093
844.844	3161
844.98	3233
845.117	3176
845.253	3066
845.389	2952
845.525	3055
845.661	3100
845.798	2986
845.934	3127
846.07	3043
846.206	3188
846.342	3256
846.478	3249
846.614	3112
846.75	3062
846.886	3028
847.022	3241
847.158	3142
847.294	3192
847.429	3222
847.565	3218
847.701	3443
847.837	3043
847.972	2963
848.108	3161
848.244	3169
848.379	2986
848.515	2929
848.65	2891
848.786	2944
848.921	3017
849.057	3100
849.192	3192
849.328	3039
849.463	3161
849.598	3058
849.734	3043
849.869	2975
850.004	2914
850.14	2948
850.275	2891
850.41	2823
850.545	2845
850.68	2906
850.815	2952
850.95	2971
851.085	3142
851.22	3089
851.355	3020
851.49	2956
851.625	2994
851.76	3028
851.895	2979
852.03	2914
852.165	3055
852.299	3116
852.434	3226
852.569	3135
852.703	3150
852.838	3283
852.973	3325
853.107	3310
853.242	3123
853.376	3089
853.511	2975
853.645	3070
853.78	3214
853.914	3089
854.048	3100
854.183	3093
854.317	3138
854.451	3298
854.585	3119
854.72	3074
854.854	3195
854.988	3077
855.122	3097
855.256	3013
855.39	3116
855.524	3237
855.658	3184
855.792	3142
855.926	3169
856.06	3214
856.194	3218
856.327	3146
856.461	3066
856.595	3036
856.729	3104
856.862	3188
856.996	3188
857.13	3169
857.263	3218
857.397	3260
857.53	3108
857.664	3218
857.797	3218
857.931	3245
858.064	3157
858.197	3249
858.331	3112
858.464	3062
858.597	3013
858.731	3116
858.864	3138
858.997	3047
859.13	3161
859.263	3157
859.396	3207
859.529	3055
859.662	3058
859.795	3043
859.928	3169
860.061	3298
860.194	3253
860.327	3100
860.46	3112
860.592	3211
860.725	3195
860.858	3272
860.99	3119
861.123	3058
861.256	3062
861.388	3146
861.521	3823
861.653	2998
861.786	2979
861.918	2990
862.05	3043
862.183	3116
862.315	3154
862.447	3192
862.58	3097
862.712	2963
862.844	2876
862.976	3001
863.108	2994
863.24	3298
863.372	2883
863.504	2937
863.636	2925
863.768	3017
863.9	2960
864.032	2922
864.164	2941
864.296	3005
864.428	3089
864.559	3074
864.691	3081
864.823	3058
864.954	3047
865.086	3032
865.217	2994
865.349	2937
865.48	2967
865.612	3028
865.743	3150
865.875	2963
866.006	2948
866.137	2990
866.269	2918
866.4	2994
866.531	2883
866.662	2891
866.793	2868
866.924	2880
867.055	2979
867.186	2880
867.317	2906
867.448	2830
867.579	2876
867.71	2838
867.841	2815
867.972	2910
868.103	2891
868.233	2883
868.364	2895
868.495	2891
868.625	3043
868.756	3146
868.886	2982
869.017	3058
869.147	3188
869.278	3161
869.408	3066
869.539	3009
869.669	3062
869.799	3043
869.929	3157
870.06	3119
870.19	3321
870.32	3256
870.45	3291
870.58	3397
870.71	3435
870.84	3447
870.97	3287
871.1	3230
871.23	3458
871.36	3443
871.489	3355
871.619	3382
871.749	3393
871.879	3401
872.008	3477
872.138	3351
872.267	3275
872.397	3142
872.526	3062
872.656	2994
872.785	3089
872.915	3249
873.044	3272
873.173	3192
873.303	3226
873.432	3214
873.561	3256
873.69	3192
873.819	3138
873.948	3184
874.077	3108
874.206	3024
874.335	3097
874.464	3249
874.593	3348
874.722	3253
874.851	3393
874.979	3359
875.108	3310
875.237	3180
875.365	3199
875.494	3173
875.623	3264
875.751	3081
875.88	3085
876.008	3169
876.136	3207
876.265	3317
876.393	3523
876.521	3393
876.65	3393
876.778	3317
876.906	3245
877.034	3188
877.162	3211
877.29	3176
877.418	3218
877.546	3218
877.674	3207
877.802	3218
877.93	3203
878.058	3138
878.185	3112
878.313	3214
878.441	3199
878.568	3097
878.696	3157
878.824	3249
878.951	3279
879.079	3424
879.206	3584
879.333	3428
879.461	3283
879.588	3332
879.715	3447
879.842	3595
879.97	3374
880.097	3188
880.224	3154
880.351	3192
880.478	3207
880.605	3176
880.732	3203
880.859	3496
880.986	3310
881.112	3348
881.239	3188
881.366	3097
881.493	3028
881.619	2979
881.746	3077
881.872	3058
881.999	3100
882.125	3161
882.252	3218
882.378	3279
882.505	3420
882.631	3272
882.757	3135
882.883	3192
883.01	3245
883.136	3169
883.262	3066
883.388	3127
883.514	3332
883.64	3355
883.766	3302
883.892	3218
884.018	3211
884.143	3420
884.269	3530
884.395	3199
884.52	3138
884.646	3173
884.772	3119
884.897	3074
885.023	3195
885.148	3351
885.274	3435
885.399	3401
885.524	3237
885.65	3287
885.775	3321
885.9	3272
886.025	3435
886.15	3355
886.275	3260
886.4	3199
886.525	3294
886.65	3260
886.775	3272
886.9	3458
887.025	3606
887.149	3378
887.274	3264
887.399	3146
887.523	3207
887.648	3123
887.773	3180
887.897	3370
888.021	3374
888.146	3302
888.27	3420
888.395	3542
888.519	3405
888.643	3401
888.767	3439
888.891	3279
889.015	3199
889.139	3291
889.263	3260
889.387	3405
889.511	3481
889.635	3481
889.759	3291
889.883	3283
890.006	3367
890.13	3492
890.254	3230
890.377	3340
890.501	3207
890.624	3192
890.748	3302
890.871	3184
890.995	3119
891.118	3055
891.241	3173
891.364	3230
891.488	3283
891.611	3199
891.734	3237
891.857	3302
891.98	3241
892.103	3325
892.226	3302
892.349	3214
892.471	3074
892.594	3218
892.717	3294
892.839	3260
892.962	3287
893.085	3359
893.207	3279
893.33	3169
893.452	3169
893.575	3348
893.697	3245
893.819	3462
893.941	3500
894.064	3450
894.186	3222
894.308	3275
894.43	3462
894.552	3515
894.674	3500
894.796	3237
894.918	3325
895.04	3249
895.161	3420
895.283	3389
895.405	3294
895.526	3359
895.648	3424
895.769	3454
895.891	3462
896.012	3500
896.134	3523
896.255	3420
896.376	3386
896.498	3313
896.619	3409
896.74	3367
896.861	3477
896.982	3732
897.103	3869
897.224	3591
897.345	3507
897.466	3462
897.587	3466
897.708	3610
897.828	3534
897.949	3443
898.07	3298
898.19	3370
898.311	3603
898.431	3416
898.552	3496
898.672	3584
898.792	3549
898.913	3496
899.033	3412
899.153	3272
899.273	3203
899.393	3272
899.513	3283
899.633	3329
899.753	3336
899.873	3332
899.993	3393
900.113	3367
900.232	3409
900.352	3325
900.472	3291
900.591	3203
900.711	3298
900.83	3298
900.95	3401
901.069	3481
901.189	3340
901.308	3154
901.427	3116
901.546	3184
901.665	3275
901.784	3329
901.904	3188
902.023	3131
902.141	2998
902.26	3020
902.379	3100
902.498	3097
902.617	3089
902.735	3195
902.854	3188
902.973	3214
903.091	3047
903.21	3058
903.328	3157
903.446	3100
903.565	3116
903.683	3176
903.801	3093
903.919	3241
904.038	3256
904.156	3138
904.274	3272
904.392	3233
904.51	3287
904.627	3325
904.745	3405
904.863	3519
904.981	3237
905.098	3146
905.216	3214
905.334	3279
905.451	3325
905.569	3317
905.686	3450
905.803	3450
905.921	3279
906.038	3428
906.155	3359
906.272	3268
906.389	3344
906.506	3233
906.623	3230
906.74	3279
906.857	3180
906.974	3245
907.091	3469
907.208	3545
907.324	3481
907.441	3374
907.557	3199
907.674	3275
907.79	3241
907.907	3264
908.023	3340
908.139	3382
908.256	3344
908.372	3336
908.488	3329
908.604	3237
908.72	3188
908.836	3287
908.952	3272
909.068	3351
909.184	3469
909.3	3363
909.415	3523
909.531	3515
909.647	3291
909.762	3268
909.878	3233
909.993	3367
910.108	3332
910.224	3340
910.339	3409
910.454	3378
910.57	3298
910.685	3211
910.8	3580
910.915	3507
911.03	3450
911.145	3272
911.259	3245
911.374	3298
911.489	3279
911.604	3207
911.718	3131
911.833	3104
911.947	3043
912.062	3051
912.176	3135
912.291	3226
912.405	3245
912.519	3412
912.633	3431
912.748	3336
912.862	3249
912.976	3165
913.09	3058
913.204	3157
913.318	3218
913.431	3317
913.545	3294
913.659	3416
913.772	3294
913.886	3176
914	3214
914.113	3367
914.226	3435
914.34	3348
914.453	3249
914.566	3420
914.68	3306
914.793	3264
914.906	3146
915.019	3150
915.132	3074
915.245	3173
915.358	3180
915.47	3226
915.583	3283
915.696	3275
915.809	3431
915.921	3412
916.034	3272
916.146	3253
916.259	3222
916.371	3340
916.483	3386
916.595	3256
916.708	3348
916.82	3283
916.932	3313
917.044	3340
917.156	3348
917.268	3249
917.38	3332
917.491	3302
917.603	3382
917.715	3454
917.826	3466
917.938	3367
918.049	3279
918.161	3412
918.272	3564
918.384	3591
918.495	3507
918.606	3310
918.717	3272
918.828	3401
918.939	3431
919.05	3325
919.161	3370
919.272	3207
919.383	3272
919.494	3473
919.604	3682
919.715	3500
919.826	3405
919.936	3397
920.047	3580
920.157	3576
920.267	3766
920.378	3614
920.488	3557
920.598	3789
920.708	3937
920.818	3850
920.928	3850
921.038	3975
921.148	4010
921.258	3713
921.368	3637
921.477	3603
921.587	3526
921.697	3462
921.806	3637
921.916	3523
922.025	3332
922.134	3351
922.244	3321
922.353	3409
922.462	3279
922.571	3256
922.68	3154
922.789	3108
922.898	3146
923.007	3100
923.116	3199
923.224	3154
923.333	3173
923.442	3100
923.55	3070
923.659	3123
923.767	3241
923.876	3108
923.984	3222
924.092	3093
924.201	3173
924.309	3241
924.417	3264
924.525	3176
924.633	3241
924.741	4135
924.849	3062
924.956	3253
925.064	3108
925.172	3047
925.279	3127
925.387	3211
925.494	3176
925.602	3329
925.709	3283
925.816	3214
925.924	3294
926.031	3355
926.138	3325
926.245	3340
926.352	3260
926.459	3397
926.566	3458
926.673	3351
926.779	3264
926.886	3233
926.993	3154
927.099	3123
927.206	3142
927.312	3123
927.419	3241
927.525	3192
927.631	3256
927.737	3150
927.843	3116
927.95	3009
928.056	3135
928.162	3169
928.267	3256
928.373	3861
928.479	3340
928.585	3043
928.69	3230
928.796	3272
928.901	3165
929.007	3024
929.112	3230
929.218	3154
929.323	3169
929.428	3176
929.533	3279
929.638	3116
929.743	3161
929.848	3275
929.953	3226
930.058	3135
930.163	3005
930.267	3051
930.372	3195
930.477	3009
930.581	3321
930.685	3154
930.79	3039
930.894	3119
930.998	3089
931.103	3294
931.207	2937
931.311	2941
931.415	2948
931.519	2758
931.623	2777
