Data from test_V78500241_936.txt Node
Date: Fri Mar 25 16:21:41 CST 2022
User: usil
Spectrometer: V785-0024
Trigger mode: 0
Integration Time (sec): 4.000000E-1
Scans to average: 1
Nonlinearity correction enabled: false
Boxcar width: 0
Storing dark spectrum: false
XAxis mode: Wavelengths
Number of Pixels in Spectrum: 1024
>>>>>Begin Spectral Data<<<<<
801.071	2922
801.214	2906
801.356	2880
801.499	2895
801.641	2864
801.783	2922
801.926	3043
802.068	2975
802.211	2982
802.353	3039
802.496	2956
802.638	3013
802.78	3020
802.923	3047
803.065	2967
803.208	2902
803.35	2895
803.492	2922
803.635	2914
803.777	2743
803.919	2834
804.061	3192
804.204	2952
804.346	2887
804.488	2815
804.63	2967
804.773	2937
804.915	2944
805.057	3055
805.199	2952
805.341	2975
805.483	3005
805.626	2986
805.768	2941
805.91	3051
806.052	3119
806.194	3036
806.336	3245
806.478	3009
806.62	2952
806.762	2986
806.904	2990
807.046	3173
807.188	2967
807.33	2838
807.472	2956
807.614	2887
807.756	2971
807.898	2910
808.04	2910
808.182	2982
808.324	2967
808.465	2868
808.607	2864
808.749	2792
808.891	2864
809.033	2960
809.174	2963
809.316	2876
809.458	2861
809.6	2777
809.741	2804
809.883	2743
810.025	2834
810.166	2853
810.308	2826
810.45	2868
810.591	2781
810.733	2750
810.875	2804
811.016	2788
811.158	2766
811.299	2773
811.441	2922
811.582	2883
811.724	2834
811.865	2823
812.007	2872
812.148	2880
812.29	2849
812.431	2914
812.573	2956
812.714	2979
812.855	3039
812.997	3100
813.138	3123
813.279	3001
813.421	2994
813.562	2956
813.703	2880
813.845	2887
813.986	2762
814.127	2724
814.268	2785
814.41	2830
814.551	2807
814.692	2914
814.833	2823
814.974	2914
815.115	2933
815.256	2834
815.397	2838
815.539	2883
815.68	2785
815.821	2769
815.962	2925
816.103	2929
816.244	2853
816.385	2880
816.526	2925
816.666	2891
816.807	2731
816.948	2883
817.089	2876
817.23	2876
817.371	2785
817.512	2796
817.653	2868
817.793	2807
817.934	2887
818.075	2967
818.216	2963
818.356	3070
818.497	2895
818.638	2807
818.778	2826
818.919	2800
819.06	2773
819.2	2864
819.341	2777
819.481	2792
819.622	2914
819.762	3135
819.903	3017
820.043	2906
820.184	2857
820.324	2868
820.465	3020
820.605	3005
820.746	3024
820.886	2929
821.026	3066
821.167	3154
821.307	3245
821.447	3260
821.588	3226
821.728	3173
821.868	3195
822.008	3081
822.149	3203
822.289	3218
822.429	3077
822.569	3093
822.709	3138
822.849	3039
822.99	3097
823.13	3165
823.27	3203
823.41	3119
823.55	3116
823.69	3127
823.83	3184
823.97	3119
824.11	3001
824.25	2937
824.389	3089
824.529	3085
824.669	3058
824.809	3188
824.949	3237
825.089	3192
825.228	3165
825.368	3009
825.508	2944
825.648	2967
825.787	2971
825.927	3001
826.067	2979
826.206	2960
826.346	3051
826.485	3051
826.625	3085
826.765	3253
826.904	3230
827.044	3024
827.183	2937
827.323	2842
827.462	2994
827.601	2891
827.741	2925
827.88	2948
828.02	2853
828.159	2963
828.298	3005
828.437	3127
828.577	3024
828.716	3214
828.855	3097
828.994	2872
829.134	2937
829.273	2899
829.412	2842
829.551	2880
829.69	2887
829.829	2967
829.968	3119
830.107	2963
830.246	3047
830.385	2922
830.524	2883
830.663	2804
830.802	2720
830.941	2640
831.08	2640
831.219	2754
831.357	2743
831.496	2937
831.635	2739
831.774	2640
831.913	2655
832.051	2549
832.19	2549
832.329	2682
832.467	2552
832.606	2457
832.744	2579
832.883	2602
833.022	2571
833.16	2659
833.299	2682
833.437	2689
833.576	2712
833.714	2682
833.852	2731
833.991	2754
834.129	2811
834.267	2819
834.406	2800
834.544	2876
834.682	2872
834.821	2880
834.959	3039
835.097	2880
835.235	3074
835.373	3001
835.511	2975
835.65	2922
835.788	2960
835.926	2823
836.064	2815
836.202	2826
836.34	3066
836.478	3138
836.615	3028
836.753	3142
836.891	3176
837.029	3142
837.167	3093
837.305	3058
837.443	3058
837.58	2994
837.718	3131
837.856	3058
837.993	2994
838.131	3085
838.269	3085
838.406	3070
838.544	3104
838.681	2952
838.819	2887
838.956	2842
839.094	2834
839.231	2941
839.369	3020
839.506	3378
839.643	3184
839.781	3001
839.918	2982
840.055	3001
840.193	3032
840.33	3043
840.467	3100
840.604	3112
840.742	3412
840.879	3062
841.016	3028
841.153	3089
841.29	3302
841.427	3302
841.564	3260
841.701	3268
841.838	3226
841.975	3161
842.112	3188
842.249	3036
842.385	3020
842.522	3260
842.659	3070
842.796	3047
842.933	3097
843.069	3020
843.206	3047
843.343	3211
843.479	3074
843.616	3138
843.752	2887
843.889	2868
844.025	3081
844.162	2857
844.298	3047
844.435	2933
844.571	2925
844.708	3077
844.844	3146
844.98	3214
845.117	3180
845.253	3047
845.389	2998
845.525	3085
845.661	3108
845.798	3024
845.934	3127
846.07	3017
846.206	3192
846.342	3336
846.478	3226
846.614	3058
846.75	3043
846.886	3009
847.022	3237
847.158	3142
847.294	3173
847.429	3237
847.565	3222
847.701	3458
847.837	3032
847.972	3036
848.108	3100
848.244	3123
848.379	2975
848.515	2922
848.65	2902
848.786	2941
848.921	3036
849.057	3081
849.192	3176
849.328	3074
849.463	3089
849.598	3058
849.734	3020
849.869	3036
850.004	2918
850.14	2986
850.275	2891
850.41	2838
850.545	2872
850.68	2941
850.815	2982
850.95	2956
851.085	3207
851.22	3070
851.355	3055
851.49	2982
851.625	2998
851.76	3024
851.895	2922
852.03	2880
852.165	3058
852.299	3142
852.434	3199
852.569	3127
852.703	3195
852.838	3222
852.973	3313
853.107	3306
853.242	3150
853.376	3138
853.511	2933
853.645	3062
853.78	3203
853.914	3100
854.048	3089
854.183	3081
854.317	3146
854.451	3291
854.585	3138
854.72	3066
854.854	3214
854.988	2998
855.122	3070
855.256	2960
855.39	3127
855.524	3245
855.658	3173
855.792	3135
855.926	3184
856.06	3207
856.194	3237
856.327	3135
856.461	3058
856.595	3058
856.729	3085
856.862	3226
856.996	3127
857.13	3214
857.263	3211
857.397	3272
857.53	3077
857.664	3188
857.797	3180
857.931	3226
858.064	3150
858.197	3222
858.331	3097
858.464	3097
858.597	2998
858.731	3089
858.864	3135
858.997	3104
859.13	3123
859.263	3157
859.396	3207
859.529	3074
859.662	3070
859.795	3036
859.928	3150
860.061	3260
860.194	3279
860.327	3093
860.46	3112
860.592	3180
860.725	3214
860.858	3226
860.99	3089
861.123	3028
861.256	3089
861.388	3150
861.521	3846
861.653	2998
861.786	3005
861.918	2956
862.05	3089
862.183	3055
862.315	3138
862.447	3184
862.58	3116
862.712	2944
862.844	2922
862.976	3036
863.108	3039
863.24	3439
863.372	2868
863.504	2944
863.636	2960
863.768	2982
863.9	2933
864.032	2899
864.164	2952
864.296	3036
864.428	3039
864.559	3070
864.691	3051
864.823	3058
864.954	3024
865.086	3032
865.217	2960
865.349	2967
865.48	2994
865.612	3039
865.743	3176
865.875	2963
866.006	2941
866.137	2960
866.269	2948
866.4	2933
866.531	2895
866.662	2876
866.793	2887
866.924	2876
867.055	2979
867.186	2910
867.317	2861
867.448	2823
867.579	2830
867.71	2834
867.841	2804
867.972	2876
868.103	2937
868.233	2864
868.364	2883
868.495	2933
868.625	3058
868.756	3146
868.886	2982
869.017	3013
869.147	3123
869.278	3150
869.408	3058
869.539	2998
869.669	3081
869.799	3020
869.929	3135
870.06	3112
870.19	3332
870.32	3287
870.45	3256
870.58	3321
870.71	3450
870.84	3435
870.97	3291
871.1	3222
871.23	3523
871.36	3450
871.489	3310
871.619	3374
871.749	3393
871.879	3424
872.008	3477
872.138	3321
872.267	3313
872.397	3123
872.526	3062
872.656	2998
872.785	3032
872.915	3241
873.044	3325
873.173	3199
873.303	3260
873.432	3260
873.561	3188
873.69	3119
873.819	3127
873.948	3169
874.077	3020
874.206	3058
874.335	3100
874.464	3195
874.593	3317
874.722	3279
874.851	3393
874.979	3370
875.108	3340
875.237	3195
875.365	3169
875.494	3135
875.623	3222
875.751	3097
875.88	3100
876.008	3184
876.136	3222
876.265	3317
876.393	3504
876.521	3386
876.65	3374
876.778	3306
876.906	3226
877.034	3176
877.162	3272
877.29	3195
877.418	3245
877.546	3249
877.674	3249
877.802	3233
877.93	3199
878.058	3146
878.185	3097
878.313	3218
878.441	3173
878.568	3051
878.696	3138
878.824	3222
878.951	3260
879.079	3424
879.206	3618
879.333	3431
879.461	3287
879.588	3348
879.715	3481
879.842	3568
879.97	3359
880.097	3173
880.224	3123
880.351	3192
880.478	3184
880.605	3226
880.732	3195
880.859	3526
880.986	3287
881.112	3313
881.239	3203
881.366	3116
881.493	3028
881.619	2975
881.746	3043
881.872	3093
881.999	3123
882.125	3157
882.252	3222
882.378	3287
882.505	3405
882.631	3253
882.757	3157
882.883	3169
883.01	3199
883.136	3161
883.262	3081
883.388	3127
883.514	3325
883.64	3367
883.766	3317
883.892	3188
884.018	3268
884.143	3386
884.269	3553
884.395	3241
884.52	3119
884.646	3157
884.772	3123
884.897	3100
885.023	3192
885.148	3294
885.274	3409
885.399	3340
885.524	3230
885.65	3260
885.775	3302
885.9	3291
886.025	3462
886.15	3332
886.275	3359
886.4	3241
886.525	3253
886.65	3241
886.775	3287
886.9	3492
887.025	3606
887.149	3378
887.274	3302
887.399	3188
887.523	3169
887.648	3173
887.773	3188
887.897	3367
888.021	3386
888.146	3264
888.27	3439
888.395	3553
888.519	3424
888.643	3428
888.767	3439
888.891	3317
889.015	3203
889.139	3268
889.263	3268
889.387	3405
889.511	3481
889.635	3428
889.759	3256
889.883	3298
890.006	3370
890.13	3462
890.254	3275
890.377	3325
890.501	3199
890.624	3131
890.748	3313
890.871	3138
890.995	3104
891.118	3089
891.241	3176
891.364	3218
891.488	3329
891.611	3192
891.734	3199
891.857	3264
891.98	3241
892.103	3321
892.226	3268
892.349	3199
892.471	3123
892.594	3226
892.717	3272
892.839	3245
892.962	3302
893.085	3340
893.207	3283
893.33	3108
893.452	3199
893.575	3340
893.697	3245
893.819	3454
893.941	3507
894.064	3416
894.186	3264
894.308	3272
894.43	3412
894.552	3549
894.674	3424
894.796	3253
894.918	3298
895.04	3279
895.161	3412
895.283	3378
895.405	3325
895.526	3321
895.648	3450
895.769	3420
895.891	3393
896.012	3454
896.134	3439
896.255	3420
896.376	3355
896.498	3389
896.619	3386
896.74	3340
896.861	3405
896.982	3728
897.103	3835
897.224	3572
897.345	3534
897.466	3439
897.587	3485
897.708	3648
897.828	3504
897.949	3466
898.07	3332
898.19	3389
898.311	3595
898.431	3416
898.552	3507
898.672	3644
898.792	3561
898.913	3538
899.033	3409
899.153	3291
899.273	3226
899.393	3268
899.513	3272
899.633	3317
899.753	3325
899.873	3294
899.993	3393
900.113	3321
900.232	3363
900.352	3310
900.472	3279
900.591	3161
900.711	3272
900.83	3249
900.95	3386
901.069	3469
901.189	3336
901.308	3165
901.427	3108
901.546	3176
901.665	3237
901.784	3256
901.904	3211
902.023	3150
902.141	3017
902.26	2979
902.379	3119
902.498	3066
902.617	3055
902.735	3180
902.854	3207
902.973	3192
903.091	3017
903.21	3043
903.328	3104
903.446	3089
903.565	3070
903.683	3188
903.801	3146
903.919	3237
904.038	3230
904.156	3135
904.274	3237
904.392	3226
904.51	3245
904.627	3310
904.745	3435
904.863	3481
904.981	3260
905.098	3188
905.216	3241
905.334	3279
905.451	3279
905.569	3302
905.686	3405
905.803	3450
905.921	3298
906.038	3382
906.155	3317
906.272	3245
906.389	3310
906.506	3222
906.623	3226
906.74	3256
906.857	3203
906.974	3233
907.091	3431
907.208	3515
907.324	3473
907.441	3397
907.557	3218
907.674	3211
907.79	3226
907.907	3283
908.023	3374
908.139	3370
908.256	3348
908.372	3351
908.488	3336
908.604	3264
908.72	3260
908.836	3298
908.952	3272
909.068	3386
909.184	3477
909.3	3416
909.415	3500
909.531	3458
909.647	3283
909.762	3287
909.878	3313
909.993	3397
910.108	3359
910.224	3397
910.339	3420
910.454	3351
910.57	3344
910.685	3245
910.8	3633
910.915	3580
911.03	3466
911.145	3329
911.259	3287
911.374	3363
911.489	3287
911.604	3237
911.718	3165
911.833	3195
911.947	3104
912.062	2975
912.176	3211
912.291	3256
912.405	3245
912.519	3477
912.633	3519
912.748	3363
912.862	3348
912.976	3211
913.09	3119
913.204	3173
913.318	3256
913.431	3359
913.545	3359
913.659	3469
913.772	3401
913.886	3272
914	3214
914.113	3378
914.226	3416
914.34	3409
914.453	3230
914.566	3469
914.68	3344
914.793	3317
914.906	3157
915.019	3176
915.132	3127
915.245	3199
915.358	3253
915.47	3245
915.583	3336
915.696	3370
915.809	3443
915.921	3473
916.034	3268
916.146	3317
916.259	3249
916.371	3431
916.483	3412
916.595	3332
916.708	3386
916.82	3389
916.932	3370
917.044	3401
917.156	3374
917.268	3253
917.38	3313
917.491	3336
917.603	3378
917.715	3500
917.826	3511
917.938	3393
918.049	3287
918.161	3504
918.272	3587
918.384	3614
918.495	3488
918.606	3405
918.717	3310
918.828	3405
918.939	3458
919.05	3321
919.161	3367
919.272	3222
919.383	3302
919.494	3515
919.604	3682
919.715	3500
919.826	3466
919.936	3481
920.047	3610
920.157	3587
920.267	3785
920.378	3648
920.488	3591
920.598	3857
920.708	3949
920.818	3827
920.928	3846
921.038	4071
921.148	4032
921.258	3747
921.368	3637
921.477	3633
921.587	3599
921.697	3473
921.806	3667
921.916	3595
922.025	3401
922.134	3382
922.244	3351
922.353	3481
922.462	3279
922.571	3283
922.68	3150
922.789	3100
922.898	3138
923.007	3142
923.116	3241
923.224	3195
923.333	3203
923.442	3138
923.55	3119
923.659	3176
923.767	3260
923.876	3119
923.984	3249
924.092	3135
924.201	3233
924.309	3253
924.417	3298
924.525	3211
924.633	3264
924.741	4173
924.849	3093
924.956	3302
925.064	3104
925.172	3066
925.279	3074
925.387	3195
925.494	3188
925.602	3370
925.709	3370
925.816	3264
925.924	3317
926.031	3397
926.138	3378
926.245	3386
926.352	3272
926.459	3450
926.566	3477
926.673	3389
926.779	3272
926.886	3272
926.993	3176
927.099	3169
927.206	3138
927.312	3184
927.419	3272
927.525	3272
927.631	3291
927.737	3176
927.843	3138
927.95	3055
928.056	3154
928.162	3230
928.267	3302
928.373	3896
928.479	3351
928.585	3100
928.69	3245
928.796	3317
928.901	3199
929.007	3039
929.112	3214
929.218	3176
929.323	3184
929.428	3203
929.533	3351
929.638	3131
929.743	3195
929.848	3291
929.953	3241
930.058	3188
930.163	3017
930.267	3017
930.372	3233
930.477	3055
930.581	3382
930.685	3184
930.79	3104
930.894	3184
930.998	3119
931.103	3317
931.207	3024
931.311	3013
931.415	2963
931.519	2811
931.623	2853
