Data from test_V78500241_361.txt Node
Date: Fri Mar 25 16:17:42 CST 2022
User: usil
Spectrometer: V785-0024
Trigger mode: 0
Integration Time (sec): 4.000000E-1
Scans to average: 1
Nonlinearity correction enabled: false
Boxcar width: 0
Storing dark spectrum: false
XAxis mode: Wavelengths
Number of Pixels in Spectrum: 1024
>>>>>Begin Spectral Data<<<<<
801.071	2914
801.214	2960
801.356	2933
801.499	2906
801.641	2845
801.783	2956
801.926	3077
802.068	3005
802.211	3013
802.353	3055
802.496	2986
802.638	3051
802.78	3024
802.923	3089
803.065	2998
803.208	2922
803.35	2929
803.492	2910
803.635	2963
803.777	2792
803.919	2887
804.061	3180
804.204	2963
804.346	2891
804.488	2834
804.63	2971
804.773	2868
804.915	2902
805.057	3051
805.199	2952
805.341	2982
805.483	3055
805.626	3001
805.768	3005
805.91	3081
806.052	3119
806.194	3058
806.336	3233
806.478	3043
806.62	2963
806.762	2982
806.904	3089
807.046	3176
807.188	2971
807.33	2941
807.472	2998
807.614	2918
807.756	3013
807.898	2910
808.04	2861
808.182	3001
808.324	2952
808.465	2910
808.607	2880
808.749	2834
808.891	2872
809.033	2971
809.174	3036
809.316	2914
809.458	2891
809.6	2769
809.741	2815
809.883	2781
810.025	2853
810.166	2849
810.308	2842
810.45	2811
810.591	2754
810.733	2781
810.875	2838
811.016	2785
811.158	2781
811.299	2807
811.441	2979
811.582	2937
811.724	2849
811.865	2857
812.007	2914
812.148	2880
812.29	2853
812.431	2925
812.573	2922
812.714	2952
812.855	3043
812.997	3047
813.138	3100
813.279	3017
813.421	2975
813.562	2944
813.703	2899
813.845	2925
813.986	2758
814.127	2739
814.268	2792
814.41	2819
814.551	2838
814.692	2910
814.833	2781
814.974	2891
815.115	2971
815.256	2819
815.397	2815
815.539	2883
815.68	2762
815.821	2800
815.962	2944
816.103	2902
816.244	2834
816.385	2880
816.526	2982
816.666	2899
816.807	2727
816.948	2838
817.089	2960
817.23	2815
817.371	2773
817.512	2834
817.653	2857
817.793	2857
817.934	2876
818.075	2967
818.216	2963
818.356	3028
818.497	2876
818.638	2792
818.778	2830
818.919	2781
819.06	2766
819.2	2876
819.341	2777
819.481	2807
819.622	2899
819.762	3097
819.903	3032
820.043	2929
820.184	2914
820.324	2887
820.465	3043
820.605	3036
820.746	2998
820.886	2937
821.026	3104
821.167	3150
821.307	3283
821.447	3287
821.588	3260
821.728	3249
821.868	3176
822.008	3138
822.149	3188
822.289	3253
822.429	3081
822.569	3100
822.709	3180
822.849	3070
822.99	3119
823.13	3195
823.27	3218
823.41	3116
823.55	3173
823.69	3161
823.83	3230
823.97	3127
824.11	3070
824.25	3039
824.389	3116
824.529	3169
824.669	3116
824.809	3233
824.949	3313
825.089	3256
825.228	3222
825.368	3070
825.508	2975
825.648	3001
825.787	3047
825.927	3058
826.067	2994
826.206	3005
826.346	3089
826.485	3104
826.625	3150
826.765	3310
826.904	3218
827.044	3013
827.183	2975
827.323	2906
827.462	3017
827.601	2956
827.741	2963
827.88	2998
828.02	2922
828.159	3043
828.298	3055
828.437	3161
828.577	3081
828.716	3287
828.855	3119
828.994	2982
829.134	2944
829.273	2990
829.412	2906
829.551	2925
829.69	2914
829.829	2998
829.968	3180
830.107	3013
830.246	3077
830.385	2967
830.524	2925
830.663	2876
830.802	2754
830.941	2708
831.08	2731
831.219	2785
831.357	2777
831.496	3001
831.635	2750
831.774	2689
831.913	2674
832.051	2610
832.19	2629
832.329	2708
832.467	2579
832.606	2530
832.744	2621
832.883	2629
833.022	2613
833.16	2693
833.299	2686
833.437	2746
833.576	2750
833.714	2758
833.852	2785
833.991	2815
834.129	2830
834.267	2845
834.406	2853
834.544	2876
834.682	2906
834.821	2906
834.959	3097
835.097	2929
835.235	3131
835.373	3047
835.511	3093
835.65	3020
835.788	3017
835.926	2895
836.064	2815
836.202	2887
836.34	3123
836.478	3150
836.615	3097
836.753	3157
836.891	3241
837.029	3188
837.167	3108
837.305	3066
837.443	3081
837.58	2979
837.718	3192
837.856	3123
837.993	3077
838.131	3135
838.269	3142
838.406	3150
838.544	3119
838.681	3020
838.819	2979
838.956	2834
839.094	2891
839.231	2979
839.369	3062
839.506	3424
839.643	3237
839.781	2998
839.918	2990
840.055	3093
840.193	3066
840.33	3093
840.467	3138
840.604	3203
840.742	3424
840.879	3085
841.016	3066
841.153	3116
841.29	3332
841.427	3397
841.564	3279
841.701	3329
841.838	3260
841.975	3226
842.112	3245
842.249	3097
842.385	3055
842.522	3279
842.659	3131
842.796	3089
842.933	3116
843.069	3081
843.206	3077
843.343	3207
843.479	3157
843.616	3161
843.752	2933
843.889	2876
844.025	3150
844.162	2891
844.298	3093
844.435	2998
844.571	2960
844.708	3093
844.844	3188
844.98	3241
845.117	3207
845.253	3066
845.389	3043
845.525	3119
845.661	3154
845.798	3047
845.934	3157
846.07	3081
846.206	3268
846.342	3317
846.478	3268
846.614	3135
846.75	3089
846.886	3047
847.022	3249
847.158	3154
847.294	3222
847.429	3306
847.565	3249
847.701	3526
847.837	3104
847.972	3013
848.108	3211
848.244	3142
848.379	3013
848.515	2979
848.65	2967
848.786	2990
848.921	3066
849.057	3116
849.192	3138
849.328	3093
849.463	3165
849.598	3058
849.734	3058
849.869	3024
850.004	2979
850.14	2998
850.275	2918
850.41	2876
850.545	2933
850.68	2937
850.815	2963
850.95	3005
851.085	3237
851.22	3116
851.355	3070
851.49	2979
851.625	3005
851.76	3028
851.895	2944
852.03	2895
852.165	3062
852.299	3116
852.434	3199
852.569	3218
852.703	3184
852.838	3268
852.973	3389
853.107	3332
853.242	3199
853.376	3116
853.511	2982
853.645	3100
853.78	3233
853.914	3131
854.048	3123
854.183	3112
854.317	3176
854.451	3348
854.585	3135
854.72	3108
854.854	3253
854.988	3085
855.122	3104
855.256	3005
855.39	3116
855.524	3253
855.658	3218
855.792	3150
855.926	3222
856.06	3283
856.194	3294
856.327	3195
856.461	3097
856.595	3131
856.729	3150
856.862	3268
856.996	3142
857.13	3233
857.263	3260
857.397	3317
857.53	3214
857.664	3222
857.797	3275
857.931	3291
858.064	3173
858.197	3214
858.331	3169
858.464	3146
858.597	3032
858.731	3135
858.864	3131
858.997	3135
859.13	3146
859.263	3222
859.396	3214
859.529	3138
859.662	3097
859.795	3058
859.928	3131
860.061	3306
860.194	3325
860.327	3142
860.46	3123
860.592	3283
860.725	3283
860.858	3287
860.99	3127
861.123	3077
861.256	3051
861.388	3195
861.521	3873
861.653	3032
861.786	3024
861.918	2998
862.05	3089
862.183	3123
862.315	3138
862.447	3180
862.58	3119
862.712	2960
862.844	2906
862.976	3024
863.108	3043
863.24	3439
863.372	2925
863.504	2986
863.636	2952
863.768	3055
863.9	3028
864.032	2937
864.164	3028
864.296	3032
864.428	3119
864.559	3135
864.691	3093
864.823	3070
864.954	3062
865.086	3074
865.217	3001
865.349	3024
865.48	3001
865.612	3043
865.743	3119
865.875	2990
866.006	2914
866.137	2967
866.269	2952
866.4	2998
866.531	2975
866.662	2895
866.793	2956
866.924	2918
867.055	3005
867.186	2952
867.317	2960
867.448	2880
867.579	2864
867.71	2891
867.841	2834
867.972	2948
868.103	2922
868.233	2906
868.364	2902
868.495	2944
868.625	3135
868.756	3173
868.886	2975
869.017	3058
869.147	3195
869.278	3173
869.408	3055
869.539	3066
869.669	3135
869.799	3077
869.929	3135
870.06	3123
870.19	3351
870.32	3332
870.45	3329
870.58	3355
870.71	3462
870.84	3450
870.97	3302
871.1	3268
871.23	3538
871.36	3462
871.489	3363
871.619	3412
871.749	3458
871.879	3454
872.008	3488
872.138	3431
872.267	3313
872.397	3135
872.526	3157
872.656	3013
872.785	3100
872.915	3287
873.044	3344
873.173	3256
873.303	3256
873.432	3233
873.561	3313
873.69	3157
873.819	3169
873.948	3203
874.077	3135
874.206	3062
874.335	3081
874.464	3214
874.593	3348
874.722	3253
874.851	3420
874.979	3386
875.108	3355
875.237	3245
875.365	3180
875.494	3195
875.623	3256
875.751	3081
875.88	3127
876.008	3203
876.136	3245
876.265	3424
876.393	3542
876.521	3424
876.65	3382
876.778	3321
876.906	3272
877.034	3230
877.162	3268
877.29	3176
877.418	3249
877.546	3287
877.674	3230
877.802	3230
877.93	3245
878.058	3131
878.185	3089
878.313	3218
878.441	3283
878.568	3089
878.696	3192
878.824	3256
878.951	3325
879.079	3447
879.206	3652
879.333	3462
879.461	3393
879.588	3325
879.715	3523
879.842	3603
879.97	3401
880.097	3195
880.224	3116
880.351	3188
880.478	3214
880.605	3256
880.732	3226
880.859	3511
880.986	3283
881.112	3329
881.239	3207
881.366	3119
881.493	3066
881.619	3051
881.746	3112
881.872	3081
881.999	3119
882.125	3184
882.252	3283
882.378	3355
882.505	3466
882.631	3298
882.757	3180
882.883	3233
883.01	3214
883.136	3146
883.262	3085
883.388	3142
883.514	3344
883.64	3382
883.766	3348
883.892	3199
884.018	3253
884.143	3424
884.269	3523
884.395	3237
884.52	3180
884.646	3195
884.772	3135
884.897	3123
885.023	3207
885.148	3317
885.274	3458
885.399	3412
885.524	3287
885.65	3275
885.775	3336
885.9	3287
886.025	3450
886.15	3412
886.275	3306
886.4	3253
886.525	3306
886.65	3291
886.775	3268
886.9	3515
887.025	3679
887.149	3416
887.274	3256
887.399	3199
887.523	3230
887.648	3214
887.773	3245
887.897	3401
888.021	3416
888.146	3317
888.27	3450
888.395	3538
888.519	3481
888.643	3462
888.767	3492
888.891	3317
889.015	3233
889.139	3317
889.263	3268
889.387	3401
889.511	3542
889.635	3439
889.759	3275
889.883	3294
890.006	3401
890.13	3515
890.254	3336
890.377	3340
890.501	3230
890.624	3222
890.748	3306
890.871	3169
890.995	3142
891.118	3070
891.241	3184
891.364	3214
891.488	3344
891.611	3192
891.734	3233
891.857	3279
891.98	3180
892.103	3355
892.226	3321
892.349	3249
892.471	3169
892.594	3245
892.717	3294
892.839	3245
892.962	3279
893.085	3370
893.207	3332
893.33	3195
893.452	3230
893.575	3382
893.697	3253
893.819	3504
893.941	3538
894.064	3431
894.186	3283
894.308	3272
894.43	3428
894.552	3572
894.674	3439
894.796	3283
894.918	3306
895.04	3264
895.161	3447
895.283	3439
895.405	3348
895.526	3393
895.648	3416
895.769	3447
895.891	3454
896.012	3507
896.134	3496
896.255	3458
896.376	3416
896.498	3348
896.619	3431
896.74	3367
896.861	3416
896.982	3667
897.103	3842
897.224	3618
897.345	3530
897.466	3458
897.587	3557
897.708	3652
897.828	3568
897.949	3412
898.07	3344
898.19	3439
898.311	3614
898.431	3515
898.552	3469
898.672	3618
898.792	3622
898.913	3511
899.033	3405
899.153	3245
899.273	3203
899.393	3294
899.513	3332
899.633	3287
899.753	3317
899.873	3313
899.993	3374
900.113	3359
900.232	3401
900.352	3355
900.472	3310
900.591	3203
900.711	3275
900.83	3268
900.95	3409
901.069	3488
901.189	3370
901.308	3176
901.427	3123
901.546	3176
901.665	3294
901.784	3359
901.904	3222
902.023	3173
902.141	3020
902.26	2990
902.379	3135
902.498	3066
902.617	3058
902.735	3214
902.854	3233
902.973	3195
903.091	3051
903.21	3055
903.328	3142
903.446	3127
903.565	3051
903.683	3207
903.801	3119
903.919	3214
904.038	3275
904.156	3161
904.274	3294
904.392	3287
904.51	3313
904.627	3294
904.745	3447
904.863	3462
904.981	3275
905.098	3173
905.216	3275
905.334	3291
905.451	3348
905.569	3329
905.686	3481
905.803	3454
905.921	3302
906.038	3450
906.155	3348
906.272	3291
906.389	3313
906.506	3222
906.623	3230
906.74	3321
906.857	3233
906.974	3199
907.091	3447
907.208	3599
907.324	3454
907.441	3397
907.557	3230
907.674	3230
907.79	3226
907.907	3313
908.023	3409
908.139	3397
908.256	3306
908.372	3386
908.488	3378
908.604	3272
908.72	3230
908.836	3287
908.952	3256
909.068	3329
909.184	3542
909.3	3401
909.415	3466
909.531	3477
909.647	3291
909.762	3321
909.878	3272
909.993	3378
910.108	3355
910.224	3351
910.339	3393
910.454	3321
910.57	3302
910.685	3226
910.8	3595
910.915	3587
911.03	3454
911.145	3272
911.259	3287
911.374	3291
911.489	3272
911.604	3211
911.718	3097
911.833	3188
911.947	3028
912.062	2963
912.176	3195
912.291	3169
912.405	3192
912.519	3424
912.633	3488
912.748	3374
912.862	3283
912.976	3192
913.09	3112
913.204	3135
913.318	3264
913.431	3336
913.545	3363
913.659	3397
913.772	3367
913.886	3249
914	3207
914.113	3348
914.226	3428
914.34	3355
914.453	3233
914.566	3393
914.68	3340
914.793	3283
914.906	3150
915.019	3131
915.132	3081
915.245	3142
915.358	3195
915.47	3230
915.583	3294
915.696	3329
915.809	3397
915.921	3420
916.034	3264
916.146	3249
916.259	3233
916.371	3409
916.483	3359
916.595	3279
916.708	3329
916.82	3313
916.932	3359
917.044	3363
917.156	3370
917.268	3245
917.38	3321
917.491	3249
917.603	3378
917.715	3435
917.826	3458
917.938	3393
918.049	3253
918.161	3420
918.272	3568
918.384	3603
918.495	3534
918.606	3317
918.717	3268
918.828	3370
918.939	3439
919.05	3298
919.161	3374
919.272	3169
919.383	3283
919.494	3488
919.604	3690
919.715	3469
919.826	3378
919.936	3462
920.047	3564
920.157	3549
920.267	3755
920.378	3614
920.488	3538
920.598	3819
920.708	3945
920.818	3846
920.928	3823
921.038	4017
921.148	3964
921.258	3717
921.368	3625
921.477	3610
921.587	3580
921.697	3462
921.806	3622
921.916	3542
922.025	3374
922.134	3389
922.244	3298
922.353	3412
922.462	3245
922.571	3233
922.68	3127
922.789	3070
922.898	3146
923.007	3104
923.116	3218
923.224	3142
923.333	3195
923.442	3142
923.55	3108
923.659	3165
923.767	3214
923.876	3123
923.984	3272
924.092	3074
924.201	3195
924.309	3214
924.417	3230
924.525	3207
924.633	3291
924.741	4215
924.849	3058
924.956	3294
925.064	3085
925.172	3039
925.279	3081
925.387	3188
925.494	3203
925.602	3374
925.709	3306
925.816	3165
925.924	3302
926.031	3374
926.138	3348
926.245	3382
926.352	3241
926.459	3435
926.566	3473
926.673	3287
926.779	3279
926.886	3283
926.993	3150
927.099	3161
927.206	3138
927.312	3081
927.419	3226
927.525	3199
927.631	3256
927.737	3138
927.843	3119
927.95	3032
928.056	3138
928.162	3161
928.267	3218
928.373	3876
928.479	3332
928.585	3074
928.69	3264
928.796	3294
928.901	3169
929.007	3039
929.112	3207
929.218	3176
929.323	3157
929.428	3165
929.533	3329
929.638	3119
929.743	3195
929.848	3245
929.953	3230
930.058	3104
930.163	2986
930.267	3097
930.372	3192
930.477	3020
930.581	3317
930.685	3169
930.79	3062
930.894	3081
930.998	3093
931.103	3302
931.207	2971
931.311	2982
931.415	2902
931.519	2773
931.623	2800
