Data from test_V78500241_76.txt Node
Date: Fri Mar 25 16:15:43 CST 2022
User: usil
Spectrometer: V785-0024
Trigger mode: 0
Integration Time (sec): 4.000000E-1
Scans to average: 1
Nonlinearity correction enabled: false
Boxcar width: 0
Storing dark spectrum: false
XAxis mode: Wavelengths
Number of Pixels in Spectrum: 1024
>>>>>Begin Spectral Data<<<<<
801.071	2910
801.214	2960
801.356	2910
801.499	2925
801.641	2891
801.783	2967
801.926	3089
802.068	2990
802.211	2982
802.353	3074
802.496	2967
802.638	3058
802.78	3028
802.923	3074
803.065	3043
803.208	2937
803.35	2952
803.492	2963
803.635	2952
803.777	2773
803.919	2899
804.061	3222
804.204	2941
804.346	2895
804.488	2864
804.63	3017
804.773	2929
804.915	2952
805.057	3161
805.199	2956
805.341	3001
805.483	3074
805.626	3017
805.768	2975
805.91	3089
806.052	3146
806.194	3077
806.336	3253
806.478	3009
806.62	2963
806.762	2979
806.904	3081
807.046	3184
807.188	3013
807.33	2956
807.472	3028
807.614	2963
807.756	3013
807.898	2998
808.04	2922
808.182	2990
808.324	2994
808.465	2902
808.607	2906
808.749	2792
808.891	2849
809.033	2982
809.174	3017
809.316	2925
809.458	2922
809.6	2796
809.741	2842
809.883	2823
810.025	2853
810.166	2883
810.308	2861
810.45	2861
810.591	2807
810.733	2731
810.875	2845
811.016	2785
811.158	2762
811.299	2826
811.441	2914
811.582	2929
811.724	2853
811.865	2868
812.007	2937
812.148	2902
812.29	2883
812.431	2906
812.573	2941
812.714	2948
812.855	3039
812.997	3055
813.138	3131
813.279	3039
813.421	3005
813.562	3058
813.703	2910
813.845	2891
813.986	2800
814.127	2731
814.268	2849
814.41	2853
814.551	2845
814.692	2880
814.833	2830
814.974	2922
815.115	3005
815.256	2834
815.397	2842
815.539	2876
815.68	2807
815.821	2853
815.962	2960
816.103	2944
816.244	2883
816.385	2899
816.526	3005
816.666	2960
816.807	2792
816.948	2872
817.089	2952
817.23	2857
817.371	2804
817.512	2796
817.653	2872
817.793	2849
817.934	2883
818.075	2990
818.216	3005
818.356	3051
818.497	2868
818.638	2807
818.778	2834
818.919	2849
819.06	2777
819.2	2914
819.341	2830
819.481	2815
819.622	2960
819.762	3100
819.903	3081
820.043	2960
820.184	2922
820.324	2963
820.465	3024
820.605	3039
820.746	3058
820.886	2982
821.026	3127
821.167	3211
821.307	3283
821.447	3325
821.588	3294
821.728	3253
821.868	3211
822.008	3097
822.149	3188
822.289	3268
822.429	3112
822.569	3112
822.709	3199
822.849	3081
822.99	3097
823.13	3161
823.27	3207
823.41	3157
823.55	3184
823.69	3207
823.83	3199
823.97	3146
824.11	3043
824.25	3039
824.389	3142
824.529	3123
824.669	3093
824.809	3173
824.949	3355
825.089	3222
825.228	3199
825.368	3005
825.508	2982
825.648	3039
825.787	3036
825.927	3024
826.067	3013
826.206	2975
826.346	3062
826.485	3112
826.625	3161
826.765	3279
826.904	3241
827.044	3058
827.183	2960
827.323	2925
827.462	2986
827.601	2922
827.741	2948
827.88	2967
828.02	2910
828.159	2994
828.298	3055
828.437	3146
828.577	3051
828.716	3291
828.855	3100
828.994	2941
829.134	2902
829.273	2956
829.412	2883
829.551	2902
829.69	2910
829.829	3017
829.968	3192
830.107	3028
830.246	3051
830.385	2929
830.524	2891
830.663	2876
830.802	2766
830.941	2667
831.08	2659
831.219	2781
831.357	2762
831.496	2971
831.635	2758
831.774	2663
831.913	2678
832.051	2571
832.19	2598
832.329	2720
832.467	2545
832.606	2473
832.744	2613
832.883	2579
833.022	2606
833.16	2621
833.299	2720
833.437	2727
833.576	2682
833.714	2716
833.852	2720
833.991	2792
834.129	2861
834.267	2838
834.406	2819
834.544	2891
834.682	2853
834.821	2887
834.959	3070
835.097	2883
835.235	3074
835.373	3017
835.511	3032
835.65	3001
835.788	3009
835.926	2804
836.064	2815
836.202	2895
836.34	3127
836.478	3192
836.615	3081
836.753	3180
836.891	3233
837.029	3192
837.167	3112
837.305	3127
837.443	3032
837.58	2979
837.718	3135
837.856	3070
837.993	3036
838.131	3173
838.269	3165
838.406	3119
838.544	3100
838.681	2982
838.819	2925
838.956	2864
839.094	2857
839.231	2937
839.369	3070
839.506	3420
839.643	3256
839.781	3013
839.918	2963
840.055	3062
840.193	3066
840.33	3119
840.467	3135
840.604	3161
840.742	3424
840.879	3085
841.016	3066
841.153	3157
841.29	3363
841.427	3344
841.564	3260
841.701	3321
841.838	3241
841.975	3203
842.112	3253
842.249	3081
842.385	3108
842.522	3306
842.659	3127
842.796	3066
842.933	3108
843.069	3066
843.206	3077
843.343	3226
843.479	3127
843.616	3176
843.752	2899
843.889	2925
844.025	3116
844.162	2880
844.298	3131
844.435	2937
844.571	2944
844.708	3074
844.844	3214
844.98	3233
845.117	3214
845.253	3047
845.389	3020
845.525	3119
845.661	3142
845.798	3055
845.934	3154
846.07	3074
846.206	3241
846.342	3313
846.478	3283
846.614	3093
846.75	3093
846.886	3032
847.022	3275
847.158	3169
847.294	3268
847.429	3218
847.565	3218
847.701	3492
847.837	3051
847.972	3005
848.108	3203
848.244	3173
848.379	2975
848.515	2956
848.65	2929
848.786	2975
848.921	3043
849.057	3150
849.192	3180
849.328	3085
849.463	3135
849.598	3066
849.734	3058
849.869	2998
850.004	2944
850.14	2971
850.275	2925
850.41	2868
850.545	2899
850.68	2933
850.815	2960
850.95	3009
851.085	3233
851.22	3135
851.355	3051
851.49	3024
851.625	3013
851.76	3062
851.895	2975
852.03	2944
852.165	3043
852.299	3116
852.434	3214
852.569	3173
852.703	3218
852.838	3287
852.973	3382
853.107	3348
853.242	3157
853.376	3097
853.511	2952
853.645	3085
853.78	3272
853.914	3173
854.048	3146
854.183	3070
854.317	3173
854.451	3298
854.585	3146
854.72	3127
854.854	3222
854.988	3123
855.122	3123
855.256	3070
855.39	3165
855.524	3264
855.658	3211
855.792	3195
855.926	3199
856.06	3199
856.194	3291
856.327	3150
856.461	3119
856.595	3077
856.729	3097
856.862	3218
856.996	3233
857.13	3211
857.263	3203
857.397	3268
857.53	3157
857.664	3253
857.797	3256
857.931	3260
858.064	3199
858.197	3260
858.331	3157
858.464	3138
858.597	3028
858.731	3142
858.864	3146
858.997	3112
859.13	3195
859.263	3192
859.396	3226
859.529	3089
859.662	3093
859.795	3085
859.928	3154
860.061	3298
860.194	3294
860.327	3165
860.46	3142
860.592	3275
860.725	3256
860.858	3306
860.99	3123
861.123	3085
861.256	3077
861.388	3157
861.521	3774
861.653	3047
861.786	3009
861.918	3051
862.05	3108
862.183	3116
862.315	3150
862.447	3222
862.58	3108
862.712	2956
862.844	2899
862.976	3055
863.108	3070
863.24	3313
863.372	2922
863.504	2967
863.636	3013
863.768	3066
863.9	3020
864.032	2910
864.164	2967
864.296	3005
864.428	3119
864.559	3119
864.691	3104
864.823	3138
864.954	3077
865.086	3077
865.217	3005
865.349	2967
865.48	3009
865.612	3036
865.743	3184
865.875	2986
866.006	2925
866.137	2998
866.269	2971
866.4	2922
866.531	2929
866.662	2902
866.793	2910
866.924	2941
867.055	2982
867.186	2929
867.317	2929
867.448	2891
867.579	2849
867.71	2872
867.841	2849
867.972	2910
868.103	2941
868.233	2876
868.364	2899
868.495	2922
868.625	3165
868.756	3218
868.886	3039
869.017	3043
869.147	3176
869.278	3222
869.408	3074
869.539	3058
869.669	3104
869.799	3089
869.929	3157
870.06	3119
870.19	3378
870.32	3317
870.45	3336
870.58	3397
870.71	3458
870.84	3515
870.97	3344
871.1	3256
871.23	3504
871.36	3500
871.489	3291
871.619	3420
871.749	3424
871.879	3492
872.008	3557
872.138	3397
872.267	3275
872.397	3169
872.526	3131
872.656	3047
872.785	3108
872.915	3272
873.044	3344
873.173	3237
873.303	3275
873.432	3264
873.561	3260
873.69	3123
873.819	3176
873.948	3233
874.077	3116
874.206	3123
874.335	3119
874.464	3218
874.593	3386
874.722	3237
874.851	3420
874.979	3351
875.108	3336
875.237	3237
875.365	3199
875.494	3165
875.623	3256
875.751	3070
875.88	3169
876.008	3253
876.136	3260
876.265	3363
876.393	3564
876.521	3450
876.65	3473
876.778	3389
876.906	3294
877.034	3211
877.162	3245
877.29	3211
877.418	3313
877.546	3241
877.674	3291
877.802	3275
877.93	3298
878.058	3165
878.185	3119
878.313	3241
878.441	3207
878.568	3089
878.696	3184
878.824	3260
878.951	3313
879.079	3469
879.206	3629
879.333	3504
879.461	3386
879.588	3405
879.715	3542
879.842	3603
879.97	3420
880.097	3176
880.224	3150
880.351	3203
880.478	3245
880.605	3256
880.732	3203
880.859	3538
880.986	3355
881.112	3306
881.239	3211
881.366	3116
881.493	3066
881.619	3043
881.746	3089
881.872	3150
881.999	3135
882.125	3218
882.252	3256
882.378	3332
882.505	3450
882.631	3317
882.757	3188
882.883	3260
883.01	3237
883.136	3169
883.262	3127
883.388	3116
883.514	3336
883.64	3397
883.766	3310
883.892	3218
884.018	3283
884.143	3420
884.269	3545
884.395	3256
884.52	3211
884.646	3188
884.772	3138
884.897	3173
885.023	3249
885.148	3401
885.274	3439
885.399	3412
885.524	3321
885.65	3329
885.775	3348
885.9	3279
886.025	3447
886.15	3378
886.275	3310
886.4	3233
886.525	3313
886.65	3340
886.775	3294
886.9	3523
887.025	3644
887.149	3473
887.274	3268
887.399	3173
887.523	3195
887.648	3226
887.773	3233
887.897	3412
888.021	3431
888.146	3332
888.27	3443
888.395	3584
888.519	3481
888.643	3477
888.767	3492
888.891	3351
889.015	3302
889.139	3283
889.263	3291
889.387	3439
889.511	3561
889.635	3469
889.759	3340
889.883	3294
890.006	3447
890.13	3549
890.254	3325
890.377	3348
890.501	3260
890.624	3230
890.748	3336
890.871	3184
890.995	3100
891.118	3119
891.241	3199
891.364	3241
891.488	3351
891.611	3222
891.734	3260
891.857	3291
891.98	3264
892.103	3405
892.226	3268
892.349	3241
892.471	3165
892.594	3241
892.717	3298
892.839	3275
892.962	3340
893.085	3397
893.207	3348
893.33	3211
893.452	3241
893.575	3393
893.697	3264
893.819	3473
893.941	3534
894.064	3488
894.186	3298
894.308	3306
894.43	3500
894.552	3564
894.674	3511
894.796	3340
894.918	3340
895.04	3329
895.161	3439
895.283	3412
895.405	3310
895.526	3405
895.648	3431
895.769	3469
895.891	3477
896.012	3515
896.134	3515
896.255	3439
896.376	3389
896.498	3405
896.619	3439
896.74	3355
896.861	3416
896.982	3713
897.103	3880
897.224	3629
897.345	3553
897.466	3485
897.587	3538
897.708	3686
897.828	3584
897.949	3462
898.07	3397
898.19	3447
898.311	3591
898.431	3519
898.552	3572
898.672	3633
898.792	3591
898.913	3534
899.033	3435
899.153	3321
899.273	3264
899.393	3275
899.513	3363
899.633	3370
899.753	3393
899.873	3374
899.993	3405
900.113	3386
900.232	3443
900.352	3359
900.472	3344
900.591	3230
900.711	3302
900.83	3272
900.95	3443
901.069	3523
901.189	3363
901.308	3230
901.427	3154
901.546	3199
901.665	3332
901.784	3363
901.904	3260
902.023	3226
902.141	3017
902.26	3017
902.379	3192
902.498	3100
902.617	3093
902.735	3207
902.854	3306
902.973	3249
903.091	3039
903.21	3112
903.328	3142
903.446	3127
903.565	3116
903.683	3226
903.801	3154
903.919	3268
904.038	3310
904.156	3203
904.274	3298
904.392	3279
904.51	3344
904.627	3405
904.745	3466
904.863	3530
904.981	3294
905.098	3207
905.216	3241
905.334	3310
905.451	3363
905.569	3325
905.686	3492
905.803	3458
905.921	3302
906.038	3485
906.155	3405
906.272	3306
906.389	3344
906.506	3260
906.623	3279
906.74	3294
906.857	3169
906.974	3264
907.091	3481
907.208	3595
907.324	3500
907.441	3450
907.557	3256
907.674	3230
907.79	3264
907.907	3279
908.023	3401
908.139	3405
908.256	3370
908.372	3370
908.488	3378
908.604	3283
908.72	3279
908.836	3332
908.952	3325
909.068	3370
909.184	3500
909.3	3443
909.415	3519
909.531	3485
909.647	3336
909.762	3329
909.878	3313
909.993	3351
910.108	3310
910.224	3405
910.339	3443
910.454	3389
910.57	3367
910.685	3268
910.8	3610
910.915	3557
911.03	3416
911.145	3313
911.259	3317
911.374	3355
911.489	3329
911.604	3249
911.718	3142
911.833	3154
911.947	3055
912.062	2998
912.176	3195
912.291	3233
912.405	3207
912.519	3481
912.633	3511
912.748	3340
912.862	3332
912.976	3230
913.09	3085
913.204	3146
913.318	3272
913.431	3382
913.545	3401
913.659	3443
913.772	3378
913.886	3272
914	3230
914.113	3393
914.226	3462
914.34	3386
914.453	3253
914.566	3424
914.68	3348
914.793	3359
914.906	3214
915.019	3169
915.132	3081
915.245	3165
915.358	3222
915.47	3287
915.583	3298
915.696	3359
915.809	3466
915.921	3469
916.034	3302
916.146	3279
916.259	3253
916.371	3420
916.483	3428
916.595	3336
916.708	3359
916.82	3378
916.932	3363
917.044	3374
917.156	3416
917.268	3298
917.38	3336
917.491	3336
917.603	3386
917.715	3507
917.826	3466
917.938	3443
918.049	3283
918.161	3428
918.272	3637
918.384	3595
918.495	3526
918.606	3382
918.717	3317
918.828	3401
918.939	3462
919.05	3325
919.161	3370
919.272	3211
919.383	3329
919.494	3542
919.604	3732
919.715	3496
919.826	3435
919.936	3496
920.047	3618
920.157	3576
920.267	3816
920.378	3641
920.488	3618
920.598	3823
920.708	4013
920.818	3880
920.928	3880
921.038	4029
921.148	3994
921.258	3762
921.368	3656
921.477	3591
921.587	3618
921.697	3519
921.806	3682
921.916	3515
922.025	3412
922.134	3397
922.244	3344
922.353	3439
922.462	3302
922.571	3260
922.68	3157
922.789	3104
922.898	3195
923.007	3131
923.116	3233
923.224	3195
923.333	3214
923.442	3135
923.55	3169
923.659	3199
923.767	3211
923.876	3135
923.984	3298
924.092	3142
924.201	3226
924.309	3264
924.417	3313
924.525	3241
924.633	3260
924.741	4227
924.849	3070
924.956	3253
925.064	3146
925.172	3081
925.279	3142
925.387	3218
925.494	3241
925.602	3389
925.709	3348
925.816	3249
925.924	3313
926.031	3412
926.138	3359
926.245	3386
926.352	3310
926.459	3439
926.566	3523
926.673	3332
926.779	3272
926.886	3291
926.993	3222
927.099	3138
927.206	3097
927.312	3146
927.419	3310
927.525	3241
927.631	3302
927.737	3169
927.843	3138
927.95	3047
928.056	3184
928.162	3199
928.267	3256
928.373	3827
928.479	3317
928.585	3089
928.69	3260
928.796	3329
928.901	3253
929.007	3036
929.112	3245
929.218	3180
929.323	3180
929.428	3180
929.533	3348
929.638	3108
929.743	3203
929.848	3306
929.953	3207
930.058	3176
930.163	3039
930.267	3028
930.372	3245
930.477	3058
930.581	3344
930.685	3169
930.79	3085
930.894	3157
930.998	3119
931.103	3325
931.207	2982
931.311	2952
931.415	2922
931.519	2777
931.623	2823
