Data from test_V78500241_1168.txt Node
Date: Fri Mar 25 16:23:17 CST 2022
User: usil
Spectrometer: V785-0024
Trigger mode: 0
Integration Time (sec): 4.000000E-1
Scans to average: 1
Nonlinearity correction enabled: false
Boxcar width: 0
Storing dark spectrum: false
XAxis mode: Wavelengths
Number of Pixels in Spectrum: 1024
>>>>>Begin Spectral Data<<<<<
801.071	2902
801.214	2933
801.356	2849
801.499	2891
801.641	2857
801.783	2895
801.926	3020
802.068	2956
802.211	2986
802.353	3032
802.496	2948
802.638	3017
802.78	3032
802.923	3081
803.065	3009
803.208	2891
803.35	2895
803.492	2918
803.635	2929
803.777	2754
803.919	2834
804.061	3192
804.204	2952
804.346	2895
804.488	2864
804.63	3005
804.773	2883
804.915	2922
805.057	3058
805.199	2914
805.341	2963
805.483	3043
805.626	2994
805.768	2975
805.91	3089
806.052	3138
806.194	3055
806.336	3207
806.478	3051
806.62	2952
806.762	2975
806.904	3077
807.046	3135
807.188	3020
807.33	2906
807.472	2979
807.614	2872
807.756	2971
807.898	2956
808.04	2914
808.182	2963
808.324	2925
808.465	2861
808.607	2895
808.749	2823
808.891	2838
809.033	2982
809.174	2979
809.316	2887
809.458	2899
809.6	2758
809.741	2739
809.883	2743
810.025	2864
810.166	2872
810.308	2842
810.45	2857
810.591	2792
810.733	2727
810.875	2864
811.016	2781
811.158	2750
811.299	2800
811.441	2918
811.582	2891
811.724	2842
811.865	2800
812.007	2933
812.148	2887
812.29	2819
812.431	2910
812.573	2929
812.714	2948
812.855	3024
812.997	3036
813.138	3119
813.279	3005
813.421	2990
813.562	2937
813.703	2868
813.845	2891
813.986	2766
814.127	2739
814.268	2796
814.41	2826
814.551	2800
814.692	2876
814.833	2826
814.974	2887
815.115	2956
815.256	2845
815.397	2792
815.539	2876
815.68	2746
815.821	2807
815.962	2944
816.103	2933
816.244	2849
816.385	2830
816.526	2971
816.666	2906
816.807	2769
816.948	2883
817.089	2956
817.23	2872
817.371	2788
817.512	2819
817.653	2838
817.793	2819
817.934	2887
818.075	2986
818.216	3009
818.356	3036
818.497	2849
818.638	2785
818.778	2800
818.919	2773
819.06	2708
819.2	2887
819.341	2800
819.481	2800
819.622	2918
819.762	3081
819.903	3017
820.043	2925
820.184	2880
820.324	2902
820.465	3024
820.605	3024
820.746	3005
820.886	2902
821.026	3070
821.167	3131
821.307	3241
821.447	3237
821.588	3237
821.728	3203
821.868	3203
822.008	3077
822.149	3192
822.289	3226
822.429	3089
822.569	3062
822.709	3165
822.849	2998
822.99	3077
823.13	3154
823.27	3180
823.41	3093
823.55	3146
823.69	3188
823.83	3176
823.97	3066
824.11	3001
824.25	2963
824.389	3089
824.529	3077
824.669	3066
824.809	3180
824.949	3249
825.089	3230
825.228	3203
825.368	2990
825.508	2952
825.648	2937
825.787	3020
825.927	2990
826.067	2960
826.206	2941
826.346	3020
826.485	3070
826.625	3112
826.765	3230
826.904	3184
827.044	3001
827.183	2933
827.323	2883
827.462	3001
827.601	2910
827.741	2902
827.88	2937
828.02	2830
828.159	2979
828.298	3039
828.437	3112
828.577	3051
828.716	3245
828.855	3074
828.994	2902
829.134	2918
829.273	2918
829.412	2849
829.551	2861
829.69	2906
829.829	2986
829.968	3093
830.107	3013
830.246	3020
830.385	2880
830.524	2872
830.663	2807
830.802	2697
830.941	2625
831.08	2640
831.219	2724
831.357	2769
831.496	2948
831.635	2724
831.774	2674
831.913	2648
832.051	2568
832.19	2552
832.329	2674
832.467	2522
832.606	2469
832.744	2564
832.883	2545
833.022	2552
833.16	2648
833.299	2670
833.437	2667
833.576	2667
833.714	2758
833.852	2712
833.991	2746
834.129	2842
834.267	2823
834.406	2781
834.544	2838
834.682	2857
834.821	2853
834.959	3055
835.097	2895
835.235	3070
835.373	3001
835.511	2975
835.65	2937
835.788	2937
835.926	2834
836.064	2777
836.202	2830
836.34	3074
836.478	3150
836.615	3013
836.753	3112
836.891	3165
837.029	3150
837.167	3085
837.305	3062
837.443	3001
837.58	2933
837.718	3142
837.856	3055
837.993	3047
838.131	3135
838.269	3104
838.406	3100
838.544	3077
838.681	2948
838.819	2899
838.956	2800
839.094	2864
839.231	2895
839.369	2998
839.506	3382
839.643	3237
839.781	3020
839.918	2982
840.055	3055
840.193	3062
840.33	3039
840.467	3070
840.604	3127
840.742	3374
840.879	3032
841.016	3055
841.153	3131
841.29	3317
841.427	3329
841.564	3264
841.701	3310
841.838	3222
841.975	3154
842.112	3188
842.249	3074
842.385	3032
842.522	3275
842.659	3085
842.796	3070
842.933	3112
843.069	3036
843.206	3009
843.343	3150
843.479	3097
843.616	3081
843.752	2853
843.889	2880
844.025	3074
844.162	2883
844.298	3085
844.435	2941
844.571	2899
844.708	3036
844.844	3135
844.98	3245
845.117	3180
845.253	3070
845.389	3017
845.525	3074
845.661	3127
845.798	3013
845.934	3093
846.07	3028
846.206	3154
846.342	3291
846.478	3203
846.614	3077
846.75	3051
846.886	3017
847.022	3268
847.158	3131
847.294	3188
847.429	3237
847.565	3195
847.701	3473
847.837	3028
847.972	2982
848.108	3157
848.244	3150
848.379	2960
848.515	2937
848.65	2922
848.786	2952
848.921	2960
849.057	3104
849.192	3081
849.328	3036
849.463	3131
849.598	3039
849.734	3001
849.869	2967
850.004	2872
850.14	2975
850.275	2918
850.41	2823
850.545	2845
850.68	2922
850.815	2971
850.95	2933
851.085	3188
851.22	3085
851.355	3013
851.49	2910
851.625	2994
851.76	3013
851.895	2895
852.03	2883
852.165	3020
852.299	3100
852.434	3184
852.569	3116
852.703	3173
852.838	3279
852.973	3351
853.107	3329
853.242	3135
853.376	3077
853.511	2941
853.645	3028
853.78	3180
853.914	3131
854.048	3100
854.183	3093
854.317	3123
854.451	3264
854.585	3123
854.72	3070
854.854	3199
854.988	3047
855.122	3051
855.256	2963
855.39	3104
855.524	3264
855.658	3119
855.792	3135
855.926	3184
856.06	3199
856.194	3275
856.327	3161
856.461	3077
856.595	3085
856.729	3051
856.862	3214
856.996	3150
857.13	3192
857.263	3188
857.397	3272
857.53	3123
857.664	3142
857.797	3214
857.931	3237
858.064	3146
858.197	3226
858.331	3123
858.464	3081
858.597	3005
858.731	3081
858.864	3119
858.997	3028
859.13	3176
859.263	3150
859.396	3169
859.529	3058
859.662	3085
859.795	3043
859.928	3127
860.061	3253
860.194	3260
860.327	3119
860.46	3093
860.592	3176
860.725	3260
860.858	3245
860.99	3085
861.123	3081
861.256	3036
861.388	3116
861.521	3671
861.653	2982
861.786	3013
861.918	3024
862.05	3062
862.183	3047
862.315	3123
862.447	3184
862.58	3081
862.712	2941
862.844	2880
862.976	3020
863.108	2963
863.24	3283
863.372	2861
863.504	2994
863.636	2922
863.768	3017
863.9	2975
864.032	2895
864.164	2933
864.296	3009
864.428	3077
864.559	3100
864.691	3108
864.823	3081
864.954	3020
865.086	3028
865.217	2994
865.349	2956
865.48	2986
865.612	2986
865.743	3127
865.875	3013
866.006	2918
866.137	2952
866.269	2952
866.4	2948
866.531	2975
866.662	2895
866.793	2910
866.924	2864
867.055	2948
867.186	2876
867.317	2872
867.448	2796
867.579	2819
867.71	2811
867.841	2826
867.972	2868
868.103	2910
868.233	2883
868.364	2902
868.495	2872
868.625	3081
868.756	3142
868.886	2971
869.017	3017
869.147	3150
869.278	3161
869.408	3051
869.539	3032
869.669	3093
869.799	3013
869.929	3131
870.06	3116
870.19	3298
870.32	3268
870.45	3287
870.58	3370
870.71	3450
870.84	3424
870.97	3287
871.1	3253
871.23	3473
871.36	3420
871.489	3332
871.619	3412
871.749	3431
871.879	3405
872.008	3492
872.138	3329
872.267	3226
872.397	3131
872.526	3123
872.656	2998
872.785	3081
872.915	3230
873.044	3287
873.173	3188
873.303	3230
873.432	3237
873.561	3195
873.69	3146
873.819	3157
873.948	3165
874.077	3051
874.206	3055
874.335	3070
874.464	3184
874.593	3294
874.722	3241
874.851	3428
874.979	3348
875.108	3294
875.237	3165
875.365	3180
875.494	3150
875.623	3233
875.751	3093
875.88	3066
876.008	3176
876.136	3207
876.265	3332
876.393	3519
876.521	3409
876.65	3397
876.778	3325
876.906	3230
877.034	3195
877.162	3192
877.29	3161
877.418	3241
877.546	3256
877.674	3260
877.802	3260
877.93	3233
878.058	3150
878.185	3116
878.313	3188
878.441	3180
878.568	3085
878.696	3146
878.824	3249
878.951	3283
879.079	3443
879.206	3618
879.333	3412
879.461	3302
879.588	3344
879.715	3450
879.842	3572
879.97	3351
880.097	3154
880.224	3127
880.351	3146
880.478	3237
880.605	3203
880.732	3135
880.859	3450
880.986	3348
881.112	3310
881.239	3195
881.366	3043
881.493	3009
881.619	3013
881.746	3058
881.872	3085
881.999	3127
882.125	3154
882.252	3230
882.378	3272
882.505	3412
882.631	3253
882.757	3165
882.883	3195
883.01	3211
883.136	3169
883.262	3070
883.388	3127
883.514	3294
883.64	3355
883.766	3249
883.892	3173
884.018	3249
884.143	3412
884.269	3507
884.395	3173
884.52	3173
884.646	3154
884.772	3135
884.897	3093
885.023	3161
885.148	3367
885.274	3435
885.399	3363
885.524	3283
885.65	3249
885.775	3310
885.9	3291
886.025	3386
886.15	3355
886.275	3317
886.4	3211
886.525	3272
886.65	3283
886.775	3245
886.9	3428
887.025	3641
887.149	3386
887.274	3211
887.399	3169
887.523	3165
887.648	3150
887.773	3157
887.897	3367
888.021	3416
888.146	3317
888.27	3435
888.395	3530
888.519	3428
888.643	3443
888.767	3458
888.891	3313
889.015	3237
889.139	3272
889.263	3249
889.387	3412
889.511	3496
889.635	3428
889.759	3321
889.883	3325
890.006	3374
890.13	3454
890.254	3287
890.377	3325
890.501	3214
890.624	3142
890.748	3279
890.871	3195
890.995	3123
891.118	3085
891.241	3173
891.364	3192
891.488	3287
891.611	3131
891.734	3195
891.857	3268
891.98	3237
892.103	3382
892.226	3245
892.349	3253
892.471	3093
892.594	3226
892.717	3253
892.839	3272
892.962	3291
893.085	3313
893.207	3260
893.33	3116
893.452	3203
893.575	3317
893.697	3249
893.819	3469
893.941	3523
894.064	3424
894.186	3268
894.308	3268
894.43	3443
894.552	3530
894.674	3431
894.796	3256
894.918	3321
895.04	3249
895.161	3416
895.283	3405
895.405	3332
895.526	3367
895.648	3409
895.769	3409
895.891	3492
896.012	3454
896.134	3458
896.255	3401
896.376	3359
896.498	3348
896.619	3393
896.74	3313
896.861	3416
896.982	3698
897.103	3835
897.224	3587
897.345	3507
897.466	3389
897.587	3500
897.708	3603
897.828	3553
897.949	3412
898.07	3332
898.19	3397
898.311	3564
898.431	3439
898.552	3500
898.672	3580
898.792	3580
898.913	3492
899.033	3428
899.153	3302
899.273	3146
899.393	3272
899.513	3256
899.633	3310
899.753	3325
899.873	3302
899.993	3374
900.113	3344
900.232	3367
900.352	3336
900.472	3249
900.591	3184
900.711	3302
900.83	3230
900.95	3397
901.069	3488
901.189	3340
901.308	3150
901.427	3100
901.546	3192
901.665	3264
901.784	3348
901.904	3195
902.023	3138
902.141	3005
902.26	2979
902.379	3112
902.498	3055
902.617	3081
902.735	3165
902.854	3218
902.973	3214
903.091	3032
903.21	3036
903.328	3077
903.446	3104
903.565	3108
903.683	3184
903.801	3154
903.919	3294
904.038	3291
904.156	3180
904.274	3283
904.392	3275
904.51	3302
904.627	3294
904.745	3458
904.863	3485
904.981	3256
905.098	3165
905.216	3218
905.334	3302
905.451	3275
905.569	3291
905.686	3393
905.803	3435
905.921	3287
906.038	3428
906.155	3351
906.272	3291
906.389	3329
906.506	3230
906.623	3245
906.74	3287
906.857	3165
906.974	3241
907.091	3447
907.208	3599
907.324	3473
907.441	3393
907.557	3214
907.674	3253
907.79	3207
907.907	3283
908.023	3370
908.139	3370
908.256	3294
908.372	3351
908.488	3298
908.604	3245
908.72	3211
908.836	3291
908.952	3268
909.068	3359
909.184	3481
909.3	3389
909.415	3473
909.531	3443
909.647	3237
909.762	3279
909.878	3218
909.993	3336
910.108	3325
910.224	3317
910.339	3389
910.454	3340
910.57	3344
910.685	3233
910.8	3584
910.915	3542
911.03	3420
911.145	3283
911.259	3260
911.374	3291
911.489	3241
911.604	3214
911.718	3116
911.833	3104
911.947	3058
912.062	2963
912.176	3154
912.291	3176
912.405	3188
912.519	3428
912.633	3488
912.748	3313
912.862	3249
912.976	3188
913.09	3032
913.204	3135
913.318	3169
913.431	3306
913.545	3351
913.659	3393
913.772	3355
913.886	3249
914	3184
914.113	3359
914.226	3401
914.34	3344
914.453	3176
914.566	3439
914.68	3298
914.793	3302
914.906	3116
915.019	3081
915.132	3085
915.245	3146
915.358	3192
915.47	3218
915.583	3279
915.696	3268
915.809	3382
915.921	3420
916.034	3253
916.146	3241
916.259	3237
916.371	3359
916.483	3374
916.595	3283
916.708	3298
916.82	3332
916.932	3389
917.044	3317
917.156	3329
917.268	3241
917.38	3283
917.491	3306
917.603	3359
917.715	3469
917.826	3481
917.938	3359
918.049	3329
918.161	3401
918.272	3534
918.384	3587
918.495	3450
918.606	3310
918.717	3275
918.828	3363
918.939	3409
919.05	3325
919.161	3321
919.272	3165
919.383	3256
919.494	3485
919.604	3675
919.715	3462
919.826	3435
919.936	3443
920.047	3610
920.157	3542
920.267	3694
920.378	3584
920.488	3572
920.598	3819
920.708	3899
920.818	3857
920.928	3850
921.038	4017
921.148	3991
921.258	3694
921.368	3591
921.477	3549
921.587	3526
921.697	3431
921.806	3603
921.916	3542
922.025	3298
922.134	3332
922.244	3287
922.353	3393
922.462	3245
922.571	3214
922.68	3104
922.789	3036
922.898	3138
923.007	3116
923.116	3211
923.224	3169
923.333	3184
923.442	3112
923.55	3062
923.659	3161
923.767	3195
923.876	3142
923.984	3226
924.092	3093
924.201	3199
924.309	3222
924.417	3199
924.525	3154
924.633	3226
924.741	4029
924.849	3001
924.956	3253
925.064	3104
925.172	3028
925.279	3089
925.387	3207
925.494	3192
925.602	3340
925.709	3310
925.816	3199
925.924	3268
926.031	3397
926.138	3310
926.245	3332
926.352	3260
926.459	3389
926.566	3454
926.673	3310
926.779	3199
926.886	3211
926.993	3142
927.099	3135
927.206	3112
927.312	3104
927.419	3245
927.525	3218
927.631	3264
927.737	3100
927.843	3104
927.95	3024
928.056	3146
928.162	3127
928.267	3233
928.373	3869
928.479	3317
928.585	3017
928.69	3214
928.796	3226
928.901	3157
929.007	3001
929.112	3195
929.218	3150
929.323	3112
929.428	3127
929.533	3279
929.638	3135
929.743	3123
929.848	3237
929.953	3180
930.058	3127
930.163	2979
930.267	3036
930.372	3203
930.477	2990
930.581	3283
930.685	3157
930.79	3058
930.894	3089
930.998	3077
931.103	3272
931.207	2975
931.311	2925
931.415	2880
931.519	2769
931.623	2807
