Data from test_V78500241_1986.txt Node
Date: Fri Mar 25 16:28:57 CST 2022
User: usil
Spectrometer: V785-0024
Trigger mode: 0
Integration Time (sec): 4.000000E-1
Scans to average: 1
Nonlinearity correction enabled: false
Boxcar width: 0
Storing dark spectrum: false
XAxis mode: Wavelengths
Number of Pixels in Spectrum: 1024
>>>>>Begin Spectral Data<<<<<
801.071	2887
801.214	2941
801.356	2910
801.499	2902
801.641	2906
801.783	2956
801.926	3066
802.068	2971
802.211	3017
802.353	3066
802.496	2990
802.638	3005
802.78	3062
802.923	3074
803.065	3043
803.208	2887
803.35	2914
803.492	2944
803.635	2918
803.777	2785
803.919	2876
804.061	3230
804.204	2925
804.346	2902
804.488	2823
804.63	2971
804.773	2899
804.915	2902
805.057	3070
805.199	2944
805.341	2971
805.483	3005
805.626	3020
805.768	2979
805.91	3093
806.052	3108
806.194	3013
806.336	3226
806.478	3028
806.62	2952
806.762	2990
806.904	3062
807.046	3161
807.188	2990
807.33	2883
807.472	2986
807.614	2902
807.756	2971
807.898	2922
808.04	2922
808.182	2952
808.324	2948
808.465	2899
808.607	2883
808.749	2788
808.891	2849
809.033	2971
809.174	2956
809.316	2910
809.458	2937
809.6	2777
809.741	2781
809.883	2746
810.025	2857
810.166	2880
810.308	2857
810.45	2857
810.591	2777
810.733	2796
810.875	2819
811.016	2781
811.158	2727
811.299	2792
811.441	2956
811.582	2868
811.724	2804
811.865	2826
812.007	2883
812.148	2872
812.29	2883
812.431	2887
812.573	2891
812.714	2952
812.855	3036
812.997	3077
813.138	3081
813.279	3017
813.421	2982
813.562	2956
813.703	2887
813.845	2883
813.986	2773
814.127	2735
814.268	2830
814.41	2842
814.551	2788
814.692	2883
814.833	2823
814.974	2876
815.115	2952
815.256	2823
815.397	2800
815.539	2868
815.68	2754
815.821	2758
815.962	2929
816.103	2941
816.244	2857
816.385	2834
816.526	2960
816.666	2906
816.807	2724
816.948	2876
817.089	2906
817.23	2853
817.371	2769
817.512	2788
817.653	2857
817.793	2796
817.934	2853
818.075	2925
818.216	3028
818.356	3013
818.497	2902
818.638	2762
818.778	2842
818.919	2769
819.06	2762
819.2	2902
819.341	2811
819.481	2804
819.622	2922
819.762	3097
819.903	3039
820.043	2891
820.184	2857
820.324	2910
820.465	3017
820.605	2982
820.746	3005
820.886	2922
821.026	3104
821.167	3142
821.307	3253
821.447	3287
821.588	3249
821.728	3218
821.868	3211
822.008	3074
822.149	3241
822.289	3226
822.429	3070
822.569	3119
822.709	3180
822.849	3077
822.99	3070
823.13	3169
823.27	3233
823.41	3142
823.55	3176
823.69	3176
823.83	3203
823.97	3108
824.11	3028
824.25	3013
824.389	3123
824.529	3131
824.669	3077
824.809	3207
824.949	3329
825.089	3233
825.228	3188
825.368	3047
825.508	2986
825.648	3017
825.787	3032
825.927	3074
826.067	2963
826.206	2967
826.346	3081
826.485	3119
826.625	3108
826.765	3313
826.904	3260
827.044	3024
827.183	2971
827.323	2922
827.462	3024
827.601	2986
827.741	2952
827.88	3017
828.02	2861
828.159	2998
828.298	3089
828.437	3146
828.577	3051
828.716	3306
828.855	3127
828.994	2937
829.134	2941
829.273	2944
829.412	2891
829.551	2910
829.69	2956
829.829	3024
829.968	3116
830.107	3047
830.246	3039
830.385	2982
830.524	2880
830.663	2864
830.802	2781
830.941	2720
831.08	2667
831.219	2792
831.357	2750
831.496	3017
831.635	2731
831.774	2686
831.913	2693
832.051	2610
832.19	2602
832.329	2731
832.467	2575
832.606	2552
832.744	2625
832.883	2636
833.022	2610
833.16	2682
833.299	2731
833.437	2708
833.576	2727
833.714	2743
833.852	2743
833.991	2807
834.129	2872
834.267	2849
834.406	2792
834.544	2906
834.682	2899
834.821	2895
834.959	3074
835.097	2941
835.235	3085
835.373	3062
835.511	3085
835.65	3017
835.788	2994
835.926	2899
836.064	2838
836.202	2834
836.34	3097
836.478	3180
836.615	3081
836.753	3176
836.891	3226
837.029	3188
837.167	3138
837.305	3119
837.443	3058
837.58	2982
837.718	3180
837.856	3070
837.993	3066
838.131	3138
838.269	3127
838.406	3165
838.544	3119
838.681	2937
838.819	2933
838.956	2845
839.094	2834
839.231	2933
839.369	3070
839.506	3431
839.643	3268
839.781	3043
839.918	2990
840.055	3051
840.193	3093
840.33	3074
840.467	3135
840.604	3188
840.742	3412
840.879	3081
841.016	3070
841.153	3116
841.29	3382
841.427	3336
841.564	3298
841.701	3348
841.838	3272
841.975	3199
842.112	3230
842.249	3108
842.385	3100
842.522	3298
842.659	3089
842.796	3058
842.933	3108
843.069	3074
843.206	3066
843.343	3218
843.479	3146
843.616	3150
843.752	2937
843.889	2925
844.025	3123
844.162	2906
844.298	3074
844.435	2998
844.571	2960
844.708	3119
844.844	3199
844.98	3275
845.117	3180
845.253	3074
845.389	3017
845.525	3116
845.661	3150
845.798	3036
845.934	3180
846.07	3142
846.206	3253
846.342	3321
846.478	3260
846.614	3100
846.75	3074
846.886	3051
847.022	3253
847.158	3169
847.294	3241
847.429	3245
847.565	3230
847.701	3538
847.837	3055
847.972	3062
848.108	3214
848.244	3192
848.379	2979
848.515	2986
848.65	2963
848.786	2963
848.921	3036
849.057	3123
849.192	3180
849.328	3089
849.463	3127
849.598	3112
849.734	3047
849.869	3001
850.004	2960
850.14	2967
850.275	2960
850.41	2861
850.545	2933
850.68	2986
850.815	3020
850.95	3005
851.085	3230
851.22	3154
851.355	3055
851.49	2998
851.625	3013
851.76	3077
851.895	2941
852.03	2941
852.165	3066
852.299	3112
852.434	3214
852.569	3188
852.703	3192
852.838	3272
852.973	3321
853.107	3344
853.242	3131
853.376	3093
853.511	3036
853.645	3020
853.78	3245
853.914	3135
854.048	3165
854.183	3100
854.317	3161
854.451	3321
854.585	3123
854.72	3116
854.854	3218
854.988	3051
855.122	3089
855.256	2998
855.39	3131
855.524	3275
855.658	3230
855.792	3188
855.926	3241
856.06	3264
856.194	3302
856.327	3169
856.461	3081
856.595	3123
856.729	3085
856.862	3211
856.996	3203
857.13	3214
857.263	3253
857.397	3272
857.53	3131
857.664	3195
857.797	3237
857.931	3253
858.064	3173
858.197	3287
858.331	3127
858.464	3127
858.597	3036
858.731	3154
858.864	3123
858.997	3097
859.13	3173
859.263	3214
859.396	3233
859.529	3100
859.662	3066
859.795	3066
859.928	3165
860.061	3294
860.194	3310
860.327	3146
860.46	3123
860.592	3253
860.725	3272
860.858	3272
860.99	3116
861.123	3089
861.256	3123
861.388	3154
861.521	3907
861.653	2998
861.786	3013
861.918	3009
862.05	3070
862.183	3100
862.315	3146
862.447	3233
862.58	3104
862.712	2982
862.844	2914
862.976	3024
863.108	3024
863.24	3439
863.372	2887
863.504	3009
863.636	2963
863.768	3062
863.9	2982
864.032	2914
864.164	2971
864.296	3070
864.428	3074
864.559	3085
864.691	3089
864.823	3085
864.954	3009
865.086	3066
865.217	2956
865.349	2960
865.48	3001
865.612	3089
865.743	3157
865.875	3020
866.006	2948
866.137	2979
866.269	2998
866.4	2937
866.531	2956
866.662	2910
866.793	2922
866.924	2933
867.055	2994
867.186	2948
867.317	2880
867.448	2853
867.579	2868
867.71	2864
867.841	2834
867.972	2929
868.103	2922
868.233	2906
868.364	2880
868.495	2937
868.625	3104
868.756	3226
868.886	3001
869.017	3036
869.147	3237
869.278	3184
869.408	3062
869.539	3047
869.669	3089
869.799	3070
869.929	3142
870.06	3123
870.19	3344
870.32	3321
870.45	3313
870.58	3355
870.71	3492
870.84	3435
870.97	3317
871.1	3287
871.23	3447
871.36	3538
871.489	3359
871.619	3416
871.749	3428
871.879	3416
872.008	3473
872.138	3321
872.267	3260
872.397	3180
872.526	3085
872.656	3020
872.785	3146
872.915	3256
873.044	3329
873.173	3241
873.303	3272
873.432	3256
873.561	3230
873.69	3138
873.819	3199
873.948	3207
874.077	3116
874.206	3039
874.335	3138
874.464	3218
874.593	3386
874.722	3222
874.851	3420
874.979	3367
875.108	3344
875.237	3180
875.365	3169
875.494	3165
875.623	3272
875.751	3062
875.88	3127
876.008	3203
876.136	3211
876.265	3397
876.393	3519
876.521	3424
876.65	3393
876.778	3370
876.906	3306
877.034	3207
877.162	3214
877.29	3188
877.418	3264
877.546	3230
877.674	3264
877.802	3245
877.93	3260
878.058	3150
878.185	3146
878.313	3214
878.441	3233
878.568	3066
878.696	3142
878.824	3241
878.951	3294
879.079	3466
879.206	3641
879.333	3435
879.461	3340
879.588	3348
879.715	3485
879.842	3587
879.97	3424
880.097	3165
880.224	3123
880.351	3180
880.478	3249
880.605	3188
880.732	3230
880.859	3511
880.986	3313
881.112	3321
881.239	3195
881.366	3100
881.493	3024
881.619	2979
881.746	3028
881.872	3108
881.999	3119
882.125	3184
882.252	3283
882.378	3253
882.505	3439
882.631	3302
882.757	3150
882.883	3214
883.01	3260
883.136	3180
883.262	3108
883.388	3127
883.514	3344
883.64	3386
883.766	3317
883.892	3195
884.018	3226
884.143	3416
884.269	3542
884.395	3256
884.52	3207
884.646	3211
884.772	3123
884.897	3135
885.023	3165
885.148	3374
885.274	3420
885.399	3355
885.524	3291
885.65	3237
885.775	3306
885.9	3279
886.025	3462
886.15	3363
886.275	3294
886.4	3253
886.525	3321
886.65	3302
886.775	3294
886.9	3519
887.025	3625
887.149	3447
887.274	3249
887.399	3173
887.523	3173
887.648	3176
887.773	3188
887.897	3443
888.021	3401
888.146	3306
888.27	3462
888.395	3572
888.519	3401
888.643	3454
888.767	3488
888.891	3325
889.015	3283
889.139	3237
889.263	3283
889.387	3428
889.511	3500
889.635	3477
889.759	3310
889.883	3325
890.006	3363
890.13	3473
890.254	3279
890.377	3382
890.501	3218
890.624	3233
890.748	3329
890.871	3203
890.995	3077
891.118	3081
891.241	3203
891.364	3233
891.488	3279
891.611	3157
891.734	3233
891.857	3310
891.98	3279
892.103	3363
892.226	3264
892.349	3157
892.471	3123
892.594	3233
892.717	3306
892.839	3283
892.962	3298
893.085	3348
893.207	3291
893.33	3154
893.452	3214
893.575	3336
893.697	3256
893.819	3477
893.941	3511
894.064	3458
894.186	3291
894.308	3283
894.43	3443
894.552	3561
894.674	3477
894.796	3291
894.918	3336
895.04	3294
895.161	3454
895.283	3389
895.405	3298
895.526	3389
895.648	3431
895.769	3416
895.891	3443
896.012	3504
896.134	3473
896.255	3382
896.376	3389
896.498	3348
896.619	3412
896.74	3359
896.861	3397
896.982	3709
897.103	3854
897.224	3587
897.345	3500
897.466	3424
897.587	3485
897.708	3633
897.828	3591
897.949	3485
898.07	3317
898.19	3458
898.311	3599
898.431	3435
898.552	3488
898.672	3610
898.792	3576
898.913	3545
899.033	3412
899.153	3321
899.273	3233
899.393	3279
899.513	3359
899.633	3313
899.753	3374
899.873	3291
899.993	3351
900.113	3329
900.232	3397
900.352	3344
900.472	3310
900.591	3214
900.711	3287
900.83	3256
900.95	3466
901.069	3496
901.189	3389
901.308	3180
901.427	3195
901.546	3169
901.665	3294
901.784	3340
901.904	3241
902.023	3157
902.141	3032
902.26	3001
902.379	3169
902.498	3058
902.617	3066
902.735	3188
902.854	3218
902.973	3173
903.091	3055
903.21	3093
903.328	3116
903.446	3108
903.565	3100
903.683	3230
903.801	3097
903.919	3226
904.038	3253
904.156	3123
904.274	3321
904.392	3249
904.51	3294
904.627	3344
904.745	3443
904.863	3526
904.981	3218
905.098	3169
905.216	3237
905.334	3291
905.451	3306
905.569	3313
905.686	3401
905.803	3439
905.921	3256
906.038	3409
906.155	3363
906.272	3294
906.389	3336
906.506	3264
906.623	3245
906.74	3275
906.857	3195
906.974	3249
907.091	3443
907.208	3542
907.324	3481
907.441	3374
907.557	3260
907.674	3211
907.79	3211
907.907	3237
908.023	3409
908.139	3378
908.256	3313
908.372	3412
908.488	3336
908.604	3230
908.72	3283
908.836	3317
908.952	3321
909.068	3348
909.184	3450
909.3	3374
909.415	3488
909.531	3500
909.647	3268
909.762	3256
909.878	3256
909.993	3344
910.108	3340
910.224	3321
910.339	3431
910.454	3325
910.57	3313
910.685	3260
910.8	3633
910.915	3568
911.03	3462
911.145	3275
911.259	3233
911.374	3317
911.489	3245
911.604	3279
911.718	3112
911.833	3138
911.947	3066
912.062	2956
912.176	3173
912.291	3176
912.405	3230
912.519	3447
912.633	3511
912.748	3348
912.862	3256
912.976	3203
913.09	3074
913.204	3154
913.318	3226
913.431	3325
913.545	3348
913.659	3405
913.772	3287
913.886	3211
914	3203
914.113	3351
914.226	3409
914.34	3397
914.453	3241
914.566	3412
914.68	3325
914.793	3313
914.906	3127
915.019	3081
915.132	3062
915.245	3154
915.358	3214
915.47	3214
915.583	3283
915.696	3279
915.809	3405
915.921	3439
916.034	3291
916.146	3275
916.259	3241
916.371	3401
916.483	3325
916.595	3268
916.708	3317
916.82	3336
916.932	3355
917.044	3351
917.156	3340
917.268	3249
917.38	3321
917.491	3275
917.603	3416
917.715	3450
917.826	3477
917.938	3393
918.049	3298
918.161	3405
918.272	3584
918.384	3591
918.495	3500
918.606	3344
918.717	3294
918.828	3374
918.939	3443
919.05	3310
919.161	3378
919.272	3226
919.383	3291
919.494	3519
919.604	3675
919.715	3492
919.826	3431
919.936	3428
920.047	3622
920.157	3530
920.267	3747
920.378	3599
920.488	3618
920.598	3743
920.708	3926
920.818	3835
920.928	3812
921.038	4017
921.148	3983
921.258	3682
921.368	3679
921.477	3584
921.587	3553
921.697	3454
921.806	3606
921.916	3504
922.025	3378
922.134	3363
922.244	3302
922.353	3447
922.462	3329
922.571	3226
922.68	3081
922.789	3043
922.898	3131
923.007	3116
923.116	3268
923.224	3169
923.333	3138
923.442	3097
923.55	3074
923.659	3135
923.767	3176
923.876	3104
923.984	3249
924.092	3081
924.201	3146
924.309	3226
924.417	3256
924.525	3173
924.633	3245
924.741	4185
924.849	3036
924.956	3264
925.064	3108
925.172	3039
925.279	3066
925.387	3176
925.494	3245
925.602	3340
925.709	3363
925.816	3127
925.924	3260
926.031	3393
926.138	3294
926.245	3351
926.352	3195
926.459	3397
926.566	3462
926.673	3313
926.779	3226
926.886	3272
926.993	3127
927.099	3127
927.206	3123
927.312	3081
927.419	3241
927.525	3195
927.631	3241
927.737	3127
927.843	3116
927.95	3062
928.056	3131
928.162	3135
928.267	3241
928.373	3808
928.479	3268
928.585	3081
928.69	3169
928.796	3230
928.901	3150
929.007	3047
929.112	3192
929.218	3165
929.323	3112
929.428	3138
929.533	3302
929.638	3100
929.743	3165
929.848	3249
929.953	3230
930.058	3150
930.163	3017
930.267	3024
930.372	3237
930.477	3055
930.581	3329
930.685	3184
930.79	3043
930.894	3157
930.998	3055
931.103	3283
931.207	2986
931.311	2887
931.415	2918
931.519	2785
931.623	2811
