Data from test_V78500241_1957.txt Node
Date: Fri Mar 25 16:28:45 CST 2022
User: usil
Spectrometer: V785-0024
Trigger mode: 0
Integration Time (sec): 4.000000E-1
Scans to average: 1
Nonlinearity correction enabled: false
Boxcar width: 0
Storing dark spectrum: false
XAxis mode: Wavelengths
Number of Pixels in Spectrum: 1024
>>>>>Begin Spectral Data<<<<<
801.071	2914
801.214	2998
801.356	2864
801.499	2925
801.641	2876
801.783	2929
801.926	3074
802.068	2979
802.211	3009
802.353	3058
802.496	3024
802.638	2994
802.78	3028
802.923	3081
803.065	2986
803.208	2906
803.35	2910
803.492	2941
803.635	2925
803.777	2735
803.919	2857
804.061	3192
804.204	2967
804.346	2914
804.488	2849
804.63	3013
804.773	2876
804.915	2941
805.057	3070
805.199	2914
805.341	2933
805.483	3085
805.626	3043
805.768	2941
805.91	3085
806.052	3066
806.194	3024
806.336	3253
806.478	3032
806.62	2925
806.762	2979
806.904	3036
807.046	3176
807.188	2994
807.33	2880
807.472	2990
807.614	2929
807.756	3020
807.898	2948
808.04	2925
808.182	3001
808.324	2963
808.465	2880
808.607	2883
808.749	2762
808.891	2807
809.033	2986
809.174	3009
809.316	2842
809.458	2895
809.6	2762
809.741	2762
809.883	2762
810.025	2842
810.166	2887
810.308	2834
810.45	2857
810.591	2735
810.733	2739
810.875	2849
811.016	2781
811.158	2735
811.299	2788
811.441	2899
811.582	2872
811.724	2826
811.865	2845
812.007	2918
812.148	2891
812.29	2819
812.431	2872
812.573	2922
812.714	2960
812.855	3020
812.997	3058
813.138	3131
813.279	2979
813.421	2982
813.562	2963
813.703	2887
813.845	2880
813.986	2777
814.127	2735
814.268	2811
814.41	2830
814.551	2838
814.692	2830
814.833	2800
814.974	2902
815.115	2948
815.256	2830
815.397	2823
815.539	2887
815.68	2773
815.821	2785
815.962	2922
816.103	2937
816.244	2864
816.385	2857
816.526	2933
816.666	2937
816.807	2766
816.948	2891
817.089	2910
817.23	2838
817.371	2754
817.512	2800
817.653	2819
817.793	2800
817.934	2880
818.075	2956
818.216	2986
818.356	3020
818.497	2868
818.638	2796
818.778	2823
818.919	2781
819.06	2716
819.2	2849
819.341	2804
819.481	2773
819.622	2941
819.762	3127
819.903	3043
820.043	2906
820.184	2883
820.324	2880
820.465	2975
820.605	3028
820.746	3055
820.886	2929
821.026	3112
821.167	3176
821.307	3230
821.447	3253
821.588	3222
821.728	3195
821.868	3214
822.008	3085
822.149	3199
822.289	3241
822.429	3058
822.569	3104
822.709	3173
822.849	3013
822.99	3074
823.13	3169
823.27	3169
823.41	3108
823.55	3176
823.69	3138
823.83	3226
823.97	3104
824.11	2967
824.25	3013
824.389	3039
824.529	3108
824.669	3058
824.809	3173
824.949	3237
825.089	3222
825.228	3165
825.368	2971
825.508	2971
825.648	2967
825.787	2998
825.927	3017
826.067	2982
826.206	2956
826.346	3036
826.485	3093
826.625	3142
826.765	3245
826.904	3184
827.044	2982
827.183	2902
827.323	2857
827.462	3013
827.601	2914
827.741	2925
827.88	2933
828.02	2849
828.159	2971
828.298	3032
828.437	3104
828.577	2986
828.716	3176
828.855	3085
828.994	2910
829.134	2895
829.273	2891
829.412	2857
829.551	2883
829.69	2853
829.829	2990
829.968	3116
830.107	3005
830.246	2986
830.385	2941
830.524	2838
830.663	2823
830.802	2724
830.941	2648
831.08	2659
831.219	2735
831.357	2766
831.496	2937
831.635	2708
831.774	2651
831.913	2644
832.051	2560
832.19	2549
832.329	2701
832.467	2507
832.606	2480
832.744	2575
832.883	2587
833.022	2598
833.16	2655
833.299	2678
833.437	2682
833.576	2720
833.714	2720
833.852	2727
833.991	2769
834.129	2830
834.267	2766
834.406	2769
834.544	2849
834.682	2868
834.821	2845
834.959	3047
835.097	2864
835.235	3089
835.373	2982
835.511	3005
835.65	2948
835.788	2941
835.926	2830
836.064	2842
836.202	2838
836.34	3100
836.478	3119
836.615	3051
836.753	3146
836.891	3222
837.029	3176
837.167	3100
837.305	3074
837.443	3085
837.58	2994
837.718	3112
837.856	3055
837.993	3024
838.131	3100
838.269	3119
838.406	3081
838.544	3074
838.681	2933
838.819	2948
838.956	2819
839.094	2838
839.231	2857
839.369	3020
839.506	3412
839.643	3199
839.781	2998
839.918	2937
840.055	3043
840.193	3058
840.33	3108
840.467	3097
840.604	3157
840.742	3401
840.879	3032
841.016	3051
841.153	3131
841.29	3340
841.427	3310
841.564	3264
841.701	3317
841.838	3207
841.975	3176
842.112	3218
842.249	3062
842.385	3043
842.522	3241
842.659	3077
842.796	3070
842.933	3116
843.069	3020
843.206	3039
843.343	3173
843.479	3127
843.616	3146
843.752	2876
843.889	2899
844.025	3085
844.162	2895
844.298	3070
844.435	2967
844.571	2922
844.708	3077
844.844	3188
844.98	3211
845.117	3176
845.253	3070
845.389	2967
845.525	3074
845.661	3097
845.798	2990
845.934	3119
846.07	3058
846.206	3150
846.342	3302
846.478	3264
846.614	3077
846.75	3020
846.886	2986
847.022	3207
847.158	3142
847.294	3184
847.429	3256
847.565	3207
847.701	3504
847.837	3085
847.972	3005
848.108	3180
848.244	3165
848.379	2975
848.515	2922
848.65	2922
848.786	2952
848.921	2986
849.057	3112
849.192	3146
849.328	3039
849.463	3093
849.598	3074
849.734	3028
849.869	2971
850.004	2937
850.14	2948
850.275	2906
850.41	2857
850.545	2887
850.68	2933
850.815	2944
850.95	2929
851.085	3169
851.22	3108
851.355	3024
851.49	2937
851.625	2990
851.76	3047
851.895	2910
852.03	2933
852.165	3070
852.299	3089
852.434	3165
852.569	3180
852.703	3146
852.838	3245
852.973	3313
853.107	3321
853.242	3116
853.376	3077
853.511	2956
853.645	3024
853.78	3230
853.914	3081
854.048	3074
854.183	3097
854.317	3169
854.451	3302
854.585	3135
854.72	3100
854.854	3222
854.988	3062
855.122	3085
855.256	2960
855.39	3123
855.524	3211
855.658	3203
855.792	3123
855.926	3184
856.06	3203
856.194	3245
856.327	3192
856.461	3058
856.595	3100
856.729	3074
856.862	3233
856.996	3165
857.13	3154
857.263	3214
857.397	3264
857.53	3123
857.664	3199
857.797	3211
857.931	3256
858.064	3135
858.197	3211
858.331	3157
858.464	3119
858.597	2998
858.731	3089
858.864	3138
858.997	3119
859.13	3165
859.263	3150
859.396	3195
859.529	3108
859.662	3081
859.795	3051
859.928	3138
860.061	3256
860.194	3272
860.327	3093
860.46	3123
860.592	3214
860.725	3237
860.858	3275
860.99	3100
861.123	3051
861.256	3036
861.388	3169
861.521	3850
861.653	3001
861.786	2986
861.918	2982
862.05	3024
862.183	3077
862.315	3146
862.447	3192
862.58	3093
862.712	2933
862.844	2868
862.976	2975
863.108	3005
863.24	3321
863.372	2887
863.504	2952
863.636	2891
863.768	3024
863.9	2960
864.032	2895
864.164	2929
864.296	3017
864.428	3093
864.559	3093
864.691	3089
864.823	3055
864.954	3039
865.086	3001
865.217	2975
865.349	3013
865.48	2979
865.612	3036
865.743	3138
865.875	2971
866.006	2914
866.137	2998
866.269	2887
866.4	2899
866.531	2891
866.662	2883
866.793	2872
866.924	2922
867.055	2967
867.186	2956
867.317	2872
867.448	2826
867.579	2845
867.71	2834
867.841	2823
867.972	2910
868.103	2910
868.233	2880
868.364	2880
868.495	2887
868.625	3074
868.756	3150
868.886	2982
869.017	3020
869.147	3165
869.278	3146
869.408	3055
869.539	3020
869.669	3051
869.799	3032
869.929	3123
870.06	3108
870.19	3302
870.32	3291
870.45	3321
870.58	3382
870.71	3458
870.84	3443
870.97	3283
871.1	3207
871.23	3488
871.36	3473
871.489	3317
871.619	3405
871.749	3389
871.879	3409
872.008	3469
872.138	3386
872.267	3253
872.397	3150
872.526	3104
872.656	3001
872.785	3093
872.915	3230
873.044	3264
873.173	3226
873.303	3188
873.432	3180
873.561	3226
873.69	3131
873.819	3127
873.948	3222
874.077	3104
874.206	3017
874.335	3100
874.464	3226
874.593	3378
874.722	3218
874.851	3401
874.979	3317
875.108	3306
875.237	3173
875.365	3165
875.494	3154
875.623	3233
875.751	3043
875.88	3123
876.008	3157
876.136	3192
876.265	3393
876.393	3542
876.521	3424
876.65	3401
876.778	3351
876.906	3222
877.034	3192
877.162	3188
877.29	3165
877.418	3241
877.546	3207
877.674	3245
877.802	3241
877.93	3222
878.058	3161
878.185	3104
878.313	3218
878.441	3211
878.568	3085
878.696	3135
878.824	3249
878.951	3291
879.079	3443
879.206	3618
879.333	3435
879.461	3294
879.588	3378
879.715	3473
879.842	3561
879.97	3340
880.097	3135
880.224	3119
880.351	3192
880.478	3207
880.605	3199
880.732	3188
880.859	3488
880.986	3321
881.112	3351
881.239	3226
881.366	3074
881.493	3024
881.619	3024
881.746	3058
881.872	3089
881.999	3116
882.125	3123
882.252	3264
882.378	3298
882.505	3431
882.631	3279
882.757	3131
882.883	3195
883.01	3199
883.136	3127
883.262	3112
883.388	3116
883.514	3291
883.64	3389
883.766	3336
883.892	3169
884.018	3218
884.143	3401
884.269	3530
884.395	3226
884.52	3173
884.646	3176
884.772	3100
884.897	3138
885.023	3188
885.148	3332
885.274	3363
885.399	3348
885.524	3268
885.65	3291
885.775	3332
885.9	3268
886.025	3370
886.15	3359
886.275	3325
886.4	3245
886.525	3348
886.65	3287
886.775	3253
886.9	3519
887.025	3644
887.149	3447
887.274	3283
887.399	3192
887.523	3173
887.648	3157
887.773	3184
887.897	3367
888.021	3393
888.146	3306
888.27	3412
888.395	3542
888.519	3428
888.643	3469
888.767	3462
888.891	3325
889.015	3226
889.139	3298
889.263	3249
889.387	3397
889.511	3492
889.635	3420
889.759	3294
889.883	3272
890.006	3389
890.13	3466
890.254	3279
890.377	3332
890.501	3199
890.624	3154
890.748	3268
890.871	3157
890.995	3146
891.118	3032
891.241	3180
891.364	3184
891.488	3336
891.611	3180
891.734	3237
891.857	3283
891.98	3214
892.103	3313
892.226	3249
892.349	3176
892.471	3116
892.594	3264
892.717	3256
892.839	3260
892.962	3306
893.085	3351
893.207	3340
893.33	3135
893.452	3192
893.575	3317
893.697	3291
893.819	3481
893.941	3454
894.064	3405
894.186	3268
894.308	3272
894.43	3424
894.552	3542
894.674	3488
894.796	3268
894.918	3325
895.04	3253
895.161	3389
895.283	3393
895.405	3302
895.526	3412
895.648	3416
895.769	3412
895.891	3454
896.012	3454
896.134	3428
896.255	3443
896.376	3363
896.498	3374
896.619	3424
896.74	3355
896.861	3374
896.982	3705
897.103	3831
897.224	3568
897.345	3511
897.466	3450
897.587	3469
897.708	3595
897.828	3507
897.949	3420
898.07	3317
898.19	3405
898.311	3561
898.431	3447
898.552	3519
898.672	3587
898.792	3568
898.913	3485
899.033	3416
899.153	3279
899.273	3233
899.393	3291
899.513	3306
899.633	3321
899.753	3336
899.873	3310
899.993	3382
900.113	3329
900.232	3378
900.352	3329
900.472	3298
900.591	3180
900.711	3313
900.83	3222
900.95	3374
901.069	3496
901.189	3359
901.308	3218
901.427	3097
901.546	3161
901.665	3317
901.784	3317
901.904	3214
902.023	3146
902.141	3005
902.26	2960
902.379	3127
902.498	3036
902.617	3066
902.735	3207
902.854	3199
902.973	3207
903.091	3020
903.21	3055
903.328	3142
903.446	3093
903.565	3097
903.683	3173
903.801	3112
903.919	3226
904.038	3287
904.156	3157
904.274	3287
904.392	3268
904.51	3249
904.627	3332
904.745	3428
904.863	3519
904.981	3237
905.098	3176
905.216	3226
905.334	3275
905.451	3287
905.569	3283
905.686	3420
905.803	3428
905.921	3298
906.038	3409
906.155	3291
906.272	3256
906.389	3329
906.506	3199
906.623	3260
906.74	3256
906.857	3218
906.974	3241
907.091	3477
907.208	3584
907.324	3443
907.441	3397
907.557	3218
907.674	3203
907.79	3226
907.907	3260
908.023	3378
908.139	3382
908.256	3302
908.372	3351
908.488	3344
908.604	3268
908.72	3245
908.836	3291
908.952	3294
909.068	3325
909.184	3462
909.3	3416
909.415	3485
909.531	3500
909.647	3306
909.762	3313
909.878	3253
909.993	3363
910.108	3329
910.224	3317
910.339	3405
910.454	3340
910.57	3310
910.685	3264
910.8	3614
910.915	3534
911.03	3412
911.145	3272
911.259	3272
911.374	3329
911.489	3249
911.604	3214
911.718	3074
911.833	3146
911.947	3047
912.062	2960
912.176	3169
912.291	3188
912.405	3203
912.519	3416
912.633	3473
912.748	3348
912.862	3306
912.976	3165
913.09	3047
913.204	3154
913.318	3207
913.431	3344
913.545	3291
913.659	3424
913.772	3329
913.886	3230
914	3199
914.113	3374
914.226	3420
914.34	3382
914.453	3241
914.566	3401
914.68	3279
914.793	3329
914.906	3157
915.019	3123
915.132	3077
915.245	3146
915.358	3214
915.47	3253
915.583	3249
915.696	3268
915.809	3439
915.921	3409
916.034	3268
916.146	3218
916.259	3226
916.371	3370
916.483	3321
916.595	3260
916.708	3367
916.82	3329
916.932	3332
917.044	3363
917.156	3355
917.268	3256
917.38	3306
917.491	3260
917.603	3382
917.715	3435
917.826	3454
917.938	3378
918.049	3287
918.161	3439
918.272	3584
918.384	3561
918.495	3519
918.606	3348
918.717	3306
918.828	3412
918.939	3382
919.05	3310
919.161	3401
919.272	3131
919.383	3275
919.494	3504
919.604	3686
919.715	3496
919.826	3401
919.936	3424
920.047	3572
920.157	3545
920.267	3728
920.378	3580
920.488	3549
920.598	3770
920.708	3953
920.818	3808
920.928	3804
921.038	3975
921.148	3911
921.258	3682
921.368	3618
921.477	3576
921.587	3557
921.697	3462
921.806	3644
921.916	3523
922.025	3378
922.134	3332
922.244	3298
922.353	3435
922.462	3283
922.571	3176
922.68	3097
922.789	3097
922.898	3150
923.007	3104
923.116	3192
923.224	3169
923.333	3169
923.442	3112
923.55	3085
923.659	3150
923.767	3195
923.876	3119
923.984	3245
924.092	3100
924.201	3230
924.309	3211
924.417	3249
924.525	3173
924.633	3237
924.741	4162
924.849	3066
924.956	3256
925.064	3081
925.172	3051
925.279	3089
925.387	3211
925.494	3169
925.602	3363
925.709	3348
925.816	3161
925.924	3279
926.031	3412
926.138	3283
926.245	3382
926.352	3237
926.459	3428
926.566	3485
926.673	3325
926.779	3253
926.886	3199
926.993	3165
927.099	3150
927.206	3116
927.312	3123
927.419	3226
927.525	3203
927.631	3260
927.737	3161
927.843	3116
927.95	3017
928.056	3131
928.162	3176
928.267	3241
928.373	3865
928.479	3317
928.585	3051
928.69	3150
928.796	3317
928.901	3146
929.007	3032
929.112	3188
929.218	3157
929.323	3169
929.428	3161
929.533	3336
929.638	3116
929.743	3188
929.848	3237
929.953	3195
930.058	3154
930.163	3005
930.267	3051
930.372	3180
930.477	3047
930.581	3298
930.685	3176
930.79	3081
930.894	3131
930.998	3077
931.103	3256
931.207	2956
931.311	2891
931.415	2899
931.519	2746
931.623	2815
