Data from test_V78500241_477.txt Node
Date: Fri Mar 25 16:18:30 CST 2022
User: usil
Spectrometer: V785-0024
Trigger mode: 0
Integration Time (sec): 4.000000E-1
Scans to average: 1
Nonlinearity correction enabled: false
Boxcar width: 0
Storing dark spectrum: false
XAxis mode: Wavelengths
Number of Pixels in Spectrum: 1024
>>>>>Begin Spectral Data<<<<<
801.071	2910
801.214	2918
801.356	2880
801.499	2868
801.641	2861
801.783	2925
801.926	3074
802.068	2922
802.211	3020
802.353	3032
802.496	2960
802.638	2994
802.78	3013
802.923	3066
803.065	2998
803.208	2876
803.35	2891
803.492	2906
803.635	2910
803.777	2754
803.919	2853
804.061	3203
804.204	2906
804.346	2922
804.488	2872
804.63	2975
804.773	2872
804.915	2891
805.057	3077
805.199	2895
805.341	2979
805.483	3024
805.626	2979
805.768	2933
805.91	3062
806.052	3089
806.194	3013
806.336	3226
806.478	2982
806.62	2937
806.762	2990
806.904	3013
807.046	3138
807.188	2941
807.33	2937
807.472	2986
807.614	2868
807.756	2990
807.898	2948
808.04	2895
808.182	2956
808.324	2929
808.465	2876
808.607	2880
808.749	2815
808.891	2842
809.033	2994
809.174	2975
809.316	2876
809.458	2887
809.6	2815
809.741	2796
809.883	2807
810.025	2853
810.166	2853
810.308	2826
810.45	2880
810.591	2781
810.733	2750
810.875	2819
811.016	2781
811.158	2785
811.299	2815
811.441	2872
811.582	2887
811.724	2815
811.865	2842
812.007	2910
812.148	2887
812.29	2876
812.431	2861
812.573	2933
812.714	2918
812.855	3013
812.997	3028
813.138	3097
813.279	3017
813.421	2952
813.562	2960
813.703	2883
813.845	2864
813.986	2804
814.127	2743
814.268	2785
814.41	2849
814.551	2792
814.692	2868
814.833	2788
814.974	2902
815.115	2982
815.256	2819
815.397	2838
815.539	2857
815.68	2785
815.821	2785
815.962	2933
816.103	2948
816.244	2883
816.385	2826
816.526	2979
816.666	2910
816.807	2739
816.948	2891
817.089	2880
817.23	2880
817.371	2731
817.512	2769
817.653	2819
817.793	2815
817.934	2902
818.075	3001
818.216	3001
818.356	3001
818.497	2872
818.638	2807
818.778	2792
818.919	2823
819.06	2758
819.2	2902
819.341	2804
819.481	2811
819.622	2910
819.762	3089
819.903	3062
820.043	2918
820.184	2895
820.324	2872
820.465	3039
820.605	3020
820.746	3047
820.886	2933
821.026	3116
821.167	3169
821.307	3226
821.447	3283
821.588	3218
821.728	3184
821.868	3241
822.008	3066
822.149	3184
822.289	3176
822.429	3119
822.569	3085
822.709	3211
822.849	3089
822.99	3047
823.13	3165
823.27	3192
823.41	3081
823.55	3157
823.69	3131
823.83	3214
823.97	3085
824.11	2998
824.25	2990
824.389	3047
824.529	3131
824.669	3028
824.809	3226
824.949	3241
825.089	3214
825.228	3157
825.368	2998
825.508	2975
825.648	2937
825.787	2990
825.927	3009
826.067	2948
826.206	2941
826.346	3020
826.485	3062
826.625	3081
826.765	3272
826.904	3192
827.044	2975
827.183	2952
827.323	2880
827.462	3001
827.601	2929
827.741	2922
827.88	2933
828.02	2849
828.159	2963
828.298	3047
828.437	3112
828.577	3039
828.716	3233
828.855	3070
828.994	2914
829.134	2891
829.273	2906
829.412	2868
829.551	2876
829.69	2876
829.829	2979
829.968	3138
830.107	3017
830.246	3005
830.385	2929
830.524	2868
830.663	2826
830.802	2712
830.941	2648
831.08	2644
831.219	2750
831.357	2766
831.496	2941
831.635	2739
831.774	2632
831.913	2648
832.051	2556
832.19	2602
832.329	2632
832.467	2537
832.606	2495
832.744	2571
832.883	2530
833.022	2583
833.16	2621
833.299	2678
833.437	2689
833.576	2716
833.714	2712
833.852	2731
833.991	2735
834.129	2868
834.267	2811
834.406	2754
834.544	2845
834.682	2861
834.821	2868
834.959	3039
835.097	2883
835.235	3058
835.373	3013
835.511	3009
835.65	2979
835.788	2933
835.926	2845
836.064	2804
836.202	2849
836.34	3081
836.478	3131
836.615	3051
836.753	3123
836.891	3165
837.029	3135
837.167	3089
837.305	3043
837.443	3024
837.58	2956
837.718	3123
837.856	3020
837.993	3009
838.131	3138
838.269	3081
838.406	3089
838.544	3039
838.681	2895
838.819	2902
838.956	2754
839.094	2834
839.231	2929
839.369	2975
839.506	3370
839.643	3230
839.781	2979
839.918	2952
840.055	3020
840.193	3009
840.33	3047
840.467	3062
840.604	3157
840.742	3401
840.879	3043
841.016	3077
841.153	3093
841.29	3325
841.427	3306
841.564	3192
841.701	3256
841.838	3173
841.975	3165
842.112	3161
842.249	3047
842.385	3051
842.522	3211
842.659	3074
842.796	3070
842.933	3066
843.069	3032
843.206	3055
843.343	3150
843.479	3100
843.616	3116
843.752	2910
843.889	2853
844.025	3108
844.162	2872
844.298	3074
844.435	2952
844.571	2872
844.708	3066
844.844	3195
844.98	3203
845.117	3150
845.253	3070
845.389	3017
845.525	3104
845.661	3089
845.798	3013
845.934	3112
846.07	3039
846.206	3222
846.342	3294
846.478	3237
846.614	3062
846.75	3074
846.886	3005
847.022	3237
847.158	3165
847.294	3203
847.429	3264
847.565	3237
847.701	3462
847.837	2975
847.972	2971
848.108	3169
848.244	3142
848.379	3013
848.515	2925
848.65	2941
848.786	2975
848.921	3020
849.057	3100
849.192	3157
849.328	3074
849.463	3093
849.598	3013
849.734	3001
849.869	2967
850.004	2918
850.14	2941
850.275	2883
850.41	2857
850.545	2868
850.68	2925
850.815	2971
850.95	2956
851.085	3180
851.22	3104
851.355	3039
851.49	2952
851.625	2971
851.76	2994
851.895	2925
852.03	2925
852.165	3020
852.299	3089
852.434	3150
852.569	3127
852.703	3165
852.838	3294
852.973	3317
853.107	3298
853.242	3154
853.376	3135
853.511	2982
853.645	3028
853.78	3260
853.914	3116
854.048	3112
854.183	3081
854.317	3131
854.451	3294
854.585	3074
854.72	3070
854.854	3218
854.988	3055
855.122	3089
855.256	2998
855.39	3081
855.524	3218
855.658	3146
855.792	3142
855.926	3180
856.06	3203
856.194	3275
856.327	3142
856.461	3085
856.595	3070
856.729	3100
856.862	3199
856.996	3146
857.13	3180
857.263	3176
857.397	3275
857.53	3074
857.664	3218
857.797	3226
857.931	3245
858.064	3165
858.197	3214
858.331	3119
858.464	3089
858.597	2960
858.731	3135
858.864	3119
858.997	3047
859.13	3146
859.263	3188
859.396	3226
859.529	3066
859.662	3089
859.795	3028
859.928	3097
860.061	3275
860.194	3253
860.327	3123
860.46	3104
860.592	3211
860.725	3214
860.858	3279
860.99	3097
861.123	3051
861.256	3036
861.388	3146
861.521	3846
861.653	3001
861.786	2982
861.918	3020
862.05	3062
862.183	3081
862.315	3123
862.447	3203
862.58	3093
862.712	2948
862.844	2864
862.976	3017
863.108	3005
863.24	3329
863.372	2845
863.504	2933
863.636	2944
863.768	2990
863.9	2971
864.032	2887
864.164	2944
864.296	3020
864.428	3077
864.559	3085
864.691	3062
864.823	3066
864.954	3051
865.086	3051
865.217	2998
865.349	2937
865.48	2998
865.612	3024
865.743	3165
865.875	2990
866.006	2925
866.137	2944
866.269	2963
866.4	2910
866.531	2887
866.662	2891
866.793	2861
866.924	2887
867.055	2941
867.186	2918
867.317	2887
867.448	2838
867.579	2845
867.71	2849
867.841	2830
867.972	2895
868.103	2880
868.233	2880
868.364	2861
868.495	2876
868.625	3043
868.756	3138
868.886	2967
869.017	3017
869.147	3165
869.278	3154
869.408	3036
869.539	3043
869.669	3062
869.799	3051
869.929	3135
870.06	3150
870.19	3310
870.32	3283
870.45	3302
870.58	3420
870.71	3450
870.84	3412
870.97	3283
871.1	3226
871.23	3473
871.36	3447
871.489	3325
871.619	3405
871.749	3439
871.879	3409
872.008	3458
872.138	3351
872.267	3253
872.397	3123
872.526	3104
872.656	3013
872.785	3077
872.915	3253
873.044	3283
873.173	3218
873.303	3226
873.432	3218
873.561	3253
873.69	3146
873.819	3142
873.948	3157
874.077	3085
874.206	3017
874.335	3100
874.464	3226
874.593	3294
874.722	3222
874.851	3355
874.979	3329
875.108	3275
875.237	3176
875.365	3161
875.494	3154
875.623	3245
875.751	3043
875.88	3112
876.008	3184
876.136	3199
876.265	3386
876.393	3507
876.521	3454
876.65	3401
876.778	3310
876.906	3260
877.034	3173
877.162	3211
877.29	3157
877.418	3245
877.546	3226
877.674	3241
877.802	3226
877.93	3192
878.058	3169
878.185	3112
878.313	3180
878.441	3184
878.568	3074
878.696	3123
878.824	3218
878.951	3287
879.079	3435
879.206	3648
879.333	3431
879.461	3363
879.588	3355
879.715	3496
879.842	3595
879.97	3401
880.097	3154
880.224	3150
880.351	3226
880.478	3169
880.605	3195
880.732	3157
880.859	3481
880.986	3294
881.112	3329
881.239	3180
881.366	3093
881.493	3047
881.619	3051
881.746	3039
881.872	3074
881.999	3070
882.125	3112
882.252	3199
882.378	3302
882.505	3424
882.631	3245
882.757	3138
882.883	3169
883.01	3214
883.136	3154
883.262	3093
883.388	3123
883.514	3329
883.64	3416
883.766	3340
883.892	3188
884.018	3237
884.143	3428
884.269	3542
884.395	3218
884.52	3142
884.646	3195
884.772	3119
884.897	3066
885.023	3218
885.148	3332
885.274	3386
885.399	3321
885.524	3260
885.65	3272
885.775	3272
885.9	3275
886.025	3420
886.15	3370
886.275	3294
886.4	3253
886.525	3313
886.65	3272
886.775	3256
886.9	3515
887.025	3644
887.149	3412
887.274	3283
887.399	3192
887.523	3192
887.648	3245
887.773	3161
887.897	3378
888.021	3389
888.146	3313
888.27	3462
888.395	3515
888.519	3435
888.643	3367
888.767	3435
888.891	3321
889.015	3222
889.139	3272
889.263	3241
889.387	3401
889.511	3496
889.635	3443
889.759	3317
889.883	3310
890.006	3351
890.13	3504
890.254	3230
890.377	3329
890.501	3199
890.624	3203
890.748	3294
890.871	3207
890.995	3077
891.118	3051
891.241	3222
891.364	3226
891.488	3302
891.611	3173
891.734	3207
891.857	3306
891.98	3245
892.103	3313
892.226	3283
892.349	3203
892.471	3085
892.594	3218
892.717	3287
892.839	3268
892.962	3287
893.085	3348
893.207	3230
893.33	3131
893.452	3203
893.575	3317
893.697	3222
893.819	3504
893.941	3469
894.064	3405
894.186	3237
894.308	3237
894.43	3439
894.552	3511
894.674	3454
894.796	3279
894.918	3279
895.04	3302
895.161	3420
895.283	3367
895.405	3279
895.526	3355
895.648	3393
895.769	3431
895.891	3477
896.012	3443
896.134	3488
896.255	3420
896.376	3439
896.498	3348
896.619	3386
896.74	3363
896.861	3412
896.982	3641
897.103	3827
897.224	3603
897.345	3488
897.466	3412
897.587	3500
897.708	3591
897.828	3492
897.949	3447
898.07	3329
898.19	3397
898.311	3564
898.431	3435
898.552	3500
898.672	3580
898.792	3576
898.913	3492
899.033	3412
899.153	3287
899.273	3180
899.393	3253
899.513	3332
899.633	3329
899.753	3332
899.873	3317
899.993	3359
900.113	3332
900.232	3359
900.352	3367
900.472	3306
900.591	3207
900.711	3264
900.83	3283
900.95	3393
901.069	3481
901.189	3317
901.308	3142
901.427	3100
901.546	3176
901.665	3306
901.784	3310
901.904	3199
902.023	3089
902.141	3036
902.26	2994
902.379	3097
902.498	3051
902.617	3066
902.735	3222
902.854	3233
902.973	3161
903.091	3020
903.21	3036
903.328	3142
903.446	3112
903.565	3089
903.683	3218
903.801	3108
903.919	3237
904.038	3256
904.156	3154
904.274	3253
904.392	3222
904.51	3332
904.627	3272
904.745	3428
904.863	3435
904.981	3241
905.098	3180
905.216	3226
905.334	3256
905.451	3287
905.569	3291
905.686	3428
905.803	3409
905.921	3260
906.038	3450
906.155	3348
906.272	3268
906.389	3359
906.506	3199
906.623	3230
906.74	3264
906.857	3184
906.974	3256
907.091	3469
907.208	3568
907.324	3481
907.441	3420
907.557	3222
907.674	3214
907.79	3241
907.907	3264
908.023	3374
908.139	3370
908.256	3325
908.372	3329
908.488	3355
908.604	3241
908.72	3214
908.836	3291
908.952	3272
909.068	3317
909.184	3519
909.3	3367
909.415	3500
909.531	3481
909.647	3272
909.762	3268
909.878	3268
909.993	3374
910.108	3306
910.224	3344
910.339	3435
910.454	3332
910.57	3298
910.685	3233
910.8	3580
910.915	3561
911.03	3428
911.145	3294
911.259	3260
911.374	3298
911.489	3279
911.604	3222
911.718	3074
911.833	3169
911.947	2994
912.062	2998
912.176	3154
912.291	3176
912.405	3214
912.519	3389
912.633	3473
912.748	3321
912.862	3294
912.976	3169
913.09	3020
913.204	3119
913.318	3241
913.431	3329
913.545	3325
913.659	3405
913.772	3313
913.886	3203
914	3180
914.113	3313
914.226	3420
914.34	3332
914.453	3226
914.566	3389
914.68	3245
914.793	3306
914.906	3131
915.019	3097
915.132	3051
915.245	3138
915.358	3173
915.47	3214
915.583	3253
915.696	3279
915.809	3412
915.921	3447
916.034	3233
916.146	3253
916.259	3203
916.371	3393
916.483	3329
916.595	3256
916.708	3363
916.82	3340
916.932	3294
917.044	3359
917.156	3374
917.268	3256
917.38	3321
917.491	3275
917.603	3359
917.715	3397
917.826	3458
917.938	3378
918.049	3207
918.161	3378
918.272	3595
918.384	3545
918.495	3431
918.606	3325
918.717	3272
918.828	3374
918.939	3393
919.05	3291
919.161	3329
919.272	3173
919.383	3264
919.494	3488
919.604	3682
919.715	3473
919.826	3439
919.936	3435
920.047	3587
920.157	3553
920.267	3770
920.378	3625
920.488	3530
920.598	3743
920.708	3941
920.818	3842
920.928	3835
921.038	4010
921.148	3953
921.258	3701
921.368	3622
921.477	3534
921.587	3504
921.697	3485
921.806	3606
921.916	3549
922.025	3386
922.134	3355
922.244	3367
922.353	3443
922.462	3287
922.571	3249
922.68	3154
922.789	3112
922.898	3218
923.007	3119
923.116	3260
923.224	3233
923.333	3245
923.442	3104
923.55	3135
923.659	3199
923.767	3275
923.876	3154
923.984	3245
924.092	3138
924.201	3241
924.309	3260
924.417	3260
924.525	3233
924.633	3302
924.741	4067
924.849	3089
924.956	3302
925.064	3131
925.172	3085
925.279	3161
925.387	3230
925.494	3207
925.602	3416
925.709	3363
925.816	3249
925.924	3321
926.031	3458
926.138	3374
926.245	3393
926.352	3317
926.459	3519
926.566	3492
926.673	3363
926.779	3321
926.886	3283
926.993	3188
927.099	3176
927.206	3157
927.312	3154
927.419	3317
927.525	3272
927.631	3291
927.737	3157
927.843	3184
927.95	3070
928.056	3173
928.162	3199
928.267	3279
928.373	3804
928.479	3313
928.585	3093
928.69	3264
928.796	3321
928.901	3184
929.007	3074
929.112	3249
929.218	3211
929.323	3173
929.428	3195
929.533	3329
929.638	3150
929.743	3195
929.848	3294
929.953	3249
930.058	3203
930.163	3058
930.267	3074
930.372	3241
930.477	3074
930.581	3351
930.685	3237
930.79	3062
930.894	3150
930.998	3097
931.103	3310
931.207	2967
931.311	2967
931.415	2956
931.519	2811
931.623	2823
