Data from test_V78500241_529.txt Node
Date: Fri Mar 25 16:18:52 CST 2022
User: usil
Spectrometer: V785-0024
Trigger mode: 0
Integration Time (sec): 4.000000E-1
Scans to average: 1
Nonlinearity correction enabled: false
Boxcar width: 0
Storing dark spectrum: false
XAxis mode: Wavelengths
Number of Pixels in Spectrum: 1024
>>>>>Begin Spectral Data<<<<<
801.071	2918
801.214	2956
801.356	2883
801.499	2838
801.641	2853
801.783	2925
801.926	3028
802.068	2956
802.211	2967
802.353	3032
802.496	2963
802.638	3028
802.78	3043
802.923	3036
803.065	2990
803.208	2899
803.35	2906
803.492	2944
803.635	2952
803.777	2762
803.919	2876
804.061	3203
804.204	2941
804.346	2887
804.488	2830
804.63	2982
804.773	2861
804.915	2910
805.057	3062
805.199	2944
805.341	2937
805.483	3036
805.626	2990
805.768	2971
805.91	3062
806.052	3116
806.194	3013
806.336	3245
806.478	2998
806.62	2948
806.762	3013
806.904	3028
807.046	3127
807.188	2963
807.33	2937
807.472	3036
807.614	2918
807.756	2986
807.898	2906
808.04	2880
808.182	2990
808.324	2937
808.465	2902
808.607	2906
808.749	2762
808.891	2868
809.033	3009
809.174	2975
809.316	2883
809.458	2910
809.6	2807
809.741	2792
809.883	2746
810.025	2830
810.166	2880
810.308	2834
810.45	2883
810.591	2785
810.733	2819
810.875	2811
811.016	2826
811.158	2720
811.299	2823
811.441	2933
811.582	2891
811.724	2811
811.865	2845
812.007	2918
812.148	2899
812.29	2838
812.431	2830
812.573	2982
812.714	2975
812.855	3039
812.997	3051
813.138	3093
813.279	3047
813.421	2990
813.562	2963
813.703	2853
813.845	2883
813.986	2785
814.127	2712
814.268	2849
814.41	2861
814.551	2834
814.692	2906
814.833	2815
814.974	2906
815.115	2941
815.256	2849
815.397	2807
815.539	2857
815.68	2804
815.821	2826
815.962	2929
816.103	2944
816.244	2842
816.385	2842
816.526	2963
816.666	2944
816.807	2739
816.948	2891
817.089	2880
817.23	2842
817.371	2735
817.512	2758
817.653	2864
817.793	2796
817.934	2857
818.075	2956
818.216	2952
818.356	3032
818.497	2891
818.638	2792
818.778	2807
818.919	2773
819.06	2769
819.2	2887
819.341	2830
819.481	2823
819.622	2944
819.762	3127
819.903	3009
820.043	2914
820.184	2910
820.324	2910
820.465	3024
820.605	2975
820.746	3032
820.886	2956
821.026	3146
821.167	3161
821.307	3245
821.447	3264
821.588	3241
821.728	3192
821.868	3199
822.008	3058
822.149	3203
822.289	3283
822.429	3081
822.569	3077
822.709	3199
822.849	3039
822.99	3043
823.13	3142
823.27	3226
823.41	3104
823.55	3142
823.69	3142
823.83	3203
823.97	3085
824.11	2998
824.25	2967
824.389	3051
824.529	3104
824.669	3077
824.809	3180
824.949	3249
825.089	3214
825.228	3154
825.368	3001
825.508	2971
825.648	2967
825.787	3001
825.927	2990
826.067	2990
826.206	2967
826.346	3043
826.485	3077
826.625	3062
826.765	3226
826.904	3253
827.044	3001
827.183	2918
827.323	2845
827.462	2982
827.601	2963
827.741	2891
827.88	2952
828.02	2853
828.159	2963
828.298	2990
828.437	3116
828.577	3066
828.716	3264
828.855	3089
828.994	2910
829.134	2914
829.273	2895
829.412	2876
829.551	2880
829.69	2887
829.829	2998
829.968	3100
830.107	3020
830.246	2998
830.385	2929
830.524	2895
830.663	2785
830.802	2727
830.941	2659
831.08	2610
831.219	2777
831.357	2735
831.496	2948
831.635	2708
831.774	2632
831.913	2606
832.051	2511
832.19	2579
832.329	2701
832.467	2552
832.606	2473
832.744	2571
832.883	2583
833.022	2552
833.16	2640
833.299	2670
833.437	2682
833.576	2735
833.714	2724
833.852	2739
833.991	2746
834.129	2807
834.267	2823
834.406	2773
834.544	2891
834.682	2849
834.821	2864
834.959	3104
835.097	2906
835.235	3074
835.373	3013
835.511	3028
835.65	2963
835.788	2967
835.926	2788
836.064	2800
836.202	2826
836.34	3081
836.478	3169
836.615	3081
836.753	3150
836.891	3180
837.029	3176
837.167	3074
837.305	3097
837.443	3055
837.58	2960
837.718	3104
837.856	3058
837.993	3039
838.131	3150
838.269	3127
838.406	3077
838.544	3085
838.681	2944
838.819	2929
838.956	2811
839.094	2800
839.231	2883
839.369	2994
839.506	3363
839.643	3233
839.781	3009
839.918	2960
840.055	3043
840.193	3047
840.33	3024
840.467	3085
840.604	3112
840.742	3420
840.879	3070
841.016	3013
841.153	3127
841.29	3336
841.427	3291
841.564	3268
841.701	3329
841.838	3226
841.975	3150
842.112	3207
842.249	3093
842.385	3032
842.522	3241
842.659	3131
842.796	3081
842.933	3081
843.069	3089
843.206	3081
843.343	3173
843.479	3104
843.616	3100
843.752	2887
843.889	2883
844.025	3074
844.162	2883
844.298	3089
844.435	2933
844.571	2899
844.708	3070
844.844	3154
844.98	3211
845.117	3184
845.253	3020
845.389	3001
845.525	3085
845.661	3116
845.798	2986
845.934	3127
846.07	3062
846.206	3233
846.342	3329
846.478	3211
846.614	3093
846.75	3066
846.886	3001
847.022	3203
847.158	3135
847.294	3207
847.429	3230
847.565	3203
847.701	3469
847.837	3047
847.972	2990
848.108	3142
848.244	3104
848.379	2975
848.515	2963
848.65	2918
848.786	2956
848.921	2994
849.057	3093
849.192	3157
849.328	3043
849.463	3119
849.598	3039
849.734	3051
849.869	3001
850.004	2902
850.14	2971
850.275	2937
850.41	2800
850.545	2872
850.68	2925
850.815	2925
850.95	2914
851.085	3195
851.22	3089
851.355	3013
851.49	2952
851.625	2986
851.76	3020
851.895	2929
852.03	2941
852.165	3017
852.299	3097
852.434	3203
852.569	3138
852.703	3157
852.838	3230
852.973	3313
853.107	3329
853.242	3146
853.376	3123
853.511	2963
853.645	3001
853.78	3253
853.914	3119
854.048	3077
854.183	3043
854.317	3165
854.451	3264
854.585	3119
854.72	3081
854.854	3226
854.988	3051
855.122	3089
855.256	2990
855.39	3112
855.524	3203
855.658	3146
855.792	3135
855.926	3207
856.06	3264
856.194	3264
856.327	3157
856.461	3043
856.595	3051
856.729	3055
856.862	3176
856.996	3119
857.13	3184
857.263	3230
857.397	3253
857.53	3081
857.664	3195
857.797	3214
857.931	3260
858.064	3138
858.197	3218
858.331	3131
858.464	3077
858.597	2975
858.731	3131
858.864	3154
858.997	3081
859.13	3154
859.263	3173
859.396	3199
859.529	3089
859.662	3051
859.795	3051
859.928	3108
860.061	3256
860.194	3260
860.327	3135
860.46	3104
860.592	3237
860.725	3233
860.858	3245
860.99	3081
861.123	3104
861.256	3032
861.388	3146
861.521	3896
861.653	3032
861.786	2971
861.918	3005
862.05	3043
862.183	3085
862.315	3119
862.447	3188
862.58	3074
862.712	2952
862.844	2830
862.976	3047
863.108	3009
863.24	3393
863.372	2899
863.504	2952
863.636	2937
863.768	3020
863.9	2971
864.032	2902
864.164	2952
864.296	2982
864.428	3077
864.559	3116
864.691	3055
864.823	3020
864.954	3047
865.086	3039
865.217	3001
865.349	2956
865.48	2979
865.612	3001
865.743	3119
865.875	2975
866.006	2933
866.137	2986
866.269	2929
866.4	2918
866.531	2922
866.662	2887
866.793	2914
866.924	2872
867.055	2933
867.186	2918
867.317	2883
867.448	2815
867.579	2804
867.71	2811
867.841	2807
867.972	2929
868.103	2910
868.233	2864
868.364	2853
868.495	2899
868.625	3058
868.756	3154
868.886	2952
869.017	2994
869.147	3192
869.278	3123
869.408	3055
869.539	3058
869.669	3100
869.799	3036
869.929	3093
870.06	3112
870.19	3306
870.32	3310
870.45	3310
870.58	3378
870.71	3424
870.84	3435
870.97	3264
871.1	3230
871.23	3466
871.36	3424
871.489	3363
871.619	3367
871.749	3401
871.879	3439
872.008	3477
872.138	3355
872.267	3275
872.397	3150
872.526	3119
872.656	3032
872.785	3081
872.915	3218
873.044	3279
873.173	3199
873.303	3264
873.432	3207
873.561	3214
873.69	3146
873.819	3150
873.948	3199
874.077	3112
874.206	3070
874.335	3070
874.464	3173
874.593	3386
874.722	3230
874.851	3393
874.979	3348
875.108	3294
875.237	3195
875.365	3138
875.494	3150
875.623	3214
875.751	3081
875.88	3093
876.008	3176
876.136	3233
876.265	3332
876.393	3481
876.521	3412
876.65	3355
876.778	3355
876.906	3264
877.034	3161
877.162	3256
877.29	3138
877.418	3279
877.546	3253
877.674	3264
877.802	3214
877.93	3264
878.058	3203
878.185	3077
878.313	3184
878.441	3161
878.568	3081
878.696	3150
878.824	3237
878.951	3260
879.079	3450
879.206	3584
879.333	3401
879.461	3355
879.588	3332
879.715	3443
879.842	3595
879.97	3393
880.097	3173
880.224	3135
880.351	3161
880.478	3214
880.605	3184
880.732	3161
880.859	3515
880.986	3264
881.112	3283
881.239	3165
881.366	3100
881.493	3043
881.619	3001
881.746	3070
881.872	3108
881.999	3077
882.125	3150
882.252	3256
882.378	3287
882.505	3389
882.631	3260
882.757	3180
882.883	3161
883.01	3184
883.136	3169
883.262	3085
883.388	3051
883.514	3302
883.64	3367
883.766	3313
883.892	3203
884.018	3226
884.143	3393
884.269	3507
884.395	3173
884.52	3157
884.646	3188
884.772	3123
884.897	3135
885.023	3192
885.148	3317
885.274	3397
885.399	3348
885.524	3253
885.65	3245
885.775	3329
885.9	3275
886.025	3454
886.15	3340
886.275	3291
886.4	3245
886.525	3291
886.65	3272
886.775	3241
886.9	3511
887.025	3644
887.149	3393
887.274	3272
887.399	3146
887.523	3142
887.648	3135
887.773	3184
887.897	3336
888.021	3397
888.146	3283
888.27	3435
888.395	3519
888.519	3401
888.643	3454
888.767	3473
888.891	3336
889.015	3260
889.139	3287
889.263	3256
889.387	3386
889.511	3485
889.635	3450
889.759	3279
889.883	3298
890.006	3374
890.13	3481
890.254	3302
890.377	3325
890.501	3192
890.624	3157
890.748	3287
890.871	3154
890.995	3131
891.118	3036
891.241	3188
891.364	3233
891.488	3302
891.611	3195
891.734	3214
891.857	3294
891.98	3203
892.103	3317
892.226	3249
892.349	3222
892.471	3127
892.594	3237
892.717	3279
892.839	3237
892.962	3268
893.085	3370
893.207	3283
893.33	3135
893.452	3192
893.575	3306
893.697	3192
893.819	3412
893.941	3462
894.064	3466
894.186	3268
894.308	3230
894.43	3393
894.552	3530
894.674	3492
894.796	3264
894.918	3313
895.04	3287
895.161	3454
895.283	3382
895.405	3313
895.526	3340
895.648	3393
895.769	3424
895.891	3496
896.012	3469
896.134	3481
896.255	3431
896.376	3351
896.498	3340
896.619	3462
896.74	3351
896.861	3405
896.982	3644
897.103	3838
897.224	3553
897.345	3454
897.466	3378
897.587	3466
897.708	3641
897.828	3553
897.949	3450
898.07	3332
898.19	3374
898.311	3603
898.431	3450
898.552	3507
898.672	3603
898.792	3584
898.913	3557
899.033	3439
899.153	3313
899.273	3203
899.393	3260
899.513	3306
899.633	3279
899.753	3363
899.873	3332
899.993	3348
900.113	3374
900.232	3359
900.352	3355
900.472	3275
900.591	3180
900.711	3283
900.83	3214
900.95	3424
901.069	3481
901.189	3348
901.308	3214
901.427	3138
901.546	3176
901.665	3302
901.784	3329
901.904	3180
902.023	3131
902.141	2998
902.26	3024
902.379	3123
902.498	3039
902.617	3058
902.735	3207
902.854	3249
902.973	3207
903.091	3028
903.21	3036
903.328	3127
903.446	3138
903.565	3074
903.683	3207
903.801	3169
903.919	3260
904.038	3310
904.156	3161
904.274	3283
904.392	3245
904.51	3291
904.627	3321
904.745	3454
904.863	3523
904.981	3218
905.098	3135
905.216	3226
905.334	3317
905.451	3329
905.569	3287
905.686	3397
905.803	3458
905.921	3241
906.038	3473
906.155	3325
906.272	3264
906.389	3321
906.506	3165
906.623	3245
906.74	3218
906.857	3180
906.974	3233
907.091	3397
907.208	3530
907.324	3462
907.441	3367
907.557	3260
907.674	3237
907.79	3207
907.907	3283
908.023	3367
908.139	3401
908.256	3325
908.372	3370
908.488	3329
908.604	3245
908.72	3218
908.836	3306
908.952	3313
909.068	3355
909.184	3473
909.3	3374
909.415	3526
909.531	3523
909.647	3264
909.762	3264
909.878	3260
909.993	3351
910.108	3340
910.224	3325
910.339	3355
910.454	3351
910.57	3287
910.685	3226
910.8	3591
910.915	3553
911.03	3409
911.145	3253
911.259	3287
911.374	3291
911.489	3222
911.604	3272
911.718	3104
911.833	3150
911.947	2998
912.062	2986
912.176	3157
912.291	3165
912.405	3195
912.519	3409
912.633	3443
912.748	3336
912.862	3287
912.976	3173
913.09	3058
913.204	3138
913.318	3260
913.431	3351
913.545	3344
913.659	3378
913.772	3332
913.886	3184
914	3207
914.113	3367
914.226	3435
914.34	3355
914.453	3233
914.566	3424
914.68	3291
914.793	3336
914.906	3138
915.019	3112
915.132	3066
915.245	3199
915.358	3192
915.47	3211
915.583	3264
915.696	3313
915.809	3393
915.921	3401
916.034	3245
916.146	3268
916.259	3214
916.371	3359
916.483	3374
916.595	3260
916.708	3374
916.82	3306
916.932	3294
917.044	3329
917.156	3321
917.268	3287
917.38	3260
917.491	3275
917.603	3340
917.715	3450
917.826	3447
917.938	3386
918.049	3264
918.161	3401
918.272	3576
918.384	3549
918.495	3466
918.606	3336
918.717	3241
918.828	3367
918.939	3389
919.05	3321
919.161	3367
919.272	3195
919.383	3268
919.494	3481
919.604	3656
919.715	3504
919.826	3351
919.936	3477
920.047	3564
920.157	3557
920.267	3743
920.378	3633
920.488	3526
920.598	3770
920.708	3937
920.818	3789
920.928	3831
921.038	4055
921.148	3956
921.258	3724
921.368	3622
921.477	3576
921.587	3538
921.697	3447
921.806	3656
921.916	3507
922.025	3389
922.134	3344
922.244	3348
922.353	3389
922.462	3298
922.571	3218
922.68	3100
922.789	3112
922.898	3142
923.007	3047
923.116	3211
923.224	3119
923.333	3146
923.442	3070
923.55	3051
923.659	3161
923.767	3203
923.876	3131
923.984	3237
924.092	3119
924.201	3207
924.309	3214
924.417	3233
924.525	3169
924.633	3253
924.741	4166
924.849	3066
924.956	3264
925.064	3116
925.172	3024
925.279	3081
925.387	3207
925.494	3188
925.602	3363
925.709	3336
925.816	3203
925.924	3287
926.031	3466
926.138	3348
926.245	3389
926.352	3218
926.459	3397
926.566	3469
926.673	3317
926.779	3298
926.886	3272
926.993	3150
927.099	3119
927.206	3127
927.312	3112
927.419	3237
927.525	3207
927.631	3245
927.737	3138
927.843	3150
927.95	3028
928.056	3081
928.162	3165
928.267	3222
928.373	3816
928.479	3272
928.585	3047
928.69	3218
928.796	3283
928.901	3161
929.007	3028
929.112	3237
929.218	3176
929.323	3131
929.428	3142
929.533	3340
929.638	3100
929.743	3157
929.848	3233
929.953	3207
930.058	3138
930.163	2986
930.267	3005
930.372	3211
930.477	3013
930.581	3321
930.685	3161
930.79	3036
930.894	3135
930.998	3093
931.103	3268
931.207	2960
931.311	2929
931.415	2899
931.519	2762
931.623	2819
