Data from test_V78500241_1321.txt Node
Date: Fri Mar 25 16:24:21 CST 2022
User: usil
Spectrometer: V785-0024
Trigger mode: 0
Integration Time (sec): 4.000000E-1
Scans to average: 1
Nonlinearity correction enabled: false
Boxcar width: 0
Storing dark spectrum: false
XAxis mode: Wavelengths
Number of Pixels in Spectrum: 1024
>>>>>Begin Spectral Data<<<<<
801.071	2941
801.214	2967
801.356	2895
801.499	2906
801.641	2872
801.783	2960
801.926	3028
802.068	2990
802.211	2998
802.353	3039
802.496	2918
802.638	3039
802.78	3039
802.923	3100
803.065	3005
803.208	2910
803.35	2876
803.492	2956
803.635	2960
803.777	2758
803.919	2868
804.061	3211
804.204	2979
804.346	2922
804.488	2880
804.63	2967
804.773	2880
804.915	2918
805.057	3085
805.199	2948
805.341	2998
805.483	3047
805.626	2990
805.768	2975
805.91	3112
806.052	3093
806.194	3001
806.336	3260
806.478	3024
806.62	2975
806.762	2990
806.904	3036
807.046	3176
807.188	2975
807.33	2922
807.472	2975
807.614	2883
807.756	2967
807.898	2944
808.04	2899
808.182	2948
808.324	2967
808.465	2906
808.607	2910
808.749	2762
808.891	2838
809.033	2960
809.174	2975
809.316	2887
809.458	2914
809.6	2807
809.741	2788
809.883	2785
810.025	2861
810.166	2861
810.308	2834
810.45	2838
810.591	2746
810.733	2777
810.875	2826
811.016	2758
811.158	2746
811.299	2781
811.441	2906
811.582	2876
811.724	2823
811.865	2823
812.007	2887
812.148	2876
812.29	2823
812.431	2906
812.573	2933
812.714	2975
812.855	3024
812.997	3047
813.138	3142
813.279	2979
813.421	2971
813.562	2975
813.703	2861
813.845	2910
813.986	2762
814.127	2788
814.268	2800
814.41	2857
814.551	2804
814.692	2868
814.833	2861
814.974	2861
815.115	2944
815.256	2807
815.397	2785
815.539	2861
815.68	2769
815.821	2823
815.962	2963
816.103	2933
816.244	2902
816.385	2849
816.526	2952
816.666	2925
816.807	2716
816.948	2857
817.089	2918
817.23	2849
817.371	2769
817.512	2792
817.653	2819
817.793	2864
817.934	2872
818.075	2971
818.216	2986
818.356	3032
818.497	2891
818.638	2807
818.778	2823
818.919	2762
819.06	2750
819.2	2868
819.341	2804
819.481	2796
819.622	2918
819.762	3100
819.903	3077
820.043	2899
820.184	2876
820.324	2876
820.465	3017
820.605	3039
820.746	3051
820.886	2944
821.026	3085
821.167	3127
821.307	3226
821.447	3233
821.588	3264
821.728	3195
821.868	3222
822.008	3108
822.149	3146
822.289	3241
822.429	3055
822.569	3089
822.709	3165
822.849	3028
822.99	3062
823.13	3138
823.27	3211
823.41	3123
823.55	3104
823.69	3077
823.83	3184
823.97	3089
824.11	2998
824.25	2956
824.389	3043
824.529	3154
824.669	3062
824.809	3188
824.949	3230
825.089	3226
825.228	3112
825.368	2994
825.508	2933
825.648	2956
825.787	3028
825.927	3005
826.067	2918
826.206	2941
826.346	3055
826.485	3085
826.625	3123
826.765	3249
826.904	3283
827.044	3024
827.183	2971
827.323	2849
827.462	2982
827.601	2922
827.741	2941
827.88	2986
828.02	2857
828.159	2986
828.298	3043
828.437	3135
828.577	3047
828.716	3272
828.855	3077
828.994	2925
829.134	2922
829.273	2952
829.412	2891
829.551	2906
829.69	2918
829.829	3028
829.968	3154
830.107	3032
830.246	3039
830.385	3001
830.524	2918
830.663	2830
830.802	2743
830.941	2693
831.08	2693
831.219	2800
831.357	2785
831.496	2979
831.635	2743
831.774	2663
831.913	2659
832.051	2606
832.19	2617
832.329	2727
832.467	2571
832.606	2503
832.744	2617
832.883	2610
833.022	2613
833.16	2716
833.299	2712
833.437	2731
833.576	2708
833.714	2762
833.852	2746
833.991	2800
834.129	2891
834.267	2861
834.406	2857
834.544	2887
834.682	2906
834.821	2872
834.959	3097
835.097	2906
835.235	3100
835.373	3020
835.511	3055
835.65	3017
835.788	2998
835.926	2876
836.064	2815
836.202	2861
836.34	3135
836.478	3161
836.615	3085
836.753	3184
836.891	3241
837.029	3233
837.167	3138
837.305	3066
837.443	3108
837.58	2998
837.718	3146
837.856	3123
837.993	3058
838.131	3161
838.269	3135
838.406	3081
838.544	3077
838.681	2971
838.819	2956
838.956	2853
839.094	2891
839.231	2963
839.369	3055
839.506	3382
839.643	3237
839.781	3062
839.918	2979
840.055	3081
840.193	3093
840.33	3077
840.467	3142
840.604	3188
840.742	3466
840.879	3066
841.016	3093
841.153	3161
841.29	3370
841.427	3306
841.564	3272
841.701	3344
841.838	3233
841.975	3211
842.112	3241
842.249	3116
842.385	3097
842.522	3291
842.659	3138
842.796	3081
842.933	3146
843.069	3081
843.206	3058
843.343	3211
843.479	3173
843.616	3173
843.752	2910
843.889	2914
844.025	3104
844.162	2922
844.298	3100
844.435	2975
844.571	2944
844.708	3138
844.844	3203
844.98	3272
845.117	3237
845.253	3097
845.389	2998
845.525	3112
845.661	3131
845.798	3062
845.934	3176
846.07	3062
846.206	3256
846.342	3302
846.478	3237
846.614	3123
846.75	3070
846.886	3020
847.022	3283
847.158	3184
847.294	3233
847.429	3260
847.565	3272
847.701	3511
847.837	3039
847.972	2990
848.108	3207
848.244	3199
848.379	3005
848.515	2990
848.65	2967
848.786	2967
848.921	3036
849.057	3123
849.192	3192
849.328	3085
849.463	3138
849.598	3108
849.734	3058
849.869	3028
850.004	2925
850.14	2990
850.275	2918
850.41	2880
850.545	2876
850.68	2960
850.815	2975
850.95	3005
851.085	3211
851.22	3112
851.355	3017
851.49	3043
851.625	3005
851.76	3058
851.895	2975
852.03	2944
852.165	3043
852.299	3131
852.434	3214
852.569	3184
852.703	3214
852.838	3298
852.973	3386
853.107	3378
853.242	3173
853.376	3085
853.511	3020
853.645	3062
853.78	3302
853.914	3150
854.048	3135
854.183	3116
854.317	3138
854.451	3332
854.585	3173
854.72	3074
854.854	3222
854.988	3077
855.122	3108
855.256	3005
855.39	3135
855.524	3249
855.658	3207
855.792	3192
855.926	3214
856.06	3226
856.194	3287
856.327	3218
856.461	3112
856.595	3085
856.729	3100
856.862	3253
856.996	3165
857.13	3245
857.263	3275
857.397	3275
857.53	3146
857.664	3233
857.797	3214
857.931	3294
858.064	3176
858.197	3218
858.331	3146
858.464	3157
858.597	3032
858.731	3123
858.864	3100
858.997	3100
859.13	3169
859.263	3173
859.396	3264
859.529	3131
859.662	3093
859.795	3077
859.928	3173
860.061	3272
860.194	3348
860.327	3127
860.46	3108
860.592	3241
860.725	3287
860.858	3294
860.99	3150
861.123	3089
861.256	3062
861.388	3169
861.521	3701
861.653	3058
861.786	2998
861.918	3032
862.05	3089
862.183	3104
862.315	3184
862.447	3214
862.58	3085
862.712	2948
862.844	2868
862.976	3005
863.108	3028
863.24	3325
863.372	2887
863.504	3039
863.636	2990
863.768	3032
863.9	2975
864.032	2937
864.164	2971
864.296	2994
864.428	3093
864.559	3142
864.691	3119
864.823	3055
864.954	3043
865.086	3070
865.217	3043
865.349	3001
865.48	3013
865.612	3032
865.743	3188
865.875	2994
866.006	2956
866.137	2979
866.269	2941
866.4	2937
866.531	2895
866.662	2914
866.793	2910
866.924	2902
867.055	2979
867.186	2956
867.317	2899
867.448	2838
867.579	2887
867.71	2857
867.841	2842
867.972	2933
868.103	2956
868.233	2902
868.364	2956
868.495	2948
868.625	3085
868.756	3192
868.886	3009
869.017	3024
869.147	3230
869.278	3157
869.408	3100
869.539	3043
869.669	3119
869.799	3036
869.929	3176
870.06	3108
870.19	3317
870.32	3325
870.45	3355
870.58	3386
870.71	3443
870.84	3454
870.97	3313
871.1	3279
871.23	3473
871.36	3443
871.489	3386
871.619	3458
871.749	3428
871.879	3477
872.008	3549
872.138	3363
872.267	3260
872.397	3226
872.526	3104
872.656	3051
872.785	3135
872.915	3245
873.044	3332
873.173	3264
873.303	3256
873.432	3325
873.561	3241
873.69	3165
873.819	3176
873.948	3214
874.077	3131
874.206	3070
874.335	3077
874.464	3218
874.593	3378
874.722	3294
874.851	3405
874.979	3370
875.108	3363
875.237	3226
875.365	3173
875.494	3203
875.623	3287
875.751	3116
875.88	3135
876.008	3203
876.136	3233
876.265	3393
876.393	3511
876.521	3454
876.65	3469
876.778	3386
876.906	3245
877.034	3211
877.162	3264
877.29	3192
877.418	3279
877.546	3253
877.674	3294
877.802	3226
877.93	3245
878.058	3199
878.185	3154
878.313	3211
878.441	3283
878.568	3070
878.696	3192
878.824	3283
878.951	3340
879.079	3485
879.206	3625
879.333	3439
879.461	3325
879.588	3367
879.715	3485
879.842	3663
879.97	3355
880.097	3211
880.224	3142
880.351	3161
880.478	3241
880.605	3214
880.732	3192
880.859	3534
880.986	3310
881.112	3332
881.239	3233
881.366	3131
881.493	3047
881.619	3036
881.746	3108
881.872	3112
881.999	3135
882.125	3157
882.252	3268
882.378	3332
882.505	3443
882.631	3245
882.757	3146
882.883	3222
883.01	3272
883.136	3188
883.262	3108
883.388	3119
883.514	3329
883.64	3370
883.766	3336
883.892	3195
884.018	3237
884.143	3443
884.269	3553
884.395	3226
884.52	3157
884.646	3173
884.772	3154
884.897	3085
885.023	3237
885.148	3367
885.274	3462
885.399	3401
885.524	3302
885.65	3264
885.775	3332
885.9	3294
886.025	3412
886.15	3355
886.275	3321
886.4	3279
886.525	3321
886.65	3268
886.775	3325
886.9	3530
887.025	3656
887.149	3466
887.274	3264
887.399	3211
887.523	3195
887.648	3192
887.773	3241
887.897	3367
888.021	3420
888.146	3329
888.27	3458
888.395	3519
888.519	3462
888.643	3458
888.767	3492
888.891	3344
889.015	3275
889.139	3291
889.263	3245
889.387	3424
889.511	3507
889.635	3488
889.759	3306
889.883	3317
890.006	3439
890.13	3511
890.254	3306
890.377	3351
890.501	3226
890.624	3192
890.748	3317
890.871	3184
890.995	3127
891.118	3077
891.241	3173
891.364	3253
891.488	3291
891.611	3233
891.734	3256
891.857	3294
891.98	3222
892.103	3332
892.226	3310
892.349	3264
892.471	3119
892.594	3214
892.717	3344
892.839	3275
892.962	3298
893.085	3386
893.207	3313
893.33	3165
893.452	3222
893.575	3370
893.697	3249
893.819	3469
893.941	3599
894.064	3466
894.186	3260
894.308	3298
894.43	3473
894.552	3549
894.674	3492
894.796	3260
894.918	3313
895.04	3329
895.161	3416
895.283	3409
895.405	3355
895.526	3382
895.648	3401
895.769	3439
895.891	3420
896.012	3500
896.134	3500
896.255	3428
896.376	3374
896.498	3359
896.619	3447
896.74	3363
896.861	3424
896.982	3679
897.103	3835
897.224	3610
897.345	3564
897.466	3431
897.587	3496
897.708	3663
897.828	3599
897.949	3397
898.07	3351
898.19	3393
898.311	3568
898.431	3466
898.552	3538
898.672	3614
898.792	3584
898.913	3545
899.033	3416
899.153	3268
899.273	3260
899.393	3272
899.513	3306
899.633	3374
899.753	3367
899.873	3321
899.993	3389
900.113	3332
900.232	3405
900.352	3389
900.472	3302
900.591	3188
900.711	3291
900.83	3279
900.95	3424
901.069	3519
901.189	3378
901.308	3180
901.427	3116
901.546	3188
901.665	3283
901.784	3348
901.904	3214
902.023	3169
902.141	3017
902.26	3017
902.379	3154
902.498	3085
902.617	3062
902.735	3195
902.854	3214
902.973	3192
903.091	3058
903.21	3062
903.328	3142
903.446	3142
903.565	3100
903.683	3226
903.801	3154
903.919	3279
904.038	3237
904.156	3154
904.274	3291
904.392	3264
904.51	3298
904.627	3321
904.745	3431
904.863	3496
904.981	3237
905.098	3165
905.216	3233
905.334	3298
905.451	3329
905.569	3325
905.686	3439
905.803	3458
905.921	3306
906.038	3439
906.155	3378
906.272	3291
906.389	3317
906.506	3283
906.623	3260
906.74	3317
906.857	3199
906.974	3283
907.091	3492
907.208	3557
907.324	3500
907.441	3401
907.557	3245
907.674	3283
907.79	3245
907.907	3279
908.023	3382
908.139	3359
908.256	3294
908.372	3340
908.488	3363
908.604	3294
908.72	3214
908.836	3310
908.952	3272
909.068	3310
909.184	3504
909.3	3386
909.415	3458
909.531	3454
909.647	3294
909.762	3321
909.878	3256
909.993	3363
910.108	3348
910.224	3298
910.339	3443
910.454	3298
910.57	3264
910.685	3268
910.8	3633
910.915	3534
911.03	3405
911.145	3268
911.259	3253
911.374	3283
911.489	3253
911.604	3233
911.718	3119
911.833	3154
911.947	3058
912.062	2975
912.176	3154
912.291	3192
912.405	3233
912.519	3462
912.633	3473
912.748	3313
912.862	3306
912.976	3161
913.09	3070
913.204	3157
913.318	3264
913.431	3329
913.545	3363
913.659	3439
913.772	3340
913.886	3214
914	3245
914.113	3367
914.226	3412
914.34	3367
914.453	3199
914.566	3428
914.68	3275
914.793	3329
914.906	3157
915.019	3146
915.132	3108
915.245	3173
915.358	3203
915.47	3233
915.583	3264
915.696	3313
915.809	3401
915.921	3428
916.034	3268
916.146	3245
916.259	3237
916.371	3374
916.483	3393
916.595	3256
916.708	3344
916.82	3348
916.932	3351
917.044	3374
917.156	3344
917.268	3230
917.38	3329
917.491	3306
917.603	3405
917.715	3439
917.826	3454
917.938	3389
918.049	3302
918.161	3431
918.272	3572
918.384	3591
918.495	3515
918.606	3329
918.717	3260
918.828	3363
918.939	3481
919.05	3294
919.161	3359
919.272	3157
919.383	3283
919.494	3447
919.604	3644
919.715	3462
919.826	3443
919.936	3428
920.047	3587
920.157	3595
920.267	3774
920.378	3595
920.488	3576
920.598	3778
920.708	3968
920.818	3827
920.928	3846
921.038	4036
921.148	3983
921.258	3774
921.368	3637
921.477	3561
921.587	3530
921.697	3428
921.806	3641
921.916	3587
922.025	3351
922.134	3351
922.244	3329
922.353	3431
922.462	3298
922.571	3222
922.68	3119
922.789	3104
922.898	3100
923.007	3089
923.116	3249
923.224	3161
923.333	3157
923.442	3074
923.55	3100
923.659	3154
923.767	3226
923.876	3112
923.984	3268
924.092	3093
924.201	3165
924.309	3222
924.417	3253
924.525	3169
924.633	3222
924.741	4021
924.849	3017
924.956	3268
925.064	3100
925.172	3032
925.279	3089
925.387	3192
925.494	3214
925.602	3287
925.709	3325
925.816	3142
925.924	3245
926.031	3367
926.138	3340
926.245	3359
926.352	3256
926.459	3405
926.566	3466
926.673	3287
926.779	3222
926.886	3249
926.993	3135
927.099	3165
927.206	3093
927.312	3116
927.419	3237
927.525	3184
927.631	3268
927.737	3154
927.843	3116
927.95	3020
928.056	3154
928.162	3169
928.267	3226
928.373	3857
928.479	3332
928.585	3089
928.69	3176
928.796	3241
928.901	3154
929.007	3036
929.112	3188
929.218	3173
929.323	3138
929.428	3142
929.533	3302
929.638	3093
929.743	3176
929.848	3256
929.953	3207
930.058	3138
930.163	3024
930.267	3097
930.372	3184
930.477	3013
930.581	3317
930.685	3157
930.79	3058
930.894	3116
930.998	3089
931.103	3291
931.207	2960
931.311	2941
931.415	2925
931.519	2785
931.623	2838
