Data from test_V78500241_334.txt Node
Date: Fri Mar 25 16:17:31 CST 2022
User: usil
Spectrometer: V785-0024
Trigger mode: 0
Integration Time (sec): 4.000000E-1
Scans to average: 1
Nonlinearity correction enabled: false
Boxcar width: 0
Storing dark spectrum: false
XAxis mode: Wavelengths
Number of Pixels in Spectrum: 1024
>>>>>Begin Spectral Data<<<<<
801.071	2956
801.214	2967
801.356	2906
801.499	2914
801.641	2914
801.783	2952
801.926	3058
802.068	2963
802.211	3005
802.353	3055
802.496	2982
802.638	3028
802.78	3062
802.923	3154
803.065	3005
803.208	2937
803.35	2914
803.492	2941
803.635	2914
803.777	2769
803.919	2861
804.061	3218
804.204	2967
804.346	2918
804.488	2864
804.63	3036
804.773	2899
804.915	2937
805.057	3108
805.199	2922
805.341	2971
805.483	3036
805.626	3013
805.768	2944
805.91	3066
806.052	3142
806.194	3051
806.336	3226
806.478	3032
806.62	2963
806.762	3005
806.904	3131
807.046	3199
807.188	3013
807.33	2922
807.472	3032
807.614	2906
807.756	3009
807.898	2975
808.04	2925
808.182	3001
808.324	2975
808.465	2914
808.607	2914
808.749	2830
808.891	2853
809.033	3024
809.174	2994
809.316	2933
809.458	2914
809.6	2792
809.741	2785
809.883	2804
810.025	2887
810.166	2880
810.308	2914
810.45	2857
810.591	2792
810.733	2792
810.875	2891
811.016	2804
811.158	2792
811.299	2823
811.441	2963
811.582	2906
811.724	2861
811.865	2868
812.007	2941
812.148	2918
812.29	2895
812.431	2910
812.573	2933
812.714	2998
812.855	3093
812.997	3097
813.138	3146
813.279	3039
813.421	2998
813.562	2998
813.703	2883
813.845	2899
813.986	2796
814.127	2766
814.268	2834
814.41	2842
814.551	2876
814.692	2910
814.833	2868
814.974	2906
815.115	3017
815.256	2849
815.397	2796
815.539	2876
815.68	2800
815.821	2800
815.962	2956
816.103	2956
816.244	2918
816.385	2887
816.526	2998
816.666	2941
816.807	2773
816.948	2956
817.089	2941
817.23	2845
817.371	2781
817.512	2815
817.653	2872
817.793	2811
817.934	2876
818.075	2998
818.216	3043
818.356	3036
818.497	2883
818.638	2826
818.778	2849
818.919	2826
819.06	2830
819.2	2880
819.341	2853
819.481	2849
819.622	2975
819.762	3123
819.903	3085
820.043	2922
820.184	2925
820.324	2925
820.465	3043
820.605	2986
820.746	3043
820.886	2937
821.026	3108
821.167	3169
821.307	3275
821.447	3321
821.588	3226
821.728	3253
821.868	3268
822.008	3104
822.149	3237
822.289	3279
822.429	3085
822.569	3100
822.709	3218
822.849	3089
822.99	3081
823.13	3195
823.27	3230
823.41	3138
823.55	3207
823.69	3146
823.83	3226
823.97	3097
824.11	3017
824.25	2982
824.389	3024
824.529	3116
824.669	3055
824.809	3237
824.949	3264
825.089	3203
825.228	3222
825.368	3028
825.508	2960
825.648	2971
825.787	3028
825.927	3055
826.067	2963
826.206	2998
826.346	3039
826.485	3093
826.625	3131
826.765	3294
826.904	3245
827.044	2986
827.183	2956
827.323	2880
827.462	2990
827.601	2918
827.741	2925
827.88	2971
828.02	2861
828.159	2971
828.298	3047
828.437	3135
828.577	3077
828.716	3245
828.855	3104
828.994	2925
829.134	2922
829.273	2941
829.412	2876
829.551	2876
829.69	2952
829.829	3013
829.968	3135
830.107	3013
830.246	3047
830.385	2952
830.524	2868
830.663	2823
830.802	2743
830.941	2659
831.08	2659
831.219	2781
831.357	2788
831.496	2971
831.635	2731
831.774	2655
831.913	2701
832.051	2575
832.19	2590
832.329	2701
832.467	2571
832.606	2495
832.744	2625
832.883	2602
833.022	2594
833.16	2629
833.299	2670
833.437	2724
833.576	2724
833.714	2712
833.852	2735
833.991	2766
834.129	2800
834.267	2853
834.406	2807
834.544	2899
834.682	2891
834.821	2872
834.959	3131
835.097	2899
835.235	3077
835.373	3036
835.511	3036
835.65	2986
835.788	2986
835.926	2849
836.064	2842
836.202	2834
836.34	3131
836.478	3154
836.615	3058
836.753	3142
836.891	3203
837.029	3169
837.167	3093
837.305	3039
837.443	3066
837.58	2967
837.718	3123
837.856	3112
837.993	3062
838.131	3157
838.269	3097
838.406	3093
838.544	3089
838.681	2944
838.819	2925
838.956	2842
839.094	2845
839.231	2948
839.369	3024
839.506	3397
839.643	3218
839.781	3062
839.918	2960
840.055	3089
840.193	3062
840.33	3066
840.467	3108
840.604	3150
840.742	3386
840.879	3047
841.016	3085
841.153	3135
841.29	3340
841.427	3336
841.564	3241
841.701	3344
841.838	3211
841.975	3157
842.112	3222
842.249	3074
842.385	3074
842.522	3260
842.659	3104
842.796	3074
842.933	3116
843.069	3032
843.206	3062
843.343	3176
843.479	3119
843.616	3131
843.752	2929
843.889	2891
844.025	3112
844.162	2887
844.298	3093
844.435	2948
844.571	2948
844.708	3066
844.844	3173
844.98	3222
845.117	3207
845.253	3043
845.389	2982
845.525	3116
845.661	3081
845.798	2979
845.934	3081
846.07	3077
846.206	3245
846.342	3340
846.478	3230
846.614	3100
846.75	3043
846.886	3001
847.022	3230
847.158	3150
847.294	3222
847.429	3249
847.565	3237
847.701	3492
847.837	3074
847.972	2986
848.108	3161
848.244	3165
848.379	3043
848.515	2998
848.65	2944
848.786	2963
848.921	3024
849.057	3112
849.192	3135
849.328	3077
849.463	3131
849.598	3062
849.734	3089
849.869	3005
850.004	2914
850.14	2971
850.275	2918
850.41	2845
850.545	2895
850.68	2982
850.815	2960
850.95	3036
851.085	3253
851.22	3150
851.355	3077
851.49	3058
851.625	3013
851.76	3039
851.895	2986
852.03	2994
852.165	3036
852.299	3104
852.434	3233
852.569	3169
852.703	3233
852.838	3272
852.973	3378
853.107	3374
853.242	3165
853.376	3104
853.511	3013
853.645	3104
853.78	3268
853.914	3176
854.048	3161
854.183	3127
854.317	3188
854.451	3321
854.585	3184
854.72	3150
854.854	3230
854.988	3097
855.122	3104
855.256	3005
855.39	3180
855.524	3264
855.658	3237
855.792	3218
855.926	3233
856.06	3264
856.194	3287
856.327	3214
856.461	3146
856.595	3112
856.729	3142
856.862	3256
856.996	3176
857.13	3256
857.263	3329
857.397	3321
857.53	3157
857.664	3268
857.797	3241
857.931	3283
858.064	3199
858.197	3260
858.331	3184
858.464	3100
858.597	3070
858.731	3176
858.864	3199
858.997	3138
859.13	3214
859.263	3176
859.396	3241
859.529	3131
859.662	3146
859.795	3077
859.928	3180
860.061	3313
860.194	3306
860.327	3188
860.46	3100
860.592	3283
860.725	3272
860.858	3310
860.99	3161
861.123	3119
861.256	3066
861.388	3214
861.521	3922
861.653	3093
861.786	3036
861.918	3009
862.05	3097
862.183	3100
862.315	3176
862.447	3214
862.58	3154
862.712	3009
862.844	2895
862.976	3047
863.108	3043
863.24	3340
863.372	2914
863.504	3024
863.636	2990
863.768	3093
863.9	3013
864.032	2937
864.164	3001
864.296	3032
864.428	3112
864.559	3131
864.691	3146
864.823	3131
864.954	3066
865.086	3100
865.217	3005
865.349	2990
865.48	3024
865.612	3047
865.743	3173
865.875	3009
866.006	2967
866.137	3051
866.269	3001
866.4	2979
866.531	2952
866.662	2918
866.793	2899
866.924	2944
867.055	3009
867.186	2979
867.317	2952
867.448	2914
867.579	2880
867.71	2872
867.841	2864
867.972	2952
868.103	2899
868.233	2918
868.364	2918
868.495	2910
868.625	3108
868.756	3199
868.886	3039
869.017	3043
869.147	3173
869.278	3211
869.408	3077
869.539	3051
869.669	3108
869.799	3081
869.929	3173
870.06	3108
870.19	3382
870.32	3363
870.45	3317
870.58	3378
870.71	3500
870.84	3473
870.97	3321
871.1	3268
871.23	3534
871.36	3431
871.489	3435
871.619	3435
871.749	3466
871.879	3481
872.008	3523
872.138	3393
872.267	3310
872.397	3165
872.526	3112
872.656	3051
872.785	3135
872.915	3233
873.044	3336
873.173	3249
873.303	3313
873.432	3268
873.561	3253
873.69	3211
873.819	3176
873.948	3249
874.077	3146
874.206	3047
874.335	3108
874.464	3241
874.593	3382
874.722	3321
874.851	3428
874.979	3355
875.108	3363
875.237	3249
875.365	3207
875.494	3180
875.623	3291
875.751	3123
875.88	3146
876.008	3199
876.136	3264
876.265	3393
876.393	3526
876.521	3481
876.65	3428
876.778	3378
876.906	3249
877.034	3214
877.162	3233
877.29	3214
877.418	3279
877.546	3287
877.674	3279
877.802	3275
877.93	3275
878.058	3157
878.185	3127
878.313	3264
878.441	3256
878.568	3112
878.696	3173
878.824	3287
878.951	3317
879.079	3473
879.206	3622
879.333	3450
879.461	3378
879.588	3386
879.715	3523
879.842	3576
879.97	3389
880.097	3237
880.224	3180
880.351	3264
880.478	3237
880.605	3214
880.732	3233
880.859	3534
880.986	3340
881.112	3359
881.239	3241
881.366	3116
881.493	3043
881.619	3024
881.746	3077
881.872	3165
881.999	3131
882.125	3157
882.252	3279
882.378	3321
882.505	3447
882.631	3313
882.757	3165
882.883	3256
883.01	3260
883.136	3173
883.262	3104
883.388	3150
883.514	3321
883.64	3374
883.766	3321
883.892	3199
884.018	3264
884.143	3447
884.269	3614
884.395	3184
884.52	3207
884.646	3264
884.772	3161
884.897	3135
885.023	3237
885.148	3382
885.274	3416
885.399	3409
885.524	3321
885.65	3268
885.775	3340
885.9	3268
886.025	3431
886.15	3405
886.275	3329
886.4	3264
886.525	3321
886.65	3367
886.775	3351
886.9	3500
887.025	3648
887.149	3428
887.274	3313
887.399	3207
887.523	3199
887.648	3203
887.773	3230
887.897	3397
888.021	3443
888.146	3374
888.27	3454
888.395	3553
888.519	3443
888.643	3428
888.767	3458
888.891	3313
889.015	3283
889.139	3325
889.263	3287
889.387	3466
889.511	3538
889.635	3481
889.759	3321
889.883	3287
890.006	3412
890.13	3515
890.254	3283
890.377	3332
890.501	3233
890.624	3203
890.748	3336
890.871	3199
890.995	3161
891.118	3077
891.241	3237
891.364	3245
891.488	3351
891.611	3211
891.734	3268
891.857	3332
891.98	3237
892.103	3397
892.226	3287
892.349	3245
892.471	3192
892.594	3253
892.717	3306
892.839	3298
892.962	3348
893.085	3386
893.207	3332
893.33	3184
893.452	3214
893.575	3382
893.697	3287
893.819	3515
893.941	3584
894.064	3462
894.186	3317
894.308	3306
894.43	3466
894.552	3557
894.674	3485
894.796	3294
894.918	3329
895.04	3325
895.161	3469
895.283	3424
895.405	3306
895.526	3359
895.648	3424
895.769	3439
895.891	3488
896.012	3500
896.134	3469
896.255	3473
896.376	3359
896.498	3401
896.619	3458
896.74	3412
896.861	3462
896.982	3694
897.103	3865
897.224	3595
897.345	3557
897.466	3492
897.587	3466
897.708	3618
897.828	3591
897.949	3458
898.07	3344
898.19	3458
898.311	3576
898.431	3466
898.552	3534
898.672	3614
898.792	3576
898.913	3591
899.033	3439
899.153	3321
899.273	3241
899.393	3298
899.513	3317
899.633	3329
899.753	3355
899.873	3275
899.993	3409
900.113	3374
900.232	3420
900.352	3393
900.472	3291
900.591	3245
900.711	3325
900.83	3287
900.95	3443
901.069	3504
901.189	3363
901.308	3253
901.427	3176
901.546	3214
901.665	3325
901.784	3382
901.904	3230
902.023	3192
902.141	3070
902.26	3032
902.379	3119
902.498	3097
902.617	3089
902.735	3214
902.854	3260
902.973	3222
903.091	3074
903.21	3097
903.328	3150
903.446	3135
903.565	3138
903.683	3264
903.801	3176
903.919	3272
904.038	3317
904.156	3180
904.274	3298
904.392	3272
904.51	3325
904.627	3306
904.745	3447
904.863	3477
904.981	3283
905.098	3161
905.216	3214
905.334	3329
905.451	3332
905.569	3344
905.686	3420
905.803	3485
905.921	3336
906.038	3435
906.155	3363
906.272	3302
906.389	3386
906.506	3260
906.623	3302
906.74	3298
906.857	3226
906.974	3283
907.091	3488
907.208	3584
907.324	3485
907.441	3420
907.557	3249
907.674	3253
907.79	3211
907.907	3283
908.023	3370
908.139	3431
908.256	3363
908.372	3386
908.488	3393
908.604	3268
908.72	3241
908.836	3298
908.952	3275
909.068	3367
909.184	3492
909.3	3420
909.415	3515
909.531	3477
909.647	3302
909.762	3317
909.878	3268
909.993	3439
910.108	3359
910.224	3348
910.339	3454
910.454	3340
910.57	3325
910.685	3287
910.8	3599
910.915	3580
911.03	3443
911.145	3306
911.259	3298
911.374	3370
911.489	3226
911.604	3237
911.718	3135
911.833	3188
911.947	3043
912.062	3005
912.176	3146
912.291	3222
912.405	3226
912.519	3454
912.633	3515
912.748	3386
912.862	3317
912.976	3218
913.09	3043
913.204	3184
913.318	3241
913.431	3370
913.545	3336
913.659	3416
913.772	3336
913.886	3233
914	3256
914.113	3382
914.226	3405
914.34	3378
914.453	3233
914.566	3431
914.68	3321
914.793	3336
914.906	3188
915.019	3150
915.132	3100
915.245	3222
915.358	3192
915.47	3249
915.583	3256
915.696	3294
915.809	3389
915.921	3450
916.034	3272
916.146	3249
916.259	3222
916.371	3389
916.483	3374
916.595	3313
916.708	3344
916.82	3355
916.932	3355
917.044	3382
917.156	3355
917.268	3264
917.38	3317
917.491	3310
917.603	3374
917.715	3466
917.826	3458
917.938	3401
918.049	3260
918.161	3412
918.272	3587
918.384	3603
918.495	3496
918.606	3382
918.717	3256
918.828	3405
918.939	3416
919.05	3317
919.161	3374
919.272	3173
919.383	3313
919.494	3515
919.604	3709
919.715	3507
919.826	3431
919.936	3424
920.047	3625
920.157	3576
920.267	3759
920.378	3618
920.488	3568
920.598	3827
920.708	3987
920.818	3854
920.928	3827
921.038	4040
921.148	3998
921.258	3686
921.368	3610
921.477	3610
921.587	3530
921.697	3507
921.806	3637
921.916	3511
922.025	3389
922.134	3405
922.244	3348
922.353	3447
922.462	3260
922.571	3230
922.68	3100
922.789	3081
922.898	3176
923.007	3135
923.116	3233
923.224	3199
923.333	3214
923.442	3138
923.55	3089
923.659	3127
923.767	3253
923.876	3135
923.984	3275
924.092	3085
924.201	3207
924.309	3214
924.417	3291
924.525	3222
924.633	3279
924.741	4227
924.849	3051
924.956	3313
925.064	3104
925.172	3032
925.279	3093
925.387	3211
925.494	3195
925.602	3401
925.709	3325
925.816	3199
925.924	3283
926.031	3363
926.138	3321
926.245	3321
926.352	3241
926.459	3431
926.566	3477
926.673	3325
926.779	3279
926.886	3317
926.993	3157
927.099	3157
927.206	3100
927.312	3116
927.419	3207
927.525	3218
927.631	3275
927.737	3157
927.843	3161
927.95	3043
928.056	3154
928.162	3176
928.267	3287
928.373	3861
928.479	3367
928.585	3097
928.69	3249
928.796	3283
928.901	3188
929.007	3047
929.112	3230
929.218	3188
929.323	3192
929.428	3192
929.533	3317
929.638	3123
929.743	3176
929.848	3283
929.953	3184
930.058	3154
930.163	3009
930.267	3062
930.372	3176
930.477	3020
930.581	3291
930.685	3180
930.79	3131
930.894	3112
930.998	3116
931.103	3325
931.207	2963
931.311	2967
931.415	2910
931.519	2792
931.623	2819
