Data from test_V78500241_29.txt Node
Date: Fri Mar 25 16:15:24 CST 2022
User: usil
Spectrometer: V785-0024
Trigger mode: 0
Integration Time (sec): 4.000000E-1
Scans to average: 1
Nonlinearity correction enabled: false
Boxcar width: 0
Storing dark spectrum: false
XAxis mode: Wavelengths
Number of Pixels in Spectrum: 1024
>>>>>Begin Spectral Data<<<<<
801.071	2929
801.214	2956
801.356	2914
801.499	2922
801.641	2922
801.783	2952
801.926	3089
802.068	3055
802.211	3047
802.353	3093
802.496	2994
802.638	3062
802.78	3062
802.923	3097
803.065	3070
803.208	2944
803.35	2979
803.492	2998
803.635	2967
803.777	2800
803.919	2899
804.061	3233
804.204	2986
804.346	2914
804.488	2899
804.63	3032
804.773	2895
804.915	2941
805.057	3150
805.199	2967
805.341	3001
805.483	3051
805.626	3039
805.768	3009
805.91	3112
806.052	3112
806.194	3089
806.336	3233
806.478	3036
806.62	2971
806.762	3036
806.904	3112
807.046	3214
807.188	3062
807.33	2914
807.472	3028
807.614	2971
807.756	3017
807.898	2956
808.04	2929
808.182	3024
808.324	2994
808.465	2937
808.607	2883
808.749	2838
808.891	2872
809.033	2986
809.174	2963
809.316	2925
809.458	2922
809.6	2804
809.741	2819
809.883	2800
810.025	2887
810.166	2891
810.308	2883
810.45	2876
810.591	2823
810.733	2815
810.875	2868
811.016	2853
811.158	2804
811.299	2872
811.441	2960
811.582	2937
811.724	2853
811.865	2853
812.007	2960
812.148	2948
812.29	2876
812.431	2922
812.573	2937
812.714	3028
812.855	3074
812.997	3081
813.138	3150
813.279	3062
813.421	3001
813.562	2986
813.703	2929
813.845	2914
813.986	2823
814.127	2727
814.268	2861
814.41	2883
814.551	2868
814.692	2899
814.833	2845
814.974	2918
815.115	2994
815.256	2853
815.397	2842
815.539	2899
815.68	2792
815.821	2849
815.962	2963
816.103	2956
816.244	2887
816.385	2914
816.526	3001
816.666	2960
816.807	2773
816.948	2922
817.089	2906
817.23	2864
817.371	2796
817.512	2807
817.653	2868
817.793	2830
817.934	2914
818.075	2975
818.216	2998
818.356	3020
818.497	2918
818.638	2815
818.778	2864
818.919	2811
819.06	2769
819.2	2902
819.341	2834
819.481	2834
819.622	2994
819.762	3154
819.903	3135
820.043	2967
820.184	2925
820.324	2914
820.465	3039
820.605	3097
820.746	3085
820.886	2990
821.026	3135
821.167	3184
821.307	3310
821.447	3378
821.588	3287
821.728	3268
821.868	3264
822.008	3146
822.149	3233
822.289	3275
822.429	3165
822.569	3138
822.709	3230
822.849	3138
822.99	3116
823.13	3222
823.27	3264
823.41	3180
823.55	3199
823.69	3211
823.83	3226
823.97	3165
824.11	3047
824.25	3081
824.389	3157
824.529	3195
824.669	3135
824.809	3279
824.949	3348
825.089	3310
825.228	3245
825.368	3119
825.508	3070
825.648	3036
825.787	3135
825.927	3116
826.067	3089
826.206	3032
826.346	3150
826.485	3157
826.625	3237
826.765	3378
826.904	3317
827.044	3058
827.183	3039
827.323	2956
827.462	3062
827.601	3001
827.741	2998
827.88	3024
828.02	2906
828.159	3062
828.298	3123
828.437	3173
828.577	3127
828.716	3306
828.855	3165
828.994	2982
829.134	2937
829.273	2998
829.412	2956
829.551	2967
829.69	2963
829.829	3051
829.968	3218
830.107	3131
830.246	3093
830.385	3024
830.524	2994
830.663	2902
830.802	2815
830.941	2739
831.08	2697
831.219	2807
831.357	2845
831.496	3051
831.635	2769
831.774	2743
831.913	2712
832.051	2640
832.19	2663
832.329	2750
832.467	2602
832.606	2571
832.744	2682
832.883	2644
833.022	2629
833.16	2716
833.299	2746
833.437	2739
833.576	2788
833.714	2800
833.852	2815
833.991	2788
834.129	2906
834.267	2899
834.406	2883
834.544	2922
834.682	2963
834.821	2933
834.959	3127
835.097	2929
835.235	3165
835.373	3066
835.511	3097
835.65	3058
835.788	3070
835.926	2906
836.064	2880
836.202	2918
836.34	3157
836.478	3230
836.615	3123
836.753	3207
836.891	3306
837.029	3207
837.167	3199
837.305	3154
837.443	3100
837.58	3036
837.718	3230
837.856	3135
837.993	3131
838.131	3195
838.269	3188
838.406	3203
838.544	3127
838.681	3062
838.819	2979
838.956	2872
839.094	2887
839.231	3020
839.369	3100
839.506	3477
839.643	3268
839.781	3085
839.918	3058
840.055	3123
840.193	3142
840.33	3119
840.467	3173
840.604	3192
840.742	3485
840.879	3150
841.016	3100
841.153	3207
841.29	3409
841.427	3405
841.564	3332
841.701	3386
841.838	3313
841.975	3203
842.112	3291
842.249	3138
842.385	3119
842.522	3340
842.659	3188
842.796	3157
842.933	3154
843.069	3131
843.206	3165
843.343	3294
843.479	3176
843.616	3249
843.752	2967
843.889	2929
844.025	3173
844.162	2948
844.298	3142
844.435	2998
844.571	2998
844.708	3173
844.844	3256
844.98	3287
845.117	3264
845.253	3108
845.389	3089
845.525	3165
845.661	3157
845.798	3116
845.934	3188
846.07	3116
846.206	3275
846.342	3386
846.478	3351
846.614	3211
846.75	3131
846.886	3119
847.022	3336
847.158	3192
847.294	3302
847.429	3332
847.565	3306
847.701	3564
847.837	3116
847.972	3062
848.108	3211
848.244	3233
848.379	3070
848.515	2986
848.65	2994
848.786	3043
848.921	3066
849.057	3169
849.192	3249
849.328	3127
849.463	3188
849.598	3131
849.734	3108
849.869	3066
850.004	2979
850.14	3085
850.275	2963
850.41	2857
850.545	2948
850.68	3009
850.815	3036
850.95	3070
851.085	3256
851.22	3131
851.355	3089
851.49	3074
851.625	3051
851.76	3085
851.895	3020
852.03	2963
852.165	3100
852.299	3214
852.434	3245
852.569	3241
852.703	3237
852.838	3344
852.973	3378
853.107	3401
853.242	3226
853.376	3157
853.511	3074
853.645	3093
853.78	3291
853.914	3207
854.048	3192
854.183	3180
854.317	3195
854.451	3370
854.585	3199
854.72	3154
854.854	3317
854.988	3077
855.122	3154
855.256	3043
855.39	3214
855.524	3294
855.658	3256
855.792	3256
855.926	3310
856.06	3298
856.194	3336
856.327	3226
856.461	3135
856.595	3131
856.729	3150
856.862	3302
856.996	3237
857.13	3253
857.263	3283
857.397	3359
857.53	3211
857.664	3268
857.797	3344
857.931	3332
858.064	3241
858.197	3264
858.331	3176
858.464	3176
858.597	3032
858.731	3249
858.864	3195
858.997	3184
859.13	3291
859.263	3207
859.396	3294
859.529	3146
859.662	3135
859.795	3127
859.928	3249
860.061	3355
860.194	3340
860.327	3222
860.46	3176
860.592	3340
860.725	3317
860.858	3313
860.99	3184
861.123	3085
861.256	3127
861.388	3214
861.521	3930
861.653	3058
861.786	3066
861.918	3051
862.05	3142
862.183	3157
862.315	3237
862.447	3268
862.58	3135
862.712	3017
862.844	2941
862.976	3097
863.108	3058
863.24	3469
863.372	2979
863.504	3017
863.636	3020
863.768	3100
863.9	3009
864.032	2986
864.164	3058
864.296	3081
864.428	3119
864.559	3192
864.691	3112
864.823	3119
864.954	3112
865.086	3138
865.217	3047
865.349	3047
865.48	3112
865.612	3108
865.743	3195
865.875	3039
866.006	3055
866.137	3024
866.269	3009
866.4	3009
866.531	2998
866.662	2933
866.793	2956
866.924	2899
867.055	3001
867.186	3005
867.317	2956
867.448	2891
867.579	2872
867.71	2929
867.841	2929
867.972	2952
868.103	2975
868.233	2956
868.364	2952
868.495	2979
868.625	3154
868.756	3211
868.886	3024
869.017	3074
869.147	3226
869.278	3230
869.408	3097
869.539	3062
869.669	3119
869.799	3089
869.929	3237
870.06	3150
870.19	3393
870.32	3336
870.45	3382
870.58	3504
870.71	3526
870.84	3504
870.97	3351
871.1	3279
871.23	3557
871.36	3515
871.489	3409
871.619	3431
871.749	3526
871.879	3538
872.008	3530
872.138	3454
872.267	3321
872.397	3237
872.526	3218
872.656	3085
872.785	3195
872.915	3306
873.044	3351
873.173	3306
873.303	3317
873.432	3313
873.561	3306
873.69	3211
873.819	3207
873.948	3226
874.077	3146
874.206	3108
874.335	3131
874.464	3291
874.593	3454
874.722	3321
874.851	3447
874.979	3405
875.108	3393
875.237	3260
875.365	3279
875.494	3260
875.623	3306
875.751	3138
875.88	3203
876.008	3279
876.136	3298
876.265	3428
876.393	3523
876.521	3466
876.65	3469
876.778	3363
876.906	3268
877.034	3302
877.162	3291
877.29	3245
877.418	3344
877.546	3287
877.674	3325
877.802	3249
877.93	3287
878.058	3211
878.185	3176
878.313	3253
878.441	3272
878.568	3150
878.696	3237
878.824	3348
878.951	3412
879.079	3496
879.206	3682
879.333	3485
879.461	3340
879.588	3386
879.715	3553
879.842	3679
879.97	3439
880.097	3245
880.224	3222
880.351	3241
880.478	3313
880.605	3272
880.732	3253
880.859	3515
880.986	3401
881.112	3397
881.239	3253
881.366	3176
881.493	3119
881.619	3070
881.746	3173
881.872	3138
881.999	3165
882.125	3207
882.252	3294
882.378	3348
882.505	3496
882.631	3359
882.757	3214
882.883	3249
883.01	3325
883.136	3203
883.262	3169
883.388	3180
883.514	3378
883.64	3447
883.766	3386
883.892	3256
884.018	3306
884.143	3420
884.269	3595
884.395	3226
884.52	3245
884.646	3287
884.772	3184
884.897	3192
885.023	3256
885.148	3405
885.274	3450
885.399	3439
885.524	3340
885.65	3291
885.775	3397
885.9	3336
886.025	3477
886.15	3454
886.275	3397
886.4	3294
886.525	3374
886.65	3348
886.775	3351
886.9	3576
887.025	3740
887.149	3492
887.274	3302
887.399	3249
887.523	3291
887.648	3249
887.773	3279
887.897	3439
888.021	3500
888.146	3340
888.27	3466
888.395	3610
888.519	3523
888.643	3519
888.767	3488
888.891	3389
889.015	3283
889.139	3336
889.263	3336
889.387	3450
889.511	3557
889.635	3526
889.759	3378
889.883	3382
890.006	3469
890.13	3553
890.254	3325
890.377	3397
890.501	3283
890.624	3268
890.748	3359
890.871	3237
890.995	3184
891.118	3150
891.241	3260
891.364	3313
891.488	3363
891.611	3233
891.734	3264
891.857	3321
891.98	3340
892.103	3412
892.226	3344
892.349	3287
892.471	3173
892.594	3287
892.717	3386
892.839	3344
892.962	3348
893.085	3397
893.207	3367
893.33	3188
893.452	3253
893.575	3409
893.697	3348
893.819	3545
893.941	3584
894.064	3542
894.186	3321
894.308	3344
894.43	3530
894.552	3572
894.674	3568
894.796	3344
894.918	3351
895.04	3374
895.161	3523
895.283	3435
895.405	3378
895.526	3416
895.648	3485
895.769	3496
895.891	3511
896.012	3538
896.134	3523
896.255	3496
896.376	3458
896.498	3424
896.619	3492
896.74	3428
896.861	3481
896.982	3755
897.103	3892
897.224	3663
897.345	3625
897.466	3500
897.587	3564
897.708	3747
897.828	3610
897.949	3507
898.07	3367
898.19	3447
898.311	3625
898.431	3526
898.552	3599
898.672	3648
898.792	3644
898.913	3584
899.033	3469
899.153	3374
899.273	3268
899.393	3329
899.513	3386
899.633	3344
899.753	3412
899.873	3348
899.993	3462
900.113	3370
900.232	3462
900.352	3412
900.472	3363
900.591	3287
900.711	3370
900.83	3313
900.95	3469
901.069	3545
901.189	3386
901.308	3226
901.427	3146
901.546	3256
901.665	3348
901.784	3348
901.904	3249
902.023	3211
902.141	3058
902.26	3077
902.379	3195
902.498	3112
902.617	3097
902.735	3253
902.854	3279
902.973	3272
903.091	3089
903.21	3089
903.328	3188
903.446	3127
903.565	3173
903.683	3272
903.801	3180
903.919	3272
904.038	3329
904.156	3203
904.274	3355
904.392	3294
904.51	3355
904.627	3397
904.745	3530
904.863	3595
904.981	3306
905.098	3245
905.216	3287
905.334	3351
905.451	3367
905.569	3310
905.686	3435
905.803	3492
905.921	3336
906.038	3462
906.155	3424
906.272	3359
906.389	3393
906.506	3260
906.623	3294
906.74	3302
906.857	3249
906.974	3222
907.091	3530
907.208	3629
907.324	3549
907.441	3443
907.557	3253
907.674	3298
907.79	3291
907.907	3340
908.023	3466
908.139	3454
908.256	3374
908.372	3443
908.488	3393
908.604	3325
908.72	3268
908.836	3329
908.952	3370
909.068	3397
909.184	3564
909.3	3473
909.415	3549
909.531	3542
909.647	3298
909.762	3325
909.878	3313
909.993	3416
910.108	3401
910.224	3420
910.339	3431
910.454	3355
910.57	3367
910.685	3264
910.8	3595
910.915	3587
911.03	3504
911.145	3332
911.259	3355
911.374	3351
911.489	3329
911.604	3298
911.718	3157
911.833	3176
911.947	3100
912.062	3020
912.176	3256
912.291	3218
912.405	3279
912.519	3515
912.633	3542
912.748	3389
912.862	3344
912.976	3195
913.09	3089
913.204	3188
913.318	3245
913.431	3424
913.545	3367
913.659	3496
913.772	3378
913.886	3218
914	3249
914.113	3409
914.226	3492
914.34	3431
914.453	3264
914.566	3469
914.68	3370
914.793	3355
914.906	3169
915.019	3173
915.132	3154
915.245	3211
915.358	3279
915.47	3272
915.583	3340
915.696	3367
915.809	3481
915.921	3473
916.034	3310
916.146	3321
916.259	3272
916.371	3435
916.483	3431
916.595	3386
916.708	3386
916.82	3424
916.932	3393
917.044	3382
917.156	3420
917.268	3256
917.38	3363
917.491	3386
917.603	3435
917.715	3485
917.826	3496
917.938	3412
918.049	3340
918.161	3458
918.272	3610
918.384	3618
918.495	3553
918.606	3393
918.717	3355
918.828	3420
918.939	3447
919.05	3329
919.161	3386
919.272	3226
919.383	3340
919.494	3584
919.604	3766
919.715	3542
919.826	3447
919.936	3504
920.047	3622
920.157	3599
920.267	3827
920.378	3603
920.488	3625
920.598	3861
920.708	3960
920.818	3880
920.928	3884
921.038	4071
921.148	4032
921.258	3770
921.368	3686
921.477	3625
921.587	3606
921.697	3507
921.806	3701
921.916	3564
922.025	3412
922.134	3386
922.244	3348
922.353	3526
922.462	3317
922.571	3302
922.68	3176
922.789	3135
922.898	3188
923.007	3157
923.116	3256
923.224	3245
923.333	3207
923.442	3157
923.55	3131
923.659	3199
923.767	3275
923.876	3188
923.984	3351
924.092	3131
924.201	3275
924.309	3245
924.417	3291
924.525	3226
924.633	3317
924.741	4207
924.849	3112
924.956	3302
925.064	3154
925.172	3089
925.279	3157
925.387	3237
925.494	3260
925.602	3397
925.709	3355
925.816	3230
925.924	3374
926.031	3439
926.138	3378
926.245	3393
926.352	3294
926.459	3466
926.566	3538
926.673	3389
926.779	3298
926.886	3306
926.993	3180
927.099	3146
927.206	3165
927.312	3165
927.419	3264
927.525	3233
927.631	3310
927.737	3211
927.843	3207
927.95	3081
928.056	3188
928.162	3237
928.267	3294
928.373	3823
928.479	3351
928.585	3097
928.69	3283
928.796	3291
928.901	3199
929.007	3051
929.112	3237
929.218	3180
929.323	3180
929.428	3180
929.533	3355
929.638	3169
929.743	3203
929.848	3348
929.953	3294
930.058	3176
930.163	3047
930.267	3119
930.372	3275
930.477	3100
930.581	3412
930.685	3218
930.79	3074
930.894	3188
930.998	3169
931.103	3344
931.207	2990
931.311	2982
931.415	2979
931.519	2823
931.623	2864
