Data from test_V78500241_851.txt Node
Date: Fri Mar 25 16:21:05 CST 2022
User: usil
Spectrometer: V785-0024
Trigger mode: 0
Integration Time (sec): 4.000000E-1
Scans to average: 1
Nonlinearity correction enabled: false
Boxcar width: 0
Storing dark spectrum: false
XAxis mode: Wavelengths
Number of Pixels in Spectrum: 1024
>>>>>Begin Spectral Data<<<<<
801.071	2899
801.214	2906
801.356	2876
801.499	2891
801.641	2842
801.783	2922
801.926	3058
802.068	2982
802.211	3017
802.353	3024
802.496	2941
802.638	3009
802.78	3001
802.923	3097
803.065	2994
803.208	2895
803.35	2887
803.492	2918
803.635	2922
803.777	2758
803.919	2880
804.061	3195
804.204	2948
804.346	2902
804.488	2845
804.63	3005
804.773	2880
804.915	2910
805.057	3051
805.199	2941
805.341	2994
805.483	3036
805.626	3009
805.768	2960
805.91	3047
806.052	3112
806.194	3058
806.336	3237
806.478	2982
806.62	2944
806.762	2963
806.904	3055
807.046	3142
807.188	2944
807.33	2887
807.472	2948
807.614	2887
807.756	2952
807.898	2918
808.04	2868
808.182	2975
808.324	2929
808.465	2853
808.607	2891
808.749	2823
808.891	2849
809.033	2948
809.174	2952
809.316	2872
809.458	2868
809.6	2788
809.741	2785
809.883	2731
810.025	2838
810.166	2815
810.308	2849
810.45	2853
810.591	2762
810.733	2796
810.875	2845
811.016	2762
811.158	2781
811.299	2792
811.441	2895
811.582	2918
811.724	2807
811.865	2853
812.007	2891
812.148	2853
812.29	2834
812.431	2872
812.573	2941
812.714	2979
812.855	3024
812.997	3047
813.138	3123
813.279	2975
813.421	3013
813.562	2963
813.703	2861
813.845	2880
813.986	2754
814.127	2758
814.268	2807
814.41	2845
814.551	2815
814.692	2902
814.833	2830
814.974	2891
815.115	2956
815.256	2823
815.397	2804
815.539	2895
815.68	2781
815.821	2758
815.962	2944
816.103	2956
816.244	2876
816.385	2849
816.526	2929
816.666	2910
816.807	2754
816.948	2845
817.089	2914
817.23	2857
817.371	2777
817.512	2807
817.653	2842
817.793	2811
817.934	2876
818.075	2937
818.216	3009
818.356	2998
818.497	2880
818.638	2781
818.778	2811
818.919	2823
819.06	2724
819.2	2899
819.341	2800
819.481	2781
819.622	2922
819.762	3135
819.903	3028
820.043	2868
820.184	2876
820.324	2849
820.465	3001
820.605	3036
820.746	3005
820.886	2918
821.026	3081
821.167	3203
821.307	3222
821.447	3253
821.588	3218
821.728	3195
821.868	3192
822.008	3058
822.149	3127
822.289	3192
822.429	3085
822.569	3066
822.709	3150
822.849	3017
822.99	3062
823.13	3161
823.27	3192
823.41	3100
823.55	3150
823.69	3100
823.83	3192
823.97	3100
824.11	2994
824.25	2963
824.389	3039
824.529	3112
824.669	3051
824.809	3188
824.949	3233
825.089	3207
825.228	3157
825.368	3043
825.508	2899
825.648	2933
825.787	3024
825.927	2986
826.067	2979
826.206	2971
826.346	3013
826.485	3051
826.625	3085
826.765	3275
826.904	3230
827.044	2952
827.183	2918
827.323	2861
827.462	2994
827.601	2937
827.741	2944
827.88	2941
828.02	2845
828.159	2963
828.298	3017
828.437	3081
828.577	3024
828.716	3195
828.855	3062
828.994	2895
829.134	2887
829.273	2899
829.412	2838
829.551	2834
829.69	2864
829.829	2990
829.968	3135
830.107	3039
830.246	2963
830.385	2925
830.524	2853
830.663	2815
830.802	2746
830.941	2644
831.08	2610
831.219	2758
831.357	2762
831.496	2922
831.635	2667
831.774	2617
831.913	2663
832.051	2537
832.19	2560
832.329	2651
832.467	2518
832.606	2503
832.744	2560
832.883	2598
833.022	2621
833.16	2663
833.299	2697
833.437	2678
833.576	2674
833.714	2743
833.852	2724
833.991	2762
834.129	2826
834.267	2815
834.406	2777
834.544	2880
834.682	2864
834.821	2857
834.959	3070
835.097	2872
835.235	3028
835.373	2967
835.511	3013
835.65	2929
835.788	2944
835.926	2834
836.064	2811
836.202	2845
836.34	3077
836.478	3131
836.615	3074
836.753	3135
836.891	3211
837.029	3123
837.167	3100
837.305	3036
837.443	3043
837.58	2971
837.718	3131
837.856	3051
837.993	3032
838.131	3131
838.269	3093
838.406	3123
838.544	3085
838.681	2933
838.819	2857
838.956	2792
839.094	2785
839.231	2918
839.369	2998
839.506	3374
839.643	3195
839.781	2979
839.918	2941
840.055	3047
840.193	3032
840.33	3070
840.467	3123
840.604	3142
840.742	3428
840.879	3055
841.016	3032
841.153	3097
841.29	3329
841.427	3302
841.564	3291
841.701	3317
841.838	3203
841.975	3150
842.112	3203
842.249	3081
842.385	2998
842.522	3260
842.659	3112
842.796	3058
842.933	3077
843.069	3062
843.206	3005
843.343	3180
843.479	3093
843.616	3097
843.752	2891
843.889	2864
844.025	3062
844.162	2891
844.298	3070
844.435	2948
844.571	2876
844.708	3058
844.844	3195
844.98	3237
845.117	3195
845.253	3024
845.389	3013
845.525	3097
845.661	3104
845.798	2998
845.934	3085
846.07	3051
846.206	3222
846.342	3287
846.478	3230
846.614	3058
846.75	3043
846.886	3024
847.022	3245
847.158	3070
847.294	3176
847.429	3233
847.565	3188
847.701	3473
847.837	3028
847.972	2994
848.108	3161
848.244	3131
848.379	2986
848.515	2948
848.65	2941
848.786	2960
848.921	2994
849.057	3097
849.192	3127
849.328	3032
849.463	3119
849.598	3043
849.734	3051
849.869	2956
850.004	2861
850.14	2960
850.275	2914
850.41	2823
850.545	2861
850.68	2948
850.815	2971
850.95	2982
851.085	3176
851.22	3104
851.355	3028
851.49	3009
851.625	3005
851.76	3009
851.895	2887
852.03	2929
852.165	3005
852.299	3112
852.434	3214
852.569	3123
852.703	3154
852.838	3268
852.973	3310
853.107	3283
853.242	3173
853.376	3085
853.511	3009
853.645	3017
853.78	3222
853.914	3100
854.048	3097
854.183	3093
854.317	3131
854.451	3294
854.585	3119
854.72	3066
854.854	3226
854.988	3017
855.122	3081
855.256	2963
855.39	3108
855.524	3230
855.658	3199
855.792	3135
855.926	3195
856.06	3207
856.194	3260
856.327	3119
856.461	3047
856.595	3074
856.729	3112
856.862	3195
856.996	3154
857.13	3165
857.263	3230
857.397	3260
857.53	3108
857.664	3199
857.797	3218
857.931	3214
858.064	3135
858.197	3249
858.331	3154
858.464	3104
858.597	3039
858.731	3097
858.864	3097
858.997	3104
859.13	3157
859.263	3142
859.396	3207
859.529	3062
859.662	3081
859.795	3047
859.928	3104
860.061	3226
860.194	3260
860.327	3085
860.46	3119
860.592	3241
860.725	3218
860.858	3218
860.99	3108
861.123	3024
861.256	3032
861.388	3116
861.521	3930
861.653	2986
861.786	2971
861.918	2994
862.05	3051
862.183	3070
862.315	3104
862.447	3192
862.58	3093
862.712	2925
862.844	2883
862.976	2986
863.108	2979
863.24	3310
863.372	2883
863.504	2941
863.636	2922
863.768	3001
863.9	2948
864.032	2918
864.164	2914
864.296	3055
864.428	3051
864.559	3093
864.691	3074
864.823	3051
864.954	3032
865.086	3001
865.217	2956
865.349	2937
865.48	2975
865.612	2963
865.743	3138
865.875	2941
866.006	2941
866.137	2944
866.269	2975
866.4	2906
866.531	2902
866.662	2857
866.793	2891
866.924	2872
867.055	2918
867.186	2956
867.317	2872
867.448	2834
867.579	2823
867.71	2883
867.841	2800
867.972	2895
868.103	2914
868.233	2887
868.364	2849
868.495	2891
868.625	3047
868.756	3135
868.886	2986
869.017	3001
869.147	3142
869.278	3119
869.408	3020
869.539	3039
869.669	3074
869.799	3024
869.929	3116
870.06	3108
870.19	3321
870.32	3279
870.45	3310
870.58	3359
870.71	3412
870.84	3412
870.97	3272
871.1	3237
871.23	3466
871.36	3473
871.489	3321
871.619	3386
871.749	3431
871.879	3435
872.008	3485
872.138	3370
872.267	3264
872.397	3146
872.526	3089
872.656	2967
872.785	3093
872.915	3272
873.044	3306
873.173	3230
873.303	3233
873.432	3226
873.561	3188
873.69	3157
873.819	3131
873.948	3188
874.077	3077
874.206	3066
874.335	3081
874.464	3169
874.593	3355
874.722	3237
874.851	3424
874.979	3302
875.108	3329
875.237	3188
875.365	3135
875.494	3165
875.623	3287
875.751	3055
875.88	3100
876.008	3157
876.136	3214
876.265	3367
876.393	3496
876.521	3397
876.65	3370
876.778	3348
876.906	3253
877.034	3195
877.162	3211
877.29	3150
877.418	3245
877.546	3237
877.674	3256
877.802	3230
877.93	3233
878.058	3150
878.185	3100
878.313	3199
878.441	3192
878.568	3066
878.696	3142
878.824	3249
878.951	3253
879.079	3435
879.206	3603
879.333	3469
879.461	3306
879.588	3317
879.715	3469
879.842	3587
879.97	3386
880.097	3180
880.224	3123
880.351	3169
880.478	3199
880.605	3165
880.732	3150
880.859	3488
880.986	3294
881.112	3279
881.239	3157
881.366	3074
881.493	3020
881.619	2990
881.746	3062
881.872	3047
881.999	3093
882.125	3070
882.252	3218
882.378	3264
882.505	3458
882.631	3264
882.757	3150
882.883	3180
883.01	3207
883.136	3135
883.262	3085
883.388	3108
883.514	3359
883.64	3378
883.766	3291
883.892	3188
884.018	3218
884.143	3412
884.269	3504
884.395	3192
884.52	3097
884.646	3173
884.772	3135
884.897	3100
885.023	3195
885.148	3329
885.274	3409
885.399	3317
885.524	3237
885.65	3226
885.775	3291
885.9	3283
886.025	3393
886.15	3332
886.275	3283
886.4	3222
886.525	3325
886.65	3256
886.775	3306
886.9	3496
887.025	3614
887.149	3405
887.274	3218
887.399	3195
887.523	3207
887.648	3157
887.773	3195
887.897	3393
888.021	3382
888.146	3332
888.27	3435
888.395	3549
888.519	3458
888.643	3431
888.767	3466
888.891	3321
889.015	3256
889.139	3351
889.263	3287
889.387	3431
889.511	3553
889.635	3477
889.759	3291
889.883	3325
890.006	3397
890.13	3534
890.254	3317
890.377	3393
890.501	3214
890.624	3211
890.748	3351
890.871	3230
890.995	3161
891.118	3077
891.241	3253
891.364	3253
891.488	3336
891.611	3176
891.734	3264
891.857	3325
891.98	3275
892.103	3351
892.226	3313
892.349	3230
892.471	3161
892.594	3302
892.717	3359
892.839	3310
892.962	3332
893.085	3420
893.207	3321
893.33	3184
893.452	3230
893.575	3359
893.697	3283
893.819	3507
893.941	3557
894.064	3477
894.186	3348
894.308	3291
894.43	3466
894.552	3557
894.674	3515
894.796	3294
894.918	3348
895.04	3340
895.161	3466
895.283	3458
895.405	3313
895.526	3393
895.648	3458
895.769	3492
895.891	3485
896.012	3530
896.134	3507
896.255	3412
896.376	3431
896.498	3378
896.619	3454
896.74	3378
896.861	3428
896.982	3736
897.103	3934
897.224	3610
897.345	3591
897.466	3462
897.587	3511
897.708	3671
897.828	3587
897.949	3481
898.07	3378
898.19	3397
898.311	3637
898.431	3477
898.552	3545
898.672	3671
898.792	3633
898.913	3511
899.033	3443
899.153	3321
899.273	3245
899.393	3291
899.513	3363
899.633	3382
899.753	3393
899.873	3393
899.993	3397
900.113	3340
900.232	3397
900.352	3389
900.472	3325
900.591	3226
900.711	3317
900.83	3313
900.95	3443
901.069	3526
901.189	3405
901.308	3214
901.427	3157
901.546	3260
901.665	3279
901.784	3389
901.904	3287
902.023	3184
902.141	3028
902.26	2979
902.379	3138
902.498	3100
902.617	3077
902.735	3214
902.854	3298
902.973	3176
903.091	3074
903.21	3100
903.328	3150
903.446	3123
903.565	3131
903.683	3241
903.801	3146
903.919	3302
904.038	3344
904.156	3188
904.274	3302
904.392	3317
904.51	3283
904.627	3325
904.745	3507
904.863	3523
904.981	3302
905.098	3188
905.216	3272
905.334	3336
905.451	3348
905.569	3325
905.686	3469
905.803	3447
905.921	3325
906.038	3443
906.155	3378
906.272	3298
906.389	3370
906.506	3306
906.623	3260
906.74	3310
906.857	3241
906.974	3264
907.091	3507
907.208	3576
907.324	3507
907.441	3431
907.557	3256
907.674	3264
907.79	3222
907.907	3321
908.023	3382
908.139	3420
908.256	3359
908.372	3450
908.488	3351
908.604	3249
908.72	3264
908.836	3329
908.952	3321
909.068	3397
909.184	3534
909.3	3424
909.415	3523
909.531	3534
909.647	3325
909.762	3298
909.878	3336
909.993	3351
910.108	3351
910.224	3351
910.339	3447
910.454	3374
910.57	3344
910.685	3268
910.8	3641
910.915	3553
911.03	3481
911.145	3298
911.259	3336
911.374	3332
911.489	3283
911.604	3283
911.718	3161
911.833	3211
911.947	3070
912.062	3039
912.176	3184
912.291	3226
912.405	3245
912.519	3477
912.633	3496
912.748	3374
912.862	3283
912.976	3180
913.09	3077
913.204	3173
913.318	3249
913.431	3340
913.545	3321
913.659	3473
913.772	3348
913.886	3256
914	3203
914.113	3378
914.226	3439
914.34	3428
914.453	3199
914.566	3447
914.68	3336
914.793	3332
914.906	3176
915.019	3119
915.132	3108
915.245	3184
915.358	3241
915.47	3245
915.583	3291
915.696	3298
915.809	3435
915.921	3447
916.034	3302
916.146	3325
916.259	3245
916.371	3374
916.483	3409
916.595	3287
916.708	3363
916.82	3351
916.932	3378
917.044	3378
917.156	3367
917.268	3291
917.38	3313
917.491	3332
917.603	3397
917.715	3477
917.826	3477
917.938	3405
918.049	3325
918.161	3435
918.272	3572
918.384	3618
918.495	3526
918.606	3389
918.717	3317
918.828	3409
918.939	3447
919.05	3329
919.161	3386
919.272	3165
919.383	3317
919.494	3534
919.604	3705
919.715	3519
919.826	3481
919.936	3492
920.047	3606
920.157	3542
920.267	3774
920.378	3660
920.488	3595
920.598	3808
920.708	4021
920.818	3835
920.928	3857
921.038	4044
921.148	4021
921.258	3724
921.368	3663
921.477	3584
921.587	3568
921.697	3473
921.806	3644
921.916	3511
922.025	3370
922.134	3389
922.244	3287
922.353	3458
922.462	3306
922.571	3256
922.68	3108
922.789	3085
922.898	3150
923.007	3142
923.116	3230
923.224	3207
923.333	3214
923.442	3112
923.55	3116
923.659	3131
923.767	3237
923.876	3123
923.984	3272
924.092	3097
924.201	3222
924.309	3245
924.417	3268
924.525	3230
924.633	3264
924.741	3991
924.849	3055
924.956	3260
925.064	3093
925.172	3100
925.279	3135
925.387	3207
925.494	3211
925.602	3386
925.709	3355
925.816	3199
925.924	3332
926.031	3439
926.138	3351
926.245	3370
926.352	3253
926.459	3416
926.566	3511
926.673	3355
926.779	3279
926.886	3294
926.993	3161
927.099	3157
927.206	3097
927.312	3108
927.419	3230
927.525	3203
927.631	3275
927.737	3154
927.843	3150
927.95	3017
928.056	3169
928.162	3165
928.267	3241
928.373	3793
928.479	3329
928.585	3104
928.69	3264
928.796	3287
928.901	3192
929.007	3058
929.112	3241
929.218	3214
929.323	3176
929.428	3150
929.533	3313
929.638	3161
929.743	3173
929.848	3302
929.953	3222
930.058	3142
930.163	3005
930.267	3043
930.372	3199
930.477	3077
930.581	3329
930.685	3180
930.79	3070
930.894	3138
930.998	3116
931.103	3329
931.207	2979
931.311	2963
931.415	2975
931.519	2807
931.623	2792
