Data from test_V78500241_824.txt Node
Date: Fri Mar 25 16:20:54 CST 2022
User: usil
Spectrometer: V785-0024
Trigger mode: 0
Integration Time (sec): 4.000000E-1
Scans to average: 1
Nonlinearity correction enabled: false
Boxcar width: 0
Storing dark spectrum: false
XAxis mode: Wavelengths
Number of Pixels in Spectrum: 1024
>>>>>Begin Spectral Data<<<<<
801.071	2914
801.214	2990
801.356	2891
801.499	2887
801.641	2883
801.783	2933
801.926	3081
802.068	2982
802.211	3017
802.353	3020
802.496	3020
802.638	3017
802.78	3028
802.923	3093
803.065	3043
803.208	2929
803.35	2944
803.492	3005
803.635	2975
803.777	2762
803.919	2925
804.061	3195
804.204	2990
804.346	2937
804.488	2895
804.63	3013
804.773	2895
804.915	2941
805.057	3112
805.199	2990
805.341	3020
805.483	3097
805.626	3028
805.768	2979
805.91	3135
806.052	3142
806.194	3055
806.336	3260
806.478	3036
806.62	2979
806.762	3017
806.904	3089
807.046	3176
807.188	3005
807.33	2918
807.472	2994
807.614	2952
807.756	3009
807.898	2944
808.04	2944
808.182	3039
808.324	2982
808.465	2944
808.607	2899
808.749	2872
808.891	2853
809.033	3013
809.174	2986
809.316	2910
809.458	2899
809.6	2830
809.741	2804
809.883	2792
810.025	2902
810.166	2872
810.308	2857
810.45	2872
810.591	2807
810.733	2788
810.875	2895
811.016	2815
811.158	2792
811.299	2868
811.441	2952
811.582	2933
811.724	2853
811.865	2830
812.007	2982
812.148	2883
812.29	2899
812.431	2933
812.573	3005
812.714	2998
812.855	3081
812.997	3074
813.138	3142
813.279	3009
813.421	3058
813.562	2975
813.703	2872
813.845	2891
813.986	2823
814.127	2781
814.268	2815
814.41	2876
814.551	2830
814.692	2925
814.833	2868
814.974	2906
815.115	3017
815.256	2899
815.397	2857
815.539	2899
815.68	2804
815.821	2819
815.962	2994
816.103	2967
816.244	2929
816.385	2922
816.526	3043
816.666	2971
816.807	2743
816.948	2922
817.089	2948
817.23	2910
817.371	2815
817.512	2796
817.653	2868
817.793	2857
817.934	2906
818.075	3032
818.216	3024
818.356	3036
818.497	2910
818.638	2804
818.778	2853
818.919	2796
819.06	2838
819.2	2895
819.341	2868
819.481	2830
819.622	2922
819.762	3116
819.903	3108
820.043	2937
820.184	2925
820.324	2925
820.465	3055
820.605	3047
820.746	3062
820.886	2960
821.026	3135
821.167	3169
821.307	3275
821.447	3291
821.588	3275
821.728	3199
821.868	3207
822.008	3097
822.149	3226
822.289	3256
822.429	3157
822.569	3161
822.709	3241
822.849	3036
822.99	3093
823.13	3207
823.27	3211
823.41	3135
823.55	3180
823.69	3169
823.83	3222
823.97	3116
824.11	3032
824.25	3047
824.389	3074
824.529	3154
824.669	3100
824.809	3253
824.949	3268
825.089	3264
825.228	3195
825.368	3028
825.508	2998
825.648	3013
825.787	3009
825.927	3051
826.067	2960
826.206	2990
826.346	3070
826.485	3146
826.625	3127
826.765	3283
826.904	3203
827.044	3032
827.183	2971
827.323	2887
827.462	3032
827.601	2941
827.741	2979
827.88	2960
828.02	2872
828.159	2963
828.298	3066
828.437	3135
828.577	3066
828.716	3245
828.855	3116
828.994	2944
829.134	2902
829.273	2960
829.412	2895
829.551	2845
829.69	2899
829.829	3009
829.968	3169
830.107	3051
830.246	3039
830.385	2971
830.524	2925
830.663	2845
830.802	2773
830.941	2670
831.08	2670
831.219	2811
831.357	2792
831.496	2971
831.635	2758
831.774	2670
831.913	2712
832.051	2598
832.19	2583
832.329	2705
832.467	2568
832.606	2518
832.744	2629
832.883	2594
833.022	2594
833.16	2697
833.299	2716
833.437	2697
833.576	2743
833.714	2746
833.852	2758
833.991	2807
834.129	2864
834.267	2864
834.406	2819
834.544	2922
834.682	2891
834.821	2895
834.959	3058
835.097	2906
835.235	3077
835.373	3013
835.511	3085
835.65	2948
835.788	2963
835.926	2838
836.064	2842
836.202	2895
836.34	3066
836.478	3188
836.615	3097
836.753	3180
836.891	3218
837.029	3184
837.167	3157
837.305	3077
837.443	3093
837.58	3009
837.718	3138
837.856	3093
837.993	3070
838.131	3108
838.269	3100
838.406	3093
838.544	3074
838.681	2956
838.819	2948
838.956	2819
839.094	2849
839.231	2933
839.369	3070
839.506	3378
839.643	3233
839.781	3024
839.918	2986
840.055	3100
840.193	3116
840.33	3093
840.467	3135
840.604	3154
840.742	3412
840.879	3070
841.016	3074
841.153	3135
841.29	3359
841.427	3313
841.564	3306
841.701	3355
841.838	3245
841.975	3184
842.112	3272
842.249	3081
842.385	3043
842.522	3298
842.659	3131
842.796	3089
842.933	3089
843.069	3070
843.206	3047
843.343	3207
843.479	3123
843.616	3169
843.752	2929
843.889	2891
844.025	3104
844.162	2902
844.298	3089
844.435	2982
844.571	2956
844.708	3077
844.844	3188
844.98	3260
845.117	3184
845.253	3066
845.389	3009
845.525	3104
845.661	3116
845.798	3009
845.934	3123
846.07	3104
846.206	3241
846.342	3310
846.478	3279
846.614	3104
846.75	3089
846.886	3058
847.022	3207
847.158	3173
847.294	3214
847.429	3256
847.565	3199
847.701	3523
847.837	3112
847.972	3028
848.108	3211
848.244	3165
848.379	3005
848.515	2956
848.65	2918
848.786	3013
848.921	2986
849.057	3142
849.192	3154
849.328	3093
849.463	3135
849.598	3047
849.734	3058
849.869	3005
850.004	2899
850.14	2960
850.275	2902
850.41	2853
850.545	2883
850.68	2963
850.815	3032
850.95	2998
851.085	3176
851.22	3119
851.355	3047
851.49	2986
851.625	3039
851.76	3028
851.895	2948
852.03	2922
852.165	3036
852.299	3112
852.434	3214
852.569	3169
852.703	3176
852.838	3313
852.973	3325
853.107	3317
853.242	3165
853.376	3127
853.511	3005
853.645	3070
853.78	3256
853.914	3146
854.048	3146
854.183	3123
854.317	3142
854.451	3325
854.585	3188
854.72	3074
854.854	3192
854.988	3058
855.122	3062
855.256	3009
855.39	3146
855.524	3249
855.658	3211
855.792	3161
855.926	3211
856.06	3218
856.194	3291
856.327	3157
856.461	3089
856.595	3135
856.729	3104
856.862	3226
856.996	3161
857.13	3233
857.263	3226
857.397	3268
857.53	3108
857.664	3226
857.797	3260
857.931	3222
858.064	3169
858.197	3218
858.331	3154
858.464	3135
858.597	3032
858.731	3112
858.864	3138
858.997	3100
859.13	3195
859.263	3150
859.396	3218
859.529	3108
859.662	3089
859.795	3051
859.928	3146
860.061	3306
860.194	3291
860.327	3131
860.46	3127
860.592	3264
860.725	3218
860.858	3275
860.99	3146
861.123	3116
861.256	3047
861.388	3150
861.521	3888
861.653	3013
861.786	2948
861.918	3013
862.05	3058
862.183	3112
862.315	3173
862.447	3211
862.58	3085
862.712	2982
862.844	2872
862.976	3066
863.108	3009
863.24	3332
863.372	2880
863.504	2990
863.636	2967
863.768	3009
863.9	2971
864.032	2960
864.164	2956
864.296	3009
864.428	3093
864.559	3119
864.691	3043
864.823	3104
864.954	3100
865.086	3058
865.217	3017
865.349	2948
865.48	2975
865.612	2982
865.743	3173
865.875	2990
866.006	2971
866.137	2960
866.269	2963
866.4	2914
866.531	2929
866.662	2872
866.793	2895
866.924	2864
867.055	2944
867.186	2941
867.317	2887
867.448	2826
867.579	2868
867.71	2845
867.841	2823
867.972	2895
868.103	2849
868.233	2918
868.364	2883
868.495	2918
868.625	3089
868.756	3180
868.886	2982
869.017	3024
869.147	3207
869.278	3214
869.408	3070
869.539	3024
869.669	3104
869.799	3093
869.929	3131
870.06	3142
870.19	3321
870.32	3279
870.45	3291
870.58	3363
870.71	3439
870.84	3481
870.97	3283
871.1	3237
871.23	3504
871.36	3473
871.489	3363
871.619	3416
871.749	3401
871.879	3450
872.008	3466
872.138	3374
872.267	3275
872.397	3100
872.526	3089
872.656	3005
872.785	3112
872.915	3268
873.044	3321
873.173	3230
873.303	3233
873.432	3253
873.561	3245
873.69	3142
873.819	3150
873.948	3203
874.077	3104
874.206	3005
874.335	3112
874.464	3249
874.593	3367
874.722	3253
874.851	3329
874.979	3359
875.108	3355
875.237	3176
875.365	3154
875.494	3180
875.623	3237
875.751	3100
875.88	3077
876.008	3214
876.136	3241
876.265	3367
876.393	3511
876.521	3439
876.65	3374
876.778	3336
876.906	3321
877.034	3218
877.162	3226
877.29	3188
877.418	3256
877.546	3241
877.674	3260
877.802	3241
877.93	3207
878.058	3173
878.185	3123
878.313	3222
878.441	3253
878.568	3081
878.696	3138
878.824	3233
878.951	3283
879.079	3416
879.206	3603
879.333	3447
879.461	3329
879.588	3367
879.715	3477
879.842	3606
879.97	3397
880.097	3161
880.224	3135
880.351	3176
880.478	3237
880.605	3173
880.732	3176
880.859	3500
880.986	3306
881.112	3317
881.239	3192
881.366	3097
881.493	3024
881.619	3028
881.746	3077
881.872	3085
881.999	3112
882.125	3135
882.252	3306
882.378	3298
882.505	3454
882.631	3272
882.757	3176
882.883	3230
883.01	3241
883.136	3195
883.262	3055
883.388	3112
883.514	3302
883.64	3367
883.766	3332
883.892	3192
884.018	3237
884.143	3405
884.269	3542
884.395	3211
884.52	3169
884.646	3165
884.772	3176
884.897	3123
885.023	3173
885.148	3317
885.274	3393
885.399	3351
885.524	3321
885.65	3268
885.775	3336
885.9	3272
886.025	3416
886.15	3355
886.275	3283
886.4	3237
886.525	3283
886.65	3287
886.775	3287
886.9	3496
887.025	3618
887.149	3424
887.274	3279
887.399	3176
887.523	3237
887.648	3184
887.773	3199
887.897	3367
888.021	3378
888.146	3268
888.27	3462
888.395	3477
888.519	3454
888.643	3428
888.767	3492
888.891	3302
889.015	3279
889.139	3279
889.263	3230
889.387	3393
889.511	3523
889.635	3485
889.759	3272
889.883	3272
890.006	3416
890.13	3500
890.254	3264
890.377	3317
890.501	3233
890.624	3180
890.748	3298
890.871	3135
890.995	3116
891.118	3020
891.241	3199
891.364	3249
891.488	3336
891.611	3169
891.734	3237
891.857	3298
891.98	3226
892.103	3340
892.226	3279
892.349	3233
892.471	3108
892.594	3291
892.717	3306
892.839	3272
892.962	3283
893.085	3344
893.207	3287
893.33	3142
893.452	3192
893.575	3348
893.697	3237
893.819	3428
893.941	3526
894.064	3454
894.186	3283
894.308	3306
894.43	3469
894.552	3545
894.674	3469
894.796	3253
894.918	3306
895.04	3272
895.161	3424
895.283	3370
895.405	3329
895.526	3336
895.648	3431
895.769	3409
895.891	3431
896.012	3450
896.134	3450
896.255	3412
896.376	3389
896.498	3374
896.619	3454
896.74	3374
896.861	3428
896.982	3675
897.103	3823
897.224	3622
897.345	3504
897.466	3420
897.587	3511
897.708	3629
897.828	3561
897.949	3477
898.07	3279
898.19	3424
898.311	3614
898.431	3473
898.552	3511
898.672	3618
898.792	3599
898.913	3549
899.033	3409
899.153	3275
899.273	3195
899.393	3272
899.513	3336
899.633	3302
899.753	3298
899.873	3302
899.993	3351
900.113	3370
900.232	3412
900.352	3351
900.472	3268
900.591	3192
900.711	3283
900.83	3275
900.95	3378
901.069	3500
901.189	3378
901.308	3161
901.427	3146
901.546	3173
901.665	3294
901.784	3325
901.904	3199
902.023	3157
902.141	3043
902.26	2971
902.379	3154
902.498	3085
902.617	3062
902.735	3218
902.854	3218
902.973	3180
903.091	3032
903.21	3058
903.328	3104
903.446	3089
903.565	3154
903.683	3226
903.801	3119
903.919	3241
904.038	3260
904.156	3161
904.274	3302
904.392	3230
904.51	3279
904.627	3317
904.745	3393
904.863	3462
904.981	3260
905.098	3176
905.216	3222
905.334	3302
905.451	3275
905.569	3317
905.686	3466
905.803	3401
905.921	3291
906.038	3424
906.155	3355
906.272	3260
906.389	3397
906.506	3230
906.623	3237
906.74	3294
906.857	3154
906.974	3226
907.091	3439
907.208	3545
907.324	3488
907.441	3401
907.557	3256
907.674	3249
907.79	3211
907.907	3245
908.023	3374
908.139	3363
908.256	3340
908.372	3370
908.488	3367
908.604	3264
908.72	3249
908.836	3268
908.952	3275
909.068	3325
909.184	3496
909.3	3389
909.415	3515
909.531	3439
909.647	3279
909.762	3321
909.878	3260
909.993	3363
910.108	3321
910.224	3355
910.339	3393
910.454	3306
910.57	3260
910.685	3279
910.8	3618
910.915	3568
911.03	3458
911.145	3256
911.259	3287
911.374	3317
911.489	3294
911.604	3218
911.718	3135
911.833	3176
911.947	3001
912.062	2960
912.176	3173
912.291	3188
912.405	3211
912.519	3435
912.633	3469
912.748	3374
912.862	3283
912.976	3146
913.09	3074
913.204	3116
913.318	3249
913.431	3340
913.545	3351
913.659	3386
913.772	3340
913.886	3233
914	3199
914.113	3363
914.226	3370
914.34	3359
914.453	3222
914.566	3431
914.68	3275
914.793	3317
914.906	3131
915.019	3108
915.132	3047
915.245	3184
915.358	3165
915.47	3199
915.583	3233
915.696	3283
915.809	3378
915.921	3416
916.034	3260
916.146	3275
916.259	3218
916.371	3389
916.483	3351
916.595	3222
916.708	3329
916.82	3340
916.932	3336
917.044	3325
917.156	3355
917.268	3283
917.38	3275
917.491	3321
917.603	3363
917.715	3469
917.826	3500
917.938	3393
918.049	3283
918.161	3431
918.272	3557
918.384	3576
918.495	3481
918.606	3332
918.717	3294
918.828	3359
918.939	3424
919.05	3260
919.161	3351
919.272	3222
919.383	3283
919.494	3492
919.604	3671
919.715	3485
919.826	3428
919.936	3458
920.047	3576
920.157	3553
920.267	3720
920.378	3606
920.488	3568
920.598	3732
920.708	3953
920.818	3850
920.928	3781
921.038	4029
921.148	4082
921.258	3720
921.368	3622
921.477	3584
921.587	3538
921.697	3454
921.806	3644
921.916	3523
922.025	3325
922.134	3378
922.244	3329
922.353	3462
922.462	3294
922.571	3256
922.68	3062
922.789	3051
922.898	3116
923.007	3108
923.116	3199
923.224	3157
923.333	3184
923.442	3085
923.55	3104
923.659	3127
923.767	3226
923.876	3104
923.984	3253
924.092	3104
924.201	3199
924.309	3192
924.417	3260
924.525	3138
924.633	3245
924.741	3998
924.849	3028
924.956	3256
925.064	3058
925.172	3039
925.279	3135
925.387	3230
925.494	3138
925.602	3336
925.709	3340
925.816	3222
925.924	3287
926.031	3367
926.138	3351
926.245	3355
926.352	3272
926.459	3416
926.566	3477
926.673	3310
926.779	3260
926.886	3233
926.993	3169
927.099	3108
927.206	3123
927.312	3116
927.419	3192
927.525	3214
927.631	3283
927.737	3116
927.843	3127
927.95	3062
928.056	3154
928.162	3188
928.267	3222
928.373	3747
928.479	3321
928.585	3058
928.69	3184
928.796	3237
928.901	3188
929.007	3062
929.112	3188
929.218	3154
929.323	3169
929.428	3154
929.533	3302
929.638	3104
929.743	3180
929.848	3272
929.953	3207
930.058	3112
930.163	3024
930.267	3051
930.372	3184
930.477	3062
930.581	3294
930.685	3184
930.79	3055
930.894	3085
930.998	3081
931.103	3291
931.207	2975
931.311	2914
931.415	2925
931.519	2766
931.623	2785
