Data from test_V78500241_1242.txt Node
Date: Fri Mar 25 16:23:48 CST 2022
User: usil
Spectrometer: V785-0024
Trigger mode: 0
Integration Time (sec): 4.000000E-1
Scans to average: 1
Nonlinearity correction enabled: false
Boxcar width: 0
Storing dark spectrum: false
XAxis mode: Wavelengths
Number of Pixels in Spectrum: 1024
>>>>>Begin Spectral Data<<<<<
801.071	2910
801.214	2963
801.356	2891
801.499	2872
801.641	2864
801.783	2941
801.926	3024
802.068	2960
802.211	2982
802.353	3028
802.496	2963
802.638	2998
802.78	3024
802.923	3066
803.065	3005
803.208	2872
803.35	2895
803.492	2922
803.635	2937
803.777	2727
803.919	2857
804.061	3218
804.204	2963
804.346	2899
804.488	2857
804.63	2998
804.773	2883
804.915	2929
805.057	3077
805.199	2887
805.341	2910
805.483	3039
805.626	2998
805.768	2963
805.91	3085
806.052	3074
806.194	3013
806.336	3226
806.478	3051
806.62	2990
806.762	2994
806.904	3032
807.046	3188
807.188	2982
807.33	2933
807.472	2975
807.614	2895
807.756	3009
807.898	2887
808.04	2887
808.182	2918
808.324	2918
808.465	2899
808.607	2883
808.749	2819
808.891	2823
809.033	3013
809.174	2979
809.316	2880
809.458	2868
809.6	2834
809.741	2766
809.883	2750
810.025	2845
810.166	2834
810.308	2804
810.45	2876
810.591	2743
810.733	2796
810.875	2826
811.016	2758
811.158	2773
811.299	2823
811.441	2925
811.582	2880
811.724	2838
811.865	2834
812.007	2914
812.148	2845
812.29	2849
812.431	2861
812.573	2929
812.714	2956
812.855	3036
812.997	3055
813.138	3097
813.279	3017
813.421	2982
813.562	2929
813.703	2853
813.845	2883
813.986	2758
814.127	2727
814.268	2864
814.41	2853
814.551	2823
814.692	2883
814.833	2819
814.974	2864
815.115	2967
815.256	2826
815.397	2807
815.539	2857
815.68	2773
815.821	2788
815.962	2922
816.103	2925
816.244	2864
816.385	2861
816.526	2952
816.666	2910
816.807	2724
816.948	2880
817.089	2902
817.23	2849
817.371	2777
817.512	2792
817.653	2853
817.793	2834
817.934	2849
818.075	2910
818.216	2960
818.356	2982
818.497	2872
818.638	2804
818.778	2804
818.919	2781
819.06	2769
819.2	2868
819.341	2800
819.481	2766
819.622	2910
819.762	3123
819.903	2975
820.043	2914
820.184	2925
820.324	2845
820.465	3001
820.605	3017
820.746	3020
820.886	2899
821.026	3085
821.167	3173
821.307	3253
821.447	3279
821.588	3256
821.728	3214
821.868	3176
822.008	3062
822.149	3211
822.289	3245
822.429	3077
822.569	3093
822.709	3161
822.849	3017
822.99	3047
823.13	3108
823.27	3230
823.41	3089
823.55	3112
823.69	3157
823.83	3188
823.97	3104
824.11	2982
824.25	2971
824.389	3028
824.529	3123
824.669	3074
824.809	3184
824.949	3222
825.089	3203
825.228	3188
825.368	3017
825.508	2948
825.648	2967
825.787	2998
825.927	3017
826.067	2967
826.206	2960
826.346	3005
826.485	3036
826.625	3100
826.765	3272
826.904	3180
827.044	2948
827.183	2937
827.323	2876
827.462	3005
827.601	2910
827.741	2918
827.88	2941
828.02	2887
828.159	2941
828.298	3005
828.437	3112
828.577	3017
828.716	3195
828.855	3093
828.994	2899
829.134	2933
829.273	2914
829.412	2895
829.551	2842
829.69	2864
829.829	2994
829.968	3112
830.107	3039
830.246	3020
830.385	2891
830.524	2857
830.663	2826
830.802	2712
830.941	2636
831.08	2625
831.219	2750
831.357	2739
831.496	2937
831.635	2708
831.774	2640
831.913	2686
832.051	2552
832.19	2560
832.329	2659
832.467	2514
832.606	2488
832.744	2587
832.883	2606
833.022	2568
833.16	2632
833.299	2678
833.437	2689
833.576	2678
833.714	2720
833.852	2705
833.991	2769
834.129	2845
834.267	2826
834.406	2804
834.544	2872
834.682	2880
834.821	2849
834.959	3047
835.097	2883
835.235	3043
835.373	2982
835.511	3001
835.65	2952
835.788	2998
835.926	2819
836.064	2766
836.202	2845
836.34	3093
836.478	3142
836.615	3024
836.753	3154
836.891	3150
837.029	3112
837.167	3116
837.305	3024
837.443	3039
837.58	2963
837.718	3081
837.856	3062
837.993	3005
838.131	3127
838.269	3116
838.406	3051
838.544	3055
838.681	2944
838.819	2914
838.956	2819
839.094	2842
839.231	2891
839.369	3005
839.506	3302
839.643	3184
839.781	3013
839.918	2937
840.055	3032
840.193	3036
840.33	3093
840.467	3089
840.604	3146
840.742	3363
840.879	3043
841.016	3062
841.153	3100
841.29	3340
841.427	3298
841.564	3237
841.701	3279
841.838	3211
841.975	3173
842.112	3226
842.249	3108
842.385	3024
842.522	3233
842.659	3093
842.796	3066
842.933	3100
843.069	3058
843.206	3009
843.343	3192
843.479	3108
843.616	3116
843.752	2883
843.889	2868
844.025	3039
844.162	2857
844.298	3058
844.435	2952
844.571	2929
844.708	3097
844.844	3180
844.98	3211
845.117	3195
845.253	3047
845.389	2990
845.525	3081
845.661	3108
845.798	2994
845.934	3116
846.07	3077
846.206	3222
846.342	3294
846.478	3230
846.614	3089
846.75	3036
846.886	2986
847.022	3272
847.158	3142
847.294	3192
847.429	3199
847.565	3211
847.701	3458
847.837	3032
847.972	3001
848.108	3127
848.244	3138
848.379	2982
848.515	2941
848.65	2933
848.786	2963
848.921	3024
849.057	3085
849.192	3150
849.328	3047
849.463	3066
849.598	3055
849.734	3036
849.869	2956
850.004	2883
850.14	2971
850.275	2891
850.41	2849
850.545	2868
850.68	2937
850.815	2941
850.95	2986
851.085	3203
851.22	3066
851.355	3024
851.49	2948
851.625	2990
851.76	3020
851.895	2941
852.03	2899
852.165	3028
852.299	3123
852.434	3211
852.569	3142
852.703	3146
852.838	3245
852.973	3325
853.107	3298
853.242	3142
853.376	3081
853.511	2956
853.645	3043
853.78	3256
853.914	3112
854.048	3085
854.183	3074
854.317	3165
854.451	3306
854.585	3100
854.72	3081
854.854	3226
854.988	3032
855.122	3058
855.256	2967
855.39	3112
855.524	3245
855.658	3203
855.792	3135
855.926	3173
856.06	3203
856.194	3241
856.327	3100
856.461	3097
856.595	3093
856.729	3104
856.862	3222
856.996	3157
857.13	3169
857.263	3214
857.397	3268
857.53	3104
857.664	3184
857.797	3222
857.931	3245
858.064	3138
858.197	3195
858.331	3097
858.464	3070
858.597	2994
858.731	3123
858.864	3146
858.997	3081
859.13	3150
859.263	3165
859.396	3207
859.529	3097
859.662	3077
859.795	3024
859.928	3104
860.061	3287
860.194	3268
860.327	3093
860.46	3058
860.592	3222
860.725	3230
860.858	3241
860.99	3100
861.123	3070
861.256	3043
861.388	3142
861.521	3690
861.653	3013
861.786	3020
861.918	2994
862.05	3074
862.183	3104
862.315	3142
862.447	3176
862.58	3097
862.712	2914
862.844	2853
862.976	3036
863.108	2979
863.24	3279
863.372	2883
863.504	2975
863.636	2941
863.768	3024
863.9	2929
864.032	2906
864.164	2975
864.296	3036
864.428	3077
864.559	3081
864.691	3081
864.823	3047
864.954	2998
865.086	3043
865.217	2975
865.349	2929
865.48	2956
865.612	3013
865.743	3089
865.875	2982
866.006	2944
866.137	2963
866.269	2975
866.4	2948
866.531	2910
866.662	2906
866.793	2891
866.924	2941
867.055	2956
867.186	2922
867.317	2876
867.448	2861
867.579	2819
867.71	2838
867.841	2796
867.972	2899
868.103	2887
868.233	2883
868.364	2880
868.495	2906
868.625	3047
868.756	3180
868.886	2960
869.017	2982
869.147	3138
869.278	3169
869.408	3036
869.539	3001
869.669	3066
869.799	3028
869.929	3127
870.06	3085
870.19	3317
870.32	3268
870.45	3283
870.58	3374
870.71	3428
870.84	3450
870.97	3256
871.1	3245
871.23	3454
871.36	3450
871.489	3317
871.619	3370
871.749	3355
871.879	3409
872.008	3488
872.138	3344
872.267	3291
872.397	3165
872.526	3123
872.656	2986
872.785	3051
872.915	3245
873.044	3253
873.173	3237
873.303	3245
873.432	3241
873.561	3203
873.69	3184
873.819	3169
873.948	3218
874.077	3112
874.206	3028
874.335	3058
874.464	3173
874.593	3397
874.722	3249
874.851	3405
874.979	3344
875.108	3332
875.237	3184
875.365	3135
875.494	3157
875.623	3203
875.751	3100
875.88	3127
876.008	3199
876.136	3218
876.265	3348
876.393	3488
876.521	3409
876.65	3332
876.778	3321
876.906	3233
877.034	3214
877.162	3218
877.29	3165
877.418	3272
877.546	3237
877.674	3249
877.802	3214
877.93	3222
878.058	3207
878.185	3097
878.313	3157
878.441	3195
878.568	3036
878.696	3146
878.824	3237
878.951	3260
879.079	3450
879.206	3614
879.333	3435
879.461	3336
879.588	3393
879.715	3488
879.842	3618
879.97	3409
880.097	3138
880.224	3100
880.351	3222
880.478	3192
880.605	3207
880.732	3192
880.859	3485
880.986	3306
881.112	3325
881.239	3157
881.366	3104
881.493	3039
881.619	3017
881.746	3074
881.872	3077
881.999	3085
882.125	3123
882.252	3237
882.378	3310
882.505	3435
882.631	3313
882.757	3119
882.883	3176
883.01	3214
883.136	3116
883.262	3089
883.388	3100
883.514	3321
883.64	3409
883.766	3272
883.892	3169
884.018	3245
884.143	3431
884.269	3507
884.395	3203
884.52	3157
884.646	3173
884.772	3119
884.897	3097
885.023	3241
885.148	3367
885.274	3409
885.399	3332
885.524	3291
885.65	3283
885.775	3294
885.9	3272
886.025	3428
886.15	3344
886.275	3283
886.4	3173
886.525	3336
886.65	3253
886.775	3249
886.9	3496
887.025	3599
887.149	3355
887.274	3207
887.399	3135
887.523	3226
887.648	3154
887.773	3192
887.897	3386
888.021	3367
888.146	3294
888.27	3443
888.395	3530
888.519	3416
888.643	3424
888.767	3428
888.891	3313
889.015	3256
889.139	3275
889.263	3260
889.387	3420
889.511	3523
889.635	3420
889.759	3279
889.883	3317
890.006	3340
890.13	3515
890.254	3237
890.377	3325
890.501	3173
890.624	3150
890.748	3302
890.871	3230
890.995	3119
891.118	3074
891.241	3188
891.364	3233
891.488	3317
891.611	3127
891.734	3199
891.857	3249
891.98	3237
892.103	3306
892.226	3279
892.349	3253
892.471	3104
892.594	3195
892.717	3287
892.839	3264
892.962	3298
893.085	3370
893.207	3325
893.33	3138
893.452	3188
893.575	3355
893.697	3279
893.819	3458
893.941	3458
894.064	3477
894.186	3241
894.308	3256
894.43	3458
894.552	3545
894.674	3469
894.796	3256
894.918	3321
895.04	3253
895.161	3466
895.283	3363
895.405	3287
895.526	3359
895.648	3420
895.769	3405
895.891	3466
896.012	3424
896.134	3458
896.255	3420
896.376	3363
896.498	3370
896.619	3420
896.74	3363
896.861	3424
896.982	3686
897.103	3846
897.224	3591
897.345	3507
897.466	3431
897.587	3450
897.708	3614
897.828	3534
897.949	3454
898.07	3283
898.19	3424
898.311	3603
898.431	3435
898.552	3492
898.672	3595
898.792	3553
898.913	3519
899.033	3435
899.153	3260
899.273	3188
899.393	3264
899.513	3313
899.633	3291
899.753	3340
899.873	3298
899.993	3378
900.113	3291
900.232	3367
900.352	3321
900.472	3313
900.591	3176
900.711	3272
900.83	3203
900.95	3405
901.069	3477
901.189	3298
901.308	3157
901.427	3127
901.546	3218
901.665	3313
901.784	3344
901.904	3180
902.023	3119
902.141	3028
902.26	2975
902.379	3127
902.498	3100
902.617	3074
902.735	3211
902.854	3253
902.973	3142
903.091	3001
903.21	3062
903.328	3108
903.446	3150
903.565	3127
903.683	3188
903.801	3112
903.919	3237
904.038	3275
904.156	3138
904.274	3306
904.392	3245
904.51	3291
904.627	3310
904.745	3428
904.863	3473
904.981	3222
905.098	3195
905.216	3241
905.334	3283
905.451	3275
905.569	3321
905.686	3416
905.803	3454
905.921	3279
906.038	3409
906.155	3348
906.272	3313
906.389	3302
906.506	3222
906.623	3230
906.74	3260
906.857	3173
906.974	3233
907.091	3412
907.208	3526
907.324	3454
907.441	3382
907.557	3264
907.674	3222
907.79	3203
907.907	3283
908.023	3409
908.139	3313
908.256	3306
908.372	3329
908.488	3321
908.604	3245
908.72	3264
908.836	3302
908.952	3268
909.068	3302
909.184	3431
909.3	3382
909.415	3481
909.531	3507
909.647	3272
909.762	3260
909.878	3272
909.993	3348
910.108	3313
910.224	3329
910.339	3378
910.454	3306
910.57	3287
910.685	3226
910.8	3587
910.915	3504
911.03	3370
911.145	3260
911.259	3275
911.374	3306
911.489	3226
911.604	3230
911.718	3131
911.833	3112
911.947	3028
912.062	3001
912.176	3176
912.291	3199
912.405	3199
912.519	3424
912.633	3481
912.748	3397
912.862	3294
912.976	3146
913.09	3062
913.204	3142
913.318	3233
913.431	3336
913.545	3336
913.659	3431
913.772	3306
913.886	3169
914	3188
914.113	3355
914.226	3409
914.34	3332
914.453	3165
914.566	3412
914.68	3306
914.793	3321
914.906	3127
915.019	3116
915.132	3055
915.245	3142
915.358	3226
915.47	3230
915.583	3256
915.696	3283
915.809	3370
915.921	3424
916.034	3268
916.146	3249
916.259	3226
916.371	3374
916.483	3363
916.595	3260
916.708	3332
916.82	3329
916.932	3313
917.044	3355
917.156	3344
917.268	3241
917.38	3325
917.491	3283
917.603	3348
917.715	3431
917.826	3477
917.938	3359
918.049	3237
918.161	3405
918.272	3549
918.384	3545
918.495	3496
918.606	3359
918.717	3302
918.828	3325
918.939	3412
919.05	3264
919.161	3332
919.272	3184
919.383	3245
919.494	3515
919.604	3671
919.715	3462
919.826	3367
919.936	3447
920.047	3568
920.157	3587
920.267	3755
920.378	3603
920.488	3530
920.598	3732
920.708	3922
920.818	3842
920.928	3827
921.038	4002
921.148	3953
921.258	3679
921.368	3663
921.477	3572
921.587	3519
921.697	3443
921.806	3622
921.916	3526
922.025	3313
922.134	3306
922.244	3348
922.353	3386
922.462	3241
922.571	3199
922.68	3100
922.789	3066
922.898	3097
923.007	3093
923.116	3135
923.224	3146
923.333	3161
923.442	3058
923.55	3097
923.659	3184
923.767	3211
923.876	3100
923.984	3230
924.092	3081
924.201	3203
924.309	3226
924.417	3260
924.525	3173
924.633	3214
924.741	3987
924.849	3089
924.956	3226
925.064	3077
925.172	3032
925.279	3127
925.387	3226
925.494	3180
925.602	3321
925.709	3355
925.816	3203
925.924	3264
926.031	3393
926.138	3336
926.245	3370
926.352	3226
926.459	3443
926.566	3496
926.673	3317
926.779	3279
926.886	3256
926.993	3188
927.099	3165
927.206	3157
927.312	3142
927.419	3249
927.525	3233
927.631	3283
927.737	3192
927.843	3146
927.95	3032
928.056	3146
928.162	3214
928.267	3313
928.373	3930
928.479	3344
928.585	3097
928.69	3279
928.796	3291
928.901	3241
929.007	3051
929.112	3260
929.218	3173
929.323	3165
929.428	3192
929.533	3363
929.638	3150
929.743	3207
929.848	3329
929.953	3268
930.058	3184
930.163	3024
930.267	3077
930.372	3233
930.477	3119
930.581	3348
930.685	3188
930.79	3097
930.894	3150
930.998	3116
931.103	3321
931.207	3024
931.311	3020
931.415	2963
931.519	2819
931.623	2849
