Data from test_V78500241_872.txt Node
Date: Fri Mar 25 16:21:14 CST 2022
User: usil
Spectrometer: V785-0024
Trigger mode: 0
Integration Time (sec): 4.000000E-1
Scans to average: 1
Nonlinearity correction enabled: false
Boxcar width: 0
Storing dark spectrum: false
XAxis mode: Wavelengths
Number of Pixels in Spectrum: 1024
>>>>>Begin Spectral Data<<<<<
801.071	2906
801.214	2929
801.356	2838
801.499	2899
801.641	2887
801.783	2902
801.926	3066
802.068	2941
802.211	3013
802.353	3036
802.496	2994
802.638	2994
802.78	3070
802.923	3108
803.065	2960
803.208	2880
803.35	2883
803.492	2937
803.635	2925
803.777	2750
803.919	2838
804.061	3195
804.204	2982
804.346	2864
804.488	2842
804.63	2982
804.773	2857
804.915	2960
805.057	3112
805.199	2929
805.341	2952
805.483	3051
805.626	3013
805.768	2937
805.91	3093
806.052	3089
806.194	3032
806.336	3222
806.478	2998
806.62	2971
806.762	2998
806.904	3058
807.046	3150
807.188	2971
807.33	2891
807.472	2979
807.614	2929
807.756	2998
807.898	2937
808.04	2902
808.182	2956
808.324	2933
808.465	2883
808.607	2857
808.749	2804
808.891	2849
809.033	2956
809.174	2952
809.316	2868
809.458	2887
809.6	2766
809.741	2773
809.883	2754
810.025	2823
810.166	2845
810.308	2883
810.45	2864
810.591	2781
810.733	2785
810.875	2842
811.016	2781
811.158	2754
811.299	2785
811.441	2948
811.582	2925
811.724	2826
811.865	2823
812.007	2941
812.148	2880
812.29	2868
812.431	2853
812.573	2933
812.714	2990
812.855	3024
812.997	3077
813.138	3104
813.279	3020
813.421	2982
813.562	2948
813.703	2899
813.845	2887
813.986	2788
814.127	2708
814.268	2807
814.41	2819
814.551	2807
814.692	2899
814.833	2800
814.974	2933
815.115	2952
815.256	2796
815.397	2781
815.539	2872
815.68	2796
815.821	2785
815.962	2956
816.103	2918
816.244	2849
816.385	2834
816.526	2967
816.666	2918
816.807	2766
816.948	2887
817.089	2914
817.23	2834
817.371	2769
817.512	2777
817.653	2826
817.793	2804
817.934	2872
818.075	2948
818.216	2998
818.356	3017
818.497	2853
818.638	2792
818.778	2811
818.919	2746
819.06	2754
819.2	2876
819.341	2773
819.481	2792
819.622	2895
819.762	3062
819.903	3036
820.043	2902
820.184	2906
820.324	2918
820.465	3058
820.605	2998
820.746	2990
820.886	2925
821.026	3093
821.167	3138
821.307	3211
821.447	3298
821.588	3245
821.728	3214
821.868	3203
822.008	3077
822.149	3173
822.289	3222
822.429	3074
822.569	3093
822.709	3192
822.849	3020
822.99	3055
823.13	3173
823.27	3169
823.41	3112
823.55	3154
823.69	3127
823.83	3214
823.97	3047
824.11	3005
824.25	2998
824.389	3043
824.529	3119
824.669	3081
824.809	3157
824.949	3241
825.089	3226
825.228	3165
825.368	2982
825.508	2937
825.648	2979
825.787	3009
825.927	3001
826.067	2967
826.206	2910
826.346	3062
826.485	3081
826.625	3097
826.765	3241
826.904	3214
827.044	3001
827.183	2948
827.323	2887
827.462	2986
827.601	2899
827.741	2918
827.88	2952
828.02	2864
828.159	2956
828.298	3009
828.437	3108
828.577	3017
828.716	3260
828.855	3097
828.994	2895
829.134	2868
829.273	2929
829.412	2876
829.551	2857
829.69	2876
829.829	2937
829.968	3150
830.107	3028
830.246	3001
830.385	2937
830.524	2906
830.663	2811
830.802	2720
830.941	2674
831.08	2632
831.219	2758
831.357	2758
831.496	2937
831.635	2667
831.774	2651
831.913	2670
832.051	2552
832.19	2575
832.329	2674
832.467	2522
832.606	2495
832.744	2571
832.883	2590
833.022	2575
833.16	2640
833.299	2667
833.437	2682
833.576	2697
833.714	2735
833.852	2743
833.991	2777
834.129	2853
834.267	2819
834.406	2788
834.544	2872
834.682	2891
834.821	2861
834.959	3058
835.097	2883
835.235	3051
835.373	3009
835.511	3024
835.65	2971
835.788	2948
835.926	2830
836.064	2838
836.202	2861
836.34	3077
836.478	3127
836.615	3020
836.753	3112
836.891	3192
837.029	3165
837.167	3081
837.305	3074
837.443	2994
837.58	2956
837.718	3089
837.856	3017
837.993	3028
838.131	3112
838.269	3135
838.406	3047
838.544	3116
838.681	2956
838.819	2910
838.956	2792
839.094	2849
839.231	2918
839.369	2994
839.506	3348
839.643	3165
839.781	2982
839.918	2952
840.055	3024
840.193	3055
840.33	3089
840.467	3100
840.604	3138
840.742	3370
840.879	3028
841.016	3062
841.153	3104
841.29	3351
841.427	3336
841.564	3253
841.701	3306
841.838	3203
841.975	3150
842.112	3188
842.249	3043
842.385	3081
842.522	3233
842.659	3089
842.796	3077
842.933	3097
843.069	3028
843.206	3043
843.343	3192
843.479	3100
843.616	3123
843.752	2861
843.889	2864
844.025	3039
844.162	2883
844.298	3036
844.435	2925
844.571	2941
844.708	3081
844.844	3176
844.98	3207
845.117	3188
845.253	3028
845.389	3001
845.525	3081
845.661	3123
845.798	2990
845.934	3116
846.07	3051
846.206	3199
846.342	3302
846.478	3211
846.614	3058
846.75	3032
846.886	3032
847.022	3233
847.158	3116
847.294	3173
847.429	3222
847.565	3233
847.701	3462
847.837	3028
847.972	2990
848.108	3127
848.244	3138
848.379	3009
848.515	2933
848.65	2956
848.786	2944
848.921	3036
849.057	3089
849.192	3142
849.328	3093
849.463	3097
849.598	3051
849.734	3024
849.869	2979
850.004	2914
850.14	2941
850.275	2937
850.41	2830
850.545	2895
850.68	2933
850.815	2944
850.95	2922
851.085	3188
851.22	3097
851.355	3036
851.49	2944
851.625	3005
851.76	2990
851.895	2975
852.03	2895
852.165	2998
852.299	3157
852.434	3199
852.569	3131
852.703	3214
852.838	3275
852.973	3317
853.107	3325
853.242	3127
853.376	3085
853.511	2979
853.645	3036
853.78	3207
853.914	3135
854.048	3085
854.183	3081
854.317	3131
854.451	3275
854.585	3127
854.72	3085
854.854	3161
854.988	3020
855.122	3104
855.256	2960
855.39	3116
855.524	3188
855.658	3138
855.792	3165
855.926	3165
856.06	3195
856.194	3256
856.327	3138
856.461	3055
856.595	3036
856.729	3097
856.862	3218
856.996	3154
857.13	3176
857.263	3188
857.397	3272
857.53	3123
857.664	3176
857.797	3222
857.931	3264
858.064	3131
858.197	3230
858.331	3161
858.464	3085
858.597	2971
858.731	3123
858.864	3135
858.997	3089
859.13	3123
859.263	3165
859.396	3180
859.529	3085
859.662	3108
859.795	3081
859.928	3104
860.061	3249
860.194	3279
860.327	3142
860.46	3089
860.592	3260
860.725	3241
860.858	3260
860.99	3089
861.123	3066
861.256	3062
861.388	3135
861.521	3812
861.653	3013
861.786	2952
861.918	3013
862.05	3066
862.183	3077
862.315	3157
862.447	3207
862.58	3093
862.712	2956
862.844	2857
862.976	3032
863.108	2998
863.24	3325
863.372	2922
863.504	2967
863.636	2929
863.768	3020
863.9	2956
864.032	2891
864.164	2922
864.296	3005
864.428	3131
864.559	3112
864.691	3036
864.823	3081
864.954	3024
865.086	3036
865.217	2963
865.349	2937
865.48	2982
865.612	3024
865.743	3138
865.875	2971
866.006	2906
866.137	2998
866.269	2956
866.4	2899
866.531	2895
866.662	2902
866.793	2899
866.924	2880
867.055	2937
867.186	2918
867.317	2906
867.448	2849
867.579	2834
867.71	2842
867.841	2819
867.972	2933
868.103	2876
868.233	2891
868.364	2868
868.495	2887
868.625	3081
868.756	3146
868.886	2952
869.017	3032
869.147	3154
869.278	3157
869.408	3047
869.539	3028
869.669	3077
869.799	3051
869.929	3142
870.06	3100
870.19	3291
870.32	3249
870.45	3256
870.58	3344
870.71	3454
870.84	3428
870.97	3279
871.1	3245
871.23	3481
871.36	3458
871.489	3336
871.619	3397
871.749	3409
871.879	3416
872.008	3466
872.138	3370
872.267	3233
872.397	3142
872.526	3085
872.656	3013
872.785	3089
872.915	3256
873.044	3310
873.173	3211
873.303	3222
873.432	3230
873.561	3233
873.69	3173
873.819	3131
873.948	3245
874.077	3100
874.206	3032
874.335	3047
874.464	3199
874.593	3367
874.722	3260
874.851	3336
874.979	3355
875.108	3321
875.237	3192
875.365	3188
875.494	3138
875.623	3226
875.751	3097
875.88	3135
876.008	3173
876.136	3218
876.265	3424
876.393	3477
876.521	3420
876.65	3367
876.778	3332
876.906	3237
877.034	3203
877.162	3241
877.29	3207
877.418	3260
877.546	3241
877.674	3256
877.802	3264
877.93	3241
878.058	3112
878.185	3081
878.313	3184
878.441	3203
878.568	3089
878.696	3157
878.824	3241
878.951	3287
879.079	3469
879.206	3610
879.333	3469
879.461	3332
879.588	3351
879.715	3481
879.842	3576
879.97	3397
880.097	3150
880.224	3104
880.351	3169
880.478	3256
880.605	3161
880.732	3203
880.859	3500
880.986	3272
881.112	3310
881.239	3184
881.366	3055
881.493	3066
881.619	3001
881.746	3123
881.872	3104
881.999	3093
882.125	3142
882.252	3253
882.378	3275
882.505	3443
882.631	3287
882.757	3131
882.883	3192
883.01	3211
883.136	3135
883.262	3108
883.388	3112
883.514	3355
883.64	3340
883.766	3332
883.892	3203
884.018	3226
884.143	3386
884.269	3561
884.395	3203
884.52	3108
884.646	3207
884.772	3119
884.897	3062
885.023	3188
885.148	3359
885.274	3454
885.399	3336
885.524	3321
885.65	3241
885.775	3291
885.9	3275
886.025	3401
886.15	3359
886.275	3294
886.4	3237
886.525	3275
886.65	3287
886.775	3275
886.9	3481
887.025	3606
887.149	3428
887.274	3230
887.399	3184
887.523	3180
887.648	3218
887.773	3161
887.897	3355
888.021	3401
888.146	3264
888.27	3458
888.395	3473
888.519	3447
888.643	3443
888.767	3447
888.891	3313
889.015	3226
889.139	3287
889.263	3218
889.387	3409
889.511	3485
889.635	3454
889.759	3310
889.883	3294
890.006	3378
890.13	3545
890.254	3317
890.377	3313
890.501	3218
890.624	3131
890.748	3294
890.871	3192
890.995	3112
891.118	2994
891.241	3176
891.364	3237
891.488	3344
891.611	3180
891.734	3233
891.857	3275
891.98	3260
892.103	3321
892.226	3237
892.349	3222
892.471	3146
892.594	3207
892.717	3268
892.839	3237
892.962	3275
893.085	3367
893.207	3302
893.33	3138
893.452	3203
893.575	3306
893.697	3249
893.819	3496
893.941	3485
894.064	3473
894.186	3283
894.308	3256
894.43	3424
894.552	3492
894.674	3412
894.796	3268
894.918	3306
895.04	3298
895.161	3409
895.283	3367
895.405	3306
895.526	3370
895.648	3450
895.769	3428
895.891	3447
896.012	3485
896.134	3409
896.255	3389
896.376	3397
896.498	3386
896.619	3397
896.74	3359
896.861	3397
896.982	3656
897.103	3812
897.224	3576
897.345	3492
897.466	3405
897.587	3496
897.708	3584
897.828	3542
897.949	3447
898.07	3306
898.19	3412
898.311	3637
898.431	3450
898.552	3519
898.672	3584
898.792	3572
898.913	3488
899.033	3416
899.153	3287
899.273	3222
899.393	3283
899.513	3332
899.633	3291
899.753	3321
899.873	3287
899.993	3367
900.113	3332
900.232	3412
900.352	3344
900.472	3302
900.591	3233
900.711	3268
900.83	3237
900.95	3439
901.069	3488
901.189	3359
901.308	3176
901.427	3112
901.546	3192
901.665	3310
901.784	3302
901.904	3218
902.023	3154
902.141	3024
902.26	3017
902.379	3135
902.498	3051
902.617	3055
902.735	3203
902.854	3226
902.973	3203
903.091	3028
903.21	3112
903.328	3104
903.446	3135
903.565	3127
903.683	3199
903.801	3131
903.919	3287
904.038	3272
904.156	3138
904.274	3283
904.392	3249
904.51	3279
904.627	3321
904.745	3409
904.863	3511
904.981	3253
905.098	3173
905.216	3249
905.334	3283
905.451	3279
905.569	3317
905.686	3401
905.803	3428
905.921	3241
906.038	3428
906.155	3321
906.272	3272
906.389	3332
906.506	3237
906.623	3249
906.74	3245
906.857	3207
906.974	3222
907.091	3466
907.208	3576
907.324	3462
907.441	3374
907.557	3268
907.674	3245
907.79	3233
907.907	3317
908.023	3389
908.139	3382
908.256	3363
908.372	3397
908.488	3367
908.604	3241
908.72	3222
908.836	3256
908.952	3249
909.068	3344
909.184	3462
909.3	3367
909.415	3488
909.531	3458
909.647	3272
909.762	3256
909.878	3272
909.993	3344
910.108	3317
910.224	3344
910.339	3393
910.454	3340
910.57	3329
910.685	3233
910.8	3564
910.915	3511
911.03	3412
911.145	3253
911.259	3256
911.374	3313
911.489	3272
911.604	3237
911.718	3119
911.833	3146
911.947	3017
912.062	3013
912.176	3188
912.291	3192
912.405	3199
912.519	3401
912.633	3428
912.748	3329
912.862	3279
912.976	3146
913.09	3081
913.204	3161
913.318	3218
913.431	3332
913.545	3367
913.659	3416
913.772	3313
913.886	3222
914	3203
914.113	3367
914.226	3447
914.34	3336
914.453	3211
914.566	3416
914.68	3291
914.793	3298
914.906	3150
915.019	3108
915.132	3070
915.245	3161
915.358	3207
915.47	3233
915.583	3298
915.696	3249
915.809	3431
915.921	3397
916.034	3264
916.146	3230
916.259	3180
916.371	3355
916.483	3363
916.595	3245
916.708	3329
916.82	3302
916.932	3336
917.044	3332
917.156	3344
917.268	3294
917.38	3291
917.491	3253
917.603	3401
917.715	3458
917.826	3477
917.938	3386
918.049	3256
918.161	3431
918.272	3595
918.384	3557
918.495	3466
918.606	3332
918.717	3264
918.828	3363
918.939	3431
919.05	3298
919.161	3374
919.272	3211
919.383	3298
919.494	3492
919.604	3656
919.715	3504
919.826	3378
919.936	3405
920.047	3610
920.157	3530
920.267	3778
920.378	3584
920.488	3534
920.598	3717
920.708	3953
920.818	3816
920.928	3812
921.038	4032
921.148	4029
921.258	3679
921.368	3656
921.477	3584
921.587	3523
921.697	3473
921.806	3637
921.916	3515
922.025	3363
922.134	3374
922.244	3336
922.353	3374
922.462	3260
922.571	3245
922.68	3085
922.789	3081
922.898	3146
923.007	3066
923.116	3214
923.224	3138
923.333	3188
923.442	3074
923.55	3070
923.659	3127
923.767	3192
923.876	3150
923.984	3275
924.092	3116
924.201	3176
924.309	3230
924.417	3233
924.525	3199
924.633	3260
924.741	4200
924.849	3051
924.956	3275
925.064	3077
925.172	3051
925.279	3112
925.387	3195
925.494	3203
925.602	3393
925.709	3321
925.816	3195
925.924	3291
926.031	3363
926.138	3294
926.245	3344
926.352	3241
926.459	3401
926.566	3496
926.673	3351
926.779	3245
926.886	3222
926.993	3112
927.099	3112
927.206	3119
927.312	3116
927.419	3226
927.525	3222
927.631	3302
927.737	3165
927.843	3135
927.95	3032
928.056	3131
928.162	3180
928.267	3195
928.373	3778
928.479	3298
928.585	3070
928.69	3237
928.796	3253
928.901	3154
929.007	3032
929.112	3180
929.218	3211
929.323	3157
929.428	3173
929.533	3310
929.638	3131
929.743	3165
929.848	3279
929.953	3218
930.058	3161
930.163	3005
930.267	3036
930.372	3203
930.477	3036
930.581	3291
930.685	3188
930.79	3032
930.894	3100
930.998	3074
931.103	3279
931.207	2910
931.311	2941
931.415	2941
931.519	2788
931.623	2823
