Data from test_V78500241_1122.txt Node
Date: Fri Mar 25 16:22:58 CST 2022
User: usil
Spectrometer: V785-0024
Trigger mode: 0
Integration Time (sec): 4.000000E-1
Scans to average: 1
Nonlinearity correction enabled: false
Boxcar width: 0
Storing dark spectrum: false
XAxis mode: Wavelengths
Number of Pixels in Spectrum: 1024
>>>>>Begin Spectral Data<<<<<
801.071	2876
801.214	2956
801.356	2857
801.499	2887
801.641	2868
801.783	2960
801.926	3074
802.068	2971
802.211	2979
802.353	3043
802.496	2910
802.638	3001
802.78	3047
802.923	3077
803.065	2960
803.208	2899
803.35	2872
803.492	2929
803.635	2960
803.777	2754
803.919	2857
804.061	3142
804.204	2948
804.346	2864
804.488	2861
804.63	2979
804.773	2868
804.915	2937
805.057	3058
805.199	2933
805.341	2956
805.483	3024
805.626	3001
805.768	2944
805.91	3093
806.052	3104
806.194	2982
806.336	3188
806.478	2967
806.62	2952
806.762	2952
806.904	3066
807.046	3176
807.188	3001
807.33	2918
807.472	3017
807.614	2883
807.756	2956
807.898	2929
808.04	2876
808.182	2948
808.324	2948
808.465	2895
808.607	2861
808.749	2777
808.891	2819
809.033	2982
809.174	2967
809.316	2834
809.458	2895
809.6	2746
809.741	2750
809.883	2758
810.025	2845
810.166	2838
810.308	2815
810.45	2842
810.591	2785
810.733	2746
810.875	2830
811.016	2746
811.158	2746
811.299	2792
811.441	2948
811.582	2868
811.724	2815
811.865	2830
812.007	2895
812.148	2880
812.29	2838
812.431	2883
812.573	2952
812.714	2952
812.855	3039
812.997	3043
813.138	3116
813.279	3028
813.421	3001
813.562	2952
813.703	2872
813.845	2891
813.986	2750
814.127	2716
814.268	2796
814.41	2872
814.551	2819
814.692	2857
814.833	2830
814.974	2887
815.115	2922
815.256	2876
815.397	2807
815.539	2864
815.68	2746
815.821	2792
815.962	2948
816.103	2910
816.244	2849
816.385	2891
816.526	2929
816.666	2910
816.807	2758
816.948	2883
817.089	2910
817.23	2857
817.371	2781
817.512	2769
817.653	2830
817.793	2830
817.934	2887
818.075	2975
818.216	2944
818.356	3005
818.497	2902
818.638	2792
818.778	2807
818.919	2785
819.06	2735
819.2	2876
819.341	2819
819.481	2826
819.622	2952
819.762	3104
819.903	3036
820.043	2922
820.184	2872
820.324	2872
820.465	3024
820.605	3032
820.746	3024
820.886	2925
821.026	3089
821.167	3157
821.307	3249
821.447	3272
821.588	3199
821.728	3230
821.868	3157
822.008	3089
822.149	3195
822.289	3260
822.429	3077
822.569	3070
822.709	3150
822.849	3009
822.99	3058
823.13	3154
823.27	3146
823.41	3097
823.55	3104
823.69	3188
823.83	3161
823.97	3108
824.11	3058
824.25	2960
824.389	3017
824.529	3089
824.669	3051
824.809	3192
824.949	3241
825.089	3203
825.228	3150
825.368	2982
825.508	2956
825.648	2925
825.787	3043
825.927	3005
826.067	2967
826.206	2937
826.346	3013
826.485	3138
826.625	3104
826.765	3287
826.904	3222
827.044	2975
827.183	2952
827.323	2861
827.462	2990
827.601	2922
827.741	2929
827.88	2975
828.02	2872
828.159	2933
828.298	3028
828.437	3119
828.577	3032
828.716	3256
828.855	3058
828.994	2895
829.134	2842
829.273	2925
829.412	2864
829.551	2842
829.69	2918
829.829	2982
829.968	3127
830.107	2979
830.246	3020
830.385	2925
830.524	2849
830.663	2804
830.802	2705
830.941	2651
831.08	2648
831.219	2739
831.357	2766
831.496	2948
831.635	2697
831.774	2663
831.913	2613
832.051	2533
832.19	2587
832.329	2636
832.467	2526
832.606	2473
832.744	2579
832.883	2556
833.022	2583
833.16	2651
833.299	2682
833.437	2697
833.576	2708
833.714	2697
833.852	2720
833.991	2731
834.129	2804
834.267	2804
834.406	2796
834.544	2887
834.682	2826
834.821	2853
834.959	3047
835.097	2887
835.235	3013
835.373	2948
835.511	2967
835.65	2933
835.788	2944
835.926	2819
836.064	2743
836.202	2838
836.34	3070
836.478	3119
836.615	3028
836.753	3100
836.891	3226
837.029	3135
837.167	3116
837.305	3047
837.443	3085
837.58	2944
837.718	3161
837.856	3058
837.993	3047
838.131	3108
838.269	3074
838.406	3104
838.544	3085
838.681	2944
838.819	2929
838.956	2811
839.094	2842
839.231	2883
839.369	3013
839.506	3351
839.643	3199
839.781	3032
839.918	2982
840.055	3032
840.193	3032
840.33	3077
840.467	3089
840.604	3131
840.742	3340
840.879	3020
841.016	3032
841.153	3093
841.29	3291
841.427	3313
841.564	3264
841.701	3306
841.838	3176
841.975	3176
842.112	3211
842.249	3058
842.385	3013
842.522	3233
842.659	3127
842.796	3066
842.933	3108
843.069	3001
843.206	3001
843.343	3146
843.479	3085
843.616	3142
843.752	2880
843.889	2838
844.025	3070
844.162	2868
844.298	3062
844.435	2982
844.571	2891
844.708	3070
844.844	3207
844.98	3214
845.117	3192
845.253	3036
845.389	2979
845.525	3089
845.661	3077
845.798	2986
845.934	3100
846.07	3089
846.206	3184
846.342	3321
846.478	3233
846.614	3077
846.75	3043
846.886	3005
847.022	3222
847.158	3108
847.294	3176
847.429	3222
847.565	3184
847.701	3500
847.837	3020
847.972	2982
848.108	3165
848.244	3119
848.379	2975
848.515	2895
848.65	2944
848.786	2937
848.921	3024
849.057	3070
849.192	3150
849.328	3066
849.463	3104
849.598	3047
849.734	3005
849.869	2967
850.004	2891
850.14	2960
850.275	2937
850.41	2834
850.545	2899
850.68	2902
850.815	2944
850.95	2956
851.085	3195
851.22	3108
851.355	2990
851.49	2975
851.625	3001
851.76	2986
851.895	2937
852.03	2906
852.165	3028
852.299	3108
852.434	3142
852.569	3127
852.703	3161
852.838	3245
852.973	3336
853.107	3283
853.242	3108
853.376	3062
853.511	2971
853.645	3001
853.78	3203
853.914	3138
854.048	3089
854.183	3085
854.317	3142
854.451	3218
854.585	3116
854.72	3093
854.854	3184
854.988	3062
855.122	3081
855.256	2925
855.39	3108
855.524	3207
855.658	3180
855.792	3138
855.926	3199
856.06	3165
856.194	3237
856.327	3100
856.461	3066
856.595	3062
856.729	3077
856.862	3184
856.996	3203
857.13	3211
857.263	3207
857.397	3264
857.53	3127
857.664	3180
857.797	3207
857.931	3233
858.064	3173
858.197	3203
858.331	3116
858.464	3097
858.597	2994
858.731	3104
858.864	3104
858.997	3051
859.13	3157
859.263	3184
859.396	3188
859.529	3093
859.662	3085
859.795	3062
859.928	3161
860.061	3294
860.194	3264
860.327	3108
860.46	3074
860.592	3195
860.725	3214
860.858	3260
860.99	3077
861.123	3070
861.256	3028
861.388	3097
861.521	3762
861.653	2952
861.786	2948
861.918	2952
862.05	3047
862.183	3051
862.315	3142
862.447	3184
862.58	3051
862.712	2944
862.844	2868
862.976	3005
863.108	2990
863.24	3272
863.372	2876
863.504	2941
863.636	2933
863.768	3001
863.9	2967
864.032	2925
864.164	2952
864.296	2998
864.428	3081
864.559	3093
864.691	3070
864.823	3028
864.954	3043
865.086	3047
865.217	2975
865.349	2952
865.48	2941
865.612	3013
865.743	3165
865.875	2960
866.006	2937
866.137	2979
866.269	2933
866.4	2925
866.531	2918
866.662	2899
866.793	2906
866.924	2864
867.055	2937
867.186	2922
867.317	2872
867.448	2815
867.579	2807
867.71	2864
867.841	2819
867.972	2906
868.103	2899
868.233	2906
868.364	2857
868.495	2914
868.625	3070
868.756	3199
868.886	2960
869.017	3009
869.147	3112
869.278	3161
869.408	3032
869.539	2998
869.669	3108
869.799	3017
869.929	3119
870.06	3119
870.19	3332
870.32	3230
870.45	3287
870.58	3359
870.71	3431
870.84	3435
870.97	3298
871.1	3184
871.23	3443
871.36	3420
871.489	3325
871.619	3393
871.749	3409
871.879	3424
872.008	3485
872.138	3329
872.267	3249
872.397	3150
872.526	3081
872.656	2963
872.785	3093
872.915	3176
873.044	3287
873.173	3173
873.303	3233
873.432	3233
873.561	3230
873.69	3154
873.819	3135
873.948	3157
874.077	3093
874.206	3020
874.335	3058
874.464	3222
874.593	3344
874.722	3237
874.851	3420
874.979	3336
875.108	3340
875.237	3184
875.365	3146
875.494	3161
875.623	3218
875.751	3047
875.88	3093
876.008	3169
876.136	3218
876.265	3370
876.393	3469
876.521	3386
876.65	3397
876.778	3298
876.906	3253
877.034	3207
877.162	3211
877.29	3188
877.418	3260
877.546	3226
877.674	3218
877.802	3245
877.93	3260
878.058	3131
878.185	3062
878.313	3161
878.441	3173
878.568	3055
878.696	3154
878.824	3226
878.951	3272
879.079	3431
879.206	3584
879.333	3439
879.461	3310
879.588	3310
879.715	3450
879.842	3553
879.97	3393
880.097	3123
880.224	3093
880.351	3131
880.478	3211
880.605	3165
880.732	3135
880.859	3469
880.986	3272
881.112	3355
881.239	3176
881.366	3077
881.493	3028
881.619	3001
881.746	3036
881.872	3097
881.999	3089
882.125	3112
882.252	3222
882.378	3253
882.505	3462
882.631	3272
882.757	3180
882.883	3226
883.01	3218
883.136	3165
883.262	3089
883.388	3108
883.514	3298
883.64	3344
883.766	3279
883.892	3195
884.018	3180
884.143	3401
884.269	3538
884.395	3195
884.52	3154
884.646	3180
884.772	3131
884.897	3081
885.023	3184
885.148	3329
885.274	3416
885.399	3370
885.524	3268
885.65	3279
885.775	3291
885.9	3279
886.025	3412
886.15	3382
886.275	3294
886.4	3233
886.525	3321
886.65	3298
886.775	3260
886.9	3519
887.025	3644
887.149	3439
887.274	3264
887.399	3207
887.523	3230
887.648	3222
887.773	3233
887.897	3389
888.021	3435
888.146	3317
888.27	3450
888.395	3572
888.519	3443
888.643	3496
888.767	3473
888.891	3340
889.015	3287
889.139	3336
889.263	3272
889.387	3412
889.511	3564
889.635	3481
889.759	3344
889.883	3310
890.006	3435
890.13	3553
890.254	3283
890.377	3363
890.501	3214
890.624	3180
890.748	3340
890.871	3195
890.995	3108
891.118	3138
891.241	3222
891.364	3298
891.488	3351
891.611	3207
891.734	3241
891.857	3302
891.98	3291
892.103	3374
892.226	3321
892.349	3245
892.471	3142
892.594	3291
892.717	3351
892.839	3355
892.962	3302
893.085	3397
893.207	3351
893.33	3188
893.452	3226
893.575	3351
893.697	3283
893.819	3526
893.941	3538
894.064	3477
894.186	3275
894.308	3294
894.43	3488
894.552	3599
894.674	3534
894.796	3306
894.918	3340
895.04	3355
895.161	3428
895.283	3428
895.405	3351
895.526	3378
895.648	3466
895.769	3458
895.891	3504
896.012	3523
896.134	3538
896.255	3450
896.376	3435
896.498	3382
896.619	3439
896.74	3412
896.861	3431
896.982	3724
897.103	3896
897.224	3606
897.345	3564
897.466	3488
897.587	3545
897.708	3671
897.828	3542
897.949	3469
898.07	3367
898.19	3431
898.311	3603
898.431	3496
898.552	3564
898.672	3606
898.792	3599
898.913	3534
899.033	3458
899.153	3313
899.273	3241
899.393	3340
899.513	3348
899.633	3344
899.753	3348
899.873	3321
899.993	3416
900.113	3367
900.232	3424
900.352	3389
900.472	3321
900.591	3279
900.711	3348
900.83	3230
900.95	3443
901.069	3485
901.189	3321
901.308	3249
901.427	3150
901.546	3184
901.665	3317
901.784	3359
901.904	3249
902.023	3199
902.141	3036
902.26	3047
902.379	3154
902.498	3108
902.617	3058
902.735	3245
902.854	3237
902.973	3226
903.091	3074
903.21	3074
903.328	3184
903.446	3131
903.565	3157
903.683	3249
903.801	3142
903.919	3279
904.038	3321
904.156	3199
904.274	3298
904.392	3260
904.51	3344
904.627	3374
904.745	3473
904.863	3500
904.981	3272
905.098	3233
905.216	3237
905.334	3306
905.451	3279
905.569	3367
905.686	3473
905.803	3523
905.921	3340
906.038	3466
906.155	3386
906.272	3283
906.389	3363
906.506	3264
906.623	3294
906.74	3287
906.857	3222
906.974	3253
907.091	3458
907.208	3591
907.324	3542
907.441	3401
907.557	3260
907.674	3264
907.79	3222
907.907	3317
908.023	3424
908.139	3424
908.256	3355
908.372	3405
908.488	3397
908.604	3256
908.72	3264
908.836	3264
908.952	3348
909.068	3374
909.184	3526
909.3	3409
909.415	3557
909.531	3538
909.647	3294
909.762	3367
909.878	3256
909.993	3378
910.108	3378
910.224	3355
910.339	3409
910.454	3351
910.57	3321
910.685	3230
910.8	3618
910.915	3542
911.03	3507
911.145	3298
911.259	3264
911.374	3359
911.489	3283
911.604	3245
911.718	3161
911.833	3135
911.947	3058
912.062	3017
912.176	3192
912.291	3237
912.405	3249
912.519	3454
912.633	3473
912.748	3355
912.862	3340
912.976	3203
913.09	3104
913.204	3161
913.318	3249
913.431	3370
913.545	3409
913.659	3439
913.772	3355
913.886	3272
914	3230
914.113	3363
914.226	3412
914.34	3405
914.453	3233
914.566	3450
914.68	3351
914.793	3310
914.906	3173
915.019	3123
915.132	3104
915.245	3180
915.358	3211
915.47	3226
915.583	3275
915.696	3332
915.809	3409
915.921	3428
916.034	3260
916.146	3283
916.259	3260
916.371	3416
916.483	3397
916.595	3325
916.708	3363
916.82	3325
916.932	3359
917.044	3374
917.156	3355
917.268	3260
917.38	3344
917.491	3302
917.603	3370
917.715	3485
917.826	3447
917.938	3420
918.049	3302
918.161	3450
918.272	3606
918.384	3591
918.495	3485
918.606	3336
918.717	3287
918.828	3397
918.939	3428
919.05	3317
919.161	3409
919.272	3176
919.383	3264
919.494	3496
919.604	3720
919.715	3507
919.826	3431
919.936	3473
920.047	3652
920.157	3553
920.267	3789
920.378	3637
920.488	3576
920.598	3793
920.708	3934
920.818	3865
920.928	3850
921.038	4063
921.148	3994
921.258	3701
921.368	3622
921.477	3633
921.587	3572
921.697	3454
921.806	3675
921.916	3538
922.025	3389
922.134	3382
922.244	3336
922.353	3481
922.462	3275
922.571	3253
922.68	3108
922.789	3077
922.898	3165
923.007	3081
923.116	3233
923.224	3192
923.333	3199
923.442	3157
923.55	3104
923.659	3192
923.767	3260
923.876	3097
923.984	3237
924.092	3108
924.201	3241
924.309	3226
924.417	3268
924.525	3199
924.633	3264
924.741	4059
924.849	3077
924.956	3310
925.064	3123
925.172	3085
925.279	3119
925.387	3207
925.494	3256
925.602	3401
925.709	3321
925.816	3226
925.924	3344
926.031	3405
926.138	3359
926.245	3393
926.352	3302
926.459	3409
926.566	3496
926.673	3332
926.779	3272
926.886	3264
926.993	3176
927.099	3146
927.206	3116
927.312	3131
927.419	3226
927.525	3230
927.631	3321
927.737	3150
927.843	3146
927.95	3051
928.056	3203
928.162	3165
928.267	3272
928.373	3865
928.479	3336
928.585	3066
928.69	3199
928.796	3317
928.901	3188
929.007	3009
929.112	3203
929.218	3192
929.323	3161
929.428	3142
929.533	3336
929.638	3135
929.743	3192
929.848	3264
929.953	3226
930.058	3135
930.163	2998
930.267	3077
930.372	3188
930.477	3013
930.581	3294
930.685	3188
930.79	3089
930.894	3146
930.998	3116
931.103	3302
931.207	2956
931.311	2982
931.415	2925
931.519	2754
931.623	2815
