Data from test_V78500241_2013.txt Node
Date: Fri Mar 25 16:29:08 CST 2022
User: usil
Spectrometer: V785-0024
Trigger mode: 0
Integration Time (sec): 4.000000E-1
Scans to average: 1
Nonlinearity correction enabled: false
Boxcar width: 0
Storing dark spectrum: false
XAxis mode: Wavelengths
Number of Pixels in Spectrum: 1024
>>>>>Begin Spectral Data<<<<<
801.071	2925
801.214	2929
801.356	2895
801.499	2899
801.641	2849
801.783	2941
801.926	3024
802.068	2929
802.211	2994
802.353	3020
802.496	2963
802.638	3017
802.78	3043
802.923	3070
803.065	3009
803.208	2887
803.35	2933
803.492	2944
803.635	2914
803.777	2777
803.919	2861
804.061	3165
804.204	2929
804.346	2868
804.488	2849
804.63	2929
804.773	2887
804.915	2925
805.057	3058
805.199	2963
805.341	2952
805.483	3013
805.626	2967
805.768	2986
805.91	3047
806.052	3119
806.194	3017
806.336	3249
806.478	3032
806.62	2956
806.762	2998
806.904	3055
807.046	3169
807.188	2971
807.33	2902
807.472	2990
807.614	2918
807.756	2975
807.898	2944
808.04	2880
808.182	2975
808.324	2975
808.465	2899
808.607	2872
808.749	2819
808.891	2838
809.033	2986
809.174	2963
809.316	2910
809.458	2880
809.6	2788
809.741	2762
809.883	2777
810.025	2811
810.166	2823
810.308	2834
810.45	2830
810.591	2800
810.733	2777
810.875	2796
811.016	2796
811.158	2716
811.299	2834
811.441	2914
811.582	2906
811.724	2815
811.865	2788
812.007	2891
812.148	2861
812.29	2845
812.431	2868
812.573	2922
812.714	2960
812.855	3032
812.997	3047
813.138	3119
813.279	3005
813.421	2960
813.562	2967
813.703	2857
813.845	2864
813.986	2762
814.127	2727
814.268	2815
814.41	2880
814.551	2807
814.692	2880
814.833	2815
814.974	2857
815.115	2914
815.256	2796
815.397	2815
815.539	2849
815.68	2819
815.821	2788
815.962	2933
816.103	2922
816.244	2857
816.385	2887
816.526	2979
816.666	2887
816.807	2735
816.948	2891
817.089	2891
817.23	2819
817.371	2796
817.512	2777
817.653	2819
817.793	2819
817.934	2880
818.075	2967
818.216	3024
818.356	3032
818.497	2876
818.638	2781
818.778	2811
818.919	2773
819.06	2743
819.2	2876
819.341	2762
819.481	2788
819.622	2906
819.762	3108
819.903	3058
820.043	2925
820.184	2902
820.324	2868
820.465	3036
820.605	3024
820.746	3013
820.886	2914
821.026	3108
821.167	3176
821.307	3233
821.447	3298
821.588	3256
821.728	3180
821.868	3226
822.008	3074
822.149	3211
822.289	3184
822.429	3097
822.569	3055
822.709	3142
822.849	3009
822.99	3062
823.13	3180
823.27	3188
823.41	3104
823.55	3150
823.69	3100
823.83	3199
823.97	3058
824.11	3009
824.25	2979
824.389	3055
824.529	3104
824.669	3093
824.809	3157
824.949	3260
825.089	3241
825.228	3184
825.368	2994
825.508	2922
825.648	2990
825.787	3009
825.927	2979
826.067	2948
826.206	2937
826.346	3039
826.485	3055
826.625	3112
826.765	3260
826.904	3233
827.044	2979
827.183	2925
827.323	2845
827.462	2941
827.601	2914
827.741	2902
827.88	2963
828.02	2872
828.159	2986
828.298	3043
828.437	3081
828.577	3024
828.716	3237
828.855	3066
828.994	2918
829.134	2899
829.273	2899
829.412	2849
829.551	2849
829.69	2880
829.829	2944
829.968	3142
830.107	2994
830.246	2975
830.385	2918
830.524	2834
830.663	2796
830.802	2724
830.941	2655
831.08	2651
831.219	2731
831.357	2766
831.496	2948
831.635	2686
831.774	2659
831.913	2617
832.051	2518
832.19	2564
832.329	2678
832.467	2518
832.606	2442
832.744	2579
832.883	2583
833.022	2602
833.16	2648
833.299	2640
833.437	2697
833.576	2667
833.714	2716
833.852	2716
833.991	2785
834.129	2830
834.267	2804
834.406	2766
834.544	2857
834.682	2883
834.821	2876
834.959	3077
835.097	2910
835.235	3032
835.373	2990
835.511	3024
835.65	2933
835.788	2963
835.926	2838
836.064	2849
836.202	2838
836.34	3112
836.478	3176
836.615	3047
836.753	3123
836.891	3203
837.029	3154
837.167	3070
837.305	3081
837.443	3009
837.58	2929
837.718	3138
837.856	3062
837.993	3024
838.131	3085
838.269	3104
838.406	3100
838.544	3097
838.681	2883
838.819	2891
838.956	2800
839.094	2830
839.231	2914
839.369	3005
839.506	3355
839.643	3222
839.781	3036
839.918	2941
840.055	3055
840.193	3028
840.33	3055
840.467	3100
840.604	3108
840.742	3389
840.879	3058
841.016	3032
841.153	3047
841.29	3332
841.427	3287
841.564	3260
841.701	3268
841.838	3222
841.975	3146
842.112	3199
842.249	3077
842.385	3032
842.522	3256
842.659	3062
842.796	3032
842.933	3100
843.069	3013
843.206	3020
843.343	3150
843.479	3100
843.616	3138
843.752	2849
843.889	2876
844.025	3051
844.162	2902
844.298	3074
844.435	2944
844.571	2902
844.708	3039
844.844	3184
844.98	3237
845.117	3165
845.253	3093
845.389	3017
845.525	3104
845.661	3100
845.798	3005
845.934	3123
846.07	3047
846.206	3176
846.342	3340
846.478	3226
846.614	3097
846.75	3047
846.886	2998
847.022	3245
847.158	3108
847.294	3157
847.429	3230
847.565	3184
847.701	3420
847.837	2994
847.972	2986
848.108	3146
848.244	3123
848.379	2971
848.515	2925
848.65	2941
848.786	2948
848.921	3020
849.057	3135
849.192	3165
849.328	3055
849.463	3112
849.598	3070
849.734	3058
849.869	2948
850.004	2895
850.14	2937
850.275	2925
850.41	2819
850.545	2899
850.68	2941
850.815	2948
850.95	2994
851.085	3192
851.22	3097
851.355	3032
851.49	2956
851.625	2998
851.76	3009
851.895	2929
852.03	2925
852.165	3074
852.299	3116
852.434	3195
852.569	3154
852.703	3135
852.838	3230
852.973	3374
853.107	3310
853.242	3123
853.376	3074
853.511	2998
853.645	3020
853.78	3214
853.914	3089
854.048	3112
854.183	3077
854.317	3161
854.451	3268
854.585	3119
854.72	3047
854.854	3176
854.988	3024
855.122	3070
855.256	2944
855.39	3116
855.524	3275
855.658	3203
855.792	3173
855.926	3176
856.06	3226
856.194	3268
856.327	3131
856.461	3097
856.595	3066
856.729	3066
856.862	3211
856.996	3180
857.13	3157
857.263	3214
857.397	3310
857.53	3093
857.664	3169
857.797	3195
857.931	3256
858.064	3214
858.197	3211
858.331	3146
858.464	3097
858.597	2963
858.731	3142
858.864	3154
858.997	3093
859.13	3150
859.263	3180
859.396	3165
859.529	3131
859.662	3081
859.795	3024
859.928	3131
860.061	3233
860.194	3268
860.327	3138
860.46	3070
860.592	3241
860.725	3226
860.858	3230
860.99	3097
861.123	3055
861.256	3062
861.388	3154
861.521	3846
861.653	3005
861.786	2994
861.918	2982
862.05	3077
862.183	3104
862.315	3116
862.447	3218
862.58	3058
862.712	2990
862.844	2883
862.976	3020
863.108	2979
863.24	3302
863.372	2914
863.504	2933
863.636	2971
863.768	3047
863.9	2994
864.032	2895
864.164	2872
864.296	3043
864.428	3074
864.559	3036
864.691	3062
864.823	3085
864.954	3017
865.086	3013
865.217	2971
865.349	2941
865.48	2948
865.612	3024
865.743	3138
865.875	2963
866.006	2941
866.137	2971
866.269	2948
866.4	2941
866.531	2899
866.662	2857
866.793	2861
866.924	2895
867.055	2982
867.186	2902
867.317	2891
867.448	2823
867.579	2842
867.71	2849
867.841	2811
867.972	2910
868.103	2906
868.233	2845
868.364	2853
868.495	2918
868.625	3070
868.756	3176
868.886	2967
869.017	3020
869.147	3184
869.278	3150
869.408	3036
869.539	3013
869.669	3097
869.799	3028
869.929	3131
870.06	3116
870.19	3348
870.32	3279
870.45	3313
870.58	3367
870.71	3462
870.84	3431
870.97	3294
871.1	3222
871.23	3443
871.36	3428
871.489	3370
871.619	3412
871.749	3416
871.879	3412
872.008	3485
872.138	3336
872.267	3294
872.397	3142
872.526	3135
872.656	3051
872.785	3089
872.915	3237
873.044	3294
873.173	3218
873.303	3249
873.432	3241
873.561	3199
873.69	3123
873.819	3138
873.948	3199
874.077	3112
874.206	3036
874.335	3074
874.464	3184
874.593	3340
874.722	3180
874.851	3386
874.979	3344
875.108	3306
875.237	3207
875.365	3131
875.494	3112
875.623	3211
875.751	3081
875.88	3108
876.008	3188
876.136	3188
876.265	3329
876.393	3469
876.521	3428
876.65	3370
876.778	3275
876.906	3237
877.034	3199
877.162	3203
877.29	3195
877.418	3264
877.546	3214
877.674	3233
877.802	3176
877.93	3249
878.058	3180
878.185	3119
878.313	3222
878.441	3169
878.568	3085
878.696	3184
878.824	3192
878.951	3294
879.079	3412
879.206	3580
879.333	3420
879.461	3340
879.588	3359
879.715	3447
879.842	3591
879.97	3378
880.097	3165
880.224	3180
880.351	3245
880.478	3226
880.605	3195
880.732	3154
880.859	3492
880.986	3302
881.112	3355
881.239	3192
881.366	3093
881.493	3036
881.619	3017
881.746	3077
881.872	3089
881.999	3116
882.125	3108
882.252	3241
882.378	3291
882.505	3443
882.631	3260
882.757	3131
882.883	3211
883.01	3180
883.136	3146
883.262	3093
883.388	3058
883.514	3306
883.64	3359
883.766	3302
883.892	3161
884.018	3230
884.143	3412
884.269	3511
884.395	3249
884.52	3146
884.646	3184
884.772	3135
884.897	3066
885.023	3218
885.148	3344
885.274	3420
885.399	3321
885.524	3272
885.65	3260
885.775	3302
885.9	3245
886.025	3439
886.15	3340
886.275	3298
886.4	3199
886.525	3294
886.65	3306
886.775	3298
886.9	3492
887.025	3618
887.149	3386
887.274	3233
887.399	3199
887.523	3203
887.648	3203
887.773	3184
887.897	3355
888.021	3416
888.146	3294
888.27	3386
888.395	3542
888.519	3355
888.643	3409
888.767	3397
888.891	3310
889.015	3214
889.139	3283
889.263	3237
889.387	3424
889.511	3469
889.635	3439
889.759	3306
889.883	3287
890.006	3359
890.13	3454
890.254	3264
890.377	3332
890.501	3199
890.624	3176
890.748	3298
890.871	3161
890.995	3112
891.118	3043
891.241	3214
891.364	3199
891.488	3336
891.611	3150
891.734	3214
891.857	3253
891.98	3218
892.103	3306
892.226	3279
892.349	3230
892.471	3131
892.594	3249
892.717	3272
892.839	3264
892.962	3272
893.085	3370
893.207	3283
893.33	3176
893.452	3207
893.575	3351
893.697	3249
893.819	3458
893.941	3481
894.064	3443
894.186	3256
894.308	3253
894.43	3428
894.552	3500
894.674	3450
894.796	3268
894.918	3325
895.04	3275
895.161	3416
895.283	3397
895.405	3272
895.526	3348
895.648	3397
895.769	3397
895.891	3443
896.012	3450
896.134	3469
896.255	3424
896.376	3401
896.498	3340
896.619	3477
896.74	3351
896.861	3428
896.982	3625
897.103	3812
897.224	3580
897.345	3485
897.466	3443
897.587	3496
897.708	3618
897.828	3530
897.949	3428
898.07	3283
898.19	3389
898.311	3580
898.431	3424
898.552	3481
898.672	3618
898.792	3568
898.913	3500
899.033	3393
899.153	3260
899.273	3233
899.393	3272
899.513	3264
899.633	3351
899.753	3332
899.873	3317
899.993	3393
900.113	3306
900.232	3367
900.352	3332
900.472	3268
900.591	3211
900.711	3329
900.83	3207
900.95	3386
901.069	3466
901.189	3317
901.308	3195
901.427	3116
901.546	3180
901.665	3317
901.784	3340
901.904	3203
902.023	3127
902.141	3047
902.26	2979
902.379	3165
902.498	3070
902.617	3047
902.735	3214
902.854	3195
902.973	3237
903.091	3070
903.21	3043
903.328	3123
903.446	3100
903.565	3047
903.683	3214
903.801	3157
903.919	3245
904.038	3275
904.156	3176
904.274	3302
904.392	3211
904.51	3298
904.627	3363
904.745	3405
904.863	3485
904.981	3260
905.098	3157
905.216	3218
905.334	3313
905.451	3336
905.569	3302
905.686	3412
905.803	3447
905.921	3241
906.038	3401
906.155	3340
906.272	3275
906.389	3313
906.506	3195
906.623	3287
906.74	3287
906.857	3195
906.974	3256
907.091	3462
907.208	3534
907.324	3473
907.441	3370
907.557	3203
907.674	3237
907.79	3184
907.907	3310
908.023	3389
908.139	3355
908.256	3325
908.372	3359
908.488	3363
908.604	3287
908.72	3207
908.836	3283
908.952	3272
909.068	3317
909.184	3450
909.3	3416
909.415	3492
909.531	3462
909.647	3294
909.762	3287
909.878	3249
909.993	3332
910.108	3332
910.224	3317
910.339	3374
910.454	3317
910.57	3306
910.685	3230
910.8	3595
910.915	3591
911.03	3450
911.145	3218
911.259	3294
911.374	3306
911.489	3237
911.604	3226
911.718	3104
911.833	3116
911.947	3009
912.062	2998
912.176	3138
912.291	3207
912.405	3184
912.519	3409
912.633	3450
912.748	3329
912.862	3275
912.976	3161
913.09	3024
913.204	3131
913.318	3207
913.431	3321
913.545	3344
913.659	3389
913.772	3329
913.886	3226
914	3154
914.113	3321
914.226	3386
914.34	3329
914.453	3211
914.566	3374
914.68	3306
914.793	3302
914.906	3135
915.019	3131
915.132	3112
915.245	3154
915.358	3192
915.47	3226
915.583	3226
915.696	3279
915.809	3386
915.921	3374
916.034	3268
916.146	3279
916.259	3195
916.371	3348
916.483	3367
916.595	3264
916.708	3329
916.82	3370
916.932	3355
917.044	3348
917.156	3332
917.268	3268
917.38	3287
917.491	3279
917.603	3344
917.715	3416
917.826	3462
917.938	3424
918.049	3253
918.161	3431
918.272	3542
918.384	3587
918.495	3492
918.606	3325
918.717	3230
918.828	3355
918.939	3401
919.05	3306
919.161	3367
919.272	3192
919.383	3287
919.494	3473
919.604	3690
919.715	3496
919.826	3424
919.936	3473
920.047	3584
920.157	3530
920.267	3728
920.378	3576
920.488	3564
920.598	3797
920.708	3972
920.818	3842
920.928	3812
921.038	3994
921.148	3983
921.258	3736
921.368	3614
921.477	3606
921.587	3507
921.697	3397
921.806	3622
921.916	3526
922.025	3340
922.134	3348
922.244	3325
922.353	3420
922.462	3275
922.571	3199
922.68	3104
922.789	3043
922.898	3154
923.007	3116
923.116	3157
923.224	3146
923.333	3161
923.442	3093
923.55	3077
923.659	3176
923.767	3218
923.876	3131
923.984	3230
924.092	3127
924.201	3188
924.309	3233
924.417	3253
924.525	3188
924.633	3230
924.741	4196
924.849	3032
924.956	3245
925.064	3119
925.172	3009
925.279	3074
925.387	3157
925.494	3214
925.602	3386
925.709	3321
925.816	3211
925.924	3272
926.031	3329
926.138	3359
926.245	3321
926.352	3260
926.459	3458
926.566	3428
926.673	3317
926.779	3275
926.886	3249
926.993	3161
927.099	3154
927.206	3131
927.312	3108
927.419	3260
927.525	3203
927.631	3279
927.737	3123
927.843	3085
927.95	3043
928.056	3112
928.162	3203
928.267	3222
928.373	3865
928.479	3329
928.585	3058
928.69	3207
928.796	3264
928.901	3173
929.007	3043
929.112	3169
929.218	3184
929.323	3138
929.428	3146
929.533	3317
929.638	3100
929.743	3150
929.848	3279
929.953	3195
930.058	3150
930.163	3005
930.267	3020
930.372	3192
930.477	3017
930.581	3329
930.685	3154
930.79	3070
930.894	3116
930.998	3138
931.103	3287
931.207	2971
931.311	2925
931.415	2906
931.519	2785
931.623	2842
