Data from test_V78500241_1336.txt Node
Date: Fri Mar 25 16:24:27 CST 2022
User: usil
Spectrometer: V785-0024
Trigger mode: 0
Integration Time (sec): 4.000000E-1
Scans to average: 1
Nonlinearity correction enabled: false
Boxcar width: 0
Storing dark spectrum: false
XAxis mode: Wavelengths
Number of Pixels in Spectrum: 1024
>>>>>Begin Spectral Data<<<<<
801.071	2933
801.214	3024
801.356	2891
801.499	2906
801.641	2857
801.783	2952
801.926	3077
802.068	3024
802.211	3036
802.353	3047
802.496	2975
802.638	2990
802.78	3062
802.923	3089
803.065	3062
803.208	2880
803.35	2944
803.492	2956
803.635	2925
803.777	2781
803.919	2872
804.061	3184
804.204	2990
804.346	2967
804.488	2891
804.63	2971
804.773	2899
804.915	2906
805.057	3116
805.199	2967
805.341	2994
805.483	3039
805.626	3055
805.768	2990
805.91	3142
806.052	3119
806.194	3036
806.336	3249
806.478	3047
806.62	2971
806.762	3028
806.904	3093
807.046	3157
807.188	3020
807.33	2948
807.472	2960
807.614	2922
807.756	3028
807.898	2929
808.04	2914
808.182	2998
808.324	2990
808.465	2883
808.607	2891
808.749	2819
808.891	2876
809.033	3020
809.174	2971
809.316	2933
809.458	2895
809.6	2792
809.741	2754
809.883	2823
810.025	2861
810.166	2853
810.308	2895
810.45	2868
810.591	2746
810.733	2807
810.875	2834
811.016	2819
811.158	2781
811.299	2823
811.441	2937
811.582	2906
811.724	2830
811.865	2864
812.007	2902
812.148	2891
812.29	2876
812.431	2883
812.573	2982
812.714	2971
812.855	3100
812.997	3062
813.138	3123
813.279	3047
813.421	3009
813.562	2982
813.703	2914
813.845	2922
813.986	2800
814.127	2754
814.268	2815
814.41	2864
814.551	2804
814.692	2891
814.833	2800
814.974	2868
815.115	2994
815.256	2838
815.397	2796
815.539	2864
815.68	2785
815.821	2796
815.962	2963
816.103	2929
816.244	2876
816.385	2861
816.526	2990
816.666	2906
816.807	2769
816.948	2918
817.089	2937
817.23	2853
817.371	2834
817.512	2815
817.653	2872
817.793	2857
817.934	2906
818.075	2982
818.216	3001
818.356	3028
818.497	2895
818.638	2815
818.778	2830
818.919	2815
819.06	2773
819.2	2918
819.341	2830
819.481	2826
819.622	2918
819.762	3119
819.903	3051
820.043	2944
820.184	2910
820.324	2933
820.465	3051
820.605	3047
820.746	3039
820.886	2933
821.026	3093
821.167	3157
821.307	3207
821.447	3302
821.588	3241
821.728	3237
821.868	3203
822.008	3081
822.149	3222
822.289	3230
822.429	3074
822.569	3150
822.709	3180
822.849	3066
822.99	3058
823.13	3154
823.27	3214
823.41	3081
823.55	3157
823.69	3176
823.83	3237
823.97	3112
824.11	3017
824.25	2986
824.389	3093
824.529	3131
824.669	3093
824.809	3226
824.949	3253
825.089	3268
825.228	3195
825.368	3001
825.508	2956
825.648	2967
825.787	3009
825.927	3032
826.067	2944
826.206	2960
826.346	3051
826.485	3085
826.625	3116
826.765	3298
826.904	3211
827.044	3024
827.183	2956
827.323	2880
827.462	2998
827.601	2944
827.741	2948
827.88	3001
828.02	2872
828.159	3005
828.298	3047
828.437	3135
828.577	3043
828.716	3264
828.855	3081
828.994	2948
829.134	2880
829.273	2948
829.412	2899
829.551	2861
829.69	2922
829.829	3032
829.968	3127
830.107	3009
830.246	3066
830.385	2952
830.524	2868
830.663	2815
830.802	2739
830.941	2663
831.08	2659
831.219	2758
831.357	2785
831.496	2952
831.635	2766
831.774	2636
831.913	2678
832.051	2533
832.19	2587
832.329	2697
832.467	2560
832.606	2495
832.744	2575
832.883	2552
833.022	2613
833.16	2651
833.299	2701
833.437	2712
833.576	2686
833.714	2762
833.852	2758
833.991	2762
834.129	2857
834.267	2807
834.406	2853
834.544	2857
834.682	2880
834.821	2883
834.959	3070
835.097	2918
835.235	3070
835.373	3024
835.511	3017
835.65	2933
835.788	2925
835.926	2845
836.064	2823
836.202	2838
836.34	3104
836.478	3119
836.615	3085
836.753	3119
836.891	3192
837.029	3203
837.167	3062
837.305	3070
837.443	3028
837.58	2990
837.718	3146
837.856	3074
837.993	3032
838.131	3142
838.269	3123
838.406	3097
838.544	3093
838.681	2910
838.819	2956
838.956	2838
839.094	2883
839.231	2933
839.369	3020
839.506	3412
839.643	3233
839.781	3032
839.918	2963
840.055	3062
840.193	3097
840.33	3043
840.467	3119
840.604	3150
840.742	3397
840.879	3066
841.016	3062
841.153	3097
841.29	3298
841.427	3302
841.564	3302
841.701	3325
841.838	3222
841.975	3192
842.112	3188
842.249	3077
842.385	3051
842.522	3237
842.659	3097
842.796	3043
842.933	3081
843.069	3070
843.206	3055
843.343	3165
843.479	3116
843.616	3142
843.752	2902
843.889	2906
844.025	3104
844.162	2883
844.298	3116
844.435	2941
844.571	2910
844.708	3062
844.844	3173
844.98	3249
845.117	3184
845.253	3058
845.389	2994
845.525	3100
845.661	3123
845.798	3020
845.934	3154
846.07	3028
846.206	3230
846.342	3310
846.478	3203
846.614	3127
846.75	3066
846.886	3074
847.022	3237
847.158	3142
847.294	3241
847.429	3272
847.565	3218
847.701	3481
847.837	3055
847.972	2986
848.108	3165
848.244	3123
848.379	3005
848.515	2960
848.65	2944
848.786	2994
848.921	3024
849.057	3081
849.192	3161
849.328	3043
849.463	3127
849.598	3055
849.734	3036
849.869	2998
850.004	2933
850.14	2975
850.275	2891
850.41	2876
850.545	2887
850.68	2941
850.815	2994
850.95	2971
851.085	3173
851.22	3116
851.355	3017
851.49	2982
851.625	3013
851.76	3028
851.895	2963
852.03	2914
852.165	3051
852.299	3119
852.434	3199
852.569	3138
852.703	3192
852.838	3260
852.973	3344
853.107	3317
853.242	3146
853.376	3112
853.511	2990
853.645	3039
853.78	3268
853.914	3127
854.048	3116
854.183	3066
854.317	3146
854.451	3340
854.585	3119
854.72	3047
854.854	3230
854.988	3020
855.122	3108
855.256	2956
855.39	3108
855.524	3230
855.658	3157
855.792	3150
855.926	3188
856.06	3207
856.194	3253
856.327	3157
856.461	3062
856.595	3070
856.729	3127
856.862	3199
856.996	3157
857.13	3203
857.263	3218
857.397	3283
857.53	3123
857.664	3233
857.797	3249
857.931	3264
858.064	3176
858.197	3211
858.331	3123
858.464	3062
858.597	3028
858.731	3066
858.864	3176
858.997	3135
859.13	3146
859.263	3146
859.396	3173
859.529	3081
859.662	3074
859.795	3055
859.928	3150
860.061	3245
860.194	3272
860.327	3119
860.46	3112
860.592	3214
860.725	3233
860.858	3272
860.99	3116
861.123	3043
861.256	3074
861.388	3108
861.521	3720
861.653	3013
861.786	2994
861.918	2994
862.05	3051
862.183	3074
862.315	3173
862.447	3230
862.58	3093
862.712	2910
862.844	2891
862.976	3032
863.108	2982
863.24	3317
863.372	2910
863.504	2986
863.636	2963
863.768	3017
863.9	2982
864.032	2902
864.164	2948
864.296	3001
864.428	3119
864.559	3097
864.691	3097
864.823	3089
864.954	3024
865.086	3062
865.217	2967
865.349	2933
865.48	2990
865.612	3017
865.743	3116
865.875	2979
866.006	2952
866.137	3001
866.269	2918
866.4	2944
866.531	2899
866.662	2902
866.793	2899
866.924	2914
867.055	2963
867.186	2925
867.317	2887
867.448	2872
867.579	2876
867.71	2849
867.841	2845
867.972	2906
868.103	2895
868.233	2891
868.364	2872
868.495	2853
868.625	3093
868.756	3142
868.886	2975
869.017	3058
869.147	3135
869.278	3169
869.408	3032
869.539	3001
869.669	3104
869.799	3043
869.929	3146
870.06	3116
870.19	3351
870.32	3294
870.45	3287
870.58	3329
870.71	3431
870.84	3439
870.97	3298
871.1	3207
871.23	3481
871.36	3428
871.489	3351
871.619	3363
871.749	3401
871.879	3435
872.008	3485
872.138	3348
872.267	3294
872.397	3127
872.526	3104
872.656	3047
872.785	3097
872.915	3214
873.044	3298
873.173	3203
873.303	3222
873.432	3230
873.561	3214
873.69	3119
873.819	3184
873.948	3188
874.077	3108
874.206	3032
874.335	3108
874.464	3199
874.593	3351
874.722	3237
874.851	3374
874.979	3332
875.108	3294
875.237	3214
875.365	3154
875.494	3112
875.623	3260
875.751	3074
875.88	3108
876.008	3157
876.136	3222
876.265	3332
876.393	3496
876.521	3382
876.65	3389
876.778	3306
876.906	3233
877.034	3176
877.162	3188
877.29	3176
877.418	3237
877.546	3256
877.674	3226
877.802	3241
877.93	3207
878.058	3165
878.185	3104
878.313	3173
878.441	3195
878.568	3085
878.696	3108
878.824	3222
878.951	3298
879.079	3443
879.206	3629
879.333	3450
879.461	3321
879.588	3332
879.715	3488
879.842	3622
879.97	3393
880.097	3195
880.224	3100
880.351	3203
880.478	3245
880.605	3184
880.732	3176
880.859	3492
880.986	3298
881.112	3332
881.239	3222
881.366	3077
881.493	3024
881.619	3024
881.746	3055
881.872	3070
881.999	3074
882.125	3161
882.252	3241
882.378	3275
882.505	3428
882.631	3241
882.757	3161
882.883	3233
883.01	3256
883.136	3150
883.262	3097
883.388	3150
883.514	3329
883.64	3389
883.766	3306
883.892	3188
884.018	3233
884.143	3420
884.269	3538
884.395	3218
884.52	3135
884.646	3146
884.772	3154
884.897	3104
885.023	3203
885.148	3351
885.274	3367
885.399	3363
885.524	3291
885.65	3241
885.775	3306
885.9	3272
886.025	3405
886.15	3382
886.275	3294
886.4	3214
886.525	3298
886.65	3268
886.775	3272
886.9	3477
887.025	3633
887.149	3428
887.274	3249
887.399	3176
887.523	3214
887.648	3176
887.773	3157
887.897	3409
888.021	3378
888.146	3306
888.27	3450
888.395	3542
888.519	3416
888.643	3450
888.767	3450
888.891	3279
889.015	3272
889.139	3291
889.263	3245
889.387	3416
889.511	3515
889.635	3443
889.759	3283
889.883	3313
890.006	3378
890.13	3473
890.254	3275
890.377	3359
890.501	3211
890.624	3165
890.748	3325
890.871	3154
890.995	3116
891.118	3081
891.241	3214
891.364	3207
891.488	3287
891.611	3211
891.734	3226
891.857	3214
891.98	3218
892.103	3348
892.226	3275
892.349	3214
892.471	3131
892.594	3230
892.717	3306
892.839	3241
892.962	3275
893.085	3355
893.207	3294
893.33	3138
893.452	3188
893.575	3321
893.697	3222
893.819	3469
893.941	3507
894.064	3492
894.186	3249
894.308	3291
894.43	3450
894.552	3526
894.674	3439
894.796	3294
894.918	3317
895.04	3256
895.161	3374
895.283	3374
895.405	3302
895.526	3302
895.648	3389
895.769	3431
895.891	3469
896.012	3500
896.134	3466
896.255	3378
896.376	3386
896.498	3355
896.619	3409
896.74	3363
896.861	3409
896.982	3648
897.103	3842
897.224	3625
897.345	3496
897.466	3401
897.587	3507
897.708	3625
897.828	3530
897.949	3378
898.07	3321
898.19	3420
898.311	3595
898.431	3431
898.552	3511
898.672	3561
898.792	3564
898.913	3538
899.033	3435
899.153	3302
899.273	3245
899.393	3306
899.513	3344
899.633	3321
899.753	3351
899.873	3294
899.993	3389
900.113	3321
900.232	3363
900.352	3332
900.472	3287
900.591	3214
900.711	3294
900.83	3256
900.95	3447
901.069	3458
901.189	3340
901.308	3188
901.427	3116
901.546	3180
901.665	3298
901.784	3317
901.904	3233
902.023	3138
902.141	3058
902.26	3017
902.379	3138
902.498	3055
902.617	3028
902.735	3211
902.854	3249
902.973	3199
903.091	3066
903.21	3043
903.328	3180
903.446	3097
903.565	3097
903.683	3176
903.801	3154
903.919	3256
904.038	3268
904.156	3169
904.274	3253
904.392	3199
904.51	3272
904.627	3340
904.745	3424
904.863	3504
904.981	3279
905.098	3165
905.216	3214
905.334	3291
905.451	3272
905.569	3268
905.686	3431
905.803	3401
905.921	3313
906.038	3386
906.155	3332
906.272	3249
906.389	3321
906.506	3253
906.623	3249
906.74	3298
906.857	3192
906.974	3230
907.091	3431
907.208	3587
907.324	3454
907.441	3401
907.557	3199
907.674	3245
907.79	3203
907.907	3268
908.023	3397
908.139	3393
908.256	3287
908.372	3374
908.488	3378
908.604	3256
908.72	3222
908.836	3272
908.952	3298
909.068	3287
909.184	3462
909.3	3359
909.415	3454
909.531	3462
909.647	3230
909.762	3268
909.878	3256
909.993	3378
910.108	3321
910.224	3302
910.339	3409
910.454	3348
910.57	3306
910.685	3226
910.8	3595
910.915	3473
911.03	3469
911.145	3222
911.259	3264
911.374	3351
911.489	3245
911.604	3253
911.718	3108
911.833	3157
911.947	3020
912.062	3020
912.176	3173
912.291	3192
912.405	3180
912.519	3416
912.633	3454
912.748	3363
912.862	3272
912.976	3195
913.09	3085
913.204	3138
913.318	3218
913.431	3310
913.545	3294
913.659	3397
913.772	3321
913.886	3218
914	3222
914.113	3351
914.226	3401
914.34	3412
914.453	3157
914.566	3420
914.68	3317
914.793	3268
914.906	3127
915.019	3085
915.132	3074
915.245	3176
915.358	3188
915.47	3211
915.583	3272
915.696	3313
915.809	3397
915.921	3435
916.034	3264
916.146	3272
916.259	3199
916.371	3397
916.483	3336
916.595	3249
916.708	3329
916.82	3367
916.932	3351
917.044	3340
917.156	3336
917.268	3233
917.38	3279
917.491	3329
917.603	3340
917.715	3458
917.826	3435
917.938	3367
918.049	3279
918.161	3412
918.272	3561
918.384	3530
918.495	3469
918.606	3348
918.717	3291
918.828	3374
918.939	3386
919.05	3291
919.161	3367
919.272	3180
919.383	3272
919.494	3469
919.604	3682
919.715	3519
919.826	3420
919.936	3435
920.047	3572
920.157	3557
920.267	3766
920.378	3614
920.488	3542
920.598	3778
920.708	3941
920.818	3736
920.928	3831
921.038	4010
921.148	4006
921.258	3705
921.368	3584
921.477	3549
921.587	3500
921.697	3439
921.806	3629
921.916	3530
922.025	3363
922.134	3386
922.244	3279
922.353	3420
922.462	3256
922.571	3203
922.68	3089
922.789	3055
922.898	3116
923.007	3074
923.116	3176
923.224	3169
923.333	3199
923.442	3112
923.55	3077
923.659	3165
923.767	3203
923.876	3112
923.984	3211
924.092	3085
924.201	3207
924.309	3214
924.417	3253
924.525	3203
924.633	3233
924.741	3998
924.849	3097
924.956	3253
925.064	3077
925.172	3047
925.279	3100
925.387	3184
925.494	3203
925.602	3336
925.709	3332
925.816	3180
925.924	3287
926.031	3370
926.138	3344
926.245	3367
926.352	3256
926.459	3428
926.566	3431
926.673	3310
926.779	3230
926.886	3241
926.993	3154
927.099	3097
927.206	3123
927.312	3097
927.419	3192
927.525	3203
927.631	3272
927.737	3169
927.843	3135
927.95	3020
928.056	3123
928.162	3138
928.267	3256
928.373	3827
928.479	3302
928.585	3074
928.69	3192
928.796	3241
928.901	3135
929.007	3032
929.112	3192
929.218	3161
929.323	3176
929.428	3157
929.533	3317
929.638	3123
929.743	3188
929.848	3260
929.953	3222
930.058	3135
930.163	3009
930.267	3051
930.372	3184
930.477	3043
930.581	3363
930.685	3176
930.79	3062
930.894	3112
930.998	3100
931.103	3279
931.207	2963
931.311	2925
931.415	2906
931.519	2758
931.623	2804
