Data from test_V78500241_956.txt Node
Date: Fri Mar 25 16:21:49 CST 2022
User: usil
Spectrometer: V785-0024
Trigger mode: 0
Integration Time (sec): 4.000000E-1
Scans to average: 1
Nonlinearity correction enabled: false
Boxcar width: 0
Storing dark spectrum: false
XAxis mode: Wavelengths
Number of Pixels in Spectrum: 1024
>>>>>Begin Spectral Data<<<<<
801.071	2899
801.214	2944
801.356	2842
801.499	2868
801.641	2883
801.783	2944
801.926	3036
802.068	2998
802.211	3013
802.353	3013
802.496	2952
802.638	2986
802.78	3043
802.923	3081
803.065	3036
803.208	2933
803.35	2902
803.492	2891
803.635	2952
803.777	2739
803.919	2853
804.061	3180
804.204	2944
804.346	2944
804.488	2826
804.63	2979
804.773	2849
804.915	2910
805.057	3058
805.199	2914
805.341	2982
805.483	3032
805.626	3009
805.768	2990
805.91	3108
806.052	3077
806.194	3024
806.336	3233
806.478	3055
806.62	2948
806.762	2994
806.904	3036
807.046	3142
807.188	3001
807.33	2944
807.472	2960
807.614	2918
807.756	2986
807.898	2899
808.04	2914
808.182	2944
808.324	2929
808.465	2880
808.607	2853
808.749	2800
808.891	2868
809.033	2963
809.174	2963
809.316	2887
809.458	2872
809.6	2792
809.741	2758
809.883	2739
810.025	2853
810.166	2876
810.308	2823
810.45	2857
810.591	2766
810.733	2777
810.875	2800
811.016	2807
811.158	2746
811.299	2804
811.441	2899
811.582	2895
811.724	2815
811.865	2830
812.007	2899
812.148	2864
812.29	2842
812.431	2868
812.573	2933
812.714	2960
812.855	3024
812.997	3036
813.138	3112
813.279	2971
813.421	3001
813.562	2952
813.703	2887
813.845	2887
813.986	2750
814.127	2735
814.268	2830
814.41	2868
814.551	2849
814.692	2887
814.833	2819
814.974	2883
815.115	2971
815.256	2826
815.397	2785
815.539	2849
815.68	2754
815.821	2762
815.962	2941
816.103	2918
816.244	2853
816.385	2853
816.526	2944
816.666	2899
816.807	2773
816.948	2876
817.089	2883
817.23	2815
817.371	2781
817.512	2792
817.653	2838
817.793	2807
817.934	2895
818.075	2937
818.216	2982
818.356	3009
818.497	2876
818.638	2754
818.778	2758
818.919	2807
819.06	2739
819.2	2857
819.341	2769
819.481	2781
819.622	2948
819.762	3100
819.903	3055
820.043	2925
820.184	2880
820.324	2880
820.465	3020
820.605	2998
820.746	3005
820.886	2937
821.026	3104
821.167	3165
821.307	3291
821.447	3298
821.588	3226
821.728	3169
821.868	3173
822.008	3093
822.149	3169
822.289	3195
822.429	3070
822.569	3093
822.709	3207
822.849	2998
822.99	3043
823.13	3123
823.27	3176
823.41	3104
823.55	3131
823.69	3157
823.83	3161
823.97	3081
824.11	2975
824.25	2982
824.389	3058
824.529	3127
824.669	3074
824.809	3188
824.949	3253
825.089	3256
825.228	3138
825.368	2986
825.508	2956
825.648	2944
825.787	2979
825.927	3005
826.067	2944
826.206	2967
826.346	3047
826.485	3081
826.625	3119
826.765	3245
826.904	3195
827.044	2994
827.183	2963
827.323	2864
827.462	2986
827.601	2922
827.741	2929
827.88	2906
828.02	2872
828.159	2990
828.298	3024
828.437	3077
828.577	3039
828.716	3214
828.855	3058
828.994	2906
829.134	2906
829.273	2922
829.412	2845
829.551	2880
829.69	2849
829.829	2956
829.968	3089
830.107	2994
830.246	3009
830.385	2948
830.524	2891
830.663	2804
830.802	2731
830.941	2648
831.08	2632
831.219	2750
831.357	2758
831.496	2971
831.635	2697
831.774	2655
831.913	2648
832.051	2518
832.19	2602
832.329	2712
832.467	2499
832.606	2514
832.744	2606
832.883	2564
833.022	2579
833.16	2640
833.299	2670
833.437	2682
833.576	2663
833.714	2708
833.852	2708
833.991	2758
834.129	2826
834.267	2826
834.406	2754
834.544	2868
834.682	2845
834.821	2853
834.959	3028
835.097	2891
835.235	3066
835.373	2967
835.511	3009
835.65	2952
835.788	2956
835.926	2845
836.064	2800
836.202	2838
836.34	3097
836.478	3089
836.615	3028
836.753	3127
836.891	3226
837.029	3150
837.167	3127
837.305	3055
837.443	3009
837.58	2952
837.718	3116
837.856	3047
837.993	3024
838.131	3066
838.269	3081
838.406	3062
838.544	3100
838.681	2937
838.819	2937
838.956	2807
839.094	2781
839.231	2906
839.369	3020
839.506	3416
839.643	3203
839.781	3043
839.918	2967
840.055	3047
840.193	3036
840.33	3036
840.467	3077
840.604	3127
840.742	3412
840.879	3032
841.016	3043
841.153	3112
841.29	3291
841.427	3321
841.564	3241
841.701	3279
841.838	3218
841.975	3176
842.112	3211
842.249	3066
842.385	3017
842.522	3249
842.659	3058
842.796	3066
842.933	3089
843.069	3039
843.206	3062
843.343	3165
843.479	3123
843.616	3165
843.752	2887
843.889	2864
844.025	3085
844.162	2872
844.298	3055
844.435	2998
844.571	2899
844.708	3085
844.844	3150
844.98	3241
845.117	3214
845.253	3024
845.389	3020
845.525	3089
845.661	3074
845.798	3020
845.934	3138
846.07	3077
846.206	3195
846.342	3283
846.478	3226
846.614	3081
846.75	3020
846.886	3017
847.022	3230
847.158	3131
847.294	3192
847.429	3275
847.565	3237
847.701	3469
847.837	3043
847.972	3017
848.108	3135
848.244	3135
848.379	2956
848.515	2914
848.65	2933
848.786	2990
848.921	2990
849.057	3077
849.192	3150
849.328	3047
849.463	3100
849.598	3055
849.734	3013
849.869	2986
850.004	2899
850.14	2967
850.275	2941
850.41	2872
850.545	2861
850.68	2895
850.815	2956
850.95	2944
851.085	3188
851.22	3100
851.355	3024
851.49	2971
851.625	2986
851.76	3001
851.895	2929
852.03	2899
852.165	3039
852.299	3104
852.434	3150
852.569	3146
852.703	3157
852.838	3237
852.973	3351
853.107	3302
853.242	3127
853.376	3077
853.511	2956
853.645	3051
853.78	3245
853.914	3077
854.048	3119
854.183	3055
854.317	3180
854.451	3264
854.585	3116
854.72	3077
854.854	3207
854.988	3058
855.122	3062
855.256	2971
855.39	3085
855.524	3230
855.658	3207
855.792	3138
855.926	3184
856.06	3214
856.194	3218
856.327	3154
856.461	3077
856.595	3070
856.729	3104
856.862	3184
856.996	3146
857.13	3195
857.263	3222
857.397	3256
857.53	3146
857.664	3188
857.797	3237
857.931	3268
858.064	3150
858.197	3222
858.331	3116
858.464	3081
858.597	2994
858.731	3112
858.864	3135
858.997	3077
859.13	3119
859.263	3173
859.396	3176
859.529	3062
859.662	3089
859.795	3017
859.928	3142
860.061	3294
860.194	3253
860.327	3131
860.46	3062
860.592	3211
860.725	3237
860.858	3310
860.99	3081
861.123	3032
861.256	3055
861.388	3123
861.521	3781
861.653	3001
861.786	2948
861.918	2952
862.05	3062
862.183	3081
862.315	3138
862.447	3192
862.58	3093
862.712	2952
862.844	2864
862.976	3005
863.108	2967
863.24	3401
863.372	2876
863.504	2948
863.636	2937
863.768	3024
863.9	2925
864.032	2887
864.164	2925
864.296	3009
864.428	3093
864.559	3028
864.691	3089
864.823	3055
864.954	3017
865.086	3017
865.217	3036
865.349	2937
865.48	2929
865.612	2994
865.743	3165
865.875	2979
866.006	2910
866.137	2960
866.269	2929
866.4	2948
866.531	2929
866.662	2895
866.793	2899
866.924	2876
867.055	2941
867.186	2922
867.317	2872
867.448	2853
867.579	2819
867.71	2876
867.841	2785
867.972	2899
868.103	2902
868.233	2895
868.364	2861
868.495	2902
868.625	3039
868.756	3108
868.886	2910
869.017	3013
869.147	3161
869.278	3135
869.408	3036
869.539	3001
869.669	3081
869.799	3001
869.929	3119
870.06	3112
870.19	3317
870.32	3294
870.45	3268
870.58	3370
870.71	3435
870.84	3431
870.97	3283
871.1	3211
871.23	3462
871.36	3454
871.489	3348
871.619	3355
871.749	3389
871.879	3428
872.008	3477
872.138	3359
872.267	3218
872.397	3142
872.526	3074
872.656	3009
872.785	3100
872.915	3222
873.044	3283
873.173	3207
873.303	3214
873.432	3195
873.561	3233
873.69	3150
873.819	3154
873.948	3192
874.077	3097
874.206	3009
874.335	3062
874.464	3218
874.593	3355
874.722	3253
874.851	3405
874.979	3355
875.108	3329
875.237	3222
875.365	3142
875.494	3192
875.623	3211
875.751	3081
875.88	3119
876.008	3207
876.136	3192
876.265	3355
876.393	3500
876.521	3397
876.65	3401
876.778	3313
876.906	3237
877.034	3195
877.162	3241
877.29	3192
877.418	3233
877.546	3188
877.674	3245
877.802	3211
877.93	3199
878.058	3150
878.185	3066
878.313	3222
878.441	3230
878.568	3036
878.696	3150
878.824	3279
878.951	3321
879.079	3439
879.206	3606
879.333	3466
879.461	3332
879.588	3374
879.715	3450
879.842	3568
879.97	3359
880.097	3157
880.224	3085
880.351	3192
880.478	3199
880.605	3214
880.732	3176
880.859	3511
880.986	3294
881.112	3329
881.239	3195
881.366	3089
881.493	3043
881.619	3001
881.746	3081
881.872	3112
881.999	3123
882.125	3116
882.252	3230
882.378	3306
882.505	3435
882.631	3272
882.757	3165
882.883	3195
883.01	3214
883.136	3142
883.262	3039
883.388	3066
883.514	3313
883.64	3325
883.766	3291
883.892	3184
884.018	3237
884.143	3393
884.269	3515
884.395	3184
884.52	3195
884.646	3165
884.772	3093
884.897	3062
885.023	3222
885.148	3348
885.274	3439
885.399	3351
885.524	3249
885.65	3245
885.775	3336
885.9	3287
886.025	3447
886.15	3374
886.275	3313
886.4	3222
886.525	3306
886.65	3279
886.775	3275
886.9	3504
887.025	3637
887.149	3386
887.274	3291
887.399	3188
887.523	3214
887.648	3230
887.773	3211
887.897	3367
888.021	3412
888.146	3291
888.27	3428
888.395	3504
888.519	3416
888.643	3458
888.767	3458
888.891	3294
889.015	3249
889.139	3291
889.263	3211
889.387	3397
889.511	3523
889.635	3466
889.759	3279
889.883	3268
890.006	3389
890.13	3458
890.254	3230
890.377	3340
890.501	3173
890.624	3184
890.748	3321
890.871	3165
890.995	3047
891.118	3051
891.241	3180
891.364	3230
891.488	3310
891.611	3195
891.734	3233
891.857	3268
891.98	3256
892.103	3336
892.226	3237
892.349	3260
892.471	3081
892.594	3214
892.717	3268
892.839	3249
892.962	3272
893.085	3336
893.207	3264
893.33	3119
893.452	3165
893.575	3359
893.697	3233
893.819	3447
893.941	3496
894.064	3424
894.186	3241
894.308	3268
894.43	3431
894.552	3534
894.674	3466
894.796	3321
894.918	3287
895.04	3272
895.161	3416
895.283	3382
895.405	3348
895.526	3348
895.648	3389
895.769	3443
895.891	3416
896.012	3500
896.134	3420
896.255	3428
896.376	3370
896.498	3340
896.619	3412
896.74	3344
896.861	3420
896.982	3629
897.103	3797
897.224	3599
897.345	3488
897.466	3435
897.587	3515
897.708	3599
897.828	3580
897.949	3428
898.07	3329
898.19	3401
898.311	3568
898.431	3435
898.552	3488
898.672	3568
898.792	3553
898.913	3485
899.033	3389
899.153	3272
899.273	3218
899.393	3268
899.513	3298
899.633	3332
899.753	3332
899.873	3283
899.993	3378
900.113	3329
900.232	3386
900.352	3325
900.472	3298
900.591	3226
900.711	3302
900.83	3226
900.95	3416
901.069	3473
901.189	3325
901.308	3165
901.427	3131
901.546	3138
901.665	3302
901.784	3348
901.904	3207
902.023	3157
902.141	3005
902.26	3005
902.379	3089
902.498	3074
902.617	3047
902.735	3211
902.854	3199
902.973	3165
903.091	3043
903.21	3039
903.328	3127
903.446	3085
903.565	3123
903.683	3173
903.801	3119
903.919	3237
904.038	3264
904.156	3150
904.274	3233
904.392	3253
904.51	3317
904.627	3348
904.745	3355
904.863	3504
904.981	3260
905.098	3138
905.216	3233
905.334	3313
905.451	3310
905.569	3298
905.686	3355
905.803	3416
905.921	3298
906.038	3435
906.155	3310
906.272	3237
906.389	3313
906.506	3203
906.623	3241
906.74	3260
906.857	3146
906.974	3222
907.091	3435
907.208	3580
907.324	3481
907.441	3363
907.557	3230
907.674	3218
907.79	3169
907.907	3310
908.023	3363
908.139	3367
908.256	3351
908.372	3325
908.488	3317
908.604	3241
908.72	3230
908.836	3264
908.952	3275
909.068	3336
909.184	3481
909.3	3393
909.415	3496
909.531	3439
909.647	3237
909.762	3283
909.878	3214
909.993	3351
910.108	3355
910.224	3348
910.339	3389
910.454	3313
910.57	3321
910.685	3199
910.8	3568
910.915	3549
911.03	3447
911.145	3226
911.259	3256
911.374	3294
911.489	3256
911.604	3275
911.718	3104
911.833	3127
911.947	3032
912.062	2948
912.176	3154
912.291	3226
912.405	3184
912.519	3431
912.633	3424
912.748	3302
912.862	3294
912.976	3195
913.09	3077
913.204	3119
913.318	3192
913.431	3325
913.545	3321
913.659	3374
913.772	3302
913.886	3199
914	3218
914.113	3329
914.226	3393
914.34	3348
914.453	3195
914.566	3409
914.68	3218
914.793	3306
914.906	3146
915.019	3157
915.132	3062
915.245	3146
915.358	3188
915.47	3249
915.583	3264
915.696	3317
915.809	3389
915.921	3412
916.034	3249
916.146	3214
916.259	3218
916.371	3386
916.483	3310
916.595	3253
916.708	3344
916.82	3329
916.932	3336
917.044	3344
917.156	3340
917.268	3245
917.38	3268
917.491	3313
917.603	3374
917.715	3443
917.826	3454
917.938	3378
918.049	3245
918.161	3431
918.272	3576
918.384	3568
918.495	3485
918.606	3310
918.717	3230
918.828	3359
918.939	3405
919.05	3302
919.161	3374
919.272	3195
919.383	3275
919.494	3485
919.604	3667
919.715	3492
919.826	3382
919.936	3454
920.047	3568
920.157	3557
920.267	3778
920.378	3591
920.488	3584
920.598	3732
920.708	3949
920.818	3808
920.928	3800
921.038	4051
921.148	3994
921.258	3682
921.368	3682
921.477	3584
921.587	3481
921.697	3443
921.806	3633
921.916	3526
922.025	3332
922.134	3359
922.244	3344
922.353	3401
922.462	3275
922.571	3249
922.68	3119
922.789	3058
922.898	3127
923.007	3104
923.116	3150
923.224	3150
923.333	3184
923.442	3077
923.55	3089
923.659	3176
923.767	3214
923.876	3119
923.984	3249
924.092	3104
924.201	3188
924.309	3207
924.417	3218
924.525	3157
924.633	3233
924.741	4158
924.849	3047
924.956	3260
925.064	3081
925.172	3005
925.279	3085
925.387	3161
925.494	3241
925.602	3412
925.709	3294
925.816	3188
925.924	3275
926.031	3367
926.138	3317
926.245	3325
926.352	3226
926.459	3424
926.566	3450
926.673	3298
926.779	3218
926.886	3230
926.993	3157
927.099	3077
927.206	3089
927.312	3104
927.419	3222
927.525	3207
927.631	3249
927.737	3112
927.843	3119
927.95	2994
928.056	3104
928.162	3169
928.267	3218
928.373	3850
928.479	3310
928.585	3024
928.69	3188
928.796	3279
928.901	3135
929.007	3028
929.112	3211
929.218	3165
929.323	3135
929.428	3108
929.533	3310
929.638	3058
929.743	3192
929.848	3230
929.953	3214
930.058	3119
930.163	3032
930.267	3062
930.372	3207
930.477	3051
930.581	3310
930.685	3184
930.79	3062
930.894	3146
930.998	3085
931.103	3268
931.207	2937
931.311	2902
931.415	2922
931.519	2750
931.623	2819
