Data from test_V78500241_526.txt Node
Date: Fri Mar 25 16:18:50 CST 2022
User: usil
Spectrometer: V785-0024
Trigger mode: 0
Integration Time (sec): 4.000000E-1
Scans to average: 1
Nonlinearity correction enabled: false
Boxcar width: 0
Storing dark spectrum: false
XAxis mode: Wavelengths
Number of Pixels in Spectrum: 1024
>>>>>Begin Spectral Data<<<<<
801.071	2910
801.214	2929
801.356	2906
801.499	2937
801.641	2872
801.783	2982
801.926	3058
802.068	2971
802.211	2990
802.353	3047
802.496	2963
802.638	2994
802.78	3020
802.923	3051
803.065	2982
803.208	2906
803.35	2941
803.492	2914
803.635	2941
803.777	2750
803.919	2872
804.061	3192
804.204	2925
804.346	2880
804.488	2880
804.63	2994
804.773	2899
804.915	2933
805.057	3051
805.199	2925
805.341	2986
805.483	3058
805.626	2998
805.768	2956
805.91	3089
806.052	3093
806.194	3097
806.336	3226
806.478	3013
806.62	2944
806.762	2982
806.904	3093
807.046	3165
807.188	2960
807.33	2902
807.472	2994
807.614	2929
807.756	3020
807.898	2941
808.04	2887
808.182	3005
808.324	2956
808.465	2906
808.607	2849
808.749	2804
808.891	2842
809.033	2998
809.174	2971
809.316	2872
809.458	2880
809.6	2754
809.741	2743
809.883	2792
810.025	2842
810.166	2842
810.308	2838
810.45	2834
810.591	2769
810.733	2746
810.875	2845
811.016	2762
811.158	2758
811.299	2807
811.441	2914
811.582	2838
811.724	2830
811.865	2823
812.007	2895
812.148	2880
812.29	2830
812.431	2872
812.573	2929
812.714	2941
812.855	3070
812.997	3020
813.138	3142
813.279	2994
813.421	2975
813.562	2941
813.703	2849
813.845	2914
813.986	2788
814.127	2720
814.268	2811
814.41	2826
814.551	2807
814.692	2880
814.833	2823
814.974	2895
815.115	2948
815.256	2815
815.397	2800
815.539	2842
815.68	2796
815.821	2743
815.962	2948
816.103	2941
816.244	2880
816.385	2838
816.526	2960
816.666	2906
816.807	2758
816.948	2864
817.089	2906
817.23	2830
817.371	2777
817.512	2731
817.653	2880
817.793	2823
817.934	2899
818.075	2963
818.216	2986
818.356	3024
818.497	2883
818.638	2773
818.778	2781
818.919	2777
819.06	2731
819.2	2883
819.341	2788
819.481	2792
819.622	2906
819.762	3070
819.903	3036
820.043	2902
820.184	2891
820.324	2864
820.465	2990
820.605	2998
820.746	3020
820.886	2929
821.026	3085
821.167	3176
821.307	3245
821.447	3260
821.588	3287
821.728	3199
821.868	3192
822.008	3055
822.149	3214
822.289	3230
822.429	3039
822.569	3074
822.709	3207
822.849	3028
822.99	3070
823.13	3176
823.27	3199
823.41	3081
823.55	3123
823.69	3104
823.83	3173
823.97	3108
824.11	2979
824.25	2994
824.389	3032
824.529	3097
824.669	3013
824.809	3184
824.949	3230
825.089	3176
825.228	3131
825.368	2986
825.508	2979
825.648	2998
825.787	2986
825.927	3024
826.067	2963
826.206	2960
826.346	3032
826.485	3085
826.625	3104
826.765	3256
826.904	3176
827.044	2979
827.183	2910
827.323	2864
827.462	2971
827.601	2906
827.741	2906
827.88	2956
828.02	2834
828.159	2960
828.298	3043
828.437	3100
828.577	3039
828.716	3230
828.855	3097
828.994	2895
829.134	2880
829.273	2902
829.412	2857
829.551	2902
829.69	2910
829.829	2952
829.968	3127
830.107	3005
830.246	2998
830.385	2948
830.524	2895
830.663	2815
830.802	2724
830.941	2670
831.08	2655
831.219	2746
831.357	2739
831.496	2933
831.635	2720
831.774	2617
831.913	2655
832.051	2541
832.19	2571
832.329	2689
832.467	2526
832.606	2507
832.744	2568
832.883	2568
833.022	2579
833.16	2682
833.299	2686
833.437	2667
833.576	2727
833.714	2708
833.852	2720
833.991	2754
834.129	2842
834.267	2788
834.406	2758
834.544	2880
834.682	2868
834.821	2864
834.959	3047
835.097	2906
835.235	3081
835.373	2982
835.511	3001
835.65	2960
835.788	2948
835.926	2842
836.064	2853
836.202	2819
836.34	3074
836.478	3154
836.615	3020
836.753	3089
836.891	3180
837.029	3157
837.167	3100
837.305	3062
837.443	2982
837.58	2933
837.718	3112
837.856	3051
837.993	3032
838.131	3142
838.269	3100
838.406	3104
838.544	3062
838.681	2906
838.819	2902
838.956	2792
839.094	2838
839.231	2895
839.369	2990
839.506	3348
839.643	3184
839.781	3001
839.918	2944
840.055	3028
840.193	3043
840.33	3066
840.467	3093
840.604	3154
840.742	3393
840.879	3043
841.016	3036
841.153	3081
841.29	3348
841.427	3279
841.564	3256
841.701	3317
841.838	3184
841.975	3199
842.112	3180
842.249	3062
842.385	3047
842.522	3245
842.659	3085
842.796	3039
842.933	3119
843.069	3028
843.206	3017
843.343	3165
843.479	3066
843.616	3123
843.752	2872
843.889	2880
844.025	3089
844.162	2899
844.298	3081
844.435	2948
844.571	2872
844.708	3055
844.844	3165
844.98	3207
845.117	3165
845.253	3051
845.389	3017
845.525	3100
845.661	3104
845.798	2982
845.934	3104
846.07	3005
846.206	3203
846.342	3306
846.478	3218
846.614	3055
846.75	3032
846.886	3032
847.022	3222
847.158	3116
847.294	3192
847.429	3264
847.565	3169
847.701	3420
847.837	3039
847.972	3005
848.108	3142
848.244	3138
848.379	3009
848.515	2948
848.65	2914
848.786	2948
848.921	2979
849.057	3108
849.192	3104
849.328	3074
849.463	3097
849.598	3051
849.734	3051
849.869	2994
850.004	2902
850.14	2963
850.275	2902
850.41	2800
850.545	2857
850.68	2906
850.815	2956
850.95	2982
851.085	3207
851.22	3070
851.355	3043
851.49	2982
851.625	2971
851.76	2967
851.895	2922
852.03	2895
852.165	3009
852.299	3119
852.434	3150
852.569	3123
852.703	3165
852.838	3211
852.973	3306
853.107	3332
853.242	3154
853.376	3093
853.511	2960
853.645	3036
853.78	3222
853.914	3112
854.048	3089
854.183	3074
854.317	3127
854.451	3272
854.585	3104
854.72	3085
854.854	3176
854.988	3058
855.122	3100
855.256	3001
855.39	3100
855.524	3237
855.658	3161
855.792	3138
855.926	3176
856.06	3211
856.194	3260
856.327	3173
856.461	3062
856.595	3055
856.729	3039
856.862	3173
856.996	3116
857.13	3173
857.263	3218
857.397	3275
857.53	3119
857.664	3207
857.797	3237
857.931	3211
858.064	3154
858.197	3268
858.331	3138
858.464	3100
858.597	2986
858.731	3169
858.864	3127
858.997	3100
859.13	3131
859.263	3135
859.396	3214
859.529	3070
859.662	3062
859.795	3062
859.928	3138
860.061	3310
860.194	3283
860.327	3127
860.46	3077
860.592	3253
860.725	3256
860.858	3245
860.99	3077
861.123	3051
861.256	3043
861.388	3131
861.521	3922
861.653	2990
861.786	2944
861.918	2948
862.05	3062
862.183	3093
862.315	3119
862.447	3199
862.58	3081
862.712	2937
862.844	2853
862.976	3043
863.108	3028
863.24	3412
863.372	2883
863.504	2956
863.636	2925
863.768	2986
863.9	2994
864.032	2899
864.164	2933
864.296	3005
864.428	3070
864.559	3077
864.691	3100
864.823	3062
864.954	3043
865.086	3055
865.217	2979
865.349	2971
865.48	2971
865.612	3005
865.743	3138
865.875	2963
866.006	2975
866.137	2960
866.269	2948
866.4	2887
866.531	2952
866.662	2845
866.793	2876
866.924	2891
867.055	2990
867.186	2967
867.317	2868
867.448	2823
867.579	2834
867.71	2868
867.841	2792
867.972	2902
868.103	2887
868.233	2864
868.364	2895
868.495	2864
868.625	3020
868.756	3146
868.886	2963
869.017	3024
869.147	3142
869.278	3123
869.408	3043
869.539	3032
869.669	3119
869.799	2982
869.929	3112
870.06	3089
870.19	3294
870.32	3287
870.45	3294
870.58	3374
870.71	3469
870.84	3443
870.97	3294
871.1	3245
871.23	3412
871.36	3454
871.489	3355
871.619	3393
871.749	3367
871.879	3416
872.008	3488
872.138	3351
872.267	3237
872.397	3119
872.526	3104
872.656	3001
872.785	3097
872.915	3268
873.044	3302
873.173	3199
873.303	3260
873.432	3211
873.561	3180
873.69	3161
873.819	3138
873.948	3237
874.077	3093
874.206	3001
874.335	3070
874.464	3199
874.593	3348
874.722	3253
874.851	3397
874.979	3340
875.108	3302
875.237	3199
875.365	3146
875.494	3138
875.623	3226
875.751	3081
875.88	3100
876.008	3199
876.136	3207
876.265	3321
876.393	3485
876.521	3428
876.65	3389
876.778	3348
876.906	3222
877.034	3176
877.162	3203
877.29	3184
877.418	3268
877.546	3237
877.674	3233
877.802	3230
877.93	3230
878.058	3131
878.185	3089
878.313	3188
878.441	3218
878.568	3093
878.696	3116
878.824	3233
878.951	3298
879.079	3477
879.206	3622
879.333	3420
879.461	3317
879.588	3367
879.715	3481
879.842	3564
879.97	3367
880.097	3176
880.224	3127
880.351	3169
880.478	3214
880.605	3176
880.732	3157
880.859	3447
880.986	3279
881.112	3287
881.239	3154
881.366	3089
881.493	3039
881.619	3051
881.746	3066
881.872	3062
881.999	3108
882.125	3165
882.252	3230
882.378	3256
882.505	3424
882.631	3264
882.757	3154
882.883	3192
883.01	3180
883.136	3127
883.262	3100
883.388	3077
883.514	3317
883.64	3367
883.766	3253
883.892	3161
884.018	3218
884.143	3374
884.269	3511
884.395	3192
884.52	3127
884.646	3123
884.772	3089
884.897	3112
885.023	3188
885.148	3317
885.274	3355
885.399	3332
885.524	3260
885.65	3245
885.775	3313
885.9	3264
886.025	3424
886.15	3329
886.275	3279
886.4	3195
886.525	3321
886.65	3237
886.775	3264
886.9	3466
887.025	3610
887.149	3424
887.274	3241
887.399	3188
887.523	3222
887.648	3165
887.773	3150
887.897	3363
888.021	3416
888.146	3275
888.27	3420
888.395	3538
888.519	3447
888.643	3401
888.767	3428
888.891	3279
889.015	3233
889.139	3268
889.263	3230
889.387	3374
889.511	3500
889.635	3439
889.759	3264
889.883	3294
890.006	3367
890.13	3477
890.254	3287
890.377	3340
890.501	3211
890.624	3184
890.748	3287
890.871	3203
890.995	3112
891.118	3051
891.241	3199
891.364	3249
891.488	3332
891.611	3169
891.734	3218
891.857	3287
891.98	3279
892.103	3374
892.226	3279
892.349	3222
892.471	3176
892.594	3272
892.717	3317
892.839	3275
892.962	3313
893.085	3428
893.207	3329
893.33	3192
893.452	3241
893.575	3370
893.697	3283
893.819	3492
893.941	3534
894.064	3496
894.186	3294
894.308	3275
894.43	3466
894.552	3572
894.674	3488
894.796	3310
894.918	3374
895.04	3332
895.161	3447
895.283	3462
895.405	3317
895.526	3389
895.648	3500
895.769	3435
895.891	3492
896.012	3534
896.134	3496
896.255	3435
896.376	3416
896.498	3386
896.619	3431
896.74	3389
896.861	3428
896.982	3694
897.103	3899
897.224	3606
897.345	3523
897.466	3504
897.587	3504
897.708	3656
897.828	3610
897.949	3458
898.07	3336
898.19	3420
898.311	3614
898.431	3515
898.552	3553
898.672	3606
898.792	3595
898.913	3534
899.033	3416
899.153	3310
899.273	3275
899.393	3317
899.513	3336
899.633	3355
899.753	3351
899.873	3351
899.993	3431
900.113	3370
900.232	3447
900.352	3359
900.472	3340
900.591	3260
900.711	3321
900.83	3256
900.95	3435
901.069	3549
901.189	3374
901.308	3207
901.427	3176
901.546	3203
901.665	3302
901.784	3374
901.904	3241
902.023	3173
902.141	3051
902.26	2986
902.379	3192
902.498	3085
902.617	3093
902.735	3245
902.854	3294
902.973	3218
903.091	3066
903.21	3093
903.328	3188
903.446	3108
903.565	3108
903.683	3241
903.801	3138
903.919	3268
904.038	3351
904.156	3199
904.274	3306
904.392	3268
904.51	3321
904.627	3359
904.745	3447
904.863	3507
904.981	3325
905.098	3173
905.216	3256
905.334	3294
905.451	3332
905.569	3329
905.686	3450
905.803	3462
905.921	3310
906.038	3473
906.155	3409
906.272	3298
906.389	3367
906.506	3272
906.623	3306
906.74	3272
906.857	3192
906.974	3260
907.091	3519
907.208	3580
907.324	3492
907.441	3401
907.557	3260
907.674	3275
907.79	3214
907.907	3264
908.023	3397
908.139	3382
908.256	3386
908.372	3409
908.488	3386
908.604	3291
908.72	3268
908.836	3310
908.952	3317
909.068	3351
909.184	3496
909.3	3431
909.415	3496
909.531	3466
909.647	3325
909.762	3313
909.878	3294
909.993	3367
910.108	3329
910.224	3374
910.339	3412
910.454	3397
910.57	3298
910.685	3294
910.8	3633
910.915	3568
911.03	3469
911.145	3344
911.259	3256
911.374	3351
911.489	3291
911.604	3279
911.718	3157
911.833	3203
911.947	3081
912.062	3032
912.176	3192
912.291	3214
912.405	3230
912.519	3488
912.633	3530
912.748	3389
912.862	3298
912.976	3169
913.09	3097
913.204	3188
913.318	3211
913.431	3336
913.545	3374
913.659	3447
913.772	3359
913.886	3245
914	3230
914.113	3378
914.226	3409
914.34	3420
914.453	3192
914.566	3431
914.68	3344
914.793	3367
914.906	3184
915.019	3135
915.132	3093
915.245	3192
915.358	3249
915.47	3256
915.583	3256
915.696	3329
915.809	3424
915.921	3473
916.034	3306
916.146	3298
916.259	3275
916.371	3424
916.483	3355
916.595	3287
916.708	3386
916.82	3370
916.932	3393
917.044	3378
917.156	3378
917.268	3275
917.38	3355
917.491	3329
917.603	3416
917.715	3462
917.826	3454
917.938	3367
918.049	3313
918.161	3416
918.272	3641
918.384	3542
918.495	3477
918.606	3374
918.717	3355
918.828	3412
918.939	3443
919.05	3317
919.161	3401
919.272	3211
919.383	3302
919.494	3538
919.604	3675
919.715	3515
919.826	3450
919.936	3466
920.047	3606
920.157	3584
920.267	3823
920.378	3606
920.488	3572
920.598	3785
920.708	3979
920.818	3846
920.928	3846
921.038	4032
921.148	3987
921.258	3743
921.368	3652
921.477	3580
921.587	3564
921.697	3496
921.806	3641
921.916	3530
922.025	3382
922.134	3363
922.244	3344
922.353	3454
922.462	3291
922.571	3264
922.68	3112
922.789	3104
922.898	3150
923.007	3123
923.116	3211
923.224	3233
923.333	3218
923.442	3142
923.55	3089
923.659	3188
923.767	3230
923.876	3138
923.984	3268
924.092	3108
924.201	3272
924.309	3256
924.417	3253
924.525	3241
924.633	3279
924.741	4219
924.849	3062
924.956	3313
925.064	3142
925.172	3051
925.279	3104
925.387	3294
925.494	3211
925.602	3355
925.709	3348
925.816	3214
925.924	3313
926.031	3370
926.138	3363
926.245	3382
926.352	3233
926.459	3428
926.566	3462
926.673	3329
926.779	3245
926.886	3310
926.993	3161
927.099	3123
927.206	3146
927.312	3108
927.419	3260
927.525	3245
927.631	3291
927.737	3173
927.843	3138
927.95	3066
928.056	3135
928.162	3195
928.267	3291
928.373	3789
928.479	3313
928.585	3074
928.69	3249
928.796	3275
928.901	3176
929.007	3077
929.112	3180
929.218	3249
929.323	3173
929.428	3127
929.533	3329
929.638	3135
929.743	3207
929.848	3313
929.953	3222
930.058	3188
930.163	3009
930.267	3070
930.372	3218
930.477	3062
930.581	3325
930.685	3180
930.79	3070
930.894	3123
930.998	3093
931.103	3321
931.207	2960
931.311	2975
931.415	2937
931.519	2773
931.623	2815
