Data from test_V78500241_574.txt Node
Date: Fri Mar 25 16:19:10 CST 2022
User: usil
Spectrometer: V785-0024
Trigger mode: 0
Integration Time (sec): 4.000000E-1
Scans to average: 1
Nonlinearity correction enabled: false
Boxcar width: 0
Storing dark spectrum: false
XAxis mode: Wavelengths
Number of Pixels in Spectrum: 1024
>>>>>Begin Spectral Data<<<<<
801.071	2861
801.214	2944
801.356	2834
801.499	2868
801.641	2861
801.783	2925
801.926	3009
802.068	2963
802.211	2963
802.353	3020
802.496	2944
802.638	2982
802.78	3005
802.923	3097
803.065	2994
803.208	2918
803.35	2902
803.492	2899
803.635	2887
803.777	2746
803.919	2864
804.061	3218
804.204	2948
804.346	2944
804.488	2823
804.63	2971
804.773	2880
804.915	2876
805.057	3047
805.199	2883
805.341	2937
805.483	3047
805.626	2982
805.768	2971
805.91	3127
806.052	3097
806.194	3013
806.336	3211
806.478	3013
806.62	2956
806.762	2944
806.904	3009
807.046	3184
807.188	2982
807.33	2895
807.472	2952
807.614	2872
807.756	2998
807.898	2933
808.04	2887
808.182	2963
808.324	2941
808.465	2849
808.607	2861
808.749	2750
808.891	2849
809.033	2975
809.174	2971
809.316	2861
809.458	2849
809.6	2750
809.741	2762
809.883	2750
810.025	2853
810.166	2891
810.308	2853
810.45	2826
810.591	2807
810.733	2758
810.875	2834
811.016	2788
811.158	2746
811.299	2785
811.441	2902
811.582	2845
811.724	2807
811.865	2823
812.007	2914
812.148	2880
812.29	2838
812.431	2872
812.573	2925
812.714	2960
812.855	3043
812.997	3017
813.138	3104
813.279	3020
813.421	2948
813.562	2963
813.703	2895
813.845	2902
813.986	2766
814.127	2746
814.268	2842
814.41	2845
814.551	2819
814.692	2845
814.833	2823
814.974	2899
815.115	2952
815.256	2834
815.397	2826
815.539	2880
815.68	2777
815.821	2819
815.962	2933
816.103	2929
816.244	2857
816.385	2857
816.526	2960
816.666	2895
816.807	2762
816.948	2876
817.089	2910
817.23	2811
817.371	2750
817.512	2788
817.653	2800
817.793	2845
817.934	2857
818.075	2948
818.216	2986
818.356	3020
818.497	2876
818.638	2785
818.778	2811
818.919	2819
819.06	2739
819.2	2880
819.341	2830
819.481	2762
819.622	2929
819.762	3119
819.903	3051
820.043	2891
820.184	2918
820.324	2891
820.465	3013
820.605	3074
820.746	3013
820.886	2933
821.026	3093
821.167	3146
821.307	3203
821.447	3233
821.588	3237
821.728	3184
821.868	3203
822.008	3081
822.149	3169
822.289	3268
822.429	3089
822.569	3070
822.709	3203
822.849	3028
822.99	3062
823.13	3135
823.27	3173
823.41	3116
823.55	3123
823.69	3165
823.83	3184
823.97	3093
824.11	3009
824.25	3001
824.389	3055
824.529	3108
824.669	3039
824.809	3173
824.949	3237
825.089	3180
825.228	3173
825.368	2967
825.508	2960
825.648	2960
825.787	3032
825.927	3028
826.067	2960
826.206	2963
826.346	3032
826.485	3066
826.625	3112
826.765	3260
826.904	3211
827.044	2979
827.183	2902
827.323	2842
827.462	3005
827.601	2895
827.741	2944
827.88	2986
828.02	2845
828.159	2937
828.298	3058
828.437	3066
828.577	3047
828.716	3275
828.855	3047
828.994	2925
829.134	2891
829.273	2891
829.412	2861
829.551	2914
829.69	2902
829.829	2994
829.968	3131
830.107	2986
830.246	3005
830.385	2944
830.524	2891
830.663	2823
830.802	2746
830.941	2636
831.08	2613
831.219	2788
831.357	2792
831.496	2944
831.635	2686
831.774	2636
831.913	2655
832.051	2583
832.19	2568
832.329	2667
832.467	2518
832.606	2511
832.744	2575
832.883	2598
833.022	2590
833.16	2632
833.299	2693
833.437	2670
833.576	2705
833.714	2686
833.852	2731
833.991	2773
834.129	2811
834.267	2811
834.406	2788
834.544	2864
834.682	2861
834.821	2872
834.959	3055
835.097	2902
835.235	3017
835.373	2960
835.511	2982
835.65	2944
835.788	2929
835.926	2826
836.064	2781
836.202	2857
836.34	3085
836.478	3097
836.615	3039
836.753	3146
836.891	3176
837.029	3173
837.167	3119
837.305	3036
837.443	3039
837.58	2933
837.718	3154
837.856	3039
837.993	3024
838.131	3108
838.269	3070
838.406	3077
838.544	3074
838.681	2929
838.819	2891
838.956	2804
839.094	2804
839.231	2902
839.369	2998
839.506	3367
839.643	3214
839.781	3009
839.918	2967
840.055	3043
840.193	3036
840.33	3055
840.467	3062
840.604	3154
840.742	3401
840.879	3001
841.016	3039
841.153	3119
841.29	3348
841.427	3287
841.564	3256
841.701	3306
841.838	3214
841.975	3146
842.112	3180
842.249	3081
842.385	3001
842.522	3245
842.659	3081
842.796	3036
842.933	3097
843.069	3036
843.206	3047
843.343	3218
843.479	3058
843.616	3150
843.752	2891
843.889	2876
844.025	3100
844.162	2872
844.298	3112
844.435	2952
844.571	2883
844.708	3047
844.844	3180
844.98	3218
845.117	3161
845.253	3028
845.389	2975
845.525	3066
845.661	3055
845.798	3017
845.934	3135
846.07	3051
846.206	3180
846.342	3279
846.478	3230
846.614	3074
846.75	3055
846.886	3005
847.022	3241
847.158	3142
847.294	3169
847.429	3226
847.565	3203
847.701	3462
847.837	3013
847.972	3013
848.108	3165
848.244	3138
848.379	2952
848.515	2941
848.65	2899
848.786	2990
848.921	2986
849.057	3070
849.192	3123
849.328	3074
849.463	3108
849.598	3062
849.734	3051
849.869	2982
850.004	2902
850.14	2944
850.275	2914
850.41	2830
850.545	2895
850.68	2922
850.815	2960
850.95	2986
851.085	3207
851.22	3116
851.355	2990
851.49	2960
851.625	2963
851.76	3001
851.895	2929
852.03	2887
852.165	3039
852.299	3077
852.434	3176
852.569	3123
852.703	3142
852.838	3222
852.973	3340
853.107	3325
853.242	3161
853.376	3108
853.511	2948
853.645	3055
853.78	3249
853.914	3077
854.048	3104
854.183	3036
854.317	3123
854.451	3283
854.585	3116
854.72	3055
854.854	3218
854.988	3017
855.122	3085
855.256	2952
855.39	3100
855.524	3218
855.658	3150
855.792	3142
855.926	3165
856.06	3173
856.194	3253
856.327	3127
856.461	3070
856.595	3070
856.729	3097
856.862	3218
856.996	3150
857.13	3165
857.263	3253
857.397	3264
857.53	3085
857.664	3150
857.797	3237
857.931	3245
858.064	3142
858.197	3195
858.331	3131
858.464	3100
858.597	3005
858.731	3085
858.864	3173
858.997	3097
859.13	3154
859.263	3161
859.396	3176
859.529	3070
859.662	3047
859.795	3039
859.928	3165
860.061	3241
860.194	3302
860.327	3108
860.46	3062
860.592	3226
860.725	3256
860.858	3226
860.99	3089
861.123	3062
861.256	3028
861.388	3138
861.521	3667
861.653	3005
861.786	2986
861.918	2967
862.05	3051
862.183	3074
862.315	3127
862.447	3161
862.58	3066
862.712	2937
862.844	2861
862.976	3005
863.108	2982
863.24	3447
863.372	2876
863.504	2956
863.636	2967
863.768	3039
863.9	3009
864.032	2895
864.164	2918
864.296	3001
864.428	3043
864.559	3097
864.691	3085
864.823	3074
864.954	3009
865.086	3043
865.217	2975
865.349	2906
865.48	2944
865.612	2982
865.743	3108
865.875	2990
866.006	2914
866.137	2979
866.269	2918
866.4	2914
866.531	2914
866.662	2864
866.793	2895
866.924	2883
867.055	2929
867.186	2910
867.317	2887
867.448	2845
867.579	2845
867.71	2845
867.841	2815
867.972	2853
868.103	2876
868.233	2883
868.364	2823
868.495	2895
868.625	3077
868.756	3165
868.886	2948
869.017	3009
869.147	3184
869.278	3100
869.408	3036
869.539	3001
869.669	3085
869.799	3001
869.929	3074
870.06	3093
870.19	3298
870.32	3253
870.45	3275
870.58	3321
870.71	3439
870.84	3435
870.97	3245
871.1	3245
871.23	3454
871.36	3424
871.489	3329
871.619	3336
871.749	3412
871.879	3492
872.008	3485
872.138	3340
872.267	3241
872.397	3127
872.526	3089
872.656	2990
872.785	3074
872.915	3214
873.044	3310
873.173	3218
873.303	3264
873.432	3199
873.561	3264
873.69	3192
873.819	3154
873.948	3184
874.077	3100
874.206	2998
874.335	3051
874.464	3173
874.593	3344
874.722	3233
874.851	3359
874.979	3351
875.108	3294
875.237	3233
875.365	3150
875.494	3199
875.623	3230
875.751	3108
875.88	3150
876.008	3230
876.136	3275
876.265	3393
876.393	3549
876.521	3477
876.65	3431
876.778	3355
876.906	3264
877.034	3199
877.162	3230
877.29	3249
877.418	3302
877.546	3249
877.674	3253
877.802	3283
877.93	3264
878.058	3214
878.185	3165
878.313	3230
878.441	3237
878.568	3097
878.696	3218
878.824	3298
878.951	3317
879.079	3447
879.206	3690
879.333	3511
879.461	3374
879.588	3428
879.715	3515
879.842	3633
879.97	3435
880.097	3214
880.224	3116
880.351	3222
880.478	3279
880.605	3245
880.732	3237
880.859	3515
880.986	3325
881.112	3359
881.239	3272
881.366	3161
881.493	3062
881.619	3024
881.746	3070
881.872	3119
881.999	3127
882.125	3222
882.252	3256
882.378	3306
882.505	3492
882.631	3317
882.757	3207
882.883	3272
883.01	3256
883.136	3199
883.262	3127
883.388	3146
883.514	3344
883.64	3424
883.766	3340
883.892	3245
884.018	3241
884.143	3492
884.269	3587
884.395	3222
884.52	3214
884.646	3184
884.772	3138
884.897	3138
885.023	3245
885.148	3389
885.274	3492
885.399	3374
885.524	3317
885.65	3264
885.775	3378
885.9	3306
886.025	3435
886.15	3389
886.275	3317
886.4	3237
886.525	3355
886.65	3287
886.775	3291
886.9	3511
887.025	3656
887.149	3447
887.274	3268
887.399	3211
887.523	3260
887.648	3192
887.773	3233
887.897	3405
888.021	3450
888.146	3329
888.27	3435
888.395	3576
888.519	3485
888.643	3458
888.767	3504
888.891	3325
889.015	3245
889.139	3287
889.263	3302
889.387	3462
889.511	3561
889.635	3481
889.759	3317
889.883	3336
890.006	3443
890.13	3481
890.254	3317
890.377	3355
890.501	3245
890.624	3199
890.748	3332
890.871	3245
890.995	3154
891.118	3116
891.241	3214
891.364	3268
891.488	3332
891.611	3199
891.734	3214
891.857	3329
891.98	3256
892.103	3374
892.226	3310
892.349	3233
892.471	3142
892.594	3245
892.717	3283
892.839	3230
892.962	3310
893.085	3393
893.207	3351
893.33	3184
893.452	3237
893.575	3351
893.697	3275
893.819	3515
893.941	3519
894.064	3462
894.186	3310
894.308	3317
894.43	3496
894.552	3580
894.674	3504
894.796	3283
894.918	3310
895.04	3317
895.161	3458
895.283	3443
895.405	3310
895.526	3435
895.648	3458
895.769	3412
895.891	3504
896.012	3519
896.134	3477
896.255	3431
896.376	3412
896.498	3412
896.619	3409
896.74	3386
896.861	3420
896.982	3698
897.103	3899
897.224	3557
897.345	3542
897.466	3458
897.587	3523
897.708	3644
897.828	3610
897.949	3454
898.07	3340
898.19	3405
898.311	3622
898.431	3469
898.552	3545
898.672	3648
898.792	3633
898.913	3580
899.033	3439
899.153	3336
899.273	3218
899.393	3287
899.513	3370
899.633	3332
899.753	3370
899.873	3317
899.993	3435
900.113	3389
900.232	3393
900.352	3397
900.472	3302
900.591	3249
900.711	3294
900.83	3291
900.95	3466
901.069	3507
901.189	3363
901.308	3207
901.427	3173
901.546	3230
901.665	3313
901.784	3401
901.904	3211
902.023	3169
902.141	3066
902.26	3043
902.379	3138
902.498	3131
902.617	3108
902.735	3241
902.854	3253
902.973	3211
903.091	3077
903.21	3058
903.328	3142
903.446	3154
903.565	3146
903.683	3249
903.801	3146
903.919	3253
904.038	3291
904.156	3199
904.274	3302
904.392	3287
904.51	3298
904.627	3348
904.745	3466
904.863	3488
904.981	3272
905.098	3211
905.216	3241
905.334	3306
905.451	3310
905.569	3310
905.686	3477
905.803	3469
905.921	3302
906.038	3431
906.155	3397
906.272	3306
906.389	3355
906.506	3249
906.623	3256
906.74	3321
906.857	3226
906.974	3264
907.091	3500
907.208	3587
907.324	3488
907.441	3454
907.557	3241
907.674	3245
907.79	3256
907.907	3340
908.023	3370
908.139	3409
908.256	3359
908.372	3428
908.488	3367
908.604	3275
908.72	3291
908.836	3294
908.952	3344
909.068	3329
909.184	3538
909.3	3428
909.415	3511
909.531	3515
909.647	3272
909.762	3321
909.878	3283
909.993	3351
910.108	3348
910.224	3359
910.339	3397
910.454	3348
910.57	3325
910.685	3272
910.8	3622
910.915	3549
911.03	3466
911.145	3275
911.259	3283
911.374	3332
911.489	3249
911.604	3249
911.718	3135
911.833	3161
911.947	3070
912.062	3017
912.176	3195
912.291	3241
912.405	3222
912.519	3454
912.633	3477
912.748	3378
912.862	3306
912.976	3184
913.09	3097
913.204	3161
913.318	3233
913.431	3351
913.545	3363
913.659	3447
913.772	3344
913.886	3253
914	3203
914.113	3378
914.226	3458
914.34	3386
914.453	3233
914.566	3412
914.68	3344
914.793	3321
914.906	3176
915.019	3104
915.132	3074
915.245	3218
915.358	3169
915.47	3275
915.583	3294
915.696	3321
915.809	3443
915.921	3447
916.034	3336
916.146	3272
916.259	3256
916.371	3397
916.483	3405
916.595	3302
916.708	3344
916.82	3344
916.932	3332
917.044	3378
917.156	3401
917.268	3279
917.38	3344
917.491	3291
917.603	3428
917.715	3447
917.826	3477
917.938	3378
918.049	3287
918.161	3450
918.272	3595
918.384	3568
918.495	3564
918.606	3355
918.717	3275
918.828	3393
918.939	3431
919.05	3340
919.161	3386
919.272	3195
919.383	3275
919.494	3515
919.604	3675
919.715	3481
919.826	3416
919.936	3469
920.047	3629
920.157	3542
920.267	3736
920.378	3614
920.488	3599
920.598	3781
920.708	3979
920.818	3842
920.928	3827
921.038	4059
921.148	4021
921.258	3751
921.368	3686
921.477	3622
921.587	3599
921.697	3515
921.806	3648
921.916	3561
922.025	3363
922.134	3393
922.244	3325
922.353	3466
922.462	3291
922.571	3203
922.68	3131
922.789	3100
922.898	3157
923.007	3112
923.116	3253
923.224	3184
923.333	3226
923.442	3127
923.55	3100
923.659	3157
923.767	3218
923.876	3085
923.984	3260
924.092	3085
924.201	3226
924.309	3214
924.417	3256
924.525	3218
924.633	3291
924.741	4055
924.849	3047
924.956	3310
925.064	3055
925.172	3070
925.279	3116
925.387	3233
925.494	3203
925.602	3397
925.709	3370
925.816	3260
925.924	3272
926.031	3428
926.138	3359
926.245	3351
926.352	3287
926.459	3443
926.566	3496
926.673	3359
926.779	3256
926.886	3253
926.993	3150
927.099	3138
927.206	3142
927.312	3146
927.419	3222
927.525	3176
927.631	3264
927.737	3176
927.843	3154
927.95	3051
928.056	3135
928.162	3180
928.267	3260
928.373	3800
928.479	3287
928.585	3062
928.69	3245
928.796	3294
928.901	3131
929.007	3081
929.112	3184
929.218	3214
929.323	3146
929.428	3131
929.533	3302
929.638	3100
929.743	3180
929.848	3294
929.953	3218
930.058	3192
930.163	2994
930.267	3085
930.372	3203
930.477	3089
930.581	3302
930.685	3188
930.79	3070
930.894	3127
930.998	3077
931.103	3279
931.207	2975
931.311	2963
931.415	2929
931.519	2788
931.623	2849
