Data from test_V78500241_728.txt Node
Date: Fri Mar 25 16:20:14 CST 2022
User: usil
Spectrometer: V785-0024
Trigger mode: 0
Integration Time (sec): 4.000000E-1
Scans to average: 1
Nonlinearity correction enabled: false
Boxcar width: 0
Storing dark spectrum: false
XAxis mode: Wavelengths
Number of Pixels in Spectrum: 1024
>>>>>Begin Spectral Data<<<<<
801.071	2906
801.214	2880
801.356	2872
801.499	2864
801.641	2868
801.783	2918
801.926	3066
802.068	2960
802.211	2982
802.353	3036
802.496	2948
802.638	2998
802.78	3017
802.923	3081
803.065	3051
803.208	2868
803.35	2918
803.492	2933
803.635	2956
803.777	2769
803.919	2849
804.061	3218
804.204	2944
804.346	2887
804.488	2853
804.63	2963
804.773	2883
804.915	2902
805.057	3074
805.199	2914
805.341	2963
805.483	3005
805.626	2960
805.768	2922
805.91	3085
806.052	3104
806.194	3005
806.336	3237
806.478	3024
806.62	2944
806.762	2986
806.904	3062
807.046	3161
807.188	2956
807.33	2895
807.472	2979
807.614	2891
807.756	2998
807.898	2906
808.04	2876
808.182	2986
808.324	2971
808.465	2838
808.607	2872
808.749	2819
808.891	2834
809.033	2956
809.174	2960
809.316	2891
809.458	2872
809.6	2773
809.741	2769
809.883	2766
810.025	2811
810.166	2857
810.308	2834
810.45	2845
810.591	2788
810.733	2746
810.875	2842
811.016	2800
811.158	2788
811.299	2819
811.441	2914
811.582	2895
811.724	2815
811.865	2842
812.007	2925
812.148	2876
812.29	2861
812.431	2883
812.573	2922
812.714	2967
812.855	3043
812.997	3058
813.138	3108
813.279	3001
813.421	2986
813.562	2952
813.703	2891
813.845	2925
813.986	2766
814.127	2724
814.268	2811
814.41	2804
814.551	2823
814.692	2861
814.833	2807
814.974	2902
815.115	2929
815.256	2838
815.397	2796
815.539	2887
815.68	2792
815.821	2792
815.962	2975
816.103	2948
816.244	2834
816.385	2891
816.526	2956
816.666	2937
816.807	2754
816.948	2868
817.089	2906
817.23	2868
817.371	2785
817.512	2807
817.653	2811
817.793	2785
817.934	2849
818.075	2979
818.216	2990
818.356	3070
818.497	2868
818.638	2777
818.778	2800
818.919	2792
819.06	2746
819.2	2868
819.341	2815
819.481	2762
819.622	2899
819.762	3093
819.903	3039
820.043	2929
820.184	2902
820.324	2906
820.465	2998
820.605	2998
820.746	2998
820.886	2925
821.026	3055
821.167	3173
821.307	3260
821.447	3272
821.588	3249
821.728	3218
821.868	3233
822.008	3085
822.149	3192
822.289	3233
822.429	3089
822.569	3081
822.709	3146
822.849	3013
822.99	3039
823.13	3123
823.27	3180
823.41	3093
823.55	3112
823.69	3138
823.83	3188
823.97	3116
824.11	3001
824.25	2982
824.389	3039
824.529	3100
824.669	3009
824.809	3195
824.949	3241
825.089	3195
825.228	3157
825.368	2986
825.508	2971
825.648	2952
825.787	2975
825.927	3009
826.067	2971
826.206	2963
826.346	3020
826.485	3070
826.625	3085
826.765	3233
826.904	3199
827.044	3001
827.183	2929
827.323	2883
827.462	3013
827.601	2937
827.741	2914
827.88	2922
828.02	2838
828.159	2937
828.298	3017
828.437	3142
828.577	3047
828.716	3253
828.855	3009
828.994	2914
829.134	2861
829.273	2929
829.412	2857
829.551	2857
829.69	2883
829.829	2986
829.968	3108
830.107	2994
830.246	3032
830.385	2883
830.524	2902
830.663	2781
830.802	2735
830.941	2655
831.08	2648
831.219	2746
831.357	2754
831.496	2944
831.635	2705
831.774	2625
831.913	2667
832.051	2530
832.19	2590
832.329	2682
832.467	2545
832.606	2495
832.744	2571
832.883	2556
833.022	2560
833.16	2670
833.299	2670
833.437	2682
833.576	2697
833.714	2739
833.852	2773
833.991	2762
834.129	2857
834.267	2842
834.406	2796
834.544	2857
834.682	2861
834.821	2861
834.959	3058
835.097	2902
835.235	3051
835.373	2990
835.511	2982
835.65	2967
835.788	2960
835.926	2823
836.064	2819
836.202	2838
836.34	3074
836.478	3127
836.615	3047
836.753	3138
836.891	3180
837.029	3123
837.167	3116
837.305	3043
837.443	3028
837.58	2971
837.718	3127
837.856	3077
837.993	3039
838.131	3097
838.269	3077
838.406	3116
838.544	3093
838.681	2967
838.819	2944
838.956	2864
839.094	2868
839.231	2891
839.369	3020
839.506	3348
839.643	3211
839.781	2979
839.918	2941
840.055	3043
840.193	3028
840.33	3017
840.467	3104
840.604	3165
840.742	3393
840.879	3055
841.016	3039
841.153	3119
841.29	3344
841.427	3321
841.564	3249
841.701	3313
841.838	3214
841.975	3165
842.112	3192
842.249	3123
842.385	3028
842.522	3230
842.659	3097
842.796	3028
842.933	3070
843.069	2998
843.206	3085
843.343	3173
843.479	3112
843.616	3135
843.752	2906
843.889	2880
844.025	3058
844.162	2883
844.298	3047
844.435	2933
844.571	2883
844.708	3051
844.844	3161
844.98	3237
845.117	3173
845.253	3055
845.389	3001
845.525	3112
845.661	3093
845.798	2982
845.934	3093
846.07	3051
846.206	3180
846.342	3306
846.478	3218
846.614	3112
846.75	3024
846.886	3043
847.022	3256
847.158	3127
847.294	3195
847.429	3249
847.565	3184
847.701	3469
847.837	3020
847.972	2994
848.108	3161
848.244	3161
848.379	2963
848.515	2971
848.65	2918
848.786	2941
848.921	2998
849.057	3131
849.192	3100
849.328	3074
849.463	3100
849.598	3036
849.734	3020
849.869	2990
850.004	2918
850.14	2948
850.275	2906
850.41	2845
850.545	2914
850.68	2899
850.815	2914
850.95	2956
851.085	3176
851.22	3097
851.355	3001
851.49	3001
851.625	2986
851.76	2979
851.895	2941
852.03	2842
852.165	3024
852.299	3127
852.434	3150
852.569	3112
852.703	3131
852.838	3287
852.973	3332
853.107	3313
853.242	3127
853.376	3112
853.511	2979
853.645	3017
853.78	3211
853.914	3127
854.048	3097
854.183	3077
854.317	3116
854.451	3283
854.585	3165
854.72	3108
854.854	3218
854.988	3055
855.122	3081
855.256	2967
855.39	3112
855.524	3222
855.658	3203
855.792	3184
855.926	3165
856.06	3226
856.194	3230
856.327	3154
856.461	3039
856.595	3013
856.729	3077
856.862	3207
856.996	3176
857.13	3161
857.263	3222
857.397	3230
857.53	3127
857.664	3180
857.797	3233
857.931	3233
858.064	3173
858.197	3199
858.331	3123
858.464	3081
858.597	2990
858.731	3119
858.864	3112
858.997	3070
859.13	3184
859.263	3142
859.396	3199
859.529	3055
859.662	3074
859.795	3009
859.928	3157
860.061	3249
860.194	3230
860.327	3123
860.46	3108
860.592	3222
860.725	3207
860.858	3264
860.99	3081
861.123	3032
861.256	3047
861.388	3123
861.521	3888
861.653	2998
861.786	2975
861.918	2967
862.05	3066
862.183	3077
862.315	3138
862.447	3184
862.58	3097
862.712	2944
862.844	2880
862.976	3051
863.108	3024
863.24	3389
863.372	2887
863.504	2986
863.636	2960
863.768	3024
863.9	2963
864.032	2910
864.164	2948
864.296	3013
864.428	3062
864.559	3100
864.691	3036
864.823	3032
864.954	2998
865.086	3028
865.217	2948
865.349	2956
865.48	3005
865.612	2975
865.743	3142
865.875	2967
866.006	2910
866.137	3005
866.269	2933
866.4	2960
866.531	2895
866.662	2902
866.793	2864
866.924	2887
867.055	2960
867.186	2933
867.317	2883
867.448	2838
867.579	2868
867.71	2849
867.841	2792
867.972	2918
868.103	2902
868.233	2838
868.364	2868
868.495	2887
868.625	3074
868.756	3154
868.886	2952
869.017	3005
869.147	3176
869.278	3173
869.408	3013
869.539	3039
869.669	3097
869.799	3001
869.929	3108
870.06	3104
870.19	3325
870.32	3245
870.45	3264
870.58	3363
870.71	3443
870.84	3500
870.97	3294
871.1	3253
871.23	3462
871.36	3424
871.489	3382
871.619	3374
871.749	3428
871.879	3412
872.008	3466
872.138	3355
872.267	3249
872.397	3127
872.526	3093
872.656	2963
872.785	3119
872.915	3237
873.044	3283
873.173	3195
873.303	3256
873.432	3241
873.561	3222
873.69	3135
873.819	3146
873.948	3184
874.077	3138
874.206	3020
874.335	3093
874.464	3195
874.593	3378
874.722	3245
874.851	3389
874.979	3348
875.108	3332
875.237	3188
875.365	3131
875.494	3154
875.623	3283
875.751	3085
875.88	3093
876.008	3199
876.136	3237
876.265	3355
876.393	3538
876.521	3389
876.65	3420
876.778	3294
876.906	3214
877.034	3169
877.162	3184
877.29	3127
877.418	3260
877.546	3245
877.674	3256
877.802	3249
877.93	3233
878.058	3154
878.185	3131
878.313	3173
878.441	3184
878.568	3032
878.696	3146
878.824	3222
878.951	3291
879.079	3485
879.206	3625
879.333	3454
879.461	3332
879.588	3348
879.715	3431
879.842	3603
879.97	3389
880.097	3165
880.224	3131
880.351	3169
880.478	3211
880.605	3199
880.732	3230
880.859	3488
880.986	3321
881.112	3321
881.239	3165
881.366	3047
881.493	3020
881.619	3036
881.746	3070
881.872	3089
881.999	3100
882.125	3173
882.252	3230
882.378	3306
882.505	3412
882.631	3260
882.757	3154
882.883	3214
883.01	3230
883.136	3157
883.262	3077
883.388	3097
883.514	3336
883.64	3359
883.766	3302
883.892	3211
884.018	3260
884.143	3416
884.269	3526
884.395	3176
884.52	3150
884.646	3150
884.772	3146
884.897	3100
885.023	3222
885.148	3374
885.274	3382
885.399	3348
885.524	3268
885.65	3226
885.775	3317
885.9	3275
886.025	3420
886.15	3332
886.275	3294
886.4	3233
886.525	3310
886.65	3268
886.775	3279
886.9	3477
887.025	3618
887.149	3431
887.274	3279
887.399	3180
887.523	3207
887.648	3157
887.773	3195
887.897	3329
888.021	3378
888.146	3253
888.27	3416
888.395	3549
888.519	3416
888.643	3420
888.767	3431
888.891	3336
889.015	3211
889.139	3264
889.263	3256
889.387	3363
889.511	3534
889.635	3409
889.759	3287
889.883	3264
890.006	3374
890.13	3488
890.254	3275
890.377	3370
890.501	3173
890.624	3184
890.748	3291
890.871	3161
890.995	3093
891.118	3093
891.241	3173
891.364	3195
891.488	3291
891.611	3180
891.734	3218
891.857	3294
891.98	3233
892.103	3329
892.226	3275
892.349	3176
892.471	3146
892.594	3253
892.717	3294
892.839	3241
892.962	3268
893.085	3351
893.207	3325
893.33	3161
893.452	3211
893.575	3340
893.697	3199
893.819	3424
893.941	3507
894.064	3443
894.186	3272
894.308	3230
894.43	3409
894.552	3526
894.674	3492
894.796	3253
894.918	3294
895.04	3306
895.161	3409
895.283	3393
895.405	3268
895.526	3393
895.648	3409
895.769	3386
895.891	3466
896.012	3485
896.134	3488
896.255	3367
896.376	3405
896.498	3313
896.619	3439
896.74	3355
896.861	3401
896.982	3644
897.103	3781
897.224	3584
897.345	3504
897.466	3397
897.587	3481
897.708	3599
897.828	3549
897.949	3424
898.07	3325
898.19	3412
898.311	3564
898.431	3454
898.552	3530
898.672	3576
898.792	3561
898.913	3515
899.033	3405
899.153	3313
899.273	3253
899.393	3279
899.513	3291
899.633	3291
899.753	3340
899.873	3306
899.993	3397
900.113	3332
900.232	3393
900.352	3329
900.472	3298
900.591	3195
900.711	3279
900.83	3279
900.95	3435
901.069	3462
901.189	3348
901.308	3180
901.427	3135
901.546	3222
901.665	3294
901.784	3355
901.904	3214
902.023	3169
902.141	2994
902.26	2990
902.379	3142
902.498	3062
902.617	3043
902.735	3192
902.854	3233
902.973	3199
903.091	3043
903.21	3055
903.328	3157
903.446	3100
903.565	3055
903.683	3180
903.801	3104
903.919	3222
904.038	3287
904.156	3195
904.274	3298
904.392	3253
904.51	3283
904.627	3313
904.745	3435
904.863	3477
904.981	3245
905.098	3169
905.216	3218
905.334	3268
905.451	3321
905.569	3287
905.686	3412
905.803	3439
905.921	3302
906.038	3443
906.155	3351
906.272	3264
906.389	3363
906.506	3275
906.623	3287
906.74	3264
906.857	3165
906.974	3260
907.091	3397
907.208	3572
907.324	3469
907.441	3409
907.557	3226
907.674	3176
907.79	3214
907.907	3241
908.023	3359
908.139	3374
908.256	3340
908.372	3344
908.488	3332
908.604	3260
908.72	3260
908.836	3291
908.952	3256
909.068	3294
909.184	3481
909.3	3405
909.415	3481
909.531	3462
909.647	3298
909.762	3298
909.878	3253
909.993	3393
910.108	3310
910.224	3348
910.339	3420
910.454	3336
910.57	3279
910.685	3233
910.8	3564
910.915	3557
911.03	3454
911.145	3226
911.259	3310
911.374	3302
911.489	3226
911.604	3249
911.718	3089
911.833	3123
911.947	3036
912.062	2963
912.176	3104
912.291	3161
912.405	3180
912.519	3431
912.633	3454
912.748	3344
912.862	3298
912.976	3203
913.09	3051
913.204	3135
913.318	3245
913.431	3294
913.545	3283
913.659	3370
913.772	3313
913.886	3203
914	3207
914.113	3359
914.226	3409
914.34	3359
914.453	3233
914.566	3416
914.68	3313
914.793	3298
914.906	3131
915.019	3097
915.132	3066
915.245	3150
915.358	3161
915.47	3241
915.583	3199
915.696	3291
915.809	3424
915.921	3409
916.034	3237
916.146	3283
916.259	3199
916.371	3351
916.483	3348
916.595	3298
916.708	3329
916.82	3298
916.932	3329
917.044	3351
917.156	3332
917.268	3241
917.38	3310
917.491	3336
917.603	3348
917.715	3435
917.826	3435
917.938	3401
918.049	3241
918.161	3405
918.272	3584
918.384	3542
918.495	3469
918.606	3359
918.717	3268
918.828	3355
918.939	3401
919.05	3329
919.161	3355
919.272	3222
919.383	3283
919.494	3477
919.604	3690
919.715	3507
919.826	3393
919.936	3450
920.047	3568
920.157	3523
920.267	3724
920.378	3580
920.488	3587
920.598	3770
920.708	3937
920.818	3816
920.928	3816
921.038	4036
921.148	4017
921.258	3720
921.368	3656
921.477	3557
921.587	3561
921.697	3450
921.806	3603
921.916	3538
922.025	3363
922.134	3355
922.244	3313
922.353	3454
922.462	3294
922.571	3203
922.68	3142
922.789	3081
922.898	3154
923.007	3104
923.116	3192
923.224	3188
923.333	3188
923.442	3138
923.55	3085
923.659	3119
923.767	3192
923.876	3138
923.984	3192
924.092	3127
924.201	3245
924.309	3249
924.417	3256
924.525	3188
924.633	3195
924.741	4158
924.849	3036
924.956	3237
925.064	3081
925.172	3039
925.279	3097
925.387	3195
925.494	3241
925.602	3359
925.709	3325
925.816	3195
925.924	3291
926.031	3363
926.138	3367
926.245	3310
926.352	3245
926.459	3389
926.566	3507
926.673	3317
926.779	3253
926.886	3230
926.993	3123
927.099	3108
927.206	3070
927.312	3119
927.419	3230
927.525	3207
927.631	3214
927.737	3131
927.843	3119
927.95	3028
928.056	3161
928.162	3222
928.267	3245
928.373	3911
928.479	3340
928.585	3013
928.69	3237
928.796	3253
928.901	3150
929.007	3058
929.112	3192
929.218	3188
929.323	3157
929.428	3150
929.533	3313
929.638	3127
929.743	3146
929.848	3253
929.953	3207
930.058	3116
930.163	2998
930.267	3043
930.372	3207
930.477	3009
930.581	3249
930.685	3211
930.79	3051
930.894	3093
930.998	3097
931.103	3275
931.207	2918
931.311	2937
931.415	2941
931.519	2788
931.623	2788
