Data from test_V78500241_348.txt Node
Date: Fri Mar 25 16:17:36 CST 2022
User: usil
Spectrometer: V785-0024
Trigger mode: 0
Integration Time (sec): 4.000000E-1
Scans to average: 1
Nonlinearity correction enabled: false
Boxcar width: 0
Storing dark spectrum: false
XAxis mode: Wavelengths
Number of Pixels in Spectrum: 1024
>>>>>Begin Spectral Data<<<<<
801.071	2902
801.214	2902
801.356	2868
801.499	2883
801.641	2864
801.783	2925
801.926	3036
802.068	3017
802.211	2998
802.353	3043
802.496	2963
802.638	3032
802.78	3039
802.923	3097
803.065	2998
803.208	2910
803.35	2918
803.492	2952
803.635	2933
803.777	2735
803.919	2887
804.061	3207
804.204	2922
804.346	2861
804.488	2883
804.63	3020
804.773	2880
804.915	2922
805.057	3066
805.199	2910
805.341	2960
805.483	3020
805.626	3017
805.768	2967
805.91	3097
806.052	3123
806.194	3062
806.336	3230
806.478	3028
806.62	2952
806.762	2952
806.904	3032
807.046	3184
807.188	2971
807.33	2876
807.472	2967
807.614	2910
807.756	2979
807.898	2922
808.04	2902
808.182	2960
808.324	2967
808.465	2883
808.607	2883
808.749	2800
808.891	2826
809.033	2990
809.174	2967
809.316	2887
809.458	2876
809.6	2758
809.741	2788
809.883	2769
810.025	2845
810.166	2864
810.308	2834
810.45	2861
810.591	2773
810.733	2758
810.875	2823
811.016	2796
811.158	2773
811.299	2792
811.441	2948
811.582	2918
811.724	2823
811.865	2845
812.007	2918
812.148	2876
812.29	2895
812.431	2887
812.573	2975
812.714	2963
812.855	3017
812.997	3081
813.138	3116
813.279	3020
813.421	2998
813.562	2941
813.703	2876
813.845	2876
813.986	2766
814.127	2731
814.268	2834
814.41	2826
814.551	2807
814.692	2876
814.833	2830
814.974	2918
815.115	2941
815.256	2819
815.397	2792
815.539	2872
815.68	2785
815.821	2796
815.962	2941
816.103	2933
816.244	2880
816.385	2876
816.526	3001
816.666	2937
816.807	2785
816.948	2895
817.089	2899
817.23	2834
817.371	2731
817.512	2766
817.653	2864
817.793	2838
817.934	2864
818.075	2979
818.216	2994
818.356	3009
818.497	2861
818.638	2777
818.778	2788
818.919	2785
819.06	2750
819.2	2883
819.341	2811
819.481	2807
819.622	2937
819.762	3112
819.903	3047
820.043	2922
820.184	2883
820.324	2895
820.465	3005
820.605	2990
820.746	3017
820.886	2941
821.026	3104
821.167	3146
821.307	3237
821.447	3249
821.588	3226
821.728	3150
821.868	3214
822.008	3085
822.149	3188
822.289	3214
822.429	3077
822.569	3131
822.709	3180
822.849	3047
822.99	3047
823.13	3154
823.27	3192
823.41	3112
823.55	3135
823.69	3150
823.83	3150
823.97	3070
824.11	2982
824.25	3009
824.389	3043
824.529	3104
824.669	3077
824.809	3203
824.949	3237
825.089	3222
825.228	3161
825.368	2998
825.508	2963
825.648	2948
825.787	2986
825.927	3024
826.067	2956
826.206	2967
826.346	3058
826.485	3047
826.625	3127
826.765	3260
826.904	3222
827.044	3001
827.183	2933
827.323	2914
827.462	3013
827.601	2887
827.741	2922
827.88	2975
828.02	2804
828.159	2979
828.298	3104
828.437	3169
828.577	3043
828.716	3195
828.855	3039
828.994	2929
829.134	2887
829.273	2899
829.412	2876
829.551	2864
829.69	2895
829.829	2982
829.968	3131
830.107	3036
830.246	3024
830.385	2922
830.524	2887
830.663	2849
830.802	2731
830.941	2667
831.08	2651
831.219	2796
831.357	2758
831.496	2967
831.635	2727
831.774	2636
831.913	2648
832.051	2545
832.19	2545
832.329	2682
832.467	2522
832.606	2476
832.744	2552
832.883	2560
833.022	2602
833.16	2644
833.299	2686
833.437	2670
833.576	2674
833.714	2731
833.852	2731
833.991	2773
834.129	2819
834.267	2845
834.406	2766
834.544	2826
834.682	2845
834.821	2857
834.959	3058
835.097	2887
835.235	3043
835.373	2990
835.511	3005
835.65	2956
835.788	2952
835.926	2845
836.064	2823
836.202	2861
836.34	3085
836.478	3104
836.615	3055
836.753	3112
836.891	3199
837.029	3169
837.167	3081
837.305	3066
837.443	3055
837.58	2944
837.718	3138
837.856	3058
837.993	3062
838.131	3146
838.269	3127
838.406	3108
838.544	3055
838.681	2937
838.819	2929
838.956	2819
839.094	2807
839.231	2918
839.369	3020
839.506	3336
839.643	3211
839.781	3020
839.918	2967
840.055	3028
840.193	3028
840.33	3043
840.467	3077
840.604	3142
840.742	3409
840.879	3055
841.016	3039
841.153	3077
841.29	3298
841.427	3325
841.564	3275
841.701	3268
841.838	3218
841.975	3203
842.112	3237
842.249	3097
842.385	3028
842.522	3222
842.659	3093
842.796	3058
842.933	3089
843.069	3028
843.206	3028
843.343	3173
843.479	3108
843.616	3142
843.752	2895
843.889	2861
844.025	3070
844.162	2902
844.298	3051
844.435	2975
844.571	2910
844.708	3070
844.844	3176
844.98	3233
845.117	3188
845.253	3036
845.389	2971
845.525	3089
845.661	3093
845.798	3009
845.934	3104
846.07	3039
846.206	3245
846.342	3348
846.478	3230
846.614	3055
846.75	3062
846.886	3013
847.022	3237
847.158	3131
847.294	3161
847.429	3226
847.565	3211
847.701	3458
847.837	3024
847.972	2982
848.108	3192
848.244	3119
848.379	2952
848.515	2944
848.65	2922
848.786	3020
848.921	2994
849.057	3116
849.192	3104
849.328	3043
849.463	3123
849.598	3097
849.734	3043
849.869	2929
850.004	2937
850.14	2963
850.275	2891
850.41	2872
850.545	2868
850.68	2922
850.815	2971
850.95	2994
851.085	3169
851.22	3112
851.355	3036
851.49	2963
851.625	3020
851.76	3001
851.895	2910
852.03	2941
852.165	3024
852.299	3100
852.434	3180
852.569	3116
852.703	3203
852.838	3241
852.973	3344
853.107	3310
853.242	3127
853.376	3104
853.511	2967
853.645	3020
853.78	3207
853.914	3100
854.048	3138
854.183	3097
854.317	3180
854.451	3287
854.585	3081
854.72	3135
854.854	3188
854.988	3032
855.122	3093
855.256	2948
855.39	3100
855.524	3241
855.658	3154
855.792	3173
855.926	3180
856.06	3180
856.194	3268
856.327	3173
856.461	3070
856.595	3077
856.729	3108
856.862	3218
856.996	3142
857.13	3192
857.263	3233
857.397	3272
857.53	3127
857.664	3199
857.797	3226
857.931	3264
858.064	3165
858.197	3237
858.331	3188
858.464	3074
858.597	2982
858.731	3135
858.864	3119
858.997	3070
859.13	3157
859.263	3154
859.396	3188
859.529	3066
859.662	3051
859.795	3039
859.928	3157
860.061	3291
860.194	3275
860.327	3112
860.46	3100
860.592	3264
860.725	3218
860.858	3268
860.99	3093
861.123	3036
861.256	3028
861.388	3154
861.521	3713
861.653	3024
861.786	3001
861.918	3001
862.05	3051
862.183	3116
862.315	3161
862.447	3184
862.58	3055
862.712	2933
862.844	2857
862.976	3005
863.108	2998
863.24	3416
863.372	2838
863.504	3001
863.636	2956
863.768	2986
863.9	2979
864.032	2944
864.164	2910
864.296	3051
864.428	3085
864.559	3062
864.691	3055
864.823	3077
864.954	3028
865.086	3081
865.217	2979
865.349	2960
865.48	2982
865.612	3024
865.743	3116
865.875	2952
866.006	2922
866.137	2986
866.269	2979
866.4	2944
866.531	2910
866.662	2910
866.793	2842
866.924	2891
867.055	2948
867.186	2933
867.317	2887
867.448	2861
867.579	2861
867.71	2845
867.841	2815
867.972	2910
868.103	2910
868.233	2891
868.364	2883
868.495	2910
868.625	3074
868.756	3184
868.886	2990
869.017	3028
869.147	3195
869.278	3146
869.408	3013
869.539	3055
869.669	3093
869.799	3032
869.929	3104
870.06	3081
870.19	3336
870.32	3294
870.45	3253
870.58	3389
870.71	3450
870.84	3443
870.97	3317
871.1	3249
871.23	3492
871.36	3454
871.489	3363
871.619	3420
871.749	3370
871.879	3412
872.008	3488
872.138	3374
872.267	3233
872.397	3173
872.526	3100
872.656	3024
872.785	3058
872.915	3226
873.044	3306
873.173	3241
873.303	3241
873.432	3241
873.561	3253
873.69	3180
873.819	3192
873.948	3184
874.077	3104
874.206	3047
874.335	3036
874.464	3211
874.593	3382
874.722	3249
874.851	3382
874.979	3344
875.108	3287
875.237	3184
875.365	3161
875.494	3154
875.623	3241
875.751	3077
875.88	3127
876.008	3169
876.136	3253
876.265	3355
876.393	3507
876.521	3378
876.65	3412
876.778	3283
876.906	3237
877.034	3199
877.162	3222
877.29	3173
877.418	3253
877.546	3272
877.674	3241
877.802	3218
877.93	3192
878.058	3157
878.185	3077
878.313	3214
878.441	3195
878.568	3089
878.696	3135
878.824	3226
878.951	3256
879.079	3431
879.206	3606
879.333	3450
879.461	3321
879.588	3329
879.715	3496
879.842	3549
879.97	3389
880.097	3188
880.224	3135
880.351	3180
880.478	3180
880.605	3222
880.732	3180
880.859	3477
880.986	3336
881.112	3306
881.239	3203
881.366	3089
881.493	3024
881.619	3001
881.746	3058
881.872	3077
881.999	3089
882.125	3142
882.252	3237
882.378	3298
882.505	3428
882.631	3298
882.757	3142
882.883	3214
883.01	3226
883.136	3169
883.262	3074
883.388	3100
883.514	3344
883.64	3389
883.766	3313
883.892	3169
884.018	3253
884.143	3416
884.269	3507
884.395	3241
884.52	3146
884.646	3169
884.772	3093
884.897	3135
885.023	3173
885.148	3325
885.274	3405
885.399	3370
885.524	3272
885.65	3256
885.775	3344
885.9	3237
886.025	3424
886.15	3382
886.275	3313
886.4	3195
886.525	3302
886.65	3256
886.775	3264
886.9	3519
887.025	3576
887.149	3386
887.274	3264
887.399	3176
887.523	3237
887.648	3165
887.773	3195
887.897	3348
888.021	3412
888.146	3272
888.27	3443
888.395	3545
888.519	3428
888.643	3450
888.767	3439
888.891	3294
889.015	3272
889.139	3275
889.263	3230
889.387	3370
889.511	3507
889.635	3405
889.759	3287
889.883	3256
890.006	3386
890.13	3488
890.254	3264
890.377	3329
890.501	3226
890.624	3184
890.748	3310
890.871	3157
890.995	3097
891.118	3077
891.241	3176
891.364	3245
891.488	3317
891.611	3195
891.734	3214
891.857	3283
891.98	3233
892.103	3329
892.226	3275
892.349	3214
892.471	3108
892.594	3237
892.717	3275
892.839	3253
892.962	3302
893.085	3389
893.207	3306
893.33	3146
893.452	3298
893.575	3340
893.697	3275
893.819	3431
893.941	3507
894.064	3462
894.186	3291
894.308	3256
894.43	3473
894.552	3538
894.674	3469
894.796	3256
894.918	3294
895.04	3291
895.161	3431
895.283	3355
895.405	3321
895.526	3378
895.648	3447
895.769	3435
895.891	3412
896.012	3458
896.134	3469
896.255	3428
896.376	3409
896.498	3332
896.619	3443
896.74	3351
896.861	3393
896.982	3717
897.103	3865
897.224	3599
897.345	3511
897.466	3439
897.587	3481
897.708	3633
897.828	3545
897.949	3412
898.07	3332
898.19	3420
898.311	3595
898.431	3481
898.552	3519
898.672	3584
898.792	3584
898.913	3523
899.033	3389
899.153	3237
899.273	3256
899.393	3260
899.513	3275
899.633	3351
899.753	3272
899.873	3325
899.993	3374
900.113	3313
900.232	3389
900.352	3310
900.472	3272
900.591	3192
900.711	3275
900.83	3207
900.95	3420
901.069	3466
901.189	3336
901.308	3154
901.427	3142
901.546	3218
901.665	3291
901.784	3283
901.904	3230
902.023	3169
902.141	3036
902.26	2975
902.379	3131
902.498	3081
902.617	2998
902.735	3211
902.854	3233
902.973	3192
903.091	3024
903.21	3081
903.328	3146
903.446	3112
903.565	3131
903.683	3203
903.801	3108
903.919	3211
904.038	3275
904.156	3192
904.274	3294
904.392	3268
904.51	3279
904.627	3321
904.745	3420
904.863	3469
904.981	3253
905.098	3173
905.216	3199
905.334	3287
905.451	3313
905.569	3298
905.686	3420
905.803	3462
905.921	3279
906.038	3469
906.155	3374
906.272	3275
906.389	3313
906.506	3249
906.623	3237
906.74	3275
906.857	3188
906.974	3275
907.091	3412
907.208	3530
907.324	3492
907.441	3428
907.557	3264
907.674	3230
907.79	3195
907.907	3310
908.023	3386
908.139	3363
908.256	3351
908.372	3389
908.488	3367
908.604	3222
908.72	3222
908.836	3275
908.952	3226
909.068	3344
909.184	3477
909.3	3378
909.415	3519
909.531	3469
909.647	3302
909.762	3279
909.878	3283
909.993	3363
910.108	3325
910.224	3374
910.339	3428
910.454	3348
910.57	3275
910.685	3272
910.8	3625
910.915	3530
911.03	3447
911.145	3272
911.259	3317
911.374	3283
911.489	3207
911.604	3237
911.718	3100
911.833	3146
911.947	3005
912.062	2982
912.176	3173
912.291	3192
912.405	3211
912.519	3409
912.633	3481
912.748	3340
912.862	3268
912.976	3154
913.09	3070
913.204	3154
913.318	3233
913.431	3355
913.545	3313
913.659	3367
913.772	3355
913.886	3230
914	3203
914.113	3367
914.226	3420
914.34	3329
914.453	3264
914.566	3389
914.68	3279
914.793	3302
914.906	3138
915.019	3138
915.132	3108
915.245	3218
915.358	3214
915.47	3226
915.583	3256
915.696	3302
915.809	3443
915.921	3409
916.034	3279
916.146	3233
916.259	3230
916.371	3374
916.483	3344
916.595	3275
916.708	3329
916.82	3378
916.932	3332
917.044	3332
917.156	3351
917.268	3245
917.38	3283
917.491	3306
917.603	3363
917.715	3477
917.826	3504
917.938	3378
918.049	3272
918.161	3454
918.272	3572
918.384	3564
918.495	3496
918.606	3321
918.717	3268
918.828	3420
918.939	3378
919.05	3306
919.161	3378
919.272	3154
919.383	3298
919.494	3485
919.604	3690
919.715	3500
919.826	3401
919.936	3431
920.047	3545
920.157	3538
920.267	3785
920.378	3603
920.488	3553
920.598	3766
920.708	3934
920.818	3804
920.928	3861
921.038	4013
921.148	3998
921.258	3690
921.368	3618
921.477	3530
921.587	3568
921.697	3447
921.806	3610
921.916	3500
922.025	3348
922.134	3382
922.244	3313
922.353	3431
922.462	3264
922.571	3249
922.68	3093
922.789	3085
922.898	3150
923.007	3100
923.116	3199
923.224	3169
923.333	3150
923.442	3077
923.55	3081
923.659	3161
923.767	3211
923.876	3138
923.984	3195
924.092	3135
924.201	3180
924.309	3165
924.417	3260
924.525	3233
924.633	3249
924.741	4177
924.849	3055
924.956	3260
925.064	3100
925.172	3028
925.279	3089
925.387	3195
925.494	3230
925.602	3336
925.709	3329
925.816	3184
925.924	3253
926.031	3420
926.138	3306
926.245	3367
926.352	3268
926.459	3447
926.566	3447
926.673	3310
926.779	3283
926.886	3256
926.993	3142
927.099	3154
927.206	3108
927.312	3119
927.419	3226
927.525	3199
927.631	3275
927.737	3142
927.843	3116
927.95	3005
928.056	3150
928.162	3161
928.267	3245
928.373	3835
928.479	3317
928.585	3085
928.69	3230
928.796	3321
928.901	3180
929.007	3066
929.112	3207
929.218	3157
929.323	3135
929.428	3169
929.533	3329
929.638	3093
929.743	3157
929.848	3275
929.953	3214
930.058	3161
930.163	3017
930.267	3036
930.372	3195
930.477	3013
930.581	3283
930.685	3184
930.79	3055
930.894	3116
930.998	3089
931.103	3275
931.207	2933
931.311	2952
931.415	2902
931.519	2769
931.623	2773
