Data from test_V78500241_2002.txt Node
Date: Fri Mar 25 16:29:04 CST 2022
User: usil
Spectrometer: V785-0024
Trigger mode: 0
Integration Time (sec): 4.000000E-1
Scans to average: 1
Nonlinearity correction enabled: false
Boxcar width: 0
Storing dark spectrum: false
XAxis mode: Wavelengths
Number of Pixels in Spectrum: 1024
>>>>>Begin Spectral Data<<<<<
801.071	2899
801.214	2979
801.356	2895
801.499	2922
801.641	2883
801.783	2910
801.926	3051
802.068	2963
802.211	2994
802.353	3070
802.496	2948
802.638	3013
802.78	3013
802.923	3097
803.065	3024
803.208	2906
803.35	2914
803.492	2922
803.635	2929
803.777	2762
803.919	2868
804.061	3169
804.204	2979
804.346	2922
804.488	2826
804.63	2994
804.773	2899
804.915	2868
805.057	3066
805.199	2918
805.341	2941
805.483	2998
805.626	3001
805.768	2925
805.91	3089
806.052	3131
806.194	3020
806.336	3218
806.478	2986
806.62	2944
806.762	2971
806.904	3070
807.046	3203
807.188	3009
807.33	2910
807.472	3013
807.614	2918
807.756	3001
807.898	2967
808.04	2902
808.182	2998
808.324	2967
808.465	2891
808.607	2861
808.749	2800
808.891	2830
809.033	2967
809.174	2979
809.316	2880
809.458	2880
809.6	2777
809.741	2724
809.883	2746
810.025	2845
810.166	2838
810.308	2834
810.45	2853
810.591	2735
810.733	2788
810.875	2823
811.016	2811
811.158	2754
811.299	2807
811.441	2922
811.582	2891
811.724	2834
811.865	2834
812.007	2883
812.148	2868
812.29	2883
812.431	2868
812.573	2948
812.714	2960
812.855	3020
812.997	3036
813.138	3127
813.279	2994
813.421	2994
813.562	2914
813.703	2861
813.845	2872
813.986	2773
814.127	2716
814.268	2804
814.41	2849
814.551	2804
814.692	2872
814.833	2800
814.974	2876
815.115	2956
815.256	2826
815.397	2838
815.539	2861
815.68	2785
815.821	2800
815.962	2952
816.103	2944
816.244	2891
816.385	2876
816.526	2937
816.666	2922
816.807	2731
816.948	2864
817.089	2899
817.23	2838
817.371	2800
817.512	2785
817.653	2861
817.793	2826
817.934	2891
818.075	2922
818.216	3001
818.356	2990
818.497	2845
818.638	2807
818.778	2842
818.919	2766
819.06	2773
819.2	2876
819.341	2788
819.481	2781
819.622	2922
819.762	3055
819.903	3039
820.043	2895
820.184	2853
820.324	2883
820.465	2963
820.605	3005
820.746	2998
820.886	2902
821.026	3089
821.167	3146
821.307	3306
821.447	3275
821.588	3230
821.728	3218
821.868	3192
822.008	3058
822.149	3157
822.289	3233
822.429	3108
822.569	3081
822.709	3203
822.849	3058
822.99	3070
823.13	3192
823.27	3195
823.41	3093
823.55	3127
823.69	3100
823.83	3180
823.97	3093
824.11	3028
824.25	3001
824.389	3085
824.529	3138
824.669	3074
824.809	3165
824.949	3230
825.089	3256
825.228	3222
825.368	2998
825.508	2979
825.648	2967
825.787	3047
825.927	3028
826.067	2948
826.206	2952
826.346	3097
826.485	3100
826.625	3123
826.765	3275
826.904	3233
827.044	3032
827.183	2948
827.323	2902
827.462	3020
827.601	2963
827.741	2971
827.88	2982
828.02	2899
828.159	3005
828.298	3070
828.437	3169
828.577	3097
828.716	3279
828.855	3150
828.994	2963
829.134	2933
829.273	2963
829.412	2925
829.551	2876
829.69	2941
829.829	3001
829.968	3165
830.107	3077
830.246	3077
830.385	2941
830.524	2925
830.663	2861
830.802	2731
830.941	2708
831.08	2705
831.219	2804
831.357	2804
831.496	2994
831.635	2773
831.774	2697
831.913	2731
832.051	2587
832.19	2606
832.329	2708
832.467	2568
832.606	2507
832.744	2587
832.883	2621
833.022	2610
833.16	2708
833.299	2708
833.437	2754
833.576	2731
833.714	2773
833.852	2785
833.991	2834
834.129	2868
834.267	2872
834.406	2834
834.544	2929
834.682	2952
834.821	2895
834.959	3123
835.097	2925
835.235	3116
835.373	3074
835.511	3013
835.65	2982
835.788	2975
835.926	2899
836.064	2838
836.202	2887
836.34	3116
836.478	3218
836.615	3116
836.753	3195
836.891	3245
837.029	3195
837.167	3138
837.305	3077
837.443	3089
837.58	2998
837.718	3176
837.856	3074
837.993	3077
838.131	3188
838.269	3180
838.406	3127
838.544	3123
838.681	2941
838.819	2982
838.956	2842
839.094	2887
839.231	2952
839.369	3047
839.506	3389
839.643	3245
839.781	3039
839.918	3001
840.055	3077
840.193	3093
840.33	3074
840.467	3150
840.604	3184
840.742	3412
840.879	3093
841.016	3032
841.153	3173
841.29	3363
841.427	3321
841.564	3279
841.701	3306
841.838	3211
841.975	3226
842.112	3249
842.249	3108
842.385	3066
842.522	3279
842.659	3119
842.796	3062
842.933	3161
843.069	3058
843.206	3055
843.343	3214
843.479	3116
843.616	3150
843.752	2948
843.889	2922
844.025	3081
844.162	2902
844.298	3112
844.435	2971
844.571	2963
844.708	3131
844.844	3214
844.98	3287
845.117	3218
845.253	3089
845.389	3028
845.525	3127
845.661	3119
845.798	3058
845.934	3192
846.07	3100
846.206	3264
846.342	3340
846.478	3291
846.614	3089
846.75	3093
846.886	3043
847.022	3264
847.158	3142
847.294	3226
847.429	3256
847.565	3214
847.701	3526
847.837	3032
847.972	3032
848.108	3176
848.244	3165
848.379	2990
848.515	2982
848.65	2937
848.786	2994
848.921	3024
849.057	3127
849.192	3146
849.328	3104
849.463	3169
849.598	3150
849.734	3047
849.869	2963
850.004	2956
850.14	2971
850.275	2925
850.41	2887
850.545	2948
850.68	2967
850.815	2944
850.95	3036
851.085	3230
851.22	3119
851.355	3047
851.49	3028
851.625	3017
851.76	3039
851.895	2941
852.03	2948
852.165	3097
852.299	3112
852.434	3199
852.569	3195
852.703	3222
852.838	3249
852.973	3401
853.107	3340
853.242	3203
853.376	3127
853.511	3020
853.645	3070
853.78	3233
853.914	3119
854.048	3146
854.183	3142
854.317	3154
854.451	3370
854.585	3154
854.72	3104
854.854	3222
854.988	3085
855.122	3108
855.256	3032
855.39	3123
855.524	3245
855.658	3222
855.792	3180
855.926	3237
856.06	3245
856.194	3313
856.327	3184
856.461	3108
856.595	3100
856.729	3085
856.862	3218
856.996	3207
857.13	3253
857.263	3287
857.397	3317
857.53	3184
857.664	3222
857.797	3275
857.931	3279
858.064	3195
858.197	3241
858.331	3173
858.464	3150
858.597	3070
858.731	3150
858.864	3157
858.997	3116
859.13	3161
859.263	3207
859.396	3249
859.529	3081
859.662	3089
859.795	3024
859.928	3173
860.061	3272
860.194	3336
860.327	3154
860.46	3116
860.592	3233
860.725	3294
860.858	3287
860.99	3123
861.123	3066
861.256	3066
861.388	3169
861.521	3888
861.653	3039
861.786	3009
861.918	3032
862.05	3070
862.183	3127
862.315	3192
862.447	3237
862.58	3123
862.712	2948
862.844	2910
862.976	3043
863.108	3009
863.24	3317
863.372	2914
863.504	2998
863.636	2929
863.768	3070
863.9	3001
864.032	2941
864.164	2982
864.296	3036
864.428	3097
864.559	3123
864.691	3100
864.823	3058
864.954	3051
865.086	3093
865.217	3005
865.349	2952
865.48	2971
865.612	3062
865.743	3195
865.875	3043
866.006	2975
866.137	2990
866.269	2937
866.4	2937
866.531	2929
866.662	2880
866.793	2933
866.924	2906
867.055	3013
867.186	2956
867.317	2891
867.448	2842
867.579	2880
867.71	2853
867.841	2819
867.972	2902
868.103	2910
868.233	2914
868.364	2918
868.495	2925
868.625	3135
868.756	3180
868.886	2998
869.017	3005
869.147	3142
869.278	3169
869.408	3146
869.539	3024
869.669	3112
869.799	3074
869.929	3127
870.06	3157
870.19	3363
870.32	3306
870.45	3321
870.58	3401
870.71	3416
870.84	3447
870.97	3302
871.1	3222
871.23	3488
871.36	3462
871.489	3397
871.619	3428
871.749	3458
871.879	3435
872.008	3519
872.138	3359
872.267	3306
872.397	3142
872.526	3104
872.656	3013
872.785	3116
872.915	3245
873.044	3329
873.173	3268
873.303	3260
873.432	3291
873.561	3249
873.69	3165
873.819	3142
873.948	3218
874.077	3119
874.206	3108
874.335	3077
874.464	3245
874.593	3351
874.722	3279
874.851	3420
874.979	3405
875.108	3374
875.237	3222
875.365	3180
875.494	3214
875.623	3275
875.751	3089
875.88	3142
876.008	3199
876.136	3222
876.265	3389
876.393	3519
876.521	3485
876.65	3370
876.778	3351
876.906	3272
877.034	3211
877.162	3222
877.29	3207
877.418	3230
877.546	3264
877.674	3237
877.802	3291
877.93	3203
878.058	3138
878.185	3142
878.313	3218
878.441	3256
878.568	3104
878.696	3165
878.824	3245
878.951	3291
879.079	3458
879.206	3625
879.333	3447
879.461	3351
879.588	3370
879.715	3492
879.842	3648
879.97	3389
880.097	3203
880.224	3142
880.351	3161
880.478	3241
880.605	3146
880.732	3195
880.859	3504
880.986	3313
881.112	3329
881.239	3214
881.366	3108
881.493	3055
881.619	3051
881.746	3097
881.872	3089
881.999	3104
882.125	3157
882.252	3241
882.378	3275
882.505	3454
882.631	3317
882.757	3195
882.883	3188
883.01	3233
883.136	3176
883.262	3123
883.388	3127
883.514	3344
883.64	3386
883.766	3294
883.892	3192
884.018	3256
884.143	3454
884.269	3542
884.395	3233
884.52	3173
884.646	3241
884.772	3138
884.897	3116
885.023	3211
885.148	3344
885.274	3416
885.399	3351
885.524	3283
885.65	3294
885.775	3310
885.9	3272
886.025	3454
886.15	3374
886.275	3313
886.4	3272
886.525	3310
886.65	3249
886.775	3294
886.9	3534
887.025	3641
887.149	3412
887.274	3237
887.399	3184
887.523	3176
887.648	3161
887.773	3218
887.897	3363
888.021	3443
888.146	3340
888.27	3454
888.395	3523
888.519	3428
888.643	3454
888.767	3492
888.891	3336
889.015	3268
889.139	3302
889.263	3245
889.387	3420
889.511	3511
889.635	3424
889.759	3317
889.883	3313
890.006	3397
890.13	3500
890.254	3260
890.377	3351
890.501	3214
890.624	3195
890.748	3359
890.871	3203
890.995	3116
891.118	3074
891.241	3203
891.364	3256
891.488	3283
891.611	3169
891.734	3195
891.857	3306
891.98	3207
892.103	3310
892.226	3275
892.349	3256
892.471	3100
892.594	3256
892.717	3279
892.839	3298
892.962	3287
893.085	3344
893.207	3294
893.33	3123
893.452	3199
893.575	3348
893.697	3253
893.819	3454
893.941	3507
894.064	3504
894.186	3291
894.308	3249
894.43	3454
894.552	3530
894.674	3496
894.796	3306
894.918	3344
895.04	3287
895.161	3439
895.283	3397
895.405	3302
895.526	3386
895.648	3454
895.769	3458
895.891	3477
896.012	3466
896.134	3469
896.255	3397
896.376	3351
896.498	3340
896.619	3405
896.74	3359
896.861	3412
896.982	3637
897.103	3857
897.224	3606
897.345	3492
897.466	3462
897.587	3511
897.708	3637
897.828	3511
897.949	3435
898.07	3355
898.19	3420
898.311	3580
898.431	3496
898.552	3504
898.672	3572
898.792	3557
898.913	3526
899.033	3420
899.153	3283
899.273	3237
899.393	3310
899.513	3332
899.633	3348
899.753	3344
899.873	3325
899.993	3405
900.113	3355
900.232	3435
900.352	3329
900.472	3294
900.591	3188
900.711	3306
900.83	3245
900.95	3378
901.069	3500
901.189	3374
901.308	3161
901.427	3150
901.546	3199
901.665	3313
901.784	3348
901.904	3188
902.023	3135
902.141	3001
902.26	3001
902.379	3119
902.498	3062
902.617	3051
902.735	3233
902.854	3260
902.973	3195
903.091	3070
903.21	3047
903.328	3154
903.446	3116
903.565	3127
903.683	3211
903.801	3108
903.919	3241
904.038	3291
904.156	3146
904.274	3287
904.392	3260
904.51	3329
904.627	3348
904.745	3450
904.863	3549
904.981	3253
905.098	3184
905.216	3211
905.334	3302
905.451	3317
905.569	3302
905.686	3477
905.803	3466
905.921	3279
906.038	3420
906.155	3374
906.272	3268
906.389	3370
906.506	3233
906.623	3325
906.74	3306
906.857	3199
906.974	3253
907.091	3389
907.208	3564
907.324	3428
907.441	3401
907.557	3260
907.674	3249
907.79	3245
907.907	3294
908.023	3336
908.139	3420
908.256	3298
908.372	3389
908.488	3378
908.604	3222
908.72	3211
908.836	3268
908.952	3291
909.068	3321
909.184	3458
909.3	3412
909.415	3515
909.531	3488
909.647	3332
909.762	3340
909.878	3279
909.993	3348
910.108	3340
910.224	3325
910.339	3397
910.454	3321
910.57	3310
910.685	3241
910.8	3580
910.915	3534
911.03	3462
911.145	3279
911.259	3294
911.374	3321
911.489	3253
911.604	3184
911.718	3116
911.833	3131
911.947	3043
912.062	2956
912.176	3150
912.291	3237
912.405	3180
912.519	3439
912.633	3473
912.748	3329
912.862	3298
912.976	3123
913.09	3066
913.204	3165
913.318	3203
913.431	3332
913.545	3294
913.659	3416
913.772	3317
913.886	3203
914	3222
914.113	3348
914.226	3409
914.34	3428
914.453	3214
914.566	3424
914.68	3306
914.793	3313
914.906	3116
915.019	3131
915.132	3062
915.245	3192
915.358	3176
915.47	3222
915.583	3253
915.696	3298
915.809	3412
915.921	3389
916.034	3245
916.146	3253
916.259	3233
916.371	3409
916.483	3351
916.595	3256
916.708	3332
916.82	3340
916.932	3340
917.044	3382
917.156	3401
917.268	3275
917.38	3340
917.491	3287
917.603	3367
917.715	3454
917.826	3473
917.938	3397
918.049	3291
918.161	3409
918.272	3542
918.384	3542
918.495	3504
918.606	3332
918.717	3268
918.828	3378
918.939	3409
919.05	3302
919.161	3321
919.272	3161
919.383	3283
919.494	3488
919.604	3705
919.715	3500
919.826	3431
919.936	3450
920.047	3580
920.157	3576
920.267	3766
920.378	3614
920.488	3599
920.598	3789
920.708	3983
920.818	3770
920.928	3873
921.038	4021
921.148	4002
921.258	3679
921.368	3663
921.477	3561
921.587	3553
921.697	3458
921.806	3625
921.916	3511
922.025	3389
922.134	3370
922.244	3325
922.353	3424
922.462	3268
922.571	3253
922.68	3097
922.789	3085
922.898	3154
923.007	3089
923.116	3237
923.224	3192
923.333	3169
923.442	3142
923.55	3089
923.659	3138
923.767	3207
923.876	3112
923.984	3237
924.092	3089
924.201	3150
924.309	3218
924.417	3264
924.525	3173
924.633	3211
924.741	4143
924.849	3077
924.956	3283
925.064	3074
925.172	3024
925.279	3097
925.387	3161
925.494	3184
925.602	3359
925.709	3294
925.816	3131
925.924	3291
926.031	3389
926.138	3306
926.245	3355
926.352	3249
926.459	3386
926.566	3458
926.673	3302
926.779	3199
926.886	3222
926.993	3165
927.099	3157
927.206	3108
927.312	3165
927.419	3233
927.525	3195
927.631	3249
927.737	3154
927.843	3119
927.95	3055
928.056	3154
928.162	3165
928.267	3214
928.373	3857
928.479	3329
928.585	3066
928.69	3214
928.796	3260
928.901	3161
929.007	3070
929.112	3203
929.218	3157
929.323	3123
929.428	3142
929.533	3294
929.638	3097
929.743	3195
929.848	3264
929.953	3211
930.058	3142
930.163	3013
930.267	3062
930.372	3180
930.477	3047
930.581	3306
930.685	3188
930.79	3055
930.894	3112
930.998	3131
931.103	3256
931.207	2937
931.311	2937
931.415	2948
931.519	2792
931.623	2804
