Data from test_V78500241_647.txt Node
Date: Fri Mar 25 16:19:41 CST 2022
User: usil
Spectrometer: V785-0024
Trigger mode: 0
Integration Time (sec): 4.000000E-1
Scans to average: 1
Nonlinearity correction enabled: false
Boxcar width: 0
Storing dark spectrum: false
XAxis mode: Wavelengths
Number of Pixels in Spectrum: 1024
>>>>>Begin Spectral Data<<<<<
801.071	2906
801.214	2994
801.356	2902
801.499	2922
801.641	2887
801.783	2948
801.926	3039
802.068	2975
802.211	3001
802.353	3024
802.496	3039
802.638	3028
802.78	3055
802.923	3081
803.065	3024
803.208	2895
803.35	2941
803.492	2960
803.635	2941
803.777	2777
803.919	2918
804.061	3249
804.204	2948
804.346	2922
804.488	2868
804.63	2979
804.773	2872
804.915	2956
805.057	3150
805.199	2899
805.341	2990
805.483	3116
805.626	3032
805.768	2971
805.91	3104
806.052	3100
806.194	3043
806.336	3260
806.478	3001
806.62	2971
806.762	2979
806.904	3039
807.046	3180
807.188	3028
807.33	2952
807.472	3020
807.614	2925
807.756	2971
807.898	2963
808.04	2887
808.182	3039
808.324	2944
808.465	2891
808.607	2883
808.749	2815
808.891	2876
809.033	2998
809.174	2990
809.316	2902
809.458	2880
809.6	2800
809.741	2750
809.883	2800
810.025	2857
810.166	2845
810.308	2864
810.45	2842
810.591	2777
810.733	2785
810.875	2845
811.016	2769
811.158	2743
811.299	2781
811.441	2948
811.582	2902
811.724	2834
811.865	2823
812.007	2922
812.148	2937
812.29	2830
812.431	2937
812.573	2952
812.714	2986
812.855	3062
812.997	3036
813.138	3116
813.279	3009
813.421	2971
813.562	2960
813.703	2895
813.845	2933
813.986	2773
814.127	2743
814.268	2807
814.41	2868
814.551	2853
814.692	2914
814.833	2819
814.974	2922
815.115	2979
815.256	2845
815.397	2804
815.539	2880
815.68	2830
815.821	2804
815.962	2948
816.103	2952
816.244	2883
816.385	2853
816.526	2971
816.666	2883
816.807	2739
816.948	2914
817.089	2906
817.23	2895
817.371	2792
817.512	2777
817.653	2815
817.793	2853
817.934	2872
818.075	2971
818.216	2986
818.356	3028
818.497	2876
818.638	2815
818.778	2815
818.919	2796
819.06	2777
819.2	2861
819.341	2792
819.481	2807
819.622	2941
819.762	3104
819.903	3055
820.043	2929
820.184	2933
820.324	2910
820.465	3047
820.605	2994
820.746	3043
820.886	2918
821.026	3116
821.167	3138
821.307	3294
821.447	3264
821.588	3283
821.728	3230
821.868	3207
822.008	3074
822.149	3180
822.289	3207
822.429	3093
822.569	3097
822.709	3203
822.849	3039
822.99	3085
823.13	3157
823.27	3226
823.41	3157
823.55	3173
823.69	3195
823.83	3176
823.97	3150
824.11	3013
824.25	2971
824.389	3055
824.529	3116
824.669	3100
824.809	3211
824.949	3207
825.089	3241
825.228	3203
825.368	3047
825.508	2986
825.648	2960
825.787	3024
825.927	3036
826.067	2979
826.206	2994
826.346	3051
826.485	3093
826.625	3131
826.765	3264
826.904	3184
827.044	2994
827.183	2948
827.323	2857
827.462	2998
827.601	2910
827.741	2914
827.88	2956
828.02	2868
828.159	2990
828.298	3077
828.437	3104
828.577	3043
828.716	3268
828.855	3051
828.994	2937
829.134	2883
829.273	2933
829.412	2880
829.551	2857
829.69	2952
829.829	2963
829.968	3135
830.107	2982
830.246	3028
830.385	2925
830.524	2880
830.663	2830
830.802	2731
830.941	2648
831.08	2651
831.219	2743
831.357	2792
831.496	2982
831.635	2708
831.774	2667
831.913	2651
832.051	2556
832.19	2579
832.329	2678
832.467	2571
832.606	2488
832.744	2602
832.883	2583
833.022	2579
833.16	2655
833.299	2693
833.437	2701
833.576	2708
833.714	2754
833.852	2724
833.991	2762
834.129	2823
834.267	2823
834.406	2804
834.544	2880
834.682	2891
834.821	2815
834.959	3062
835.097	2899
835.235	3043
835.373	3017
835.511	3013
835.65	2952
835.788	2956
835.926	2838
836.064	2834
836.202	2861
836.34	3074
836.478	3135
836.615	3100
836.753	3123
836.891	3211
837.029	3131
837.167	3131
837.305	3074
837.443	3058
837.58	2960
837.718	3131
837.856	3047
837.993	3032
838.131	3108
838.269	3142
838.406	3089
838.544	3062
838.681	2929
838.819	2967
838.956	2819
839.094	2826
839.231	2883
839.369	3013
839.506	3367
839.643	3211
839.781	3017
839.918	2952
840.055	3043
840.193	3024
840.33	3093
840.467	3070
840.604	3142
840.742	3405
840.879	3058
841.016	3024
841.153	3093
841.29	3321
841.427	3279
841.564	3253
841.701	3321
841.838	3245
841.975	3184
842.112	3249
842.249	3085
842.385	3036
842.522	3260
842.659	3085
842.796	3100
842.933	3055
843.069	3093
843.206	3047
843.343	3154
843.479	3066
843.616	3123
843.752	2922
843.889	2887
844.025	3081
844.162	2868
844.298	3043
844.435	2937
844.571	2956
844.708	3089
844.844	3195
844.98	3245
845.117	3195
845.253	3047
845.389	2994
845.525	3104
845.661	3058
845.798	3032
845.934	3097
846.07	3070
846.206	3233
846.342	3348
846.478	3218
846.614	3089
846.75	3051
846.886	3005
847.022	3253
847.158	3138
847.294	3180
847.429	3279
847.565	3222
847.701	3488
847.837	3043
847.972	3017
848.108	3161
848.244	3150
848.379	2990
848.515	2910
848.65	2925
848.786	2941
848.921	3009
849.057	3108
849.192	3150
849.328	3058
849.463	3131
849.598	3032
849.734	3066
849.869	2971
850.004	2906
850.14	2941
850.275	2922
850.41	2819
850.545	2876
850.68	2933
850.815	2956
850.95	2990
851.085	3188
851.22	3127
851.355	3036
851.49	2971
851.625	3017
851.76	2998
851.895	2952
852.03	2914
852.165	3047
852.299	3112
852.434	3188
852.569	3154
852.703	3169
852.838	3279
852.973	3310
853.107	3363
853.242	3135
853.376	3112
853.511	2975
853.645	3032
853.78	3233
853.914	3119
854.048	3100
854.183	3108
854.317	3138
854.451	3256
854.585	3119
854.72	3070
854.854	3203
854.988	3047
855.122	3123
855.256	2971
855.39	3138
855.524	3180
855.658	3165
855.792	3184
855.926	3184
856.06	3169
856.194	3245
856.327	3184
856.461	3039
856.595	3062
856.729	3081
856.862	3222
856.996	3184
857.13	3169
857.263	3218
857.397	3298
857.53	3093
857.664	3173
857.797	3226
857.931	3207
858.064	3154
858.197	3207
858.331	3131
858.464	3066
858.597	3001
858.731	3123
858.864	3157
858.997	3100
859.13	3180
859.263	3169
859.396	3218
859.529	3077
859.662	3070
859.795	3097
859.928	3142
860.061	3272
860.194	3237
860.327	3093
860.46	3047
860.592	3222
860.725	3253
860.858	3237
860.99	3043
861.123	3043
861.256	3055
861.388	3157
861.521	3945
861.653	2998
861.786	2986
861.918	2971
862.05	3058
862.183	3055
862.315	3165
862.447	3192
862.58	3116
862.712	2937
862.844	2872
862.976	3020
863.108	3001
863.24	3393
863.372	2849
863.504	2967
863.636	2956
863.768	3024
863.9	2933
864.032	2895
864.164	2948
864.296	3009
864.428	3077
864.559	3112
864.691	3024
864.823	3066
864.954	3013
865.086	3055
865.217	2971
865.349	2971
865.48	3024
865.612	2998
865.743	3112
865.875	3001
866.006	2960
866.137	2982
866.269	2952
866.4	2941
866.531	2914
866.662	2830
866.793	2887
866.924	2914
867.055	2948
867.186	2929
867.317	2880
867.448	2864
867.579	2826
867.71	2868
867.841	2819
867.972	2925
868.103	2906
868.233	2868
868.364	2868
868.495	2899
868.625	3097
868.756	3112
868.886	2937
869.017	3005
869.147	3146
869.278	3154
869.408	3055
869.539	2998
869.669	3123
869.799	3047
869.929	3127
870.06	3127
870.19	3336
870.32	3287
870.45	3268
870.58	3351
870.71	3492
870.84	3447
870.97	3313
871.1	3230
871.23	3458
871.36	3431
871.489	3363
871.619	3401
871.749	3424
871.879	3431
872.008	3458
872.138	3348
872.267	3253
872.397	3135
872.526	3100
872.656	2990
872.785	3123
872.915	3249
873.044	3336
873.173	3272
873.303	3268
873.432	3253
873.561	3275
873.69	3176
873.819	3138
873.948	3150
874.077	3108
874.206	3070
874.335	3104
874.464	3241
874.593	3325
874.722	3230
874.851	3374
874.979	3344
875.108	3317
875.237	3199
875.365	3157
875.494	3142
875.623	3199
875.751	3089
875.88	3077
876.008	3203
876.136	3226
876.265	3351
876.393	3526
876.521	3393
876.65	3412
876.778	3313
876.906	3275
877.034	3192
877.162	3233
877.29	3184
877.418	3253
877.546	3253
877.674	3245
877.802	3222
877.93	3192
878.058	3104
878.185	3093
878.313	3192
878.441	3176
878.568	3055
878.696	3180
878.824	3203
878.951	3317
879.079	3466
879.206	3622
879.333	3431
879.461	3329
879.588	3344
879.715	3469
879.842	3568
879.97	3386
880.097	3146
880.224	3123
880.351	3195
880.478	3218
880.605	3199
880.732	3195
880.859	3496
880.986	3294
881.112	3313
881.239	3245
881.366	3104
881.493	3036
881.619	3032
881.746	3074
881.872	3070
881.999	3089
882.125	3161
882.252	3211
882.378	3294
882.505	3401
882.631	3272
882.757	3154
882.883	3218
883.01	3226
883.136	3146
883.262	3093
883.388	3112
883.514	3370
883.64	3355
883.766	3298
883.892	3169
884.018	3233
884.143	3409
884.269	3549
884.395	3165
884.52	3173
884.646	3184
884.772	3146
884.897	3093
885.023	3176
885.148	3317
885.274	3397
885.399	3336
885.524	3253
885.65	3241
885.775	3291
885.9	3253
886.025	3443
886.15	3370
886.275	3275
886.4	3233
886.525	3264
886.65	3272
886.775	3275
886.9	3450
887.025	3667
887.149	3412
887.274	3260
887.399	3199
887.523	3195
887.648	3161
887.773	3176
887.897	3370
888.021	3374
888.146	3279
888.27	3435
888.395	3507
888.519	3428
888.643	3428
888.767	3447
888.891	3317
889.015	3272
889.139	3298
889.263	3253
889.387	3389
889.511	3477
889.635	3435
889.759	3260
889.883	3283
890.006	3355
890.13	3557
890.254	3306
890.377	3348
890.501	3195
890.624	3176
890.748	3275
890.871	3146
890.995	3081
891.118	3062
891.241	3188
891.364	3207
891.488	3332
891.611	3154
891.734	3214
891.857	3241
891.98	3184
892.103	3332
892.226	3287
892.349	3192
892.471	3104
892.594	3264
892.717	3268
892.839	3264
892.962	3279
893.085	3321
893.207	3313
893.33	3131
893.452	3192
893.575	3332
893.697	3237
893.819	3481
893.941	3519
894.064	3439
894.186	3230
894.308	3291
894.43	3450
894.552	3538
894.674	3458
894.796	3268
894.918	3279
895.04	3287
895.161	3416
895.283	3416
895.405	3272
895.526	3363
895.648	3435
895.769	3405
895.891	3401
896.012	3454
896.134	3447
896.255	3382
896.376	3382
896.498	3382
896.619	3428
896.74	3348
896.861	3348
896.982	3667
897.103	3835
897.224	3564
897.345	3504
897.466	3431
897.587	3504
897.708	3587
897.828	3534
897.949	3496
898.07	3306
898.19	3424
898.311	3618
898.431	3469
898.552	3519
898.672	3614
898.792	3564
898.913	3538
899.033	3401
899.153	3279
899.273	3195
899.393	3256
899.513	3325
899.633	3294
899.753	3374
899.873	3306
899.993	3393
900.113	3329
900.232	3355
900.352	3340
900.472	3253
900.591	3226
900.711	3256
900.83	3249
900.95	3378
901.069	3504
901.189	3325
901.308	3199
901.427	3112
901.546	3199
901.665	3253
901.784	3363
901.904	3154
902.023	3142
902.141	3028
902.26	2998
902.379	3085
902.498	3081
902.617	3039
902.735	3157
902.854	3211
902.973	3199
903.091	3036
903.21	3058
903.328	3138
903.446	3123
903.565	3051
903.683	3214
903.801	3104
903.919	3256
904.038	3260
904.156	3157
904.274	3272
904.392	3249
904.51	3264
904.627	3294
904.745	3409
904.863	3454
904.981	3245
905.098	3146
905.216	3245
905.334	3317
905.451	3279
905.569	3291
905.686	3439
905.803	3488
905.921	3268
906.038	3435
906.155	3382
906.272	3310
906.389	3294
906.506	3195
906.623	3256
906.74	3287
906.857	3199
906.974	3245
907.091	3443
907.208	3553
907.324	3447
907.441	3386
907.557	3237
907.674	3199
907.79	3207
907.907	3245
908.023	3367
908.139	3386
908.256	3348
908.372	3344
908.488	3332
908.604	3272
908.72	3233
908.836	3313
908.952	3245
909.068	3325
909.184	3492
909.3	3416
909.415	3496
909.531	3435
909.647	3253
909.762	3260
909.878	3256
909.993	3351
910.108	3340
910.224	3336
910.339	3428
910.454	3351
910.57	3249
910.685	3222
910.8	3557
910.915	3545
911.03	3416
911.145	3233
911.259	3249
911.374	3298
911.489	3211
911.604	3188
911.718	3097
911.833	3131
911.947	3032
912.062	2979
912.176	3154
912.291	3165
912.405	3230
912.519	3439
912.633	3458
912.748	3329
912.862	3302
912.976	3180
913.09	3058
913.204	3116
913.318	3199
913.431	3313
913.545	3386
913.659	3405
913.772	3302
913.886	3207
914	3214
914.113	3340
914.226	3420
914.34	3367
914.453	3199
914.566	3386
914.68	3317
914.793	3321
914.906	3154
915.019	3135
915.132	3093
915.245	3184
915.358	3184
915.47	3222
915.583	3260
915.696	3313
915.809	3416
915.921	3370
916.034	3260
916.146	3245
916.259	3249
916.371	3363
916.483	3382
916.595	3287
916.708	3355
916.82	3317
916.932	3302
917.044	3382
917.156	3370
917.268	3291
917.38	3294
917.491	3294
917.603	3359
917.715	3458
917.826	3447
917.938	3401
918.049	3279
918.161	3469
918.272	3603
918.384	3542
918.495	3481
918.606	3336
918.717	3268
918.828	3370
918.939	3397
919.05	3264
919.161	3336
919.272	3165
919.383	3321
919.494	3500
919.604	3675
919.715	3477
919.826	3401
919.936	3450
920.047	3580
920.157	3576
920.267	3812
920.378	3580
920.488	3587
920.598	3793
920.708	3937
920.818	3781
920.928	3808
921.038	4010
921.148	4032
921.258	3675
921.368	3656
921.477	3549
921.587	3534
921.697	3485
921.806	3625
921.916	3530
922.025	3302
922.134	3359
922.244	3302
922.353	3443
922.462	3272
922.571	3249
922.68	3093
922.789	3070
922.898	3169
923.007	3097
923.116	3180
923.224	3150
923.333	3199
923.442	3123
923.55	3089
923.659	3116
923.767	3233
923.876	3135
923.984	3253
924.092	3108
924.201	3211
924.309	3203
924.417	3222
924.525	3176
924.633	3237
924.741	4021
924.849	3051
924.956	3291
925.064	3116
925.172	3039
925.279	3104
925.387	3195
925.494	3165
925.602	3370
925.709	3291
925.816	3192
925.924	3260
926.031	3409
926.138	3329
926.245	3363
926.352	3233
926.459	3370
926.566	3473
926.673	3279
926.779	3256
926.886	3222
926.993	3104
927.099	3112
927.206	3085
927.312	3074
927.419	3207
927.525	3214
927.631	3268
927.737	3135
927.843	3135
927.95	3028
928.056	3093
928.162	3188
928.267	3237
928.373	3781
928.479	3302
928.585	3051
928.69	3176
928.796	3253
928.901	3176
929.007	3020
929.112	3203
929.218	3184
929.323	3165
929.428	3146
929.533	3302
929.638	3108
929.743	3154
929.848	3237
929.953	3180
930.058	3169
930.163	3005
930.267	3055
930.372	3142
930.477	3009
930.581	3329
930.685	3218
930.79	3039
930.894	3127
930.998	3104
931.103	3306
931.207	2925
931.311	2914
931.415	2910
931.519	2762
931.623	2815
