Data from test_V78500241_709.txt Node
Date: Fri Mar 25 16:20:06 CST 2022
User: usil
Spectrometer: V785-0024
Trigger mode: 0
Integration Time (sec): 4.000000E-1
Scans to average: 1
Nonlinearity correction enabled: false
Boxcar width: 0
Storing dark spectrum: false
XAxis mode: Wavelengths
Number of Pixels in Spectrum: 1024
>>>>>Begin Spectral Data<<<<<
801.071	2948
801.214	2937
801.356	2895
801.499	2902
801.641	2853
801.783	2960
801.926	3036
802.068	2941
802.211	2982
802.353	3024
802.496	2956
802.638	3051
802.78	3055
802.923	3051
803.065	3013
803.208	2944
803.35	2910
803.492	2906
803.635	2922
803.777	2792
803.919	2857
804.061	3195
804.204	2948
804.346	2883
804.488	2826
804.63	2952
804.773	2891
804.915	2929
805.057	3081
805.199	2944
805.341	2967
805.483	3017
805.626	3005
805.768	2971
805.91	3104
806.052	3081
806.194	3024
806.336	3230
806.478	3013
806.62	2971
806.762	2990
806.904	3070
807.046	3157
807.188	2956
807.33	2899
807.472	2967
807.614	2914
807.756	3001
807.898	2933
808.04	2899
808.182	2956
808.324	2971
808.465	2872
808.607	2887
808.749	2781
808.891	2834
809.033	2960
809.174	2979
809.316	2906
809.458	2899
809.6	2781
809.741	2754
809.883	2785
810.025	2830
810.166	2880
810.308	2845
810.45	2842
810.591	2788
810.733	2807
810.875	2834
811.016	2785
811.158	2785
811.299	2796
811.441	2925
811.582	2883
811.724	2811
811.865	2826
812.007	2891
812.148	2910
812.29	2830
812.431	2864
812.573	2963
812.714	2963
812.855	3077
812.997	3047
813.138	3089
813.279	3005
813.421	2986
813.562	2956
813.703	2876
813.845	2906
813.986	2773
814.127	2754
814.268	2819
814.41	2853
814.551	2804
814.692	2887
814.833	2804
814.974	2876
815.115	2948
815.256	2823
815.397	2823
815.539	2849
815.68	2785
815.821	2785
815.962	2933
816.103	2910
816.244	2899
816.385	2872
816.526	2956
816.666	2918
816.807	2708
816.948	2902
817.089	2872
817.23	2857
817.371	2754
817.512	2777
817.653	2834
817.793	2815
817.934	2883
818.075	2982
818.216	2990
818.356	3043
818.497	2864
818.638	2781
818.778	2811
818.919	2762
819.06	2773
819.2	2880
819.341	2819
819.481	2804
819.622	2902
819.762	3093
819.903	3081
820.043	2918
820.184	2914
820.324	2922
820.465	3047
820.605	2967
820.746	2990
820.886	2971
821.026	3077
821.167	3176
821.307	3272
821.447	3291
821.588	3214
821.728	3188
821.868	3192
822.008	3081
822.149	3150
822.289	3214
822.429	3108
822.569	3062
822.709	3188
822.849	2998
822.99	3070
823.13	3135
823.27	3211
823.41	3100
823.55	3157
823.69	3161
823.83	3192
823.97	3097
824.11	3013
824.25	2982
824.389	3024
824.529	3104
824.669	3062
824.809	3173
824.949	3249
825.089	3199
825.228	3165
825.368	2986
825.508	2979
825.648	2944
825.787	2998
825.927	3020
826.067	2982
826.206	2963
826.346	3017
826.485	3062
826.625	3104
826.765	3226
826.904	3218
827.044	2971
827.183	2929
827.323	2861
827.462	2952
827.601	2918
827.741	2960
827.88	2960
828.02	2853
828.159	2941
828.298	3047
828.437	3123
828.577	3036
828.716	3222
828.855	3093
828.994	2899
829.134	2864
829.273	2887
829.412	2891
829.551	2864
829.69	2914
829.829	2982
829.968	3119
830.107	3017
830.246	3028
830.385	2899
830.524	2845
830.663	2826
830.802	2712
830.941	2651
831.08	2636
831.219	2766
831.357	2750
831.496	2944
831.635	2701
831.774	2648
831.913	2617
832.051	2533
832.19	2537
832.329	2655
832.467	2511
832.606	2476
832.744	2568
832.883	2564
833.022	2564
833.16	2655
833.299	2693
833.437	2674
833.576	2705
833.714	2720
833.852	2731
833.991	2746
834.129	2842
834.267	2834
834.406	2796
834.544	2834
834.682	2853
834.821	2861
834.959	3058
835.097	2861
835.235	3077
835.373	2994
835.511	3032
835.65	2937
835.788	2960
835.926	2834
836.064	2819
836.202	2823
836.34	3100
836.478	3161
836.615	3047
836.753	3142
836.891	3203
837.029	3154
837.167	3119
837.305	3066
837.443	3032
837.58	2979
837.718	3131
837.856	3097
837.993	3058
838.131	3123
838.269	3116
838.406	3100
838.544	3062
838.681	2952
838.819	2861
838.956	2804
839.094	2796
839.231	2922
839.369	3032
839.506	3409
839.643	3226
839.781	2990
839.918	2944
840.055	3066
840.193	3024
840.33	3028
840.467	3077
840.604	3108
840.742	3386
840.879	3013
841.016	2994
841.153	3131
841.29	3363
841.427	3272
841.564	3291
841.701	3310
841.838	3230
841.975	3184
842.112	3195
842.249	3074
842.385	3047
842.522	3241
842.659	3074
842.796	2998
842.933	3085
843.069	3024
843.206	3055
843.343	3169
843.479	3123
843.616	3146
843.752	2899
843.889	2887
844.025	3081
844.162	2883
844.298	3104
844.435	2960
844.571	2914
844.708	3032
844.844	3161
844.98	3233
845.117	3203
845.253	3036
845.389	2998
845.525	3097
845.661	3100
845.798	3009
845.934	3123
846.07	3043
846.206	3226
846.342	3359
846.478	3222
846.614	3070
846.75	3036
846.886	3043
847.022	3256
847.158	3135
847.294	3188
847.429	3249
847.565	3249
847.701	3488
847.837	2982
847.972	3005
848.108	3161
848.244	3157
848.379	2979
848.515	2906
848.65	2887
848.786	2952
848.921	3024
849.057	3108
849.192	3173
849.328	3058
849.463	3100
849.598	3020
849.734	3032
849.869	2963
850.004	2952
850.14	2952
850.275	2902
850.41	2842
850.545	2830
850.68	2941
850.815	2941
850.95	2990
851.085	3173
851.22	3043
851.355	3039
851.49	2982
851.625	3039
851.76	3020
851.895	2922
852.03	2910
852.165	3051
852.299	3104
852.434	3165
852.569	3165
852.703	3157
852.838	3245
852.973	3310
853.107	3332
853.242	3112
853.376	3100
853.511	2944
853.645	3047
853.78	3222
853.914	3089
854.048	3093
854.183	3058
854.317	3146
854.451	3291
854.585	3112
854.72	3055
854.854	3195
854.988	3051
855.122	3116
855.256	2975
855.39	3097
855.524	3298
855.658	3161
855.792	3150
855.926	3192
856.06	3211
856.194	3283
856.327	3135
856.461	3055
856.595	3066
856.729	3097
856.862	3207
856.996	3173
857.13	3165
857.263	3207
857.397	3279
857.53	3104
857.664	3176
857.797	3214
857.931	3211
858.064	3154
858.197	3173
858.331	3135
858.464	3093
858.597	2986
858.731	3127
858.864	3123
858.997	3077
859.13	3123
859.263	3173
859.396	3173
859.529	3077
859.662	3051
859.795	3066
859.928	3097
860.061	3226
860.194	3279
860.327	3112
860.46	3100
860.592	3241
860.725	3253
860.858	3226
860.99	3066
861.123	3032
861.256	3074
861.388	3116
861.521	3873
861.653	3024
861.786	3009
861.918	2982
862.05	3047
862.183	3085
862.315	3146
862.447	3176
862.58	3062
862.712	2944
862.844	2876
862.976	3028
863.108	2990
863.24	3431
863.372	2914
863.504	2979
863.636	2956
863.768	2975
863.9	2986
864.032	2933
864.164	2937
864.296	3020
864.428	3089
864.559	3097
864.691	3066
864.823	3058
864.954	3028
865.086	3036
865.217	2982
865.349	2937
865.48	2982
865.612	3013
865.743	3146
865.875	2982
866.006	2906
866.137	2967
866.269	2960
866.4	2929
866.531	2902
866.662	2906
866.793	2857
866.924	2883
867.055	2994
867.186	2883
867.317	2868
867.448	2830
867.579	2842
867.71	2823
867.841	2830
867.972	2880
868.103	2910
868.233	2864
868.364	2857
868.495	2933
868.625	3085
868.756	3142
868.886	2975
869.017	3024
869.147	3199
869.278	3138
869.408	3047
869.539	2998
869.669	3081
869.799	3043
869.929	3127
870.06	3097
870.19	3310
870.32	3253
870.45	3260
870.58	3386
870.71	3397
870.84	3431
870.97	3294
871.1	3249
871.23	3431
871.36	3409
871.489	3348
871.619	3412
871.749	3409
871.879	3435
872.008	3462
872.138	3348
872.267	3249
872.397	3161
872.526	3108
872.656	3009
872.785	3146
872.915	3207
873.044	3287
873.173	3203
873.303	3253
873.432	3249
873.561	3230
873.69	3127
873.819	3169
873.948	3195
874.077	3081
874.206	3051
874.335	3089
874.464	3207
874.593	3321
874.722	3203
874.851	3405
874.979	3348
875.108	3302
875.237	3203
875.365	3142
875.494	3146
875.623	3218
875.751	3074
875.88	3093
876.008	3188
876.136	3230
876.265	3355
876.393	3488
876.521	3378
876.65	3359
876.778	3291
876.906	3241
877.034	3207
877.162	3230
877.29	3184
877.418	3245
877.546	3214
877.674	3245
877.802	3245
877.93	3214
878.058	3154
878.185	3123
878.313	3173
878.441	3192
878.568	3093
878.696	3173
878.824	3195
878.951	3279
879.079	3450
879.206	3633
879.333	3424
879.461	3344
879.588	3363
879.715	3481
879.842	3568
879.97	3420
880.097	3180
880.224	3100
880.351	3207
880.478	3230
880.605	3165
880.732	3203
880.859	3466
880.986	3306
881.112	3313
881.239	3176
881.366	3104
881.493	3043
881.619	3024
881.746	3089
881.872	3066
881.999	3116
882.125	3127
882.252	3249
882.378	3279
882.505	3424
882.631	3294
882.757	3142
882.883	3214
883.01	3256
883.136	3146
883.262	3062
883.388	3066
883.514	3321
883.64	3393
883.766	3272
883.892	3169
884.018	3218
884.143	3431
884.269	3561
884.395	3214
884.52	3146
884.646	3154
884.772	3131
884.897	3077
885.023	3192
885.148	3302
885.274	3393
885.399	3359
885.524	3298
885.65	3253
885.775	3302
885.9	3268
886.025	3469
886.15	3332
886.275	3256
886.4	3222
886.525	3325
886.65	3253
886.775	3317
886.9	3485
887.025	3660
887.149	3378
887.274	3233
887.399	3184
887.523	3214
887.648	3184
887.773	3199
887.897	3374
888.021	3409
888.146	3264
888.27	3447
888.395	3549
888.519	3412
888.643	3435
888.767	3435
888.891	3317
889.015	3226
889.139	3264
889.263	3226
889.387	3367
889.511	3511
889.635	3431
889.759	3272
889.883	3344
890.006	3382
890.13	3466
890.254	3260
890.377	3336
890.501	3195
890.624	3211
890.748	3294
890.871	3195
890.995	3085
891.118	3058
891.241	3214
891.364	3211
891.488	3279
891.611	3188
891.734	3260
891.857	3253
891.98	3207
892.103	3332
892.226	3283
892.349	3237
892.471	3097
892.594	3256
892.717	3260
892.839	3253
892.962	3253
893.085	3389
893.207	3310
893.33	3119
893.452	3218
893.575	3336
893.697	3230
893.819	3443
893.941	3526
894.064	3428
894.186	3253
894.308	3268
894.43	3466
894.552	3500
894.674	3477
894.796	3272
894.918	3310
895.04	3313
895.161	3401
895.283	3351
895.405	3298
895.526	3325
895.648	3439
895.769	3435
895.891	3447
896.012	3435
896.134	3458
896.255	3397
896.376	3374
896.498	3336
896.619	3416
896.74	3370
896.861	3389
896.982	3671
897.103	3797
897.224	3534
897.345	3469
897.466	3416
897.587	3492
897.708	3587
897.828	3542
897.949	3439
898.07	3340
898.19	3397
898.311	3599
898.431	3416
898.552	3504
898.672	3625
898.792	3576
898.913	3526
899.033	3382
899.153	3283
899.273	3207
899.393	3245
899.513	3291
899.633	3291
899.753	3336
899.873	3256
899.993	3336
900.113	3329
900.232	3405
900.352	3340
900.472	3264
900.591	3192
900.711	3298
900.83	3253
900.95	3378
901.069	3469
901.189	3348
901.308	3192
901.427	3104
901.546	3214
901.665	3306
901.784	3283
901.904	3192
902.023	3146
902.141	3043
902.26	2998
902.379	3127
902.498	3043
902.617	3036
902.735	3207
902.854	3222
902.973	3157
903.091	3070
903.21	3070
903.328	3123
903.446	3123
903.565	3108
903.683	3195
903.801	3142
903.919	3249
904.038	3226
904.156	3142
904.274	3287
904.392	3237
904.51	3287
904.627	3272
904.745	3435
904.863	3530
904.981	3283
905.098	3173
905.216	3218
905.334	3260
905.451	3279
905.569	3279
905.686	3397
905.803	3416
905.921	3272
906.038	3401
906.155	3325
906.272	3233
906.389	3294
906.506	3157
906.623	3237
906.74	3237
906.857	3169
906.974	3245
907.091	3450
907.208	3561
907.324	3496
907.441	3382
907.557	3218
907.674	3230
907.79	3169
907.907	3294
908.023	3344
908.139	3344
908.256	3310
908.372	3359
908.488	3370
908.604	3253
908.72	3222
908.836	3287
908.952	3294
909.068	3329
909.184	3466
909.3	3378
909.415	3530
909.531	3450
909.647	3287
909.762	3287
909.878	3249
909.993	3359
910.108	3340
910.224	3344
910.339	3374
910.454	3351
910.57	3298
910.685	3275
910.8	3595
910.915	3549
911.03	3416
911.145	3283
911.259	3264
911.374	3321
911.489	3283
911.604	3226
911.718	3123
911.833	3104
911.947	3024
912.062	2975
912.176	3131
912.291	3184
912.405	3192
912.519	3454
912.633	3450
912.748	3325
912.862	3237
912.976	3146
913.09	3066
913.204	3119
913.318	3203
913.431	3340
913.545	3325
913.659	3416
913.772	3325
913.886	3211
914	3199
914.113	3313
914.226	3393
914.34	3363
914.453	3214
914.566	3424
914.68	3275
914.793	3332
914.906	3150
915.019	3119
915.132	3055
915.245	3203
915.358	3176
915.47	3230
915.583	3279
915.696	3291
915.809	3405
915.921	3416
916.034	3256
916.146	3253
916.259	3211
916.371	3382
916.483	3298
916.595	3253
916.708	3336
916.82	3374
916.932	3363
917.044	3329
917.156	3336
917.268	3275
917.38	3317
917.491	3287
917.603	3344
917.715	3424
917.826	3466
917.938	3397
918.049	3253
918.161	3435
918.272	3534
918.384	3584
918.495	3500
918.606	3340
918.717	3302
918.828	3359
918.939	3389
919.05	3272
919.161	3340
919.272	3180
919.383	3283
919.494	3511
919.604	3682
919.715	3466
919.826	3389
919.936	3447
920.047	3523
920.157	3591
920.267	3743
920.378	3584
920.488	3572
920.598	3774
920.708	3926
920.818	3850
920.928	3850
921.038	4017
921.148	4002
921.258	3690
921.368	3637
921.477	3564
921.587	3519
921.697	3481
921.806	3648
921.916	3553
922.025	3348
922.134	3348
922.244	3298
922.353	3443
922.462	3256
922.571	3192
922.68	3108
922.789	3093
922.898	3150
923.007	3055
923.116	3184
923.224	3161
923.333	3199
923.442	3119
923.55	3081
923.659	3123
923.767	3222
923.876	3066
923.984	3233
924.092	3070
924.201	3184
924.309	3195
924.417	3233
924.525	3203
924.633	3241
924.741	4185
924.849	3074
924.956	3256
925.064	3066
925.172	3055
925.279	3093
925.387	3230
925.494	3180
925.602	3359
925.709	3306
925.816	3161
925.924	3306
926.031	3393
926.138	3302
926.245	3321
926.352	3249
926.459	3389
926.566	3492
926.673	3317
926.779	3245
926.886	3264
926.993	3119
927.099	3138
927.206	3112
927.312	3108
927.419	3218
927.525	3161
927.631	3275
927.737	3154
927.843	3123
927.95	3055
928.056	3138
928.162	3192
928.267	3230
928.373	3838
928.479	3283
928.585	3051
928.69	3192
928.796	3268
928.901	3195
929.007	3062
929.112	3195
929.218	3150
929.323	3138
929.428	3135
929.533	3272
929.638	3108
929.743	3211
929.848	3249
929.953	3230
930.058	3157
930.163	3005
930.267	3047
930.372	3214
930.477	3024
930.581	3321
930.685	3157
930.79	3058
930.894	3104
930.998	3116
931.103	3264
931.207	2906
931.311	2933
931.415	2895
931.519	2788
931.623	2807
