Data from test_V78500241_932.txt Node
Date: Fri Mar 25 16:21:39 CST 2022
User: usil
Spectrometer: V785-0024
Trigger mode: 0
Integration Time (sec): 4.000000E-1
Scans to average: 1
Nonlinearity correction enabled: false
Boxcar width: 0
Storing dark spectrum: false
XAxis mode: Wavelengths
Number of Pixels in Spectrum: 1024
>>>>>Begin Spectral Data<<<<<
801.071	2937
801.214	3017
801.356	2887
801.499	2914
801.641	2937
801.783	2933
801.926	3051
802.068	3005
802.211	3032
802.353	3062
802.496	3005
802.638	3028
802.78	3074
802.923	3089
803.065	3001
803.208	2902
803.35	2895
803.492	2963
803.635	2952
803.777	2804
803.919	2899
804.061	3207
804.204	2979
804.346	2933
804.488	2834
804.63	2971
804.773	2872
804.915	2914
805.057	3104
805.199	2929
805.341	2967
805.483	3074
805.626	2967
805.768	2971
805.91	3089
806.052	3116
806.194	3047
806.336	3237
806.478	3032
806.62	2990
806.762	2990
806.904	3047
807.046	3195
807.188	2998
807.33	2914
807.472	3013
807.614	2922
807.756	2979
807.898	2925
808.04	2952
808.182	2998
808.324	2963
808.465	2937
808.607	2899
808.749	2800
808.891	2830
809.033	2982
809.174	2986
809.316	2914
809.458	2857
809.6	2739
809.741	2796
809.883	2800
810.025	2849
810.166	2864
810.308	2853
810.45	2891
810.591	2800
810.733	2766
810.875	2883
811.016	2777
811.158	2788
811.299	2800
811.441	2963
811.582	2899
811.724	2826
811.865	2853
812.007	2929
812.148	2895
812.29	2880
812.431	2910
812.573	2925
812.714	2960
812.855	3066
812.997	3077
813.138	3127
813.279	3013
813.421	3013
813.562	2941
813.703	2880
813.845	2918
813.986	2769
814.127	2750
814.268	2880
814.41	2853
814.551	2796
814.692	2849
814.833	2834
814.974	2899
815.115	3001
815.256	2823
815.397	2826
815.539	2883
815.68	2792
815.821	2800
815.962	2929
816.103	2925
816.244	2880
816.385	2891
816.526	2998
816.666	2902
816.807	2758
816.948	2899
817.089	2902
817.23	2861
817.371	2792
817.512	2815
817.653	2815
817.793	2838
817.934	2960
818.075	2994
818.216	2982
818.356	3024
818.497	2902
818.638	2830
818.778	2823
818.919	2815
819.06	2800
819.2	2880
819.341	2842
819.481	2777
819.622	2960
819.762	3138
819.903	3032
820.043	2933
820.184	2929
820.324	2914
820.465	3024
820.605	3024
820.746	3066
820.886	2933
821.026	3093
821.167	3165
821.307	3256
821.447	3283
821.588	3230
821.728	3226
821.868	3192
822.008	3074
822.149	3184
822.289	3218
822.429	3074
822.569	3112
822.709	3176
822.849	3058
822.99	3089
823.13	3192
823.27	3195
823.41	3097
823.55	3127
823.69	3138
823.83	3230
823.97	3097
824.11	2982
824.25	3032
824.389	3089
824.529	3138
824.669	3062
824.809	3230
824.949	3233
825.089	3207
825.228	3195
825.368	3051
825.508	2975
825.648	2944
825.787	3047
825.927	3055
826.067	2998
826.206	3013
826.346	3081
826.485	3089
826.625	3123
826.765	3256
826.904	3192
827.044	3013
827.183	2944
827.323	2880
827.462	3032
827.601	2918
827.741	2952
827.88	2952
828.02	2868
828.159	2986
828.298	3051
828.437	3142
828.577	3039
828.716	3245
828.855	3081
828.994	2902
829.134	2891
829.273	2922
829.412	2868
829.551	2838
829.69	2944
829.829	3005
829.968	3123
830.107	3024
830.246	3017
830.385	2929
830.524	2880
830.663	2785
830.802	2754
830.941	2636
831.08	2667
831.219	2800
831.357	2777
831.496	2952
831.635	2716
831.774	2655
831.913	2640
832.051	2530
832.19	2583
832.329	2674
832.467	2556
832.606	2446
832.744	2564
832.883	2602
833.022	2625
833.16	2655
833.299	2667
833.437	2701
833.576	2705
833.714	2689
833.852	2735
833.991	2762
834.129	2842
834.267	2868
834.406	2819
834.544	2895
834.682	2880
834.821	2883
834.959	3055
835.097	2891
835.235	3036
835.373	3001
835.511	3017
835.65	2952
835.788	3001
835.926	2815
836.064	2845
836.202	2868
836.34	3070
836.478	3142
836.615	3005
836.753	3180
836.891	3184
837.029	3165
837.167	3116
837.305	3074
837.443	3039
837.58	2941
837.718	3123
837.856	3077
837.993	3089
838.131	3146
838.269	3093
838.406	3081
838.544	3123
838.681	2948
838.819	2918
838.956	2830
839.094	2857
839.231	2925
839.369	3005
839.506	3374
839.643	3192
839.781	3028
839.918	2967
840.055	3047
840.193	3062
840.33	3077
840.467	3119
840.604	3184
840.742	3370
840.879	3055
841.016	3009
841.153	3104
841.29	3340
841.427	3287
841.564	3275
841.701	3310
841.838	3226
841.975	3188
842.112	3264
842.249	3081
842.385	2994
842.522	3249
842.659	3089
842.796	3047
842.933	3093
843.069	3036
843.206	3043
843.343	3154
843.479	3081
843.616	3157
843.752	2883
843.889	2819
844.025	3070
844.162	2861
844.298	3097
844.435	2933
844.571	2883
844.708	3112
844.844	3184
844.98	3279
845.117	3195
845.253	3047
845.389	2979
845.525	3112
845.661	3089
845.798	3032
845.934	3123
846.07	3077
846.206	3241
846.342	3325
846.478	3211
846.614	3074
846.75	3055
846.886	3020
847.022	3245
847.158	3100
847.294	3214
847.429	3218
847.565	3226
847.701	3496
847.837	3005
847.972	2994
848.108	3135
848.244	3142
848.379	3017
848.515	2937
848.65	2929
848.786	2944
848.921	3036
849.057	3146
849.192	3165
849.328	3039
849.463	3123
849.598	3043
849.734	3005
849.869	2963
850.004	2922
850.14	2956
850.275	2902
850.41	2838
850.545	2891
850.68	2948
850.815	2948
850.95	2994
851.085	3207
851.22	3146
851.355	3055
851.49	2982
851.625	2975
851.76	2982
851.895	2910
852.03	2937
852.165	3020
852.299	3131
852.434	3195
852.569	3135
852.703	3180
852.838	3207
852.973	3321
853.107	3325
853.242	3169
853.376	3093
853.511	2971
853.645	3028
853.78	3222
853.914	3116
854.048	3081
854.183	3100
854.317	3169
854.451	3298
854.585	3112
854.72	3108
854.854	3195
854.988	3066
855.122	3074
855.256	2979
855.39	3097
855.524	3226
855.658	3154
855.792	3142
855.926	3173
856.06	3253
856.194	3283
856.327	3127
856.461	3093
856.595	3089
856.729	3112
856.862	3233
856.996	3184
857.13	3214
857.263	3237
857.397	3264
857.53	3138
857.664	3214
857.797	3218
857.931	3260
858.064	3199
858.197	3214
858.331	3138
858.464	3100
858.597	2998
858.731	3131
858.864	3127
858.997	3077
859.13	3135
859.263	3188
859.396	3173
859.529	3100
859.662	3085
859.795	3051
859.928	3154
860.061	3260
860.194	3294
860.327	3112
860.46	3062
860.592	3230
860.725	3233
860.858	3287
860.99	3097
861.123	3077
861.256	3036
861.388	3180
861.521	3861
861.653	3028
861.786	3001
861.918	2975
862.05	3036
862.183	3104
862.315	3127
862.447	3161
862.58	3066
862.712	2967
862.844	2883
862.976	3036
863.108	3009
863.24	3370
863.372	2864
863.504	3001
863.636	2933
863.768	3001
863.9	2998
864.032	2933
864.164	2952
864.296	2986
864.428	3047
864.559	3104
864.691	3028
864.823	3055
864.954	3020
865.086	3047
865.217	3013
865.349	2971
865.48	2986
865.612	3020
865.743	3165
865.875	2979
866.006	2922
866.137	2982
866.269	2960
866.4	2906
866.531	2937
866.662	2922
866.793	2914
866.924	2864
867.055	2963
867.186	2883
867.317	2891
867.448	2826
867.579	2807
867.71	2861
867.841	2807
867.972	2918
868.103	2899
868.233	2910
868.364	2914
868.495	2902
868.625	3097
868.756	3165
868.886	2956
869.017	3028
869.147	3180
869.278	3184
869.408	3043
869.539	3020
869.669	3138
869.799	3032
869.929	3131
870.06	3123
870.19	3325
870.32	3264
870.45	3279
870.58	3332
870.71	3428
870.84	3443
870.97	3272
871.1	3264
871.23	3473
871.36	3439
871.489	3321
871.619	3370
871.749	3412
871.879	3405
872.008	3481
872.138	3359
872.267	3260
872.397	3135
872.526	3089
872.656	3005
872.785	3097
872.915	3245
873.044	3317
873.173	3230
873.303	3275
873.432	3253
873.561	3241
873.69	3131
873.819	3135
873.948	3188
874.077	3081
874.206	3028
874.335	3074
874.464	3218
874.593	3344
874.722	3241
874.851	3382
874.979	3287
875.108	3336
875.237	3165
875.365	3165
875.494	3131
875.623	3237
875.751	3085
875.88	3089
876.008	3214
876.136	3188
876.265	3386
876.393	3481
876.521	3393
876.65	3393
876.778	3344
876.906	3253
877.034	3184
877.162	3241
877.29	3161
877.418	3264
877.546	3230
877.674	3233
877.802	3245
877.93	3275
878.058	3108
878.185	3081
878.313	3207
878.441	3233
878.568	3074
878.696	3150
878.824	3211
878.951	3272
879.079	3443
879.206	3584
879.333	3431
879.461	3317
879.588	3332
879.715	3443
879.842	3564
879.97	3374
880.097	3161
880.224	3097
880.351	3192
880.478	3199
880.605	3188
880.732	3138
880.859	3454
880.986	3291
881.112	3313
881.239	3180
881.366	3074
881.493	3032
881.619	3009
881.746	3051
881.872	3062
881.999	3104
882.125	3100
882.252	3245
882.378	3306
882.505	3405
882.631	3272
882.757	3135
882.883	3230
883.01	3188
883.136	3157
883.262	3043
883.388	3089
883.514	3317
883.64	3336
883.766	3325
883.892	3180
884.018	3211
884.143	3412
884.269	3553
884.395	3192
884.52	3176
884.646	3154
884.772	3138
884.897	3077
885.023	3211
885.148	3310
885.274	3401
885.399	3340
885.524	3298
885.65	3218
885.775	3321
885.9	3256
886.025	3412
886.15	3378
886.275	3294
886.4	3241
886.525	3325
886.65	3302
886.775	3287
886.9	3504
887.025	3629
887.149	3393
887.274	3233
887.399	3173
887.523	3207
887.648	3207
887.773	3157
887.897	3355
888.021	3428
888.146	3264
888.27	3370
888.395	3511
888.519	3458
888.643	3466
888.767	3435
888.891	3291
889.015	3268
889.139	3291
889.263	3268
889.387	3416
889.511	3496
889.635	3447
889.759	3268
889.883	3241
890.006	3359
890.13	3488
890.254	3253
890.377	3351
890.501	3233
890.624	3180
890.748	3287
890.871	3176
890.995	3104
891.118	3077
891.241	3150
891.364	3180
891.488	3291
891.611	3173
891.734	3207
891.857	3298
891.98	3226
892.103	3355
892.226	3283
892.349	3195
892.471	3154
892.594	3245
892.717	3306
892.839	3256
892.962	3298
893.085	3329
893.207	3279
893.33	3165
893.452	3226
893.575	3348
893.697	3237
893.819	3492
893.941	3523
894.064	3466
894.186	3287
894.308	3279
894.43	3439
894.552	3530
894.674	3492
894.796	3283
894.918	3283
895.04	3298
895.161	3405
895.283	3412
895.405	3313
895.526	3348
895.648	3359
895.769	3450
895.891	3428
896.012	3443
896.134	3424
896.255	3450
896.376	3405
896.498	3340
896.619	3447
896.74	3344
896.861	3409
896.982	3682
897.103	3831
897.224	3580
897.345	3488
897.466	3409
897.587	3473
897.708	3606
897.828	3523
897.949	3416
898.07	3340
898.19	3469
898.311	3564
898.431	3473
898.552	3553
898.672	3584
898.792	3564
898.913	3485
899.033	3370
899.153	3279
899.273	3180
899.393	3298
899.513	3351
899.633	3321
899.753	3348
899.873	3332
899.993	3405
900.113	3302
900.232	3382
900.352	3336
900.472	3283
900.591	3192
900.711	3287
900.83	3230
900.95	3428
901.069	3462
901.189	3332
901.308	3165
901.427	3161
901.546	3180
901.665	3302
901.784	3329
901.904	3203
902.023	3123
902.141	2975
902.26	3005
902.379	3169
902.498	3074
902.617	3051
902.735	3211
902.854	3199
902.973	3161
903.091	3043
903.21	3081
903.328	3127
903.446	3097
903.565	3093
903.683	3184
903.801	3116
903.919	3226
904.038	3264
904.156	3203
904.274	3302
904.392	3253
904.51	3272
904.627	3306
904.745	3439
904.863	3496
904.981	3264
905.098	3169
905.216	3256
905.334	3321
905.451	3294
905.569	3279
905.686	3466
905.803	3454
905.921	3298
906.038	3393
906.155	3321
906.272	3294
906.389	3344
906.506	3192
906.623	3272
906.74	3302
906.857	3199
906.974	3249
907.091	3447
907.208	3553
907.324	3454
907.441	3424
907.557	3222
907.674	3207
907.79	3226
907.907	3241
908.023	3374
908.139	3367
908.256	3336
908.372	3351
908.488	3386
908.604	3260
908.72	3218
908.836	3298
908.952	3298
909.068	3344
909.184	3454
909.3	3359
909.415	3507
909.531	3450
909.647	3298
909.762	3294
909.878	3218
909.993	3340
910.108	3340
910.224	3332
910.339	3412
910.454	3325
910.57	3351
910.685	3253
910.8	3568
910.915	3542
911.03	3389
911.145	3283
911.259	3272
911.374	3348
911.489	3253
911.604	3230
911.718	3135
911.833	3135
911.947	3017
912.062	2956
912.176	3165
912.291	3192
912.405	3157
912.519	3401
912.633	3416
912.748	3321
912.862	3249
912.976	3146
913.09	3039
913.204	3116
913.318	3211
913.431	3336
913.545	3374
913.659	3447
913.772	3329
913.886	3211
914	3169
914.113	3397
914.226	3435
914.34	3367
914.453	3241
914.566	3386
914.68	3294
914.793	3279
914.906	3089
915.019	3119
915.132	3062
915.245	3150
915.358	3230
915.47	3211
915.583	3298
915.696	3268
915.809	3405
915.921	3412
916.034	3279
916.146	3268
916.259	3199
916.371	3382
916.483	3363
916.595	3256
916.708	3367
916.82	3283
916.932	3344
917.044	3355
917.156	3321
917.268	3260
917.38	3279
917.491	3291
917.603	3389
917.715	3469
917.826	3424
917.938	3382
918.049	3264
918.161	3431
918.272	3584
918.384	3595
918.495	3511
918.606	3329
918.717	3283
918.828	3393
918.939	3443
919.05	3321
919.161	3329
919.272	3165
919.383	3264
919.494	3488
919.604	3679
919.715	3447
919.826	3374
919.936	3447
920.047	3572
920.157	3576
920.267	3740
920.378	3591
920.488	3572
920.598	3781
920.708	3956
920.818	3781
920.928	3865
921.038	4017
921.148	4002
921.258	3717
921.368	3682
921.477	3549
921.587	3557
921.697	3447
921.806	3603
921.916	3485
922.025	3374
922.134	3412
922.244	3287
922.353	3454
922.462	3272
922.571	3233
922.68	3093
922.789	3074
922.898	3165
923.007	3100
923.116	3222
923.224	3161
923.333	3192
923.442	3093
923.55	3074
923.659	3131
923.767	3150
923.876	3077
923.984	3245
924.092	3089
924.201	3173
924.309	3218
924.417	3253
924.525	3176
924.633	3241
924.741	4166
924.849	3058
924.956	3218
925.064	3093
925.172	3036
925.279	3112
925.387	3131
925.494	3203
925.602	3370
925.709	3310
925.816	3188
925.924	3272
926.031	3367
926.138	3313
926.245	3363
926.352	3218
926.459	3447
926.566	3466
926.673	3291
926.779	3253
926.886	3230
926.993	3108
927.099	3138
927.206	3085
927.312	3138
927.419	3226
927.525	3203
927.631	3253
927.737	3119
927.843	3135
927.95	3017
928.056	3146
928.162	3173
928.267	3207
928.373	3876
928.479	3294
928.585	3028
928.69	3195
928.796	3298
928.901	3180
929.007	3062
929.112	3222
929.218	3173
929.323	3131
929.428	3142
929.533	3287
929.638	3104
929.743	3207
929.848	3241
929.953	3188
930.058	3150
930.163	2994
930.267	3013
930.372	3226
930.477	2979
930.581	3332
930.685	3173
930.79	3032
930.894	3104
930.998	3100
931.103	3264
931.207	2948
931.311	2948
931.415	2918
931.519	2769
931.623	2785
