Data from test_V78500241_1308.txt Node
Date: Fri Mar 25 16:24:15 CST 2022
User: usil
Spectrometer: V785-0024
Trigger mode: 0
Integration Time (sec): 4.000000E-1
Scans to average: 1
Nonlinearity correction enabled: false
Boxcar width: 0
Storing dark spectrum: false
XAxis mode: Wavelengths
Number of Pixels in Spectrum: 1024
>>>>>Begin Spectral Data<<<<<
801.071	2918
801.214	2952
801.356	2880
801.499	2918
801.641	2868
801.783	2918
801.926	3020
802.068	3009
802.211	3017
802.353	3066
802.496	2982
802.638	3020
802.78	3017
802.923	3135
803.065	3024
803.208	2910
803.35	2906
803.492	2918
803.635	2937
803.777	2758
803.919	2880
804.061	3199
804.204	2979
804.346	2887
804.488	2845
804.63	2963
804.773	2857
804.915	2918
805.057	3085
805.199	2922
805.341	2982
805.483	3047
805.626	2994
805.768	2960
805.91	3100
806.052	3104
806.194	3043
806.336	3253
806.478	3024
806.62	2967
806.762	2960
806.904	3028
807.046	3135
807.188	2982
807.33	2933
807.472	3001
807.614	2922
807.756	2998
807.898	2937
808.04	2861
808.182	2990
808.324	2933
808.465	2883
808.607	2861
808.749	2777
808.891	2857
809.033	2975
809.174	2944
809.316	2899
809.458	2902
809.6	2743
809.741	2746
809.883	2750
810.025	2826
810.166	2861
810.308	2800
810.45	2823
810.591	2739
810.733	2743
810.875	2861
811.016	2785
811.158	2758
811.299	2815
811.441	2906
811.582	2910
811.724	2819
811.865	2834
812.007	2899
812.148	2834
812.29	2883
812.431	2876
812.573	2933
812.714	2986
812.855	3013
812.997	3028
813.138	3108
813.279	2998
813.421	2975
813.562	2948
813.703	2872
813.845	2941
813.986	2758
814.127	2708
814.268	2804
814.41	2807
814.551	2800
814.692	2857
814.833	2815
814.974	2857
815.115	2941
815.256	2823
815.397	2785
815.539	2838
815.68	2758
815.821	2781
815.962	2937
816.103	2914
816.244	2861
816.385	2853
816.526	2956
816.666	2906
816.807	2739
816.948	2864
817.089	2895
817.23	2823
817.371	2743
817.512	2785
817.653	2807
817.793	2811
817.934	2899
818.075	2956
818.216	2956
818.356	2963
818.497	2849
818.638	2773
818.778	2804
818.919	2838
819.06	2773
819.2	2887
819.341	2781
819.481	2788
819.622	2929
819.762	3081
819.903	3039
820.043	2891
820.184	2887
820.324	2857
820.465	3024
820.605	3017
820.746	3024
820.886	2910
821.026	3081
821.167	3146
821.307	3211
821.447	3283
821.588	3222
821.728	3207
821.868	3180
822.008	3085
822.149	3203
822.289	3207
822.429	3097
822.569	3119
822.709	3146
822.849	3062
822.99	3085
823.13	3169
823.27	3192
823.41	3108
823.55	3203
823.69	3157
823.83	3226
823.97	3131
824.11	3036
824.25	3028
824.389	3123
824.529	3146
824.669	3062
824.809	3195
824.949	3272
825.089	3279
825.228	3165
825.368	3028
825.508	3024
825.648	2986
825.787	3032
825.927	3055
826.067	2982
826.206	3017
826.346	3070
826.485	3058
826.625	3135
826.765	3348
826.904	3226
827.044	3051
827.183	2986
827.323	2906
827.462	3020
827.601	2944
827.741	3001
827.88	2971
828.02	2891
828.159	3013
828.298	3062
828.437	3173
828.577	3081
828.716	3241
828.855	3097
828.994	2952
829.134	2925
829.273	2948
829.412	2922
829.551	2880
829.69	2960
829.829	3032
829.968	3146
830.107	3028
830.246	3032
830.385	2952
830.524	2925
830.663	2857
830.802	2769
830.941	2712
831.08	2689
831.219	2804
831.357	2796
831.496	3020
831.635	2766
831.774	2701
831.913	2705
832.051	2583
832.19	2613
832.329	2735
832.467	2575
832.606	2518
832.744	2644
832.883	2613
833.022	2663
833.16	2724
833.299	2724
833.437	2724
833.576	2727
833.714	2777
833.852	2777
833.991	2792
834.129	2876
834.267	2861
834.406	2849
834.544	2895
834.682	2922
834.821	2906
834.959	3097
835.097	2914
835.235	3108
835.373	3039
835.511	3051
835.65	2994
835.788	3001
835.926	2876
836.064	2861
836.202	2864
836.34	3116
836.478	3169
836.615	3062
836.753	3138
836.891	3211
837.029	3184
837.167	3146
837.305	3138
837.443	3100
837.58	3017
837.718	3184
837.856	3116
837.993	3085
838.131	3150
838.269	3138
838.406	3127
838.544	3093
838.681	2941
838.819	2956
838.956	2819
839.094	2845
839.231	2960
839.369	2998
839.506	3443
839.643	3275
839.781	3043
839.918	3005
840.055	3074
840.193	3081
840.33	3135
840.467	3119
840.604	3184
840.742	3424
840.879	3077
841.016	3074
841.153	3123
841.29	3420
841.427	3306
841.564	3329
841.701	3306
841.838	3249
841.975	3184
842.112	3222
842.249	3108
842.385	3085
842.522	3294
842.659	3077
842.796	3085
842.933	3112
843.069	3062
843.206	3093
843.343	3207
843.479	3112
843.616	3180
843.752	2887
843.889	2914
844.025	3085
844.162	2929
844.298	3097
844.435	2960
844.571	2975
844.708	3108
844.844	3211
844.98	3272
845.117	3233
845.253	3100
845.389	3043
845.525	3116
845.661	3070
845.798	3017
845.934	3154
846.07	3077
846.206	3233
846.342	3370
846.478	3287
846.614	3104
846.75	3074
846.886	3039
847.022	3294
847.158	3157
847.294	3245
847.429	3279
847.565	3226
847.701	3538
847.837	3036
847.972	3017
848.108	3218
848.244	3165
848.379	2982
848.515	2948
848.65	3005
848.786	3020
848.921	3077
849.057	3131
849.192	3169
849.328	3131
849.463	3131
849.598	3097
849.734	3055
849.869	3009
850.004	2952
850.14	2982
850.275	2933
850.41	2891
850.545	2895
850.68	2944
850.815	3009
850.95	2971
851.085	3203
851.22	3184
851.355	3032
851.49	3005
851.625	3043
851.76	3009
851.895	3005
852.03	2929
852.165	3036
852.299	3116
852.434	3211
852.569	3142
852.703	3184
852.838	3283
852.973	3359
853.107	3351
853.242	3169
853.376	3104
853.511	3013
853.645	3047
853.78	3291
853.914	3169
854.048	3142
854.183	3112
854.317	3146
854.451	3321
854.585	3154
854.72	3104
854.854	3226
854.988	3066
855.122	3097
855.256	2986
855.39	3131
855.524	3253
855.658	3169
855.792	3142
855.926	3222
856.06	3268
856.194	3275
856.327	3195
856.461	3066
856.595	3146
856.729	3112
856.862	3222
856.996	3203
857.13	3207
857.263	3298
857.397	3294
857.53	3123
857.664	3161
857.797	3260
857.931	3283
858.064	3203
858.197	3253
858.331	3150
858.464	3131
858.597	3043
858.731	3131
858.864	3119
858.997	3127
859.13	3192
859.263	3203
859.396	3214
859.529	3070
859.662	3138
859.795	3036
859.928	3211
860.061	3329
860.194	3287
860.327	3142
860.46	3146
860.592	3241
860.725	3294
860.858	3260
860.99	3123
861.123	3047
861.256	3051
861.388	3157
861.521	3736
861.653	3028
861.786	2986
861.918	3043
862.05	3127
862.183	3142
862.315	3176
862.447	3230
862.58	3085
862.712	2925
862.844	2910
862.976	3070
863.108	3028
863.24	3283
863.372	2906
863.504	2986
863.636	3009
863.768	3001
863.9	2975
864.032	2918
864.164	2925
864.296	3043
864.428	3112
864.559	3123
864.691	3131
864.823	3085
864.954	3062
865.086	3108
865.217	2998
865.349	2960
865.48	3028
865.612	3036
865.743	3195
865.875	3005
866.006	2960
866.137	2986
866.269	2941
866.4	2944
866.531	2956
866.662	2910
866.793	2891
866.924	2880
867.055	2971
867.186	2982
867.317	2922
867.448	2823
867.579	2876
867.71	2876
867.841	2838
867.972	2929
868.103	2960
868.233	2922
868.364	2899
868.495	2895
868.625	3116
868.756	3203
868.886	2994
869.017	3039
869.147	3214
869.278	3184
869.408	3058
869.539	3066
869.669	3104
869.799	3051
869.929	3123
870.06	3085
870.19	3306
870.32	3332
870.45	3310
870.58	3424
870.71	3469
870.84	3481
870.97	3329
871.1	3264
871.23	3496
871.36	3466
871.489	3363
871.619	3378
871.749	3397
871.879	3488
872.008	3500
872.138	3393
872.267	3275
872.397	3173
872.526	3116
872.656	2998
872.785	3116
872.915	3256
873.044	3332
873.173	3241
873.303	3253
873.432	3279
873.561	3222
873.69	3173
873.819	3150
873.948	3207
874.077	3142
874.206	3108
874.335	3077
874.464	3214
874.593	3351
874.722	3249
874.851	3431
874.979	3336
875.108	3310
875.237	3207
875.365	3157
875.494	3157
875.623	3245
875.751	3093
875.88	3169
876.008	3184
876.136	3253
876.265	3359
876.393	3507
876.521	3405
876.65	3401
876.778	3317
876.906	3306
877.034	3192
877.162	3268
877.29	3176
877.418	3256
877.546	3283
877.674	3260
877.802	3241
877.93	3249
878.058	3173
878.185	3146
878.313	3218
878.441	3241
878.568	3081
878.696	3180
878.824	3233
878.951	3325
879.079	3462
879.206	3679
879.333	3397
879.461	3370
879.588	3367
879.715	3515
879.842	3625
879.97	3363
880.097	3150
880.224	3135
880.351	3173
880.478	3233
880.605	3199
880.732	3237
880.859	3511
880.986	3279
881.112	3344
881.239	3199
881.366	3104
881.493	3024
881.619	3013
881.746	3089
881.872	3062
881.999	3173
882.125	3154
882.252	3275
882.378	3268
882.505	3409
882.631	3279
882.757	3157
882.883	3192
883.01	3226
883.136	3150
883.262	3077
883.388	3165
883.514	3336
883.64	3409
883.766	3332
883.892	3233
884.018	3272
884.143	3412
884.269	3564
884.395	3222
884.52	3199
884.646	3222
884.772	3142
884.897	3085
885.023	3241
885.148	3340
885.274	3424
885.399	3363
885.524	3233
885.65	3260
885.775	3351
885.9	3298
886.025	3447
886.15	3370
886.275	3329
886.4	3226
886.525	3329
886.65	3302
886.775	3253
886.9	3504
887.025	3633
887.149	3428
887.274	3249
887.399	3184
887.523	3207
887.648	3218
887.773	3195
887.897	3348
888.021	3378
888.146	3332
888.27	3416
888.395	3530
888.519	3492
888.643	3393
888.767	3542
888.891	3355
889.015	3279
889.139	3287
889.263	3264
889.387	3389
889.511	3549
889.635	3420
889.759	3268
889.883	3256
890.006	3378
890.13	3526
890.254	3264
890.377	3336
890.501	3188
890.624	3154
890.748	3287
890.871	3154
890.995	3097
891.118	3081
891.241	3211
891.364	3222
891.488	3329
891.611	3173
891.734	3260
891.857	3336
891.98	3256
892.103	3344
892.226	3279
892.349	3226
892.471	3104
892.594	3260
892.717	3287
892.839	3233
892.962	3279
893.085	3348
893.207	3283
893.33	3192
893.452	3233
893.575	3374
893.697	3298
893.819	3431
893.941	3500
894.064	3447
894.186	3272
894.308	3294
894.43	3450
894.552	3523
894.674	3469
894.796	3287
894.918	3329
895.04	3298
895.161	3439
895.283	3367
895.405	3306
895.526	3416
895.648	3424
895.769	3412
895.891	3466
896.012	3500
896.134	3500
896.255	3367
896.376	3367
896.498	3382
896.619	3443
896.74	3336
896.861	3397
896.982	3701
897.103	3827
897.224	3595
897.345	3526
897.466	3466
897.587	3492
897.708	3610
897.828	3523
897.949	3439
898.07	3340
898.19	3412
898.311	3614
898.431	3431
898.552	3519
898.672	3595
898.792	3591
898.913	3545
899.033	3420
899.153	3287
899.273	3203
899.393	3317
899.513	3332
899.633	3302
899.753	3321
899.873	3321
899.993	3401
900.113	3336
900.232	3397
900.352	3325
900.472	3310
900.591	3199
900.711	3279
900.83	3253
900.95	3519
901.069	3511
901.189	3367
901.308	3176
901.427	3123
901.546	3218
901.665	3287
901.784	3336
901.904	3211
902.023	3116
902.141	3005
902.26	3013
902.379	3119
902.498	3116
902.617	3047
902.735	3230
902.854	3222
902.973	3195
903.091	3051
903.21	3097
903.328	3131
903.446	3146
903.565	3108
903.683	3211
903.801	3131
903.919	3260
904.038	3275
904.156	3211
904.274	3291
904.392	3230
904.51	3291
904.627	3340
904.745	3409
904.863	3485
904.981	3306
905.098	3146
905.216	3195
905.334	3313
905.451	3268
905.569	3313
905.686	3412
905.803	3466
905.921	3298
906.038	3424
906.155	3313
906.272	3291
906.389	3348
906.506	3222
906.623	3272
906.74	3302
906.857	3214
906.974	3275
907.091	3435
907.208	3561
907.324	3492
907.441	3378
907.557	3218
907.674	3264
907.79	3218
907.907	3291
908.023	3382
908.139	3378
908.256	3332
908.372	3374
908.488	3344
908.604	3222
908.72	3241
908.836	3294
908.952	3298
909.068	3332
909.184	3519
909.3	3378
909.415	3523
909.531	3462
909.647	3253
909.762	3275
909.878	3264
909.993	3393
910.108	3370
910.224	3393
910.339	3363
910.454	3336
910.57	3275
910.685	3256
910.8	3553
910.915	3526
911.03	3431
911.145	3245
911.259	3298
911.374	3283
911.489	3272
911.604	3230
911.718	3127
911.833	3146
911.947	3062
912.062	2990
912.176	3135
912.291	3165
912.405	3188
912.519	3389
912.633	3450
912.748	3344
912.862	3260
912.976	3188
913.09	3062
913.204	3131
913.318	3218
913.431	3370
913.545	3359
913.659	3443
913.772	3329
913.886	3218
914	3207
914.113	3386
914.226	3462
914.34	3351
914.453	3253
914.566	3386
914.68	3321
914.793	3310
914.906	3116
915.019	3116
915.132	3081
915.245	3188
915.358	3233
915.47	3249
915.583	3275
915.696	3313
915.809	3420
915.921	3439
916.034	3283
916.146	3230
916.259	3230
916.371	3401
916.483	3409
916.595	3275
916.708	3348
916.82	3302
916.932	3325
917.044	3370
917.156	3340
917.268	3237
917.38	3302
917.491	3287
917.603	3378
917.715	3450
917.826	3469
917.938	3344
918.049	3226
918.161	3439
918.272	3572
918.384	3561
918.495	3488
918.606	3321
918.717	3253
918.828	3355
918.939	3367
919.05	3275
919.161	3378
919.272	3199
919.383	3287
919.494	3511
919.604	3698
919.715	3477
919.826	3424
919.936	3443
920.047	3591
920.157	3572
920.267	3724
920.378	3595
920.488	3526
920.598	3766
920.708	3937
920.818	3865
920.928	3827
921.038	4006
921.148	3987
921.258	3679
921.368	3606
921.477	3572
921.587	3511
921.697	3439
921.806	3633
921.916	3515
922.025	3355
922.134	3336
922.244	3332
922.353	3428
922.462	3279
922.571	3188
922.68	3108
922.789	3055
922.898	3150
923.007	3077
923.116	3211
923.224	3146
923.333	3176
923.442	3123
923.55	3097
923.659	3112
923.767	3192
923.876	3119
923.984	3214
924.092	3093
924.201	3188
924.309	3199
924.417	3237
924.525	3203
924.633	3241
924.741	4002
924.849	3055
924.956	3272
925.064	3116
925.172	3032
925.279	3123
925.387	3192
925.494	3169
925.602	3389
925.709	3332
925.816	3161
925.924	3256
926.031	3435
926.138	3351
926.245	3325
926.352	3275
926.459	3447
926.566	3447
926.673	3302
926.779	3253
926.886	3245
926.993	3146
927.099	3142
927.206	3116
927.312	3100
927.419	3211
927.525	3188
927.631	3275
927.737	3138
927.843	3123
927.95	3005
928.056	3142
928.162	3188
928.267	3253
928.373	3846
928.479	3321
928.585	3043
928.69	3195
928.796	3256
928.901	3119
929.007	3024
929.112	3203
929.218	3188
929.323	3112
929.428	3150
929.533	3294
929.638	3116
929.743	3165
929.848	3268
929.953	3207
930.058	3131
930.163	2963
930.267	3058
930.372	3207
930.477	3039
930.581	3291
930.685	3150
930.79	3017
930.894	3161
930.998	3093
931.103	3283
931.207	2956
931.311	2937
931.415	2929
931.519	2758
931.623	2796
