Data from test_V78500241_1067.txt Node
Date: Fri Mar 25 16:22:35 CST 2022
User: usil
Spectrometer: V785-0024
Trigger mode: 0
Integration Time (sec): 4.000000E-1
Scans to average: 1
Nonlinearity correction enabled: false
Boxcar width: 0
Storing dark spectrum: false
XAxis mode: Wavelengths
Number of Pixels in Spectrum: 1024
>>>>>Begin Spectral Data<<<<<
801.071	2899
801.214	2963
801.356	2910
801.499	2906
801.641	2925
801.783	2925
801.926	3112
802.068	2986
802.211	3013
802.353	3066
802.496	2990
802.638	3051
802.78	3028
802.923	3047
803.065	3001
803.208	2880
803.35	2906
803.492	2975
803.635	2922
803.777	2769
803.919	2857
804.061	3214
804.204	2986
804.346	2929
804.488	2845
804.63	2998
804.773	2857
804.915	2937
805.057	3081
805.199	2941
805.341	2967
805.483	3036
805.626	2986
805.768	2990
805.91	3085
806.052	3116
806.194	3032
806.336	3287
806.478	3036
806.62	2963
806.762	2986
806.904	3047
807.046	3195
807.188	3005
807.33	2941
807.472	2982
807.614	2895
807.756	2975
807.898	2937
808.04	2887
808.182	2990
808.324	2929
808.465	2880
808.607	2876
808.749	2800
808.891	2845
809.033	2929
809.174	2941
809.316	2861
809.458	2891
809.6	2785
809.741	2769
809.883	2762
810.025	2861
810.166	2876
810.308	2838
810.45	2842
810.591	2766
810.733	2762
810.875	2834
811.016	2785
811.158	2769
811.299	2804
811.441	2902
811.582	2914
811.724	2800
811.865	2849
812.007	2880
812.148	2872
812.29	2853
812.431	2880
812.573	2941
812.714	2922
812.855	3039
812.997	3070
813.138	3089
813.279	3043
813.421	2982
813.562	2994
813.703	2845
813.845	2868
813.986	2804
814.127	2720
814.268	2819
814.41	2868
814.551	2819
814.692	2880
814.833	2807
814.974	2891
815.115	2929
815.256	2838
815.397	2811
815.539	2853
815.68	2769
815.821	2777
815.962	2971
816.103	2918
816.244	2883
816.385	2868
816.526	2979
816.666	2902
816.807	2705
816.948	2880
817.089	2891
817.23	2838
817.371	2781
817.512	2796
817.653	2804
817.793	2766
817.934	2861
818.075	2998
818.216	2994
818.356	3013
818.497	2853
818.638	2792
818.778	2804
818.919	2792
819.06	2754
819.2	2876
819.341	2807
819.481	2796
819.622	2906
819.762	3093
819.903	3009
820.043	2933
820.184	2899
820.324	2914
820.465	2990
820.605	2994
820.746	3036
820.886	2910
821.026	3089
821.167	3165
821.307	3268
821.447	3294
821.588	3230
821.728	3203
821.868	3157
822.008	3070
822.149	3214
822.289	3211
822.429	3058
822.569	3066
822.709	3176
822.849	3051
822.99	3062
823.13	3123
823.27	3180
823.41	3093
823.55	3116
823.69	3165
823.83	3188
823.97	3097
824.11	2990
824.25	2998
824.389	3051
824.529	3104
824.669	3089
824.809	3230
824.949	3245
825.089	3188
825.228	3131
825.368	3032
825.508	2948
825.648	2979
825.787	3036
825.927	3013
826.067	2979
826.206	2952
826.346	3077
826.485	3104
826.625	3176
826.765	3291
826.904	3211
827.044	3024
827.183	2956
827.323	2914
827.462	3005
827.601	2960
827.741	2944
827.88	3009
828.02	2883
828.159	2990
828.298	3047
828.437	3116
828.577	3089
828.716	3298
828.855	3116
828.994	2990
829.134	2933
829.273	2948
829.412	2914
829.551	2918
829.69	2933
829.829	3009
829.968	3192
830.107	3062
830.246	3055
830.385	2944
830.524	2929
830.663	2864
830.802	2758
830.941	2678
831.08	2712
831.219	2815
831.357	2785
831.496	2982
831.635	2758
831.774	2689
831.913	2716
832.051	2583
832.19	2598
832.329	2716
832.467	2552
832.606	2530
832.744	2644
832.883	2610
833.022	2625
833.16	2697
833.299	2727
833.437	2735
833.576	2716
833.714	2754
833.852	2769
833.991	2807
834.129	2864
834.267	2845
834.406	2838
834.544	2887
834.682	2929
834.821	2887
834.959	3089
835.097	2967
835.235	3097
835.373	3028
835.511	3020
835.65	2971
835.788	2994
835.926	2895
836.064	2842
836.202	2876
836.34	3150
836.478	3173
836.615	3066
836.753	3184
836.891	3226
837.029	3180
837.167	3123
837.305	3108
837.443	3081
837.58	2967
837.718	3161
837.856	3100
837.993	3070
838.131	3154
838.269	3146
838.406	3165
838.544	3119
838.681	2963
838.819	2944
838.956	2849
839.094	2849
839.231	2952
839.369	3055
839.506	3409
839.643	3218
839.781	3020
839.918	2998
840.055	3055
840.193	3062
840.33	3112
840.467	3131
840.604	3195
840.742	3447
840.879	3085
841.016	3112
841.153	3180
841.29	3355
841.427	3306
841.564	3313
841.701	3283
841.838	3230
841.975	3203
842.112	3230
842.249	3100
842.385	3081
842.522	3302
842.659	3127
842.796	3119
842.933	3100
843.069	3074
843.206	3051
843.343	3237
843.479	3138
843.616	3176
843.752	2899
843.889	2902
844.025	3142
844.162	2906
844.298	3104
844.435	2948
844.571	2963
844.708	3108
844.844	3173
844.98	3275
845.117	3203
845.253	3093
845.389	3032
845.525	3123
845.661	3123
845.798	3066
845.934	3138
846.07	3074
846.206	3230
846.342	3325
846.478	3272
846.614	3112
846.75	3032
846.886	3058
847.022	3306
847.158	3184
847.294	3230
847.429	3298
847.565	3256
847.701	3477
847.837	3051
847.972	3013
848.108	3180
848.244	3188
848.379	3020
848.515	2986
848.65	2963
848.786	2982
848.921	3043
849.057	3123
849.192	3165
849.328	3123
849.463	3112
849.598	3108
849.734	3074
849.869	2979
850.004	2971
850.14	3001
850.275	2914
850.41	2883
850.545	2933
850.68	2937
850.815	2990
850.95	3009
851.085	3249
851.22	3097
851.355	3051
851.49	3036
851.625	3032
851.76	3039
851.895	2948
852.03	2952
852.165	3070
852.299	3157
852.434	3211
852.569	3195
852.703	3207
852.838	3302
852.973	3393
853.107	3370
853.242	3184
853.376	3104
853.511	2986
853.645	3081
853.78	3283
853.914	3161
854.048	3157
854.183	3112
854.317	3161
854.451	3332
854.585	3157
854.72	3108
854.854	3283
854.988	3089
855.122	3123
855.256	3001
855.39	3161
855.524	3268
855.658	3230
855.792	3173
855.926	3195
856.06	3268
856.194	3291
856.327	3169
856.461	3104
856.595	3131
856.729	3119
856.862	3260
856.996	3199
857.13	3214
857.263	3256
857.397	3291
857.53	3112
857.664	3222
857.797	3264
857.931	3275
858.064	3161
858.197	3218
858.331	3146
858.464	3138
858.597	3039
858.731	3169
858.864	3180
858.997	3119
859.13	3161
859.263	3226
859.396	3226
859.529	3108
859.662	3093
859.795	3047
859.928	3173
860.061	3302
860.194	3298
860.327	3192
860.46	3112
860.592	3230
860.725	3294
860.858	3268
860.99	3169
861.123	3089
861.256	3116
861.388	3154
861.521	3903
861.653	3017
861.786	2963
861.918	3017
862.05	3081
862.183	3093
862.315	3195
862.447	3203
862.58	3119
862.712	2975
862.844	2887
862.976	3043
863.108	3032
863.24	3325
863.372	2918
863.504	2990
863.636	2986
863.768	3032
863.9	2986
864.032	2941
864.164	2960
864.296	3047
864.428	3081
864.559	3123
864.691	3081
864.823	3093
864.954	3051
865.086	3043
865.217	3009
865.349	2960
865.48	2986
865.612	3047
865.743	3173
865.875	2971
866.006	2948
866.137	3001
866.269	2960
866.4	2933
866.531	2982
866.662	2887
866.793	2975
866.924	2922
867.055	2960
867.186	2967
867.317	2925
867.448	2845
867.579	2872
867.71	2853
867.841	2861
867.972	2918
868.103	2902
868.233	2891
868.364	2853
868.495	2952
868.625	3112
868.756	3184
868.886	3028
869.017	3074
869.147	3192
869.278	3203
869.408	3047
869.539	3051
869.669	3112
869.799	3074
869.929	3146
870.06	3127
870.19	3393
870.32	3291
870.45	3283
870.58	3378
870.71	3488
870.84	3424
870.97	3272
871.1	3245
871.23	3538
871.36	3488
871.489	3382
871.619	3431
871.749	3412
871.879	3481
872.008	3504
872.138	3389
872.267	3310
872.397	3188
872.526	3081
872.656	3070
872.785	3104
872.915	3245
873.044	3359
873.173	3264
873.303	3306
873.432	3283
873.561	3253
873.69	3165
873.819	3188
873.948	3203
874.077	3123
874.206	3070
874.335	3085
874.464	3207
874.593	3344
874.722	3298
874.851	3443
874.979	3386
875.108	3329
875.237	3241
875.365	3203
875.494	3195
875.623	3256
875.751	3085
875.88	3093
876.008	3283
876.136	3283
876.265	3409
876.393	3526
876.521	3435
876.65	3424
876.778	3310
876.906	3268
877.034	3211
877.162	3226
877.29	3207
877.418	3272
877.546	3233
877.674	3287
877.802	3264
877.93	3230
878.058	3161
878.185	3135
878.313	3233
878.441	3222
878.568	3138
878.696	3157
878.824	3233
878.951	3329
879.079	3462
879.206	3656
879.333	3492
879.461	3325
879.588	3348
879.715	3500
879.842	3599
879.97	3401
880.097	3180
880.224	3135
880.351	3173
880.478	3268
880.605	3176
880.732	3176
880.859	3496
880.986	3321
881.112	3351
881.239	3203
881.366	3131
881.493	3051
881.619	3051
881.746	3077
881.872	3150
881.999	3119
882.125	3188
882.252	3245
882.378	3321
882.505	3469
882.631	3336
882.757	3195
882.883	3256
883.01	3218
883.136	3176
883.262	3116
883.388	3138
883.514	3378
883.64	3397
883.766	3294
883.892	3226
884.018	3245
884.143	3397
884.269	3549
884.395	3173
884.52	3161
884.646	3184
884.772	3123
884.897	3116
885.023	3222
885.148	3325
885.274	3492
885.399	3336
885.524	3291
885.65	3313
885.775	3325
885.9	3306
886.025	3450
886.15	3393
886.275	3283
886.4	3264
886.525	3329
886.65	3313
886.775	3294
886.9	3488
887.025	3667
887.149	3416
887.274	3313
887.399	3199
887.523	3226
887.648	3211
887.773	3199
887.897	3367
888.021	3435
888.146	3279
888.27	3443
888.395	3557
888.519	3450
888.643	3439
888.767	3466
888.891	3325
889.015	3272
889.139	3351
889.263	3260
889.387	3443
889.511	3485
889.635	3443
889.759	3306
889.883	3302
890.006	3401
890.13	3435
890.254	3279
890.377	3367
890.501	3226
890.624	3176
890.748	3310
890.871	3222
890.995	3097
891.118	3058
891.241	3207
891.364	3245
891.488	3332
891.611	3192
891.734	3291
891.857	3260
891.98	3249
892.103	3386
892.226	3287
892.349	3241
892.471	3138
892.594	3275
892.717	3321
892.839	3268
892.962	3310
893.085	3332
893.207	3310
893.33	3142
893.452	3214
893.575	3359
893.697	3260
893.819	3447
893.941	3515
894.064	3454
894.186	3264
894.308	3268
894.43	3431
894.552	3557
894.674	3477
894.796	3268
894.918	3325
895.04	3298
895.161	3435
895.283	3405
895.405	3340
895.526	3374
895.648	3431
895.769	3466
895.891	3485
896.012	3488
896.134	3473
896.255	3401
896.376	3374
896.498	3355
896.619	3416
896.74	3355
896.861	3416
896.982	3690
897.103	3816
897.224	3625
897.345	3504
897.466	3420
897.587	3488
897.708	3648
897.828	3530
897.949	3447
898.07	3310
898.19	3405
898.311	3599
898.431	3466
898.552	3557
898.672	3618
898.792	3553
898.913	3526
899.033	3447
899.153	3302
899.273	3222
899.393	3294
899.513	3348
899.633	3329
899.753	3340
899.873	3310
899.993	3416
900.113	3317
900.232	3401
900.352	3378
900.472	3310
900.591	3195
900.711	3310
900.83	3256
900.95	3405
901.069	3500
901.189	3382
901.308	3249
901.427	3173
901.546	3249
901.665	3294
901.784	3321
901.904	3233
902.023	3184
902.141	3005
902.26	3005
902.379	3192
902.498	3070
902.617	3077
902.735	3230
902.854	3230
902.973	3180
903.091	3051
903.21	3074
903.328	3157
903.446	3138
903.565	3089
903.683	3195
903.801	3138
903.919	3260
904.038	3275
904.156	3176
904.274	3294
904.392	3283
904.51	3283
904.627	3306
904.745	3420
904.863	3511
904.981	3264
905.098	3180
905.216	3256
905.334	3302
905.451	3275
905.569	3291
905.686	3389
905.803	3500
905.921	3279
906.038	3462
906.155	3386
906.272	3245
906.389	3351
906.506	3249
906.623	3230
906.74	3298
906.857	3165
906.974	3264
907.091	3424
907.208	3580
907.324	3481
907.441	3416
907.557	3226
907.674	3245
907.79	3218
907.907	3264
908.023	3412
908.139	3355
908.256	3313
908.372	3386
908.488	3351
908.604	3321
908.72	3211
908.836	3256
908.952	3279
909.068	3340
909.184	3485
909.3	3416
909.415	3496
909.531	3500
909.647	3294
909.762	3287
909.878	3245
909.993	3386
910.108	3393
910.224	3329
910.339	3416
910.454	3321
910.57	3275
910.685	3279
910.8	3584
910.915	3545
911.03	3469
911.145	3306
911.259	3306
911.374	3313
911.489	3245
911.604	3214
911.718	3097
911.833	3165
911.947	3043
912.062	2979
912.176	3188
912.291	3184
912.405	3214
912.519	3473
912.633	3466
912.748	3332
912.862	3275
912.976	3176
913.09	3039
913.204	3150
913.318	3214
913.431	3344
913.545	3332
913.659	3412
913.772	3306
913.886	3226
914	3222
914.113	3344
914.226	3405
914.34	3405
914.453	3188
914.566	3401
914.68	3291
914.793	3344
914.906	3154
915.019	3146
915.132	3062
915.245	3180
915.358	3241
915.47	3218
915.583	3226
915.696	3302
915.809	3431
915.921	3397
916.034	3256
916.146	3249
916.259	3218
916.371	3409
916.483	3351
916.595	3275
916.708	3310
916.82	3351
916.932	3351
917.044	3287
917.156	3321
917.268	3275
917.38	3336
917.491	3298
917.603	3374
917.715	3454
917.826	3473
917.938	3370
918.049	3245
918.161	3412
918.272	3572
918.384	3545
918.495	3454
918.606	3355
918.717	3283
918.828	3370
918.939	3439
919.05	3268
919.161	3374
919.272	3180
919.383	3264
919.494	3526
919.604	3675
919.715	3481
919.826	3378
919.936	3447
920.047	3614
920.157	3576
920.267	3808
920.378	3622
920.488	3591
920.598	3774
920.708	3953
920.818	3819
920.928	3861
921.038	4029
921.148	3983
921.258	3717
921.368	3660
921.477	3576
921.587	3584
921.697	3469
921.806	3618
921.916	3507
922.025	3382
922.134	3409
922.244	3256
922.353	3393
922.462	3241
922.571	3195
922.68	3131
922.789	3070
922.898	3165
923.007	3108
923.116	3207
923.224	3184
923.333	3184
923.442	3104
923.55	3085
923.659	3127
923.767	3233
923.876	3112
923.984	3260
924.092	3146
924.201	3199
924.309	3214
924.417	3260
924.525	3135
924.633	3241
924.741	4147
924.849	3066
924.956	3302
925.064	3119
925.172	3024
925.279	3131
925.387	3195
925.494	3199
925.602	3386
925.709	3340
925.816	3188
925.924	3313
926.031	3405
926.138	3344
926.245	3405
926.352	3241
926.459	3439
926.566	3485
926.673	3310
926.779	3230
926.886	3291
926.993	3192
927.099	3112
927.206	3093
927.312	3097
927.419	3233
927.525	3199
927.631	3340
927.737	3157
927.843	3157
927.95	3036
928.056	3142
928.162	3192
928.267	3237
928.373	3869
928.479	3321
928.585	3070
928.69	3214
928.796	3264
928.901	3169
929.007	3028
929.112	3188
929.218	3173
929.323	3104
929.428	3180
929.533	3321
929.638	3104
929.743	3146
929.848	3237
929.953	3222
930.058	3142
930.163	3020
930.267	3047
930.372	3203
930.477	3013
930.581	3317
930.685	3146
930.79	3062
930.894	3138
930.998	3066
931.103	3321
931.207	2944
931.311	2956
931.415	2902
931.519	2766
931.623	2830
