Data from test_V78500241_1471.txt Node
Date: Fri Mar 25 16:25:23 CST 2022
User: usil
Spectrometer: V785-0024
Trigger mode: 0
Integration Time (sec): 4.000000E-1
Scans to average: 1
Nonlinearity correction enabled: false
Boxcar width: 0
Storing dark spectrum: false
XAxis mode: Wavelengths
Number of Pixels in Spectrum: 1024
>>>>>Begin Spectral Data<<<<<
801.071	2956
801.214	3009
801.356	2941
801.499	2971
801.641	2880
801.783	2941
801.926	3112
802.068	3013
802.211	3043
802.353	3081
802.496	2994
802.638	3017
802.78	3043
802.923	3119
803.065	3062
803.208	2963
803.35	2933
803.492	2975
803.635	2967
803.777	2766
803.919	2925
804.061	3211
804.204	2941
804.346	2956
804.488	2876
804.63	3005
804.773	2918
804.915	2918
805.057	3131
805.199	2979
805.341	3020
805.483	3097
805.626	3017
805.768	2994
805.91	3093
806.052	3138
806.194	3066
806.336	3218
806.478	3039
806.62	2963
806.762	2998
806.904	3058
807.046	3165
807.188	3055
807.33	2922
807.472	2979
807.614	2910
807.756	3009
807.898	2960
808.04	2952
808.182	3001
808.324	2979
808.465	2891
808.607	2872
808.749	2838
808.891	2861
809.033	3009
809.174	3009
809.316	2918
809.458	2941
809.6	2834
809.741	2781
809.883	2762
810.025	2880
810.166	2876
810.308	2861
810.45	2830
810.591	2815
810.733	2750
810.875	2853
811.016	2777
811.158	2785
811.299	2826
811.441	2960
811.582	2914
811.724	2842
811.865	2842
812.007	2914
812.148	2864
812.29	2826
812.431	2922
812.573	2979
812.714	2956
812.855	3028
812.997	3104
813.138	3131
813.279	3005
813.421	3032
813.562	2956
813.703	2883
813.845	2910
813.986	2788
814.127	2762
814.268	2861
814.41	2868
814.551	2815
814.692	2876
814.833	2834
814.974	2895
815.115	2963
815.256	2853
815.397	2853
815.539	2842
815.68	2769
815.821	2800
815.962	2971
816.103	2956
816.244	2887
816.385	2872
816.526	2975
816.666	2933
816.807	2754
816.948	2914
817.089	2937
817.23	2876
817.371	2781
817.512	2785
817.653	2842
817.793	2842
817.934	2899
818.075	3009
818.216	3017
818.356	3013
818.497	2925
818.638	2792
818.778	2823
818.919	2842
819.06	2800
819.2	2902
819.341	2819
819.481	2819
819.622	2922
819.762	3081
819.903	3055
820.043	2956
820.184	2883
820.324	2880
820.465	3074
820.605	3020
820.746	3013
820.886	2941
821.026	3058
821.167	3176
821.307	3241
821.447	3298
821.588	3249
821.728	3264
821.868	3218
822.008	3062
822.149	3222
822.289	3249
822.429	3116
822.569	3089
822.709	3173
822.849	3062
822.99	3081
823.13	3154
823.27	3199
823.41	3123
823.55	3108
823.69	3157
823.83	3241
823.97	3104
824.11	3058
824.25	3017
824.389	3089
824.529	3161
824.669	3074
824.809	3230
824.949	3256
825.089	3214
825.228	3176
825.368	3024
825.508	2948
825.648	2971
825.787	3074
825.927	3047
826.067	2982
826.206	2979
826.346	3077
826.485	3085
826.625	3116
826.765	3291
826.904	3222
827.044	3017
827.183	2918
827.323	2849
827.462	3001
827.601	2960
827.741	2948
827.88	2925
828.02	2883
828.159	3009
828.298	3039
828.437	3142
828.577	3055
828.716	3214
828.855	3066
828.994	2937
829.134	2891
829.273	2933
829.412	2883
829.551	2842
829.69	2899
829.829	3017
829.968	3138
830.107	2982
830.246	3013
830.385	2922
830.524	2922
830.663	2834
830.802	2720
830.941	2678
831.08	2670
831.219	2792
831.357	2766
831.496	2990
831.635	2735
831.774	2663
831.913	2686
832.051	2564
832.19	2606
832.329	2689
832.467	2533
832.606	2492
832.744	2602
832.883	2594
833.022	2583
833.16	2655
833.299	2716
833.437	2667
833.576	2701
833.714	2743
833.852	2705
833.991	2766
834.129	2868
834.267	2838
834.406	2819
834.544	2880
834.682	2891
834.821	2876
834.959	3066
835.097	2906
835.235	3089
835.373	3024
835.511	3066
835.65	2933
835.788	2922
835.926	2842
836.064	2838
836.202	2880
836.34	3104
836.478	3169
836.615	3051
836.753	3142
836.891	3207
837.029	3176
837.167	3135
837.305	3066
837.443	3100
837.58	2956
837.718	3131
837.856	3062
837.993	3058
838.131	3108
838.269	3093
838.406	3100
838.544	3070
838.681	2952
838.819	2929
838.956	2804
839.094	2838
839.231	2937
839.369	3043
839.506	3386
839.643	3218
839.781	3036
839.918	2952
840.055	3047
840.193	3036
840.33	3074
840.467	3100
840.604	3116
840.742	3405
840.879	3081
841.016	3039
841.153	3116
841.29	3329
841.427	3317
841.564	3279
841.701	3298
841.838	3192
841.975	3249
842.112	3226
842.249	3074
842.385	3070
842.522	3275
842.659	3066
842.796	3077
842.933	3116
843.069	3036
843.206	3032
843.343	3157
843.479	3089
843.616	3127
843.752	2933
843.889	2868
844.025	3093
844.162	2891
844.298	3066
844.435	2941
844.571	2891
844.708	3066
844.844	3173
844.98	3214
845.117	3203
845.253	3043
845.389	2998
845.525	3127
845.661	3066
845.798	3036
845.934	3116
846.07	3066
846.206	3226
846.342	3272
846.478	3230
846.614	3070
846.75	3062
846.886	3020
847.022	3260
847.158	3127
847.294	3230
847.429	3230
847.565	3184
847.701	3481
847.837	3043
847.972	3009
848.108	3207
848.244	3165
848.379	3009
848.515	2986
848.65	2925
848.786	2956
848.921	2982
849.057	3100
849.192	3169
849.328	3039
849.463	3100
849.598	3058
849.734	3032
849.869	2979
850.004	2933
850.14	2990
850.275	2937
850.41	2834
850.545	2883
850.68	2952
850.815	2986
850.95	3013
851.085	3184
851.22	3104
851.355	3001
851.49	2952
851.625	3017
851.76	3039
851.895	2883
852.03	2922
852.165	3036
852.299	3150
852.434	3165
852.569	3157
852.703	3154
852.838	3272
852.973	3298
853.107	3332
853.242	3142
853.376	3070
853.511	2971
853.645	3066
853.78	3241
853.914	3146
854.048	3131
854.183	3097
854.317	3127
854.451	3279
854.585	3116
854.72	3108
854.854	3195
854.988	3032
855.122	3077
855.256	2944
855.39	3108
855.524	3275
855.658	3192
855.792	3180
855.926	3199
856.06	3230
856.194	3279
856.327	3135
856.461	3077
856.595	3043
856.729	3108
856.862	3203
856.996	3157
857.13	3214
857.263	3218
857.397	3283
857.53	3085
857.664	3180
857.797	3256
857.931	3230
858.064	3161
858.197	3260
858.331	3135
858.464	3085
858.597	2998
858.731	3097
858.864	3142
858.997	3066
859.13	3157
859.263	3146
859.396	3188
859.529	3085
859.662	3146
859.795	3058
859.928	3131
860.061	3279
860.194	3260
860.327	3100
860.46	3058
860.592	3226
860.725	3298
860.858	3249
860.99	3062
861.123	3081
861.256	3055
861.388	3123
861.521	3838
861.653	2986
861.786	2986
861.918	2986
862.05	3081
862.183	3112
862.315	3150
862.447	3161
862.58	3062
862.712	2937
862.844	2845
862.976	2994
863.108	2986
863.24	3279
863.372	2891
863.504	2948
863.636	2948
863.768	3039
863.9	3005
864.032	2914
864.164	2982
864.296	3005
864.428	3097
864.559	3108
864.691	3062
864.823	3077
864.954	3051
865.086	3066
865.217	2960
865.349	2952
865.48	2994
865.612	2990
865.743	3169
865.875	2994
866.006	2948
866.137	2922
866.269	2960
866.4	2948
866.531	2975
866.662	2883
866.793	2899
866.924	2906
867.055	2979
867.186	2925
867.317	2857
867.448	2823
867.579	2807
867.71	2849
867.841	2788
867.972	2899
868.103	2876
868.233	2876
868.364	2895
868.495	2883
868.625	3081
868.756	3146
868.886	2963
869.017	3005
869.147	3146
869.278	3157
869.408	3036
869.539	3009
869.669	3066
869.799	3085
869.929	3123
870.06	3100
870.19	3306
870.32	3294
870.45	3313
870.58	3340
870.71	3443
870.84	3435
870.97	3310
871.1	3241
871.23	3481
871.36	3488
871.489	3351
871.619	3428
871.749	3409
871.879	3443
872.008	3500
872.138	3340
872.267	3264
872.397	3165
872.526	3146
872.656	2986
872.785	3097
872.915	3226
873.044	3351
873.173	3207
873.303	3260
873.432	3264
873.561	3256
873.69	3127
873.819	3176
873.948	3192
874.077	3108
874.206	3013
874.335	3066
874.464	3195
874.593	3310
874.722	3275
874.851	3416
874.979	3351
875.108	3298
875.237	3176
875.365	3161
875.494	3180
875.623	3272
875.751	3074
875.88	3093
876.008	3169
876.136	3226
876.265	3397
876.393	3485
876.521	3397
876.65	3374
876.778	3344
876.906	3260
877.034	3218
877.162	3230
877.29	3173
877.418	3245
877.546	3218
877.674	3249
877.802	3253
877.93	3214
878.058	3108
878.185	3085
878.313	3226
878.441	3211
878.568	3081
878.696	3154
878.824	3233
878.951	3268
879.079	3435
879.206	3610
879.333	3431
879.461	3302
879.588	3348
879.715	3435
879.842	3595
879.97	3405
880.097	3142
880.224	3142
880.351	3192
880.478	3207
880.605	3199
880.732	3233
880.859	3504
880.986	3283
881.112	3321
881.239	3207
881.366	3077
881.493	3043
881.619	3036
881.746	3058
881.872	3077
881.999	3077
882.125	3154
882.252	3256
882.378	3287
882.505	3435
882.631	3287
882.757	3138
882.883	3249
883.01	3222
883.136	3173
883.262	3097
883.388	3100
883.514	3294
883.64	3382
883.766	3310
883.892	3180
884.018	3245
884.143	3409
884.269	3530
884.395	3233
884.52	3146
884.646	3173
884.772	3135
884.897	3112
885.023	3176
885.148	3344
885.274	3401
885.399	3370
885.524	3241
885.65	3241
885.775	3321
885.9	3291
886.025	3439
886.15	3351
886.275	3321
886.4	3226
886.525	3313
886.65	3283
886.775	3306
886.9	3511
887.025	3622
887.149	3409
887.274	3226
887.399	3188
887.523	3203
887.648	3169
887.773	3180
887.897	3370
888.021	3397
888.146	3317
888.27	3454
888.395	3488
888.519	3435
888.643	3431
888.767	3450
888.891	3351
889.015	3237
889.139	3287
889.263	3218
889.387	3409
889.511	3561
889.635	3412
889.759	3222
889.883	3279
890.006	3370
890.13	3481
890.254	3272
890.377	3409
890.501	3184
890.624	3165
890.748	3287
890.871	3192
890.995	3100
891.118	3047
891.241	3199
891.364	3230
891.488	3264
891.611	3154
891.734	3241
891.857	3321
891.98	3245
892.103	3321
892.226	3279
892.349	3218
892.471	3093
892.594	3260
892.717	3268
892.839	3249
892.962	3272
893.085	3348
893.207	3378
893.33	3146
893.452	3214
893.575	3344
893.697	3245
893.819	3450
893.941	3492
894.064	3412
894.186	3249
894.308	3256
894.43	3416
894.552	3530
894.674	3485
894.796	3260
894.918	3348
895.04	3283
895.161	3393
895.283	3321
895.405	3298
895.526	3325
895.648	3412
895.769	3412
895.891	3477
896.012	3454
896.134	3488
896.255	3428
896.376	3401
896.498	3374
896.619	3435
896.74	3336
896.861	3386
896.982	3717
897.103	3823
897.224	3584
897.345	3523
897.466	3439
897.587	3504
897.708	3652
897.828	3561
897.949	3500
898.07	3332
898.19	3393
898.311	3572
898.431	3439
898.552	3526
898.672	3561
898.792	3568
898.913	3462
899.033	3397
899.153	3264
899.273	3268
899.393	3294
899.513	3321
899.633	3332
899.753	3302
899.873	3291
899.993	3367
900.113	3348
900.232	3374
900.352	3306
900.472	3310
900.591	3176
900.711	3302
900.83	3249
900.95	3428
901.069	3504
901.189	3370
901.308	3226
901.427	3112
901.546	3207
901.665	3260
901.784	3294
901.904	3188
902.023	3135
902.141	3058
902.26	2990
902.379	3123
902.498	3077
902.617	3074
902.735	3207
902.854	3230
902.973	3173
903.091	3055
903.21	3070
903.328	3119
903.446	3127
903.565	3108
903.683	3184
903.801	3127
903.919	3253
904.038	3264
904.156	3142
904.274	3260
904.392	3256
904.51	3298
904.627	3306
904.745	3401
904.863	3507
904.981	3272
905.098	3176
905.216	3241
905.334	3298
905.451	3306
905.569	3351
905.686	3454
905.803	3409
905.921	3302
906.038	3401
906.155	3386
906.272	3245
906.389	3351
906.506	3207
906.623	3226
906.74	3287
906.857	3169
906.974	3214
907.091	3420
907.208	3542
907.324	3466
907.441	3370
907.557	3230
907.674	3214
907.79	3249
907.907	3256
908.023	3401
908.139	3386
908.256	3313
908.372	3378
908.488	3332
908.604	3241
908.72	3237
908.836	3294
908.952	3302
909.068	3344
909.184	3477
909.3	3355
909.415	3515
909.531	3458
909.647	3306
909.762	3298
909.878	3241
909.993	3374
910.108	3325
910.224	3332
910.339	3370
910.454	3275
910.57	3306
910.685	3241
910.8	3595
910.915	3481
911.03	3443
911.145	3256
911.259	3256
911.374	3287
911.489	3211
911.604	3176
911.718	3116
911.833	3146
911.947	3043
912.062	2990
912.176	3165
912.291	3207
912.405	3203
912.519	3420
912.633	3450
912.748	3325
912.862	3272
912.976	3161
913.09	3074
913.204	3157
913.318	3218
913.431	3332
913.545	3340
913.659	3409
913.772	3351
913.886	3199
914	3230
914.113	3382
914.226	3344
914.34	3344
914.453	3226
914.566	3397
914.68	3294
914.793	3302
914.906	3116
915.019	3108
915.132	3074
915.245	3184
915.358	3188
915.47	3233
915.583	3230
915.696	3310
915.809	3401
915.921	3420
916.034	3260
916.146	3233
916.259	3245
916.371	3355
916.483	3355
916.595	3291
916.708	3294
916.82	3279
916.932	3359
917.044	3344
917.156	3351
917.268	3272
917.38	3256
917.491	3279
917.603	3351
917.715	3428
917.826	3462
917.938	3378
918.049	3313
918.161	3431
918.272	3557
918.384	3545
918.495	3462
918.606	3321
918.717	3275
918.828	3378
918.939	3416
919.05	3329
919.161	3397
919.272	3203
919.383	3294
919.494	3530
919.604	3694
919.715	3500
919.826	3397
919.936	3412
920.047	3580
920.157	3530
920.267	3709
920.378	3591
920.488	3568
920.598	3747
920.708	3968
920.818	3808
920.928	3808
921.038	3987
921.148	3994
921.258	3656
921.368	3644
921.477	3633
921.587	3530
921.697	3462
921.806	3580
921.916	3507
922.025	3355
922.134	3313
922.244	3359
922.353	3409
922.462	3313
922.571	3203
922.68	3119
922.789	3081
922.898	3104
923.007	3070
923.116	3207
923.224	3157
923.333	3176
923.442	3097
923.55	3081
923.659	3119
923.767	3203
923.876	3123
923.984	3214
924.092	3108
924.201	3203
924.309	3214
924.417	3245
924.525	3199
924.633	3195
924.741	4124
924.849	3055
924.956	3260
925.064	3127
925.172	3009
925.279	3077
925.387	3211
925.494	3176
925.602	3382
925.709	3310
925.816	3165
925.924	3283
926.031	3378
926.138	3313
926.245	3321
926.352	3211
926.459	3340
926.566	3450
926.673	3302
926.779	3249
926.886	3237
926.993	3157
927.099	3131
927.206	3154
927.312	3119
927.419	3214
927.525	3218
927.631	3283
927.737	3131
927.843	3112
927.95	3062
928.056	3112
928.162	3188
928.267	3237
928.373	3740
928.479	3268
928.585	3077
928.69	3203
928.796	3325
928.901	3157
929.007	3058
929.112	3226
929.218	3176
929.323	3165
929.428	3176
929.533	3256
929.638	3119
929.743	3188
929.848	3272
929.953	3199
930.058	3104
930.163	2994
930.267	3051
930.372	3180
930.477	3024
930.581	3310
930.685	3192
930.79	3051
930.894	3119
930.998	3085
931.103	3283
931.207	2933
931.311	2922
931.415	2910
931.519	2777
931.623	2807
