Data from test_V78500241_631.txt Node
Date: Fri Mar 25 16:19:34 CST 2022
User: usil
Spectrometer: V785-0024
Trigger mode: 0
Integration Time (sec): 4.000000E-1
Scans to average: 1
Nonlinearity correction enabled: false
Boxcar width: 0
Storing dark spectrum: false
XAxis mode: Wavelengths
Number of Pixels in Spectrum: 1024
>>>>>Begin Spectral Data<<<<<
801.071	2880
801.214	2925
801.356	2883
801.499	2967
801.641	2883
801.783	2914
801.926	3036
802.068	2960
802.211	3024
802.353	3051
802.496	2952
802.638	3036
802.78	3066
802.923	3066
803.065	2979
803.208	2906
803.35	2922
803.492	2929
803.635	2929
803.777	2762
803.919	2834
804.061	3245
804.204	2914
804.346	2944
804.488	2819
804.63	2998
804.773	2872
804.915	2918
805.057	3104
805.199	2914
805.341	2963
805.483	3036
805.626	3013
805.768	2925
805.91	3119
806.052	3123
806.194	3043
806.336	3226
806.478	3013
806.62	2960
806.762	2979
806.904	3066
807.046	3150
807.188	2960
807.33	2914
807.472	3017
807.614	2944
807.756	2986
807.898	2914
808.04	2845
808.182	2956
808.324	2963
808.465	2906
808.607	2857
808.749	2826
808.891	2883
809.033	2986
809.174	2960
809.316	2864
809.458	2895
809.6	2792
809.741	2766
809.883	2769
810.025	2842
810.166	2868
810.308	2838
810.45	2834
810.591	2788
810.733	2781
810.875	2861
811.016	2796
811.158	2781
811.299	2845
811.441	2933
811.582	2891
811.724	2834
811.865	2853
812.007	2910
812.148	2853
812.29	2811
812.431	2895
812.573	2963
812.714	3001
812.855	3047
812.997	3043
813.138	3108
813.279	3024
813.421	2994
813.562	2929
813.703	2864
813.845	2880
813.986	2766
814.127	2705
814.268	2826
814.41	2842
814.551	2792
814.692	2842
814.833	2804
814.974	2883
815.115	2971
815.256	2826
815.397	2811
815.539	2842
815.68	2777
815.821	2769
815.962	2910
816.103	2933
816.244	2880
816.385	2842
816.526	2941
816.666	2922
816.807	2762
816.948	2857
817.089	2891
817.23	2849
817.371	2777
817.512	2788
817.653	2853
817.793	2804
817.934	2861
818.075	2963
818.216	3028
818.356	3013
818.497	2887
818.638	2796
818.778	2834
818.919	2815
819.06	2754
819.2	2895
819.341	2773
819.481	2815
819.622	2944
819.762	3104
819.903	3062
820.043	2929
820.184	2876
820.324	2899
820.465	3020
820.605	3017
820.746	3020
820.886	2941
821.026	3100
821.167	3116
821.307	3245
821.447	3268
821.588	3222
821.728	3195
821.868	3199
822.008	3062
822.149	3184
822.289	3241
822.429	3116
822.569	3070
822.709	3165
822.849	3020
822.99	3058
823.13	3150
823.27	3230
823.41	3104
823.55	3131
823.69	3157
823.83	3165
823.97	3081
824.11	3020
824.25	2967
824.389	3081
824.529	3116
824.669	3089
824.809	3188
824.949	3222
825.089	3199
825.228	3146
825.368	2994
825.508	2963
825.648	2937
825.787	3024
825.927	2979
826.067	2979
826.206	2956
826.346	3036
826.485	3058
826.625	3062
826.765	3275
826.904	3237
827.044	2986
827.183	2952
827.323	2853
827.462	2986
827.601	2906
827.741	2944
827.88	2944
828.02	2895
828.159	2956
828.298	3039
828.437	3081
828.577	3028
828.716	3268
828.855	3036
828.994	2914
829.134	2861
829.273	2914
829.412	2857
829.551	2872
829.69	2899
829.829	2994
829.968	3131
830.107	2994
830.246	2963
830.385	2887
830.524	2895
830.663	2800
830.802	2739
830.941	2655
831.08	2651
831.219	2754
831.357	2724
831.496	2941
831.635	2720
831.774	2636
831.913	2678
832.051	2530
832.19	2552
832.329	2682
832.467	2545
832.606	2469
832.744	2583
832.883	2575
833.022	2629
833.16	2651
833.299	2670
833.437	2697
833.576	2708
833.714	2743
833.852	2746
833.991	2769
834.129	2804
834.267	2834
834.406	2796
834.544	2868
834.682	2857
834.821	2868
834.959	3093
835.097	2902
835.235	3108
835.373	2990
835.511	3009
835.65	2967
835.788	2960
835.926	2849
836.064	2838
836.202	2834
836.34	3085
836.478	3123
836.615	3017
836.753	3131
836.891	3199
837.029	3203
837.167	3108
837.305	3043
837.443	3043
837.58	2937
837.718	3154
837.856	3020
837.993	2998
838.131	3093
838.269	3131
838.406	3093
838.544	3085
838.681	2910
838.819	2887
838.956	2800
839.094	2788
839.231	2925
839.369	3005
839.506	3351
839.643	3161
839.781	3005
839.918	2998
840.055	3077
840.193	3028
840.33	3036
840.467	3100
840.604	3123
840.742	3374
840.879	3051
841.016	3058
841.153	3104
841.29	3313
841.427	3313
841.564	3268
841.701	3291
841.838	3195
841.975	3154
842.112	3230
842.249	3070
842.385	3055
842.522	3245
842.659	3074
842.796	3051
842.933	3112
843.069	3074
843.206	3013
843.343	3127
843.479	3093
843.616	3127
843.752	2876
843.889	2876
844.025	3032
844.162	2910
844.298	3089
844.435	2944
844.571	2906
844.708	3070
844.844	3161
844.98	3222
845.117	3173
845.253	3017
845.389	2994
845.525	3104
845.661	3089
845.798	2990
845.934	3131
846.07	3028
846.206	3192
846.342	3256
846.478	3218
846.614	3074
846.75	2986
846.886	3001
847.022	3230
847.158	3112
847.294	3188
847.429	3237
847.565	3188
847.701	3507
847.837	3039
847.972	3020
848.108	3138
848.244	3135
848.379	3028
848.515	2937
848.65	2922
848.786	2956
848.921	3001
849.057	3066
849.192	3146
849.328	3077
849.463	3093
849.598	3047
849.734	3013
849.869	2990
850.004	2929
850.14	2952
850.275	2910
850.41	2826
850.545	2891
850.68	2902
850.815	2975
850.95	2971
851.085	3165
851.22	3112
851.355	3013
851.49	2975
851.625	2960
851.76	3032
851.895	2902
852.03	2887
852.165	3013
852.299	3077
852.434	3184
852.569	3119
852.703	3142
852.838	3226
852.973	3302
853.107	3317
853.242	3135
853.376	3104
853.511	2986
853.645	3039
853.78	3241
853.914	3093
854.048	3112
854.183	3070
854.317	3135
854.451	3249
854.585	3097
854.72	3085
854.854	3207
854.988	3066
855.122	3104
855.256	2971
855.39	3131
855.524	3230
855.658	3173
855.792	3146
855.926	3173
856.06	3184
856.194	3222
856.327	3131
856.461	3039
856.595	3036
856.729	3100
856.862	3214
856.996	3192
857.13	3161
857.263	3218
857.397	3268
857.53	3127
857.664	3154
857.797	3260
857.931	3272
858.064	3146
858.197	3222
858.331	3077
858.464	3100
858.597	2975
858.731	3085
858.864	3112
858.997	3062
859.13	3127
859.263	3169
859.396	3184
859.529	3077
859.662	3051
859.795	3058
859.928	3123
860.061	3226
860.194	3272
860.327	3116
860.46	3081
860.592	3203
860.725	3241
860.858	3195
860.99	3089
861.123	3062
861.256	3043
861.388	3169
861.521	3698
861.653	2975
861.786	2979
861.918	2975
862.05	3062
862.183	3104
862.315	3135
862.447	3195
862.58	3062
862.712	2944
862.844	2853
862.976	2986
863.108	2982
863.24	3405
863.372	2861
863.504	2948
863.636	2941
863.768	3009
863.9	2948
864.032	2895
864.164	2910
864.296	3055
864.428	3066
864.559	3100
864.691	3070
864.823	2986
864.954	3043
865.086	3036
865.217	2971
865.349	2941
865.48	2994
865.612	2986
865.743	3150
865.875	3009
866.006	2902
866.137	2986
866.269	2929
866.4	2910
866.531	2925
866.662	2880
866.793	2876
866.924	2891
867.055	2952
867.186	2891
867.317	2891
867.448	2834
867.579	2842
867.71	2830
867.841	2804
867.972	2853
868.103	2910
868.233	2864
868.364	2857
868.495	2902
868.625	3032
868.756	3154
868.886	2960
869.017	3013
869.147	3165
869.278	3157
869.408	3055
869.539	2971
869.669	3097
869.799	3020
869.929	3119
870.06	3097
870.19	3317
870.32	3287
870.45	3317
870.58	3340
870.71	3428
870.84	3428
870.97	3260
871.1	3256
871.23	3416
871.36	3450
871.489	3310
871.619	3374
871.749	3412
871.879	3424
872.008	3492
872.138	3367
872.267	3249
872.397	3146
872.526	3077
872.656	2960
872.785	3085
872.915	3203
873.044	3287
873.173	3214
873.303	3195
873.432	3222
873.561	3188
873.69	3165
873.819	3112
873.948	3169
874.077	3100
874.206	2994
874.335	3077
874.464	3184
874.593	3302
874.722	3199
874.851	3374
874.979	3310
875.108	3298
875.237	3173
875.365	3127
875.494	3135
875.623	3211
875.751	3039
875.88	3112
876.008	3173
876.136	3203
876.265	3363
876.393	3488
876.521	3389
876.65	3412
876.778	3298
876.906	3245
877.034	3195
877.162	3230
877.29	3249
877.418	3253
877.546	3241
877.674	3256
877.802	3260
877.93	3230
878.058	3195
878.185	3142
878.313	3245
878.441	3192
878.568	3074
878.696	3192
878.824	3279
878.951	3344
879.079	3447
879.206	3610
879.333	3458
879.461	3336
879.588	3355
879.715	3496
879.842	3641
879.97	3386
880.097	3203
880.224	3180
880.351	3237
880.478	3218
880.605	3233
880.732	3226
880.859	3511
880.986	3329
881.112	3370
881.239	3176
881.366	3135
881.493	3081
881.619	3081
881.746	3108
881.872	3146
881.999	3123
882.125	3203
882.252	3260
882.378	3317
882.505	3412
882.631	3336
882.757	3169
882.883	3256
883.01	3237
883.136	3226
883.262	3135
883.388	3116
883.514	3317
883.64	3389
883.766	3306
883.892	3214
884.018	3275
884.143	3447
884.269	3568
884.395	3237
884.52	3241
884.646	3241
884.772	3165
884.897	3119
885.023	3268
885.148	3370
885.274	3458
885.399	3420
885.524	3336
885.65	3310
885.775	3348
885.9	3325
886.025	3435
886.15	3412
886.275	3336
886.4	3287
886.525	3336
886.65	3260
886.775	3336
886.9	3553
887.025	3690
887.149	3447
887.274	3275
887.399	3195
887.523	3249
887.648	3237
887.773	3195
887.897	3424
888.021	3439
888.146	3306
888.27	3458
888.395	3576
888.519	3477
888.643	3477
888.767	3485
888.891	3382
889.015	3272
889.139	3348
889.263	3241
889.387	3473
889.511	3545
889.635	3473
889.759	3325
889.883	3325
890.006	3405
890.13	3496
890.254	3260
890.377	3386
890.501	3233
890.624	3195
890.748	3310
890.871	3230
890.995	3093
891.118	3089
891.241	3188
891.364	3237
891.488	3336
891.611	3195
891.734	3241
891.857	3306
891.98	3241
892.103	3355
892.226	3313
892.349	3268
892.471	3116
892.594	3245
892.717	3344
892.839	3291
892.962	3317
893.085	3367
893.207	3336
893.33	3188
893.452	3275
893.575	3370
893.697	3298
893.819	3454
893.941	3534
894.064	3469
894.186	3313
894.308	3344
894.43	3511
894.552	3599
894.674	3485
894.796	3294
894.918	3306
895.04	3302
895.161	3443
895.283	3420
895.405	3287
895.526	3382
895.648	3462
895.769	3424
895.891	3485
896.012	3492
896.134	3485
896.255	3443
896.376	3405
896.498	3393
896.619	3420
896.74	3401
896.861	3386
896.982	3720
897.103	3880
897.224	3644
897.345	3591
897.466	3435
897.587	3545
897.708	3606
897.828	3576
897.949	3466
898.07	3389
898.19	3428
898.311	3641
898.431	3435
898.552	3549
898.672	3648
898.792	3568
898.913	3572
899.033	3458
899.153	3317
899.273	3245
899.393	3329
899.513	3329
899.633	3359
899.753	3370
899.873	3363
899.993	3416
900.113	3355
900.232	3420
900.352	3378
900.472	3302
900.591	3272
900.711	3317
900.83	3272
900.95	3447
901.069	3507
901.189	3367
901.308	3184
901.427	3119
901.546	3233
901.665	3332
901.784	3367
901.904	3230
902.023	3188
902.141	3062
902.26	3028
902.379	3165
902.498	3066
902.617	3093
902.735	3264
902.854	3211
902.973	3233
903.091	3058
903.21	3081
903.328	3169
903.446	3135
903.565	3123
903.683	3249
903.801	3131
903.919	3272
904.038	3275
904.156	3230
904.274	3313
904.392	3279
904.51	3348
904.627	3378
904.745	3443
904.863	3507
904.981	3272
905.098	3195
905.216	3249
905.334	3344
905.451	3317
905.569	3310
905.686	3466
905.803	3511
905.921	3313
906.038	3458
906.155	3359
906.272	3298
906.389	3367
906.506	3203
906.623	3302
906.74	3291
906.857	3245
906.974	3268
907.091	3488
907.208	3614
907.324	3488
907.441	3416
907.557	3211
907.674	3279
907.79	3237
907.907	3317
908.023	3412
908.139	3401
908.256	3378
908.372	3374
908.488	3374
908.604	3294
908.72	3241
908.836	3306
908.952	3283
909.068	3382
909.184	3530
909.3	3401
909.415	3534
909.531	3481
909.647	3298
909.762	3294
909.878	3279
909.993	3378
910.108	3363
910.224	3355
910.339	3435
910.454	3367
910.57	3325
910.685	3264
910.8	3599
910.915	3564
911.03	3424
911.145	3256
911.259	3256
911.374	3325
911.489	3241
911.604	3245
911.718	3154
911.833	3173
911.947	3070
912.062	3017
912.176	3214
912.291	3249
912.405	3256
912.519	3439
912.633	3477
912.748	3336
912.862	3275
912.976	3203
913.09	3081
913.204	3184
913.318	3203
913.431	3367
913.545	3336
913.659	3420
913.772	3344
913.886	3256
914	3237
914.113	3348
914.226	3454
914.34	3397
914.453	3256
914.566	3458
914.68	3329
914.793	3294
914.906	3146
915.019	3165
915.132	3123
915.245	3241
915.358	3253
915.47	3268
915.583	3306
915.696	3348
915.809	3450
915.921	3439
916.034	3264
916.146	3332
916.259	3264
916.371	3409
916.483	3424
916.595	3272
916.708	3355
916.82	3382
916.932	3355
917.044	3359
917.156	3389
917.268	3272
917.38	3336
917.491	3336
917.603	3367
917.715	3447
917.826	3488
917.938	3374
918.049	3272
918.161	3458
918.272	3576
918.384	3603
918.495	3545
918.606	3325
918.717	3321
918.828	3378
918.939	3439
919.05	3321
919.161	3393
919.272	3214
919.383	3264
919.494	3542
919.604	3705
919.715	3466
919.826	3382
919.936	3458
920.047	3606
920.157	3549
920.267	3793
920.378	3618
920.488	3572
920.598	3774
920.708	4017
920.818	3865
920.928	3854
921.038	4025
921.148	3998
921.258	3732
921.368	3629
921.477	3618
921.587	3538
921.697	3507
921.806	3667
921.916	3507
922.025	3416
922.134	3389
922.244	3332
922.353	3431
922.462	3302
922.571	3260
922.68	3127
922.789	3112
922.898	3173
923.007	3119
923.116	3230
923.224	3203
923.333	3161
923.442	3100
923.55	3089
923.659	3154
923.767	3245
923.876	3161
923.984	3256
924.092	3127
924.201	3195
924.309	3195
924.417	3287
924.525	3245
924.633	3253
924.741	4074
924.849	3100
924.956	3287
925.064	3135
925.172	3039
925.279	3127
925.387	3203
925.494	3195
925.602	3359
925.709	3325
925.816	3176
925.924	3283
926.031	3393
926.138	3344
926.245	3378
926.352	3237
926.459	3424
926.566	3435
926.673	3367
926.779	3253
926.886	3272
926.993	3154
927.099	3157
927.206	3123
927.312	3127
927.419	3298
927.525	3211
927.631	3256
927.737	3146
927.843	3138
927.95	3047
928.056	3154
928.162	3195
928.267	3268
928.373	3808
928.479	3302
928.585	3089
928.69	3157
928.796	3332
928.901	3165
929.007	3066
929.112	3222
929.218	3184
929.323	3165
929.428	3146
929.533	3321
929.638	3127
929.743	3180
929.848	3226
929.953	3192
930.058	3192
930.163	3017
930.267	3032
930.372	3222
930.477	3051
930.581	3336
930.685	3176
930.79	3081
930.894	3169
930.998	3123
931.103	3298
931.207	2986
931.311	2963
931.415	2922
931.519	2811
931.623	2804
