Data from test_V78500241_1116.txt Node
Date: Fri Mar 25 16:22:56 CST 2022
User: usil
Spectrometer: V785-0024
Trigger mode: 0
Integration Time (sec): 4.000000E-1
Scans to average: 1
Nonlinearity correction enabled: false
Boxcar width: 0
Storing dark spectrum: false
XAxis mode: Wavelengths
Number of Pixels in Spectrum: 1024
>>>>>Begin Spectral Data<<<<<
801.071	2906
801.214	2944
801.356	2864
801.499	2868
801.641	2868
801.783	2895
801.926	3036
802.068	2982
802.211	2979
802.353	3028
802.496	2975
802.638	2956
802.78	3013
802.923	3077
803.065	2990
803.208	2906
803.35	2902
803.492	2975
803.635	2914
803.777	2746
803.919	2853
804.061	3165
804.204	2929
804.346	2910
804.488	2834
804.63	2982
804.773	2853
804.915	2933
805.057	3070
805.199	2929
805.341	2975
805.483	3043
805.626	2990
805.768	2967
805.91	3077
806.052	3112
806.194	3028
806.336	3226
806.478	3047
806.62	2948
806.762	2956
806.904	3013
807.046	3176
807.188	2963
807.33	2887
807.472	2979
807.614	2914
807.756	3001
807.898	2906
808.04	2880
808.182	2948
808.324	2944
808.465	2857
808.607	2857
808.749	2762
808.891	2830
809.033	2967
809.174	2971
809.316	2849
809.458	2868
809.6	2746
809.741	2792
809.883	2777
810.025	2826
810.166	2857
810.308	2849
810.45	2842
810.591	2792
810.733	2792
810.875	2826
811.016	2785
811.158	2746
811.299	2777
811.441	2922
811.582	2880
811.724	2815
811.865	2800
812.007	2902
812.148	2864
812.29	2849
812.431	2887
812.573	2925
812.714	2922
812.855	3020
812.997	3058
813.138	3100
813.279	3001
813.421	2952
813.562	2956
813.703	2864
813.845	2895
813.986	2750
814.127	2735
814.268	2804
814.41	2823
814.551	2792
814.692	2868
814.833	2823
814.974	2842
815.115	2929
815.256	2857
815.397	2849
815.539	2864
815.68	2811
815.821	2766
815.962	2979
816.103	2883
816.244	2876
816.385	2864
816.526	2922
816.666	2887
816.807	2708
816.948	2902
817.089	2906
817.23	2830
817.371	2762
817.512	2777
817.653	2815
817.793	2823
817.934	2887
818.075	2941
818.216	2998
818.356	3020
818.497	2838
818.638	2766
818.778	2861
818.919	2769
819.06	2754
819.2	2902
819.341	2796
819.481	2811
819.622	2941
819.762	3074
819.903	3032
820.043	2910
820.184	2918
820.324	2899
820.465	3001
820.605	3009
820.746	3013
820.886	2914
821.026	3108
821.167	3146
821.307	3245
821.447	3279
821.588	3233
821.728	3214
821.868	3180
822.008	3047
822.149	3161
822.289	3256
822.429	3058
822.569	3055
822.709	3180
822.849	3013
822.99	3089
823.13	3173
823.27	3222
823.41	3108
823.55	3142
823.69	3138
823.83	3188
823.97	3077
824.11	3017
824.25	2967
824.389	3024
824.529	3142
824.669	3062
824.809	3146
824.949	3230
825.089	3241
825.228	3138
825.368	2986
825.508	2948
825.648	2956
825.787	3024
825.927	3051
826.067	2925
826.206	2975
826.346	3047
826.485	3051
826.625	3081
826.765	3268
826.904	3214
827.044	2979
827.183	2925
827.323	2880
827.462	2994
827.601	2891
827.741	2906
827.88	2948
828.02	2849
828.159	2975
828.298	3047
828.437	3127
828.577	3043
828.716	3233
828.855	3062
828.994	2906
829.134	2872
829.273	2956
829.412	2876
829.551	2864
829.69	2887
829.829	2986
829.968	3089
830.107	3047
830.246	3032
830.385	2925
830.524	2868
830.663	2807
830.802	2739
830.941	2651
831.08	2625
831.219	2777
831.357	2739
831.496	2944
831.635	2701
831.774	2655
831.913	2655
832.051	2530
832.19	2587
832.329	2655
832.467	2514
832.606	2469
832.744	2560
832.883	2590
833.022	2568
833.16	2651
833.299	2655
833.437	2701
833.576	2693
833.714	2693
833.852	2727
833.991	2750
834.129	2830
834.267	2811
834.406	2758
834.544	2849
834.682	2876
834.821	2872
834.959	3047
835.097	2910
835.235	3017
835.373	2986
835.511	3001
835.65	2967
835.788	2956
835.926	2834
836.064	2785
836.202	2849
836.34	3100
836.478	3150
836.615	3066
836.753	3108
836.891	3222
837.029	3207
837.167	3097
837.305	3058
837.443	3070
837.58	2929
837.718	3138
837.856	3051
837.993	3001
838.131	3104
838.269	3100
838.406	3081
838.544	3112
838.681	2929
838.819	2906
838.956	2788
839.094	2766
839.231	2880
839.369	3020
839.506	3397
839.643	3203
839.781	3013
839.918	2971
840.055	3039
840.193	3070
840.33	3066
840.467	3089
840.604	3119
840.742	3336
840.879	3051
841.016	3055
841.153	3093
841.29	3348
841.427	3287
841.564	3264
841.701	3275
841.838	3199
841.975	3142
842.112	3233
842.249	3074
842.385	3028
842.522	3226
842.659	3097
842.796	3043
842.933	3085
843.069	3058
843.206	3024
843.343	3188
843.479	3104
843.616	3112
843.752	2891
843.889	2849
844.025	3028
844.162	2891
844.298	3085
844.435	2948
844.571	2937
844.708	3032
844.844	3192
844.98	3218
845.117	3192
845.253	3020
845.389	3013
845.525	3077
845.661	3104
845.798	2998
845.934	3074
846.07	3047
846.206	3199
846.342	3321
846.478	3226
846.614	3085
846.75	3051
846.886	3017
847.022	3218
847.158	3154
847.294	3180
847.429	3218
847.565	3207
847.701	3435
847.837	3051
847.972	2986
848.108	3146
848.244	3142
848.379	3024
848.515	2941
848.65	2933
848.786	2998
848.921	3001
849.057	3097
849.192	3127
849.328	3070
849.463	3138
849.598	3032
849.734	3036
849.869	2933
850.004	2902
850.14	2948
850.275	2925
850.41	2823
850.545	2883
850.68	2967
850.815	2933
850.95	2971
851.085	3195
851.22	3032
851.355	3028
851.49	2963
851.625	2975
851.76	3001
851.895	2941
852.03	2922
852.165	3028
852.299	3097
852.434	3192
852.569	3135
852.703	3169
852.838	3226
852.973	3329
853.107	3310
853.242	3154
853.376	3097
853.511	2952
853.645	3024
853.78	3233
853.914	3116
854.048	3123
854.183	3085
854.317	3188
854.451	3291
854.585	3112
854.72	3055
854.854	3218
854.988	3028
855.122	3047
855.256	2941
855.39	3112
855.524	3211
855.658	3161
855.792	3150
855.926	3150
856.06	3173
856.194	3253
856.327	3123
856.461	3089
856.595	3055
856.729	3070
856.862	3226
856.996	3184
857.13	3173
857.263	3241
857.397	3249
857.53	3104
857.664	3173
857.797	3207
857.931	3249
858.064	3138
858.197	3226
858.331	3058
858.464	3119
858.597	2998
858.731	3074
858.864	3127
858.997	3081
859.13	3161
859.263	3169
859.396	3203
859.529	3047
859.662	3043
859.795	3028
859.928	3165
860.061	3256
860.194	3294
860.327	3116
860.46	3085
860.592	3230
860.725	3203
860.858	3253
860.99	3055
861.123	3036
861.256	3055
861.388	3169
861.521	3660
861.653	3001
861.786	2967
861.918	2994
862.05	3066
862.183	3081
862.315	3108
862.447	3199
862.58	3108
862.712	2963
862.844	2849
862.976	3036
863.108	3043
863.24	3393
863.372	2891
863.504	2960
863.636	2952
863.768	3020
863.9	2979
864.032	2895
864.164	2929
864.296	3020
864.428	3062
864.559	3081
864.691	3055
864.823	3093
864.954	3013
865.086	3009
865.217	3017
865.349	2963
865.48	2948
865.612	2994
865.743	3142
865.875	2986
866.006	2944
866.137	2982
866.269	2948
866.4	2906
866.531	2902
866.662	2906
866.793	2872
866.924	2914
867.055	2975
867.186	2956
867.317	2872
867.448	2819
867.579	2864
867.71	2842
867.841	2834
867.972	2933
868.103	2910
868.233	2861
868.364	2887
868.495	2902
868.625	3062
868.756	3188
868.886	2952
869.017	3017
869.147	3169
869.278	3127
869.408	3028
869.539	3024
869.669	3051
869.799	3032
869.929	3127
870.06	3150
870.19	3344
870.32	3256
870.45	3291
870.58	3370
870.71	3428
870.84	3416
870.97	3302
871.1	3230
871.23	3496
871.36	3504
871.489	3378
871.619	3382
871.749	3370
871.879	3420
872.008	3492
872.138	3336
872.267	3260
872.397	3119
872.526	3089
872.656	3047
872.785	3081
872.915	3226
873.044	3310
873.173	3184
873.303	3249
873.432	3207
873.561	3249
873.69	3131
873.819	3142
873.948	3192
874.077	3119
874.206	3066
874.335	3074
874.464	3195
874.593	3317
874.722	3249
874.851	3409
874.979	3382
875.108	3310
875.237	3192
875.365	3222
875.494	3146
875.623	3230
875.751	3108
875.88	3077
876.008	3218
876.136	3222
876.265	3370
876.393	3515
876.521	3416
876.65	3389
876.778	3294
876.906	3268
877.034	3169
877.162	3207
877.29	3173
877.418	3214
877.546	3222
877.674	3192
877.802	3214
877.93	3218
878.058	3116
878.185	3131
878.313	3184
878.441	3199
878.568	3089
878.696	3119
878.824	3264
878.951	3272
879.079	3473
879.206	3591
879.333	3386
879.461	3336
879.588	3359
879.715	3477
879.842	3603
879.97	3393
880.097	3203
880.224	3104
880.351	3203
880.478	3230
880.605	3214
880.732	3203
880.859	3519
880.986	3268
881.112	3294
881.239	3233
881.366	3097
881.493	3047
881.619	3001
881.746	3081
881.872	3070
881.999	3100
882.125	3154
882.252	3260
882.378	3298
882.505	3382
882.631	3249
882.757	3165
882.883	3195
883.01	3192
883.136	3173
883.262	3104
883.388	3058
883.514	3291
883.64	3355
883.766	3313
883.892	3165
884.018	3188
884.143	3424
884.269	3523
884.395	3199
884.52	3135
884.646	3176
884.772	3100
884.897	3119
885.023	3176
885.148	3317
885.274	3428
885.399	3355
885.524	3287
885.65	3211
885.775	3306
885.9	3256
886.025	3450
886.15	3313
886.275	3283
886.4	3214
886.525	3294
886.65	3241
886.775	3283
886.9	3530
887.025	3587
887.149	3389
887.274	3241
887.399	3203
887.523	3214
887.648	3192
887.773	3207
887.897	3355
888.021	3412
888.146	3275
888.27	3428
888.395	3530
888.519	3435
888.643	3409
888.767	3428
888.891	3256
889.015	3260
889.139	3294
889.263	3256
889.387	3405
889.511	3466
889.635	3462
889.759	3279
889.883	3313
890.006	3386
890.13	3481
890.254	3275
890.377	3336
890.501	3184
890.624	3207
890.748	3272
890.871	3195
890.995	3112
891.118	3039
891.241	3188
891.364	3233
891.488	3321
891.611	3138
891.734	3230
891.857	3291
891.98	3199
892.103	3321
892.226	3310
892.349	3184
892.471	3112
892.594	3192
892.717	3272
892.839	3241
892.962	3306
893.085	3344
893.207	3321
893.33	3146
893.452	3188
893.575	3332
893.697	3275
893.819	3447
893.941	3496
894.064	3458
894.186	3279
894.308	3222
894.43	3454
894.552	3564
894.674	3462
894.796	3245
894.918	3325
895.04	3272
895.161	3431
895.283	3374
895.405	3336
895.526	3401
895.648	3409
895.769	3416
895.891	3466
896.012	3469
896.134	3416
896.255	3447
896.376	3336
896.498	3382
896.619	3412
896.74	3344
896.861	3374
896.982	3663
897.103	3850
897.224	3644
897.345	3496
897.466	3416
897.587	3450
897.708	3648
897.828	3561
897.949	3424
898.07	3344
898.19	3428
898.311	3610
898.431	3439
898.552	3496
898.672	3595
898.792	3553
898.913	3523
899.033	3359
899.153	3249
899.273	3222
899.393	3264
899.513	3313
899.633	3310
899.753	3359
899.873	3310
899.993	3389
900.113	3367
900.232	3370
900.352	3313
900.472	3283
900.591	3211
900.711	3321
900.83	3226
900.95	3443
901.069	3458
901.189	3374
901.308	3157
901.427	3093
901.546	3188
901.665	3302
901.784	3321
901.904	3195
902.023	3176
902.141	3020
902.26	2986
902.379	3097
902.498	3104
902.617	3070
902.735	3199
902.854	3260
902.973	3199
903.091	3039
903.21	3058
903.328	3157
903.446	3116
903.565	3077
903.683	3203
903.801	3085
903.919	3260
904.038	3245
904.156	3165
904.274	3272
904.392	3192
904.51	3264
904.627	3363
904.745	3466
904.863	3523
904.981	3260
905.098	3154
905.216	3218
905.334	3283
905.451	3287
905.569	3310
905.686	3378
905.803	3473
905.921	3291
906.038	3447
906.155	3351
906.272	3279
906.389	3329
906.506	3214
906.623	3260
906.74	3283
906.857	3192
906.974	3268
907.091	3428
907.208	3599
907.324	3492
907.441	3389
907.557	3230
907.674	3264
907.79	3230
907.907	3268
908.023	3378
908.139	3401
908.256	3310
908.372	3397
908.488	3382
908.604	3237
908.72	3249
908.836	3249
908.952	3298
909.068	3367
909.184	3488
909.3	3393
909.415	3515
909.531	3454
909.647	3302
909.762	3268
909.878	3268
909.993	3336
910.108	3348
910.224	3359
910.339	3386
910.454	3329
910.57	3283
910.685	3211
910.8	3584
910.915	3523
911.03	3416
911.145	3264
911.259	3233
911.374	3302
911.489	3222
911.604	3249
911.718	3097
911.833	3184
911.947	3043
912.062	2960
912.176	3150
912.291	3188
912.405	3188
912.519	3416
912.633	3454
912.748	3310
912.862	3294
912.976	3142
913.09	3077
913.204	3074
913.318	3195
913.431	3294
913.545	3313
913.659	3416
913.772	3359
913.886	3230
914	3169
914.113	3359
914.226	3416
914.34	3348
914.453	3195
914.566	3424
914.68	3272
914.793	3317
914.906	3180
915.019	3119
915.132	3089
915.245	3173
915.358	3203
915.47	3195
915.583	3237
915.696	3272
915.809	3386
915.921	3409
916.034	3275
916.146	3245
916.259	3203
916.371	3416
916.483	3351
916.595	3264
916.708	3344
916.82	3332
916.932	3351
917.044	3344
917.156	3294
917.268	3245
917.38	3294
917.491	3275
917.603	3374
917.715	3466
917.826	3469
917.938	3351
918.049	3302
918.161	3424
918.272	3542
918.384	3515
918.495	3469
918.606	3302
918.717	3253
918.828	3397
918.939	3420
919.05	3370
919.161	3321
919.272	3192
919.383	3245
919.494	3504
919.604	3686
919.715	3428
919.826	3389
919.936	3466
920.047	3591
920.157	3572
920.267	3781
920.378	3595
920.488	3568
920.598	3743
920.708	3975
920.818	3816
920.928	3793
921.038	4013
921.148	3983
921.258	3709
921.368	3610
921.477	3572
921.587	3557
921.697	3462
921.806	3603
921.916	3523
922.025	3344
922.134	3332
922.244	3283
922.353	3412
922.462	3264
922.571	3214
922.68	3089
922.789	3085
922.898	3138
923.007	3100
923.116	3176
923.224	3176
923.333	3207
923.442	3104
923.55	3070
923.659	3104
923.767	3241
923.876	3131
923.984	3249
924.092	3089
924.201	3165
924.309	3195
924.417	3272
924.525	3207
924.633	3218
924.741	3972
924.849	3043
924.956	3298
925.064	3093
925.172	3039
925.279	3081
925.387	3192
925.494	3195
925.602	3348
925.709	3294
925.816	3169
925.924	3275
926.031	3332
926.138	3355
926.245	3317
926.352	3245
926.459	3378
926.566	3450
926.673	3294
926.779	3268
926.886	3260
926.993	3131
927.099	3157
927.206	3070
927.312	3100
927.419	3203
927.525	3161
927.631	3268
927.737	3123
927.843	3089
927.95	3055
928.056	3138
928.162	3173
928.267	3237
928.373	3774
928.479	3298
928.585	3047
928.69	3218
928.796	3260
928.901	3165
929.007	3043
929.112	3188
929.218	3169
929.323	3119
929.428	3142
929.533	3329
929.638	3150
929.743	3188
929.848	3264
929.953	3214
930.058	3142
930.163	2998
930.267	3028
930.372	3203
930.477	3039
930.581	3291
930.685	3169
930.79	3062
930.894	3081
930.998	3093
931.103	3283
931.207	2952
931.311	2960
931.415	2883
931.519	2754
931.623	2796
