Data from test_V78500241_524.txt Node
Date: Fri Mar 25 16:18:50 CST 2022
User: usil
Spectrometer: V785-0024
Trigger mode: 0
Integration Time (sec): 4.000000E-1
Scans to average: 1
Nonlinearity correction enabled: false
Boxcar width: 0
Storing dark spectrum: false
XAxis mode: Wavelengths
Number of Pixels in Spectrum: 1024
>>>>>Begin Spectral Data<<<<<
801.071	2937
801.214	2952
801.356	2880
801.499	2922
801.641	2914
801.783	2925
801.926	3066
802.068	3013
802.211	3017
802.353	3085
802.496	2998
802.638	3013
802.78	3074
802.923	3074
803.065	3013
803.208	2918
803.35	2906
803.492	2952
803.635	2948
803.777	2807
803.919	2887
804.061	3203
804.204	2979
804.346	2910
804.488	2880
804.63	2998
804.773	2861
804.915	2906
805.057	3108
805.199	2963
805.341	2990
805.483	3058
805.626	3009
805.768	2990
805.91	3104
806.052	3116
806.194	3058
806.336	3249
806.478	3001
806.62	2990
806.762	2994
806.904	3097
807.046	3165
807.188	2967
807.33	2918
807.472	3024
807.614	2914
807.756	3028
807.898	2918
808.04	2876
808.182	2998
808.324	2979
808.465	2864
808.607	2876
808.749	2815
808.891	2861
809.033	2990
809.174	2967
809.316	2876
809.458	2899
809.6	2762
809.741	2785
809.883	2758
810.025	2849
810.166	2823
810.308	2853
810.45	2845
810.591	2769
810.733	2785
810.875	2864
811.016	2777
811.158	2754
811.299	2830
811.441	2933
811.582	2902
811.724	2815
811.865	2868
812.007	2941
812.148	2933
812.29	2861
812.431	2891
812.573	2922
812.714	2982
812.855	3051
812.997	3070
813.138	3138
813.279	3032
813.421	3036
813.562	2937
813.703	2883
813.845	2902
813.986	2773
814.127	2758
814.268	2834
814.41	2815
814.551	2864
814.692	2872
814.833	2845
814.974	2880
815.115	2967
815.256	2853
815.397	2815
815.539	2876
815.68	2800
815.821	2777
815.962	2971
816.103	2922
816.244	2883
816.385	2910
816.526	2986
816.666	2944
816.807	2769
816.948	2872
817.089	2922
817.23	2845
817.371	2766
817.512	2834
817.653	2830
817.793	2849
817.934	2864
818.075	2952
818.216	3039
818.356	3036
818.497	2872
818.638	2834
818.778	2819
818.919	2815
819.06	2804
819.2	2895
819.341	2853
819.481	2796
819.622	2937
819.762	3108
819.903	3051
820.043	2922
820.184	2918
820.324	2876
820.465	3055
820.605	3005
820.746	3028
820.886	2967
821.026	3085
821.167	3180
821.307	3279
821.447	3275
821.588	3256
821.728	3211
821.868	3199
822.008	3112
822.149	3176
822.289	3192
822.429	3077
822.569	3123
822.709	3195
822.849	3020
822.99	3104
823.13	3165
823.27	3233
823.41	3081
823.55	3138
823.69	3146
823.83	3237
823.97	3116
824.11	3055
824.25	2975
824.389	3066
824.529	3127
824.669	3077
824.809	3192
824.949	3294
825.089	3237
825.228	3169
825.368	2975
825.508	2998
825.648	2990
825.787	3009
825.927	3036
826.067	2963
826.206	2929
826.346	3028
826.485	3058
826.625	3123
826.765	3291
826.904	3218
827.044	2986
827.183	2933
827.323	2849
827.462	2982
827.601	2929
827.741	2963
827.88	2960
828.02	2872
828.159	2986
828.298	3013
828.437	3116
828.577	3028
828.716	3253
828.855	3116
828.994	2948
829.134	2906
829.273	2941
829.412	2845
829.551	2864
829.69	2910
829.829	3017
829.968	3116
830.107	3039
830.246	3055
830.385	2960
830.524	2842
830.663	2815
830.802	2743
830.941	2708
831.08	2655
831.219	2766
831.357	2773
831.496	2990
831.635	2739
831.774	2644
831.913	2659
832.051	2549
832.19	2568
832.329	2697
832.467	2537
832.606	2488
832.744	2590
832.883	2590
833.022	2587
833.16	2655
833.299	2689
833.437	2708
833.576	2693
833.714	2739
833.852	2754
833.991	2727
834.129	2834
834.267	2861
834.406	2823
834.544	2842
834.682	2899
834.821	2864
834.959	3081
835.097	2933
835.235	3051
835.373	3005
835.511	2998
835.65	2967
835.788	2960
835.926	2830
836.064	2777
836.202	2830
836.34	3100
836.478	3192
836.615	3043
836.753	3146
836.891	3203
837.029	3218
837.167	3100
837.305	3047
837.443	3047
837.58	2956
837.718	3146
837.856	3066
837.993	3024
838.131	3112
838.269	3180
838.406	3085
838.544	3047
838.681	2948
838.819	2960
838.956	2834
839.094	2815
839.231	2925
839.369	3020
839.506	3386
839.643	3245
839.781	3051
839.918	2994
840.055	3085
840.193	3036
840.33	3062
840.467	3074
840.604	3157
840.742	3393
840.879	3066
841.016	3039
841.153	3104
841.29	3332
841.427	3275
841.564	3268
841.701	3313
841.838	3226
841.975	3203
842.112	3230
842.249	3085
842.385	3036
842.522	3241
842.659	3074
842.796	3043
842.933	3058
843.069	3051
843.206	3058
843.343	3142
843.479	3123
843.616	3142
843.752	2883
843.889	2887
844.025	3123
844.162	2887
844.298	3058
844.435	2960
844.571	2941
844.708	3058
844.844	3123
844.98	3275
845.117	3195
845.253	3070
845.389	2982
845.525	3077
845.661	3097
845.798	3020
845.934	3119
846.07	3062
846.206	3237
846.342	3302
846.478	3222
846.614	3066
846.75	3024
846.886	3013
847.022	3241
847.158	3123
847.294	3184
847.429	3245
847.565	3226
847.701	3485
847.837	3024
847.972	3009
848.108	3131
848.244	3146
848.379	3005
848.515	2937
848.65	2952
848.786	3020
848.921	2998
849.057	3104
849.192	3169
849.328	3062
849.463	3138
849.598	3047
849.734	3051
849.869	2979
850.004	2925
850.14	2975
850.275	2925
850.41	2826
850.545	2883
850.68	2933
850.815	2994
850.95	2975
851.085	3233
851.22	3085
851.355	3017
851.49	2948
851.625	2967
851.76	3058
851.895	2902
852.03	2922
852.165	3043
852.299	3077
852.434	3184
852.569	3123
852.703	3157
852.838	3287
852.973	3306
853.107	3325
853.242	3138
853.376	3104
853.511	2975
853.645	3009
853.78	3188
853.914	3157
854.048	3104
854.183	3070
854.317	3180
854.451	3272
854.585	3142
854.72	3081
854.854	3195
854.988	3058
855.122	3089
855.256	2948
855.39	3116
855.524	3207
855.658	3195
855.792	3161
855.926	3180
856.06	3188
856.194	3188
856.327	3180
856.461	3085
856.595	3051
856.729	3085
856.862	3154
856.996	3150
857.13	3195
857.263	3230
857.397	3245
857.53	3150
857.664	3199
857.797	3214
857.931	3233
858.064	3131
858.197	3218
858.331	3131
858.464	3051
858.597	2990
858.731	3123
858.864	3100
858.997	3116
859.13	3165
859.263	3176
859.396	3203
859.529	3112
859.662	3062
859.795	3032
859.928	3131
860.061	3272
860.194	3294
860.327	3154
860.46	3100
860.592	3279
860.725	3253
860.858	3203
860.99	3097
861.123	3039
861.256	3047
861.388	3165
861.521	3892
861.653	3009
861.786	2963
861.918	3020
862.05	3074
862.183	3093
862.315	3138
862.447	3218
862.58	3058
862.712	3005
862.844	2887
862.976	3013
863.108	2994
863.24	3439
863.372	2861
863.504	2979
863.636	2986
863.768	3039
863.9	2975
864.032	2864
864.164	2960
864.296	2990
864.428	3074
864.559	3104
864.691	3081
864.823	3066
864.954	3005
865.086	3020
865.217	2998
865.349	2952
865.48	2979
865.612	3047
865.743	3123
865.875	2963
866.006	2975
866.137	3001
866.269	2941
866.4	2937
866.531	2925
866.662	2906
866.793	2883
866.924	2883
867.055	2963
867.186	2902
867.317	2849
867.448	2838
867.579	2845
867.71	2838
867.841	2807
867.972	2948
868.103	2872
868.233	2902
868.364	2849
868.495	2895
868.625	3032
868.756	3180
868.886	3001
869.017	3001
869.147	3161
869.278	3169
869.408	3047
869.539	3001
869.669	3077
869.799	3036
869.929	3135
870.06	3150
870.19	3310
870.32	3291
870.45	3313
870.58	3401
870.71	3443
870.84	3435
870.97	3275
871.1	3218
871.23	3469
871.36	3447
871.489	3329
871.619	3386
871.749	3389
871.879	3420
872.008	3492
872.138	3329
872.267	3253
872.397	3138
872.526	3116
872.656	2967
872.785	3085
872.915	3211
873.044	3329
873.173	3214
873.303	3241
873.432	3226
873.561	3226
873.69	3165
873.819	3123
873.948	3150
874.077	3077
874.206	3009
874.335	3051
874.464	3195
874.593	3302
874.722	3233
874.851	3378
874.979	3363
875.108	3336
875.237	3169
875.365	3157
875.494	3135
875.623	3203
875.751	3093
875.88	3100
876.008	3169
876.136	3230
876.265	3367
876.393	3496
876.521	3424
876.65	3454
876.778	3336
876.906	3195
877.034	3218
877.162	3233
877.29	3173
877.418	3230
877.546	3226
877.674	3264
877.802	3237
877.93	3188
878.058	3180
878.185	3077
878.313	3169
878.441	3203
878.568	3089
878.696	3142
878.824	3233
878.951	3306
879.079	3428
879.206	3595
879.333	3431
879.461	3340
879.588	3344
879.715	3450
879.842	3561
879.97	3351
880.097	3142
880.224	3146
880.351	3195
880.478	3207
880.605	3218
880.732	3192
880.859	3504
880.986	3313
881.112	3306
881.239	3230
881.366	3093
881.493	3028
881.619	2990
881.746	3085
881.872	3100
881.999	3089
882.125	3150
882.252	3230
882.378	3283
882.505	3435
882.631	3264
882.757	3157
882.883	3237
883.01	3203
883.136	3192
883.262	3077
883.388	3131
883.514	3351
883.64	3332
883.766	3336
883.892	3173
884.018	3218
884.143	3405
884.269	3523
884.395	3180
884.52	3154
884.646	3192
884.772	3108
884.897	3100
885.023	3188
885.148	3306
885.274	3405
885.399	3355
885.524	3291
885.65	3249
885.775	3294
885.9	3253
886.025	3420
886.15	3348
886.275	3298
886.4	3253
886.525	3283
886.65	3249
886.775	3279
886.9	3500
887.025	3660
887.149	3416
887.274	3241
887.399	3150
887.523	3161
887.648	3173
887.773	3203
887.897	3348
888.021	3374
888.146	3275
888.27	3439
888.395	3538
888.519	3416
888.643	3454
888.767	3458
888.891	3302
889.015	3287
889.139	3298
889.263	3233
889.387	3397
889.511	3496
889.635	3443
889.759	3275
889.883	3302
890.006	3386
890.13	3488
890.254	3283
890.377	3344
890.501	3218
890.624	3173
890.748	3264
890.871	3184
890.995	3104
891.118	3093
891.241	3203
891.364	3230
891.488	3306
891.611	3180
891.734	3249
891.857	3298
891.98	3241
892.103	3298
892.226	3256
892.349	3241
892.471	3093
892.594	3199
892.717	3298
892.839	3253
892.962	3275
893.085	3344
893.207	3310
893.33	3157
893.452	3195
893.575	3332
893.697	3237
893.819	3485
893.941	3515
894.064	3416
894.186	3268
894.308	3260
894.43	3443
894.552	3511
894.674	3412
894.796	3260
894.918	3298
895.04	3336
895.161	3401
895.283	3367
895.405	3268
895.526	3420
895.648	3462
895.769	3405
895.891	3466
896.012	3473
896.134	3500
896.255	3359
896.376	3389
896.498	3370
896.619	3389
896.74	3336
896.861	3401
896.982	3694
897.103	3865
897.224	3603
897.345	3496
897.466	3431
897.587	3481
897.708	3618
897.828	3545
897.949	3458
898.07	3325
898.19	3428
898.311	3576
898.431	3439
898.552	3462
898.672	3553
898.792	3557
898.913	3496
899.033	3386
899.153	3298
899.273	3188
899.393	3253
899.513	3325
899.633	3351
899.753	3325
899.873	3294
899.993	3370
900.113	3321
900.232	3401
900.352	3329
900.472	3298
900.591	3188
900.711	3268
900.83	3245
900.95	3405
901.069	3492
901.189	3359
901.308	3176
901.427	3085
901.546	3180
901.665	3237
901.784	3344
901.904	3195
902.023	3135
902.141	3017
902.26	2998
902.379	3127
902.498	3112
902.617	3036
902.735	3226
902.854	3203
902.973	3192
903.091	3009
903.21	3055
903.328	3154
903.446	3104
903.565	3131
903.683	3195
903.801	3154
903.919	3218
904.038	3291
904.156	3142
904.274	3294
904.392	3302
904.51	3275
904.627	3291
904.745	3420
904.863	3549
904.981	3272
905.098	3161
905.216	3222
905.334	3298
905.451	3279
905.569	3291
905.686	3424
905.803	3469
905.921	3279
906.038	3420
906.155	3348
906.272	3264
906.389	3310
906.506	3203
906.623	3218
906.74	3268
906.857	3203
906.974	3241
907.091	3458
907.208	3561
907.324	3488
907.441	3340
907.557	3268
907.674	3249
907.79	3176
907.907	3272
908.023	3370
908.139	3332
908.256	3367
908.372	3325
908.488	3344
908.604	3256
908.72	3214
908.836	3275
908.952	3279
909.068	3310
909.184	3485
909.3	3389
909.415	3481
909.531	3450
909.647	3268
909.762	3294
909.878	3245
909.993	3374
910.108	3370
910.224	3332
910.339	3439
910.454	3355
910.57	3275
910.685	3237
910.8	3564
910.915	3561
911.03	3378
911.145	3272
911.259	3256
911.374	3283
911.489	3218
911.604	3218
911.718	3123
911.833	3165
911.947	3001
912.062	3009
912.176	3112
912.291	3157
912.405	3180
912.519	3424
912.633	3443
912.748	3313
912.862	3313
912.976	3123
913.09	3005
913.204	3127
913.318	3180
913.431	3351
913.545	3348
913.659	3382
913.772	3329
913.886	3207
914	3192
914.113	3325
914.226	3424
914.34	3367
914.453	3230
914.566	3393
914.68	3256
914.793	3298
914.906	3150
915.019	3131
915.132	3032
915.245	3157
915.358	3230
915.47	3226
915.583	3291
915.696	3310
915.809	3409
915.921	3431
916.034	3287
916.146	3256
916.259	3192
916.371	3355
916.483	3363
916.595	3279
916.708	3298
916.82	3351
916.932	3325
917.044	3317
917.156	3351
917.268	3268
917.38	3344
917.491	3294
917.603	3416
917.715	3466
917.826	3458
917.938	3382
918.049	3268
918.161	3450
918.272	3523
918.384	3549
918.495	3466
918.606	3344
918.717	3256
918.828	3344
918.939	3397
919.05	3313
919.161	3336
919.272	3169
919.383	3310
919.494	3496
919.604	3720
919.715	3500
919.826	3374
919.936	3420
920.047	3584
920.157	3584
920.267	3797
920.378	3606
920.488	3519
920.598	3781
920.708	3983
920.818	3838
920.928	3812
921.038	4010
921.148	3941
921.258	3728
921.368	3656
921.477	3545
921.587	3542
921.697	3492
921.806	3599
921.916	3500
922.025	3336
922.134	3378
922.244	3310
922.353	3393
922.462	3279
922.571	3230
922.68	3097
922.789	3089
922.898	3146
923.007	3116
923.116	3199
923.224	3211
923.333	3146
923.442	3070
923.55	3104
923.659	3180
923.767	3264
923.876	3100
923.984	3264
924.092	3089
924.201	3180
924.309	3214
924.417	3253
924.525	3222
924.633	3241
924.741	4162
924.849	3024
924.956	3253
925.064	3074
925.172	3051
925.279	3097
925.387	3233
925.494	3211
925.602	3336
925.709	3332
925.816	3192
925.924	3283
926.031	3363
926.138	3310
926.245	3344
926.352	3260
926.459	3370
926.566	3469
926.673	3298
926.779	3230
926.886	3211
926.993	3180
927.099	3146
927.206	3116
927.312	3085
927.419	3245
927.525	3218
927.631	3241
927.737	3142
927.843	3131
927.95	3032
928.056	3169
928.162	3188
928.267	3245
928.373	3778
928.479	3302
928.585	3028
928.69	3245
928.796	3268
928.901	3157
929.007	3039
929.112	3214
929.218	3226
929.323	3161
929.428	3157
929.533	3306
929.638	3138
929.743	3169
929.848	3268
929.953	3199
930.058	3135
930.163	3020
930.267	3066
930.372	3173
930.477	3017
930.581	3310
930.685	3150
930.79	3047
930.894	3131
930.998	3097
931.103	3291
931.207	2944
931.311	2979
931.415	2941
931.519	2762
931.623	2815
