Data from test_V78500241_917.txt Node
Date: Fri Mar 25 16:21:33 CST 2022
User: usil
Spectrometer: V785-0024
Trigger mode: 0
Integration Time (sec): 4.000000E-1
Scans to average: 1
Nonlinearity correction enabled: false
Boxcar width: 0
Storing dark spectrum: false
XAxis mode: Wavelengths
Number of Pixels in Spectrum: 1024
>>>>>Begin Spectral Data<<<<<
801.071	2937
801.214	2960
801.356	2880
801.499	2929
801.641	2918
801.783	2990
801.926	3066
802.068	3009
802.211	3070
802.353	3013
802.496	2986
802.638	3043
802.78	3074
802.923	3104
803.065	3032
803.208	2918
803.35	2967
803.492	3001
803.635	2982
803.777	2804
803.919	2906
804.061	3188
804.204	2963
804.346	2902
804.488	2861
804.63	3013
804.773	2918
804.915	2933
805.057	3085
805.199	2922
805.341	2979
805.483	3043
805.626	3036
805.768	2975
805.91	3138
806.052	3138
806.194	3070
806.336	3253
806.478	3047
806.62	2967
806.762	3009
806.904	3055
807.046	3138
807.188	3017
807.33	2941
807.472	2986
807.614	2902
807.756	2998
807.898	2925
808.04	2902
808.182	3005
808.324	2948
808.465	2937
808.607	2922
808.749	2819
808.891	2887
809.033	2971
809.174	2986
809.316	2914
809.458	2922
809.6	2804
809.741	2750
809.883	2823
810.025	2883
810.166	2876
810.308	2857
810.45	2876
810.591	2815
810.733	2758
810.875	2834
811.016	2796
811.158	2750
811.299	2830
811.441	3001
811.582	2941
811.724	2857
811.865	2876
812.007	2925
812.148	2876
812.29	2899
812.431	2902
812.573	2948
812.714	2979
812.855	3062
812.997	3051
813.138	3104
813.279	3062
813.421	3005
813.562	2975
813.703	2868
813.845	2933
813.986	2800
814.127	2727
814.268	2838
814.41	2826
814.551	2838
814.692	2880
814.833	2819
814.974	2895
815.115	2998
815.256	2880
815.397	2811
815.539	2868
815.68	2834
815.821	2781
815.962	2956
816.103	2937
816.244	2883
816.385	2906
816.526	2960
816.666	2925
816.807	2773
816.948	2899
817.089	2918
817.23	2880
817.371	2823
817.512	2819
817.653	2838
817.793	2845
817.934	2883
818.075	3032
818.216	2960
818.356	3043
818.497	2891
818.638	2815
818.778	2834
818.919	2811
819.06	2800
819.2	2941
819.341	2838
819.481	2811
819.622	2963
819.762	3097
819.903	3081
820.043	2933
820.184	2922
820.324	2929
820.465	3039
820.605	2994
820.746	3032
820.886	2994
821.026	3104
821.167	3157
821.307	3264
821.447	3241
821.588	3230
821.728	3211
821.868	3237
822.008	3104
822.149	3222
822.289	3245
822.429	3089
822.569	3100
822.709	3180
822.849	3013
822.99	3070
823.13	3173
823.27	3214
823.41	3142
823.55	3154
823.69	3150
823.83	3203
823.97	3116
824.11	2990
824.25	2990
824.389	3089
824.529	3150
824.669	3077
824.809	3230
824.949	3253
825.089	3245
825.228	3142
825.368	2960
825.508	3009
825.648	2990
825.787	3013
825.927	3074
826.067	2986
826.206	2982
826.346	3085
826.485	3097
826.625	3142
826.765	3294
826.904	3264
827.044	3005
827.183	2956
827.323	2834
827.462	3043
827.601	2902
827.741	2944
827.88	2948
828.02	2902
828.159	2971
828.298	3028
828.437	3123
828.577	3093
828.716	3237
828.855	3074
828.994	2922
829.134	2910
829.273	2944
829.412	2899
829.551	2910
829.69	2883
829.829	3032
829.968	3135
830.107	3055
830.246	3039
830.385	2918
830.524	2895
830.663	2826
830.802	2785
830.941	2697
831.08	2644
831.219	2777
831.357	2781
831.496	2975
831.635	2720
831.774	2678
831.913	2648
832.051	2568
832.19	2587
832.329	2689
832.467	2594
832.606	2484
832.744	2617
832.883	2621
833.022	2575
833.16	2663
833.299	2720
833.437	2731
833.576	2712
833.714	2708
833.852	2746
833.991	2800
834.129	2838
834.267	2872
834.406	2838
834.544	2883
834.682	2887
834.821	2868
834.959	3089
835.097	2906
835.235	3112
835.373	2982
835.511	3051
835.65	2975
835.788	2994
835.926	2845
836.064	2815
836.202	2891
836.34	3104
836.478	3176
836.615	3051
836.753	3142
836.891	3218
837.029	3184
837.167	3119
837.305	3062
837.443	3032
837.58	2933
837.718	3188
837.856	3089
837.993	3039
838.131	3108
838.269	3138
838.406	3100
838.544	3089
838.681	2963
838.819	2948
838.956	2861
839.094	2819
839.231	2925
839.369	3055
839.506	3367
839.643	3241
839.781	3039
839.918	3020
840.055	3051
840.193	3104
840.33	3077
840.467	3119
840.604	3161
840.742	3443
840.879	3062
841.016	3032
841.153	3146
841.29	3321
841.427	3310
841.564	3264
841.701	3310
841.838	3249
841.975	3192
842.112	3199
842.249	3089
842.385	3070
842.522	3256
842.659	3123
842.796	3085
842.933	3085
843.069	3047
843.206	3074
843.343	3226
843.479	3104
843.616	3169
843.752	2864
843.889	2838
844.025	3135
844.162	2925
844.298	3081
844.435	2948
844.571	2944
844.708	3062
844.844	3169
844.98	3260
845.117	3253
845.253	3077
845.389	3001
845.525	3097
845.661	3119
845.798	3024
845.934	3112
846.07	3074
846.206	3230
846.342	3321
846.478	3245
846.614	3089
846.75	3062
846.886	3024
847.022	3237
847.158	3169
847.294	3195
847.429	3241
847.565	3226
847.701	3534
847.837	3001
847.972	3028
848.108	3169
848.244	3184
848.379	3005
848.515	2952
848.65	2933
848.786	2971
848.921	3062
849.057	3119
849.192	3142
849.328	3100
849.463	3116
849.598	3077
849.734	2986
849.869	2994
850.004	2895
850.14	2979
850.275	2922
850.41	2857
850.545	2895
850.68	2914
850.815	2971
850.95	2967
851.085	3188
851.22	3104
851.355	3077
851.49	3017
851.625	3020
851.76	3009
851.895	2948
852.03	2918
852.165	3017
852.299	3089
852.434	3165
852.569	3138
852.703	3195
852.838	3237
852.973	3348
853.107	3370
853.242	3169
853.376	3112
853.511	2956
853.645	3043
853.78	3245
853.914	3135
854.048	3108
854.183	3055
854.317	3142
854.451	3302
854.585	3165
854.72	3089
854.854	3214
854.988	3051
855.122	3119
855.256	2982
855.39	3119
855.524	3275
855.658	3203
855.792	3169
855.926	3199
856.06	3180
856.194	3249
856.327	3100
856.461	3077
856.595	3081
856.729	3081
856.862	3214
856.996	3161
857.13	3237
857.263	3207
857.397	3283
857.53	3146
857.664	3165
857.797	3222
857.931	3275
858.064	3192
858.197	3233
858.331	3165
858.464	3146
858.597	2986
858.731	3165
858.864	3161
858.997	3066
859.13	3116
859.263	3188
859.396	3218
859.529	3119
859.662	3070
859.795	3036
859.928	3116
860.061	3275
860.194	3291
860.327	3150
860.46	3123
860.592	3214
860.725	3287
860.858	3302
860.99	3112
861.123	3070
861.256	3047
861.388	3157
861.521	3835
861.653	3017
861.786	3005
861.918	3001
862.05	3097
862.183	3070
862.315	3123
862.447	3203
862.58	3127
862.712	2956
862.844	2864
862.976	3036
863.108	2967
863.24	3348
863.372	2880
863.504	2956
863.636	2937
863.768	3032
863.9	3005
864.032	2925
864.164	2937
864.296	3009
864.428	3074
864.559	3058
864.691	3077
864.823	3062
864.954	3013
865.086	3028
865.217	2994
865.349	2914
865.48	3013
865.612	3024
865.743	3161
865.875	2990
866.006	2960
866.137	3009
866.269	2960
866.4	2933
866.531	2952
866.662	2861
866.793	2899
866.924	2922
867.055	2979
867.186	2971
867.317	2899
867.448	2838
867.579	2823
867.71	2857
867.841	2826
867.972	2883
868.103	2922
868.233	2868
868.364	2880
868.495	2929
868.625	3093
868.756	3146
868.886	2979
869.017	3058
869.147	3169
869.278	3108
869.408	3051
869.539	3028
869.669	3138
869.799	3062
869.929	3112
870.06	3097
870.19	3294
870.32	3332
870.45	3268
870.58	3351
870.71	3454
870.84	3447
870.97	3302
871.1	3207
871.23	3473
871.36	3450
871.489	3370
871.619	3370
871.749	3424
871.879	3431
872.008	3488
872.138	3336
872.267	3245
872.397	3135
872.526	3131
872.656	3020
872.785	3085
872.915	3249
873.044	3317
873.173	3203
873.303	3214
873.432	3272
873.561	3218
873.69	3142
873.819	3138
873.948	3203
874.077	3097
874.206	3043
874.335	3089
874.464	3237
874.593	3367
874.722	3207
874.851	3382
874.979	3340
875.108	3310
875.237	3188
875.365	3157
875.494	3176
875.623	3260
875.751	3093
875.88	3104
876.008	3184
876.136	3230
876.265	3351
876.393	3534
876.521	3405
876.65	3382
876.778	3325
876.906	3218
877.034	3192
877.162	3245
877.29	3165
877.418	3264
877.546	3253
877.674	3237
877.802	3222
877.93	3203
878.058	3146
878.185	3104
878.313	3192
878.441	3199
878.568	3066
878.696	3157
878.824	3268
878.951	3272
879.079	3424
879.206	3591
879.333	3409
879.461	3325
879.588	3325
879.715	3500
879.842	3599
879.97	3359
880.097	3180
880.224	3100
880.351	3207
880.478	3226
880.605	3260
880.732	3154
880.859	3496
880.986	3317
881.112	3325
881.239	3192
881.366	3070
881.493	3039
881.619	3017
881.746	3028
881.872	3051
881.999	3058
882.125	3100
882.252	3222
882.378	3279
882.505	3481
882.631	3268
882.757	3176
882.883	3211
883.01	3233
883.136	3161
883.262	3077
883.388	3123
883.514	3332
883.64	3351
883.766	3321
883.892	3241
884.018	3214
884.143	3416
884.269	3481
884.395	3199
884.52	3173
884.646	3230
884.772	3150
884.897	3116
885.023	3207
885.148	3306
885.274	3416
885.399	3298
885.524	3256
885.65	3291
885.775	3313
885.9	3283
886.025	3416
886.15	3355
886.275	3294
886.4	3211
886.525	3321
886.65	3264
886.775	3275
886.9	3454
887.025	3603
887.149	3370
887.274	3256
887.399	3161
887.523	3173
887.648	3169
887.773	3184
887.897	3336
888.021	3401
888.146	3302
888.27	3439
888.395	3557
888.519	3435
888.643	3473
888.767	3481
888.891	3310
889.015	3226
889.139	3287
889.263	3230
889.387	3359
889.511	3530
889.635	3469
889.759	3222
889.883	3272
890.006	3389
890.13	3519
890.254	3279
890.377	3321
890.501	3195
890.624	3173
890.748	3283
890.871	3169
890.995	3150
891.118	3077
891.241	3195
891.364	3214
891.488	3302
891.611	3188
891.734	3253
891.857	3275
891.98	3203
892.103	3332
892.226	3302
892.349	3230
892.471	3119
892.594	3230
892.717	3298
892.839	3294
892.962	3272
893.085	3359
893.207	3275
893.33	3165
893.452	3222
893.575	3317
893.697	3264
893.819	3454
893.941	3492
894.064	3420
894.186	3253
894.308	3275
894.43	3431
894.552	3481
894.674	3450
894.796	3294
894.918	3275
895.04	3268
895.161	3431
895.283	3382
895.405	3294
895.526	3405
895.648	3393
895.769	3386
895.891	3447
896.012	3466
896.134	3477
896.255	3412
896.376	3386
896.498	3332
896.619	3370
896.74	3351
896.861	3412
896.982	3667
897.103	3800
897.224	3595
897.345	3511
897.466	3424
897.587	3523
897.708	3610
897.828	3580
897.949	3439
898.07	3321
898.19	3397
898.311	3599
898.431	3462
898.552	3439
898.672	3584
898.792	3603
898.913	3572
899.033	3412
899.153	3291
899.273	3226
899.393	3264
899.513	3325
899.633	3348
899.753	3332
899.873	3287
899.993	3428
900.113	3344
900.232	3412
900.352	3359
900.472	3291
900.591	3192
900.711	3302
900.83	3218
900.95	3397
901.069	3538
901.189	3306
901.308	3165
901.427	3116
901.546	3180
901.665	3283
901.784	3340
901.904	3199
902.023	3116
902.141	3013
902.26	2986
902.379	3135
902.498	3085
902.617	3032
902.735	3218
902.854	3245
902.973	3207
903.091	3009
903.21	3066
903.328	3146
903.446	3093
903.565	3070
903.683	3192
903.801	3112
903.919	3222
904.038	3237
904.156	3173
904.274	3306
904.392	3287
904.51	3283
904.627	3344
904.745	3450
904.863	3477
904.981	3256
905.098	3188
905.216	3222
905.334	3310
905.451	3272
905.569	3313
905.686	3435
905.803	3424
905.921	3313
906.038	3424
906.155	3348
906.272	3241
906.389	3332
906.506	3245
906.623	3241
906.74	3302
906.857	3169
906.974	3272
907.091	3382
907.208	3564
907.324	3466
907.441	3386
907.557	3249
907.674	3199
907.79	3249
907.907	3264
908.023	3374
908.139	3348
908.256	3306
908.372	3367
908.488	3348
908.604	3279
908.72	3237
908.836	3283
908.952	3272
909.068	3306
909.184	3443
909.3	3405
909.415	3507
909.531	3488
909.647	3241
909.762	3226
909.878	3253
909.993	3367
910.108	3321
910.224	3313
910.339	3405
910.454	3302
910.57	3279
910.685	3253
910.8	3553
910.915	3591
911.03	3431
911.145	3256
911.259	3302
911.374	3332
911.489	3233
911.604	3195
911.718	3131
911.833	3173
911.947	3001
912.062	2998
912.176	3173
912.291	3180
912.405	3180
912.519	3420
912.633	3420
912.748	3329
912.862	3302
912.976	3154
913.09	3062
913.204	3138
913.318	3230
913.431	3336
913.545	3336
913.659	3420
913.772	3336
913.886	3207
914	3192
914.113	3355
914.226	3401
914.34	3348
914.453	3218
914.566	3409
914.68	3260
914.793	3279
914.906	3169
915.019	3097
915.132	3066
915.245	3154
915.358	3207
915.47	3195
915.583	3249
915.696	3325
915.809	3397
915.921	3401
916.034	3237
916.146	3268
916.259	3207
916.371	3367
916.483	3382
916.595	3272
916.708	3306
916.82	3310
916.932	3348
917.044	3332
917.156	3313
917.268	3268
917.38	3294
917.491	3279
917.603	3393
917.715	3447
917.826	3466
917.938	3393
918.049	3291
918.161	3450
918.272	3557
918.384	3542
918.495	3519
918.606	3317
918.717	3283
918.828	3363
918.939	3397
919.05	3237
919.161	3367
919.272	3199
919.383	3283
919.494	3488
919.604	3682
919.715	3439
919.826	3359
919.936	3424
920.047	3587
920.157	3561
920.267	3762
920.378	3587
920.488	3553
920.598	3762
920.708	3907
920.818	3823
920.928	3800
921.038	4048
921.148	3953
921.258	3705
921.368	3614
921.477	3603
921.587	3500
921.697	3496
921.806	3606
921.916	3496
922.025	3355
922.134	3344
922.244	3306
922.353	3401
922.462	3195
922.571	3184
922.68	3116
922.789	3051
922.898	3123
923.007	3058
923.116	3195
923.224	3150
923.333	3188
923.442	3081
923.55	3066
923.659	3135
923.767	3237
923.876	3119
923.984	3226
924.092	3085
924.201	3188
924.309	3214
924.417	3275
924.525	3207
924.633	3233
924.741	4147
924.849	3058
924.956	3241
925.064	3112
925.172	3028
925.279	3123
925.387	3188
925.494	3222
925.602	3336
925.709	3325
925.816	3169
925.924	3279
926.031	3386
926.138	3344
926.245	3393
926.352	3256
926.459	3412
926.566	3439
926.673	3291
926.779	3249
926.886	3241
926.993	3154
927.099	3142
927.206	3097
927.312	3093
927.419	3260
927.525	3176
927.631	3218
927.737	3119
927.843	3154
927.95	3013
928.056	3154
928.162	3192
928.267	3237
928.373	3842
928.479	3302
928.585	3081
928.69	3195
928.796	3233
928.901	3131
929.007	3047
929.112	3233
929.218	3154
929.323	3116
929.428	3131
929.533	3302
929.638	3100
929.743	3154
929.848	3291
929.953	3207
930.058	3154
930.163	2979
930.267	3051
930.372	3188
930.477	3001
930.581	3283
930.685	3218
930.79	3062
930.894	3116
930.998	3036
931.103	3245
931.207	2933
931.311	2918
931.415	2933
931.519	2773
931.623	2807
