Data from test_V78500241_416.txt Node
Date: Fri Mar 25 16:18:05 CST 2022
User: usil
Spectrometer: V785-0024
Trigger mode: 0
Integration Time (sec): 4.000000E-1
Scans to average: 1
Nonlinearity correction enabled: false
Boxcar width: 0
Storing dark spectrum: false
XAxis mode: Wavelengths
Number of Pixels in Spectrum: 1024
>>>>>Begin Spectral Data<<<<<
801.071	2910
801.214	2944
801.356	2876
801.499	2872
801.641	2834
801.783	2941
801.926	3039
802.068	2979
802.211	2963
802.353	3017
802.496	2960
802.638	2971
802.78	3047
802.923	3119
803.065	2944
803.208	2880
803.35	2906
803.492	2922
803.635	2899
803.777	2777
803.919	2861
804.061	3211
804.204	2952
804.346	2925
804.488	2834
804.63	2979
804.773	2872
804.915	2895
805.057	3066
805.199	2929
805.341	2990
805.483	3047
805.626	3001
805.768	2963
805.91	3077
806.052	3119
806.194	3036
806.336	3245
806.478	3024
806.62	2925
806.762	2982
806.904	3024
807.046	3142
807.188	2948
807.33	2933
807.472	2990
807.614	2925
807.756	2979
807.898	2929
808.04	2906
808.182	2948
808.324	2967
808.465	2880
808.607	2906
808.749	2769
808.891	2823
809.033	2975
809.174	2948
809.316	2883
809.458	2845
809.6	2750
809.741	2735
809.883	2750
810.025	2834
810.166	2868
810.308	2815
810.45	2883
810.591	2769
810.733	2754
810.875	2807
811.016	2792
811.158	2762
811.299	2815
811.441	2929
811.582	2876
811.724	2834
811.865	2868
812.007	2899
812.148	2887
812.29	2849
812.431	2899
812.573	2933
812.714	2963
812.855	3051
812.997	3081
813.138	3142
813.279	3013
813.421	2956
813.562	2944
813.703	2857
813.845	2895
813.986	2788
814.127	2720
814.268	2811
814.41	2819
814.551	2800
814.692	2883
814.833	2819
814.974	2895
815.115	2971
815.256	2864
815.397	2830
815.539	2853
815.68	2750
815.821	2758
815.962	2925
816.103	2906
816.244	2895
816.385	2895
816.526	2963
816.666	2906
816.807	2712
816.948	2883
817.089	2883
817.23	2868
817.371	2792
817.512	2819
817.653	2834
817.793	2807
817.934	2902
818.075	2990
818.216	2956
818.356	3058
818.497	2868
818.638	2788
818.778	2781
818.919	2811
819.06	2758
819.2	2914
819.341	2819
819.481	2788
819.622	2937
819.762	3119
819.903	3039
820.043	2895
820.184	2906
820.324	2868
820.465	3024
820.605	2990
820.746	3024
820.886	2933
821.026	3119
821.167	3146
821.307	3249
821.447	3249
821.588	3260
821.728	3199
821.868	3203
822.008	3070
822.149	3176
822.289	3218
822.429	3089
822.569	3074
822.709	3169
822.849	3020
822.99	3077
823.13	3146
823.27	3180
823.41	3127
823.55	3123
823.69	3169
823.83	3192
823.97	3093
824.11	3001
824.25	2963
824.389	3085
824.529	3112
824.669	3074
824.809	3138
824.949	3245
825.089	3184
825.228	3165
825.368	3024
825.508	2925
825.648	2960
825.787	3024
825.927	3013
826.067	2960
826.206	2956
826.346	3036
826.485	3062
826.625	3097
826.765	3268
826.904	3226
827.044	2998
827.183	2944
827.323	2864
827.462	2994
827.601	2937
827.741	2914
827.88	2944
828.02	2849
828.159	2971
828.298	3051
828.437	3116
828.577	3047
828.716	3264
828.855	3085
828.994	2887
829.134	2899
829.273	2956
829.412	2868
829.551	2864
829.69	2864
829.829	2948
829.968	3161
830.107	2975
830.246	2971
830.385	2933
830.524	2895
830.663	2815
830.802	2697
830.941	2636
831.08	2667
831.219	2743
831.357	2762
831.496	2971
831.635	2739
831.774	2621
831.913	2667
832.051	2579
832.19	2537
832.329	2678
832.467	2537
832.606	2476
832.744	2571
832.883	2564
833.022	2571
833.16	2648
833.299	2716
833.437	2686
833.576	2686
833.714	2724
833.852	2735
833.991	2777
834.129	2830
834.267	2834
834.406	2830
834.544	2876
834.682	2868
834.821	2887
834.959	3051
835.097	2922
835.235	3051
835.373	2998
835.511	3017
835.65	2994
835.788	2929
835.926	2834
836.064	2785
836.202	2815
836.34	3062
836.478	3150
836.615	3036
836.753	3123
836.891	3192
837.029	3119
837.167	3093
837.305	3043
837.443	3077
837.58	2948
837.718	3131
837.856	3066
837.993	3032
838.131	3104
838.269	3055
838.406	3085
838.544	3093
838.681	2944
838.819	2876
838.956	2792
839.094	2842
839.231	2899
839.369	3039
839.506	3351
839.643	3184
839.781	3005
839.918	2960
840.055	3017
840.193	3070
840.33	3093
840.467	3100
840.604	3154
840.742	3363
840.879	3066
841.016	3005
841.153	3097
841.29	3302
841.427	3264
841.564	3233
841.701	3329
841.838	3192
841.975	3211
842.112	3218
842.249	3066
842.385	3058
842.522	3245
842.659	3116
842.796	3051
842.933	3070
843.069	3032
843.206	3036
843.343	3207
843.479	3085
843.616	3138
843.752	2880
843.889	2857
844.025	3066
844.162	2887
844.298	3089
844.435	2937
844.571	2906
844.708	3077
844.844	3154
844.98	3207
845.117	3199
845.253	3047
845.389	3036
845.525	3081
845.661	3093
845.798	3013
845.934	3146
846.07	3074
846.206	3222
846.342	3291
846.478	3207
846.614	3081
846.75	3051
846.886	3036
847.022	3264
847.158	3119
847.294	3203
847.429	3230
847.565	3233
847.701	3481
847.837	3024
847.972	2982
848.108	3192
848.244	3135
848.379	2986
848.515	2948
848.65	2918
848.786	2925
848.921	2994
849.057	3085
849.192	3104
849.328	3051
849.463	3104
849.598	3028
849.734	3005
849.869	3017
850.004	2922
850.14	2937
850.275	2902
850.41	2864
850.545	2864
850.68	2880
850.815	2929
850.95	2971
851.085	3154
851.22	3100
851.355	3039
851.49	2990
851.625	2986
851.76	2994
851.895	2933
852.03	2891
852.165	3005
852.299	3108
852.434	3195
852.569	3154
852.703	3142
852.838	3260
852.973	3340
853.107	3302
853.242	3108
853.376	3093
853.511	2971
853.645	3036
853.78	3203
853.914	3097
854.048	3085
854.183	3081
854.317	3104
854.451	3241
854.585	3097
854.72	3051
854.854	3184
854.988	3047
855.122	3104
855.256	2990
855.39	3085
855.524	3222
855.658	3154
855.792	3138
855.926	3173
856.06	3211
856.194	3233
856.327	3165
856.461	3047
856.595	3074
856.729	3093
856.862	3195
856.996	3146
857.13	3180
857.263	3226
857.397	3279
857.53	3093
857.664	3203
857.797	3260
857.931	3241
858.064	3165
858.197	3279
858.331	3150
858.464	3058
858.597	2990
858.731	3127
858.864	3104
858.997	3074
859.13	3138
859.263	3150
859.396	3214
859.529	3085
859.662	3089
859.795	3039
859.928	3100
860.061	3298
860.194	3256
860.327	3116
860.46	3081
860.592	3233
860.725	3279
860.858	3207
860.99	3104
861.123	3058
861.256	3070
861.388	3146
861.521	3937
861.653	3020
861.786	2963
861.918	3013
862.05	3108
862.183	3081
862.315	3173
862.447	3192
862.58	3074
862.712	2944
862.844	2887
862.976	3032
863.108	3017
863.24	3416
863.372	2868
863.504	2948
863.636	2925
863.768	3001
863.9	2994
864.032	2891
864.164	2948
864.296	3058
864.428	3070
864.559	3104
864.691	3047
864.823	3077
864.954	3005
865.086	3013
865.217	2998
865.349	2941
865.48	3009
865.612	3024
865.743	3135
865.875	3005
866.006	2937
866.137	2963
866.269	2956
866.4	2941
866.531	2899
866.662	2872
866.793	2876
866.924	2895
867.055	2944
867.186	2929
867.317	2883
867.448	2834
867.579	2826
867.71	2853
867.841	2826
867.972	2933
868.103	2880
868.233	2876
868.364	2864
868.495	2891
868.625	3089
868.756	3188
868.886	2960
869.017	3024
869.147	3131
869.278	3161
869.408	3036
869.539	2986
869.669	3085
869.799	3062
869.929	3123
870.06	3127
870.19	3355
870.32	3275
870.45	3256
870.58	3367
870.71	3424
870.84	3439
870.97	3283
871.1	3237
871.23	3473
871.36	3454
871.489	3363
871.619	3363
871.749	3401
871.879	3458
872.008	3485
872.138	3386
872.267	3253
872.397	3154
872.526	3066
872.656	3017
872.785	3062
872.915	3218
873.044	3313
873.173	3214
873.303	3230
873.432	3199
873.561	3249
873.69	3127
873.819	3135
873.948	3192
874.077	3116
874.206	3039
874.335	3077
874.464	3222
874.593	3370
874.722	3218
874.851	3397
874.979	3367
875.108	3348
875.237	3203
875.365	3157
875.494	3207
875.623	3188
875.751	3043
875.88	3131
876.008	3173
876.136	3226
876.265	3336
876.393	3523
876.521	3454
876.65	3386
876.778	3348
876.906	3241
877.034	3199
877.162	3218
877.29	3180
877.418	3253
877.546	3253
877.674	3245
877.802	3256
877.93	3218
878.058	3154
878.185	3104
878.313	3214
878.441	3169
878.568	3024
878.696	3150
878.824	3207
878.951	3291
879.079	3431
879.206	3576
879.333	3469
879.461	3355
879.588	3363
879.715	3466
879.842	3549
879.97	3363
880.097	3161
880.224	3161
880.351	3211
880.478	3184
880.605	3214
880.732	3161
880.859	3454
880.986	3260
881.112	3306
881.239	3192
881.366	3066
881.493	3047
881.619	3017
881.746	3089
881.872	3043
881.999	3123
882.125	3142
882.252	3226
882.378	3256
882.505	3431
882.631	3298
882.757	3154
882.883	3226
883.01	3165
883.136	3169
883.262	3097
883.388	3112
883.514	3298
883.64	3382
883.766	3359
883.892	3192
884.018	3241
884.143	3370
884.269	3557
884.395	3188
884.52	3237
884.646	3176
884.772	3135
884.897	3085
885.023	3195
885.148	3291
885.274	3367
885.399	3340
885.524	3272
885.65	3256
885.775	3340
885.9	3279
886.025	3370
886.15	3363
886.275	3264
886.4	3211
886.525	3275
886.65	3245
886.775	3249
886.9	3458
887.025	3614
887.149	3405
887.274	3279
887.399	3173
887.523	3180
887.648	3192
887.773	3180
887.897	3348
888.021	3397
888.146	3302
888.27	3424
888.395	3519
888.519	3458
888.643	3447
888.767	3450
888.891	3329
889.015	3241
889.139	3294
889.263	3237
889.387	3393
889.511	3488
889.635	3412
889.759	3260
889.883	3279
890.006	3348
890.13	3481
890.254	3272
890.377	3351
890.501	3165
890.624	3195
890.748	3287
890.871	3176
890.995	3093
891.118	3032
891.241	3203
891.364	3188
891.488	3359
891.611	3161
891.734	3233
891.857	3279
891.98	3233
892.103	3370
892.226	3298
892.349	3211
892.471	3093
892.594	3203
892.717	3287
892.839	3249
892.962	3291
893.085	3340
893.207	3279
893.33	3184
893.452	3192
893.575	3317
893.697	3260
893.819	3469
893.941	3485
894.064	3424
894.186	3279
894.308	3230
894.43	3458
894.552	3553
894.674	3458
894.796	3241
894.918	3321
895.04	3275
895.161	3412
895.283	3386
895.405	3306
895.526	3348
895.648	3454
895.769	3424
895.891	3450
896.012	3485
896.134	3496
896.255	3370
896.376	3393
896.498	3329
896.619	3424
896.74	3351
896.861	3386
896.982	3682
897.103	3819
897.224	3561
897.345	3481
897.466	3447
897.587	3530
897.708	3595
897.828	3545
897.949	3424
898.07	3302
898.19	3405
898.311	3603
898.431	3454
898.552	3507
898.672	3580
898.792	3564
898.913	3534
899.033	3424
899.153	3268
899.273	3245
899.393	3291
899.513	3294
899.633	3294
899.753	3367
899.873	3287
899.993	3363
900.113	3329
900.232	3412
900.352	3344
900.472	3294
900.591	3195
900.711	3275
900.83	3253
900.95	3397
901.069	3481
901.189	3363
901.308	3176
901.427	3131
901.546	3211
901.665	3321
901.784	3344
901.904	3192
902.023	3184
902.141	3017
902.26	2979
902.379	3138
902.498	3089
902.617	3077
902.735	3226
902.854	3253
902.973	3214
903.091	3024
903.21	3036
903.328	3157
903.446	3070
903.565	3093
903.683	3237
903.801	3085
903.919	3253
904.038	3275
904.156	3195
904.274	3317
904.392	3272
904.51	3291
904.627	3317
904.745	3416
904.863	3500
904.981	3233
905.098	3199
905.216	3256
905.334	3268
905.451	3279
905.569	3317
905.686	3420
905.803	3409
905.921	3291
906.038	3409
906.155	3367
906.272	3256
906.389	3329
906.506	3237
906.623	3245
906.74	3298
906.857	3192
906.974	3199
907.091	3431
907.208	3553
907.324	3485
907.441	3386
907.557	3207
907.674	3188
907.79	3222
907.907	3249
908.023	3378
908.139	3378
908.256	3344
908.372	3389
908.488	3344
908.604	3230
908.72	3245
908.836	3287
908.952	3283
909.068	3336
909.184	3454
909.3	3393
909.415	3481
909.531	3458
909.647	3272
909.762	3272
909.878	3279
909.993	3370
910.108	3348
910.224	3306
910.339	3386
910.454	3321
910.57	3298
910.685	3203
910.8	3618
910.915	3515
911.03	3454
911.145	3298
911.259	3268
911.374	3329
911.489	3260
911.604	3241
911.718	3165
911.833	3157
911.947	3039
912.062	2979
912.176	3146
912.291	3165
912.405	3184
912.519	3420
912.633	3424
912.748	3313
912.862	3256
912.976	3157
913.09	3051
913.204	3173
913.318	3214
913.431	3340
913.545	3336
913.659	3355
913.772	3329
913.886	3207
914	3192
914.113	3340
914.226	3447
914.34	3336
914.453	3268
914.566	3405
914.68	3283
914.793	3272
914.906	3146
915.019	3127
915.132	3043
915.245	3184
915.358	3180
915.47	3256
915.583	3272
915.696	3325
915.809	3397
915.921	3447
916.034	3268
916.146	3272
916.259	3233
916.371	3397
916.483	3355
916.595	3283
916.708	3329
916.82	3351
916.932	3321
917.044	3340
917.156	3329
917.268	3268
917.38	3287
917.491	3245
917.603	3382
917.715	3420
917.826	3496
917.938	3378
918.049	3260
918.161	3420
918.272	3561
918.384	3526
918.495	3458
918.606	3351
918.717	3279
918.828	3344
918.939	3382
919.05	3287
919.161	3321
919.272	3142
919.383	3302
919.494	3523
919.604	3701
919.715	3500
919.826	3416
919.936	3454
920.047	3572
920.157	3568
920.267	3770
920.378	3572
920.488	3564
920.598	3819
920.708	3915
920.818	3789
920.928	3865
921.038	4040
921.148	3972
921.258	3652
921.368	3614
921.477	3606
921.587	3545
921.697	3447
921.806	3660
921.916	3538
922.025	3382
922.134	3355
922.244	3291
922.353	3424
922.462	3253
922.571	3226
922.68	3142
922.789	3074
922.898	3146
923.007	3093
923.116	3203
923.224	3195
923.333	3184
923.442	3093
923.55	3070
923.659	3138
923.767	3199
923.876	3108
923.984	3226
924.092	3093
924.201	3180
924.309	3192
924.417	3241
924.525	3176
924.633	3237
924.741	4169
924.849	3058
924.956	3268
925.064	3058
925.172	3028
925.279	3089
925.387	3173
925.494	3226
925.602	3370
925.709	3332
925.816	3199
925.924	3241
926.031	3374
926.138	3321
926.245	3355
926.352	3233
926.459	3321
926.566	3485
926.673	3344
926.779	3230
926.886	3207
926.993	3127
927.099	3108
927.206	3104
927.312	3093
927.419	3256
927.525	3222
927.631	3272
927.737	3104
927.843	3112
927.95	2998
928.056	3119
928.162	3154
928.267	3249
928.373	3876
928.479	3325
928.585	3066
928.69	3226
928.796	3264
928.901	3184
929.007	3017
929.112	3218
929.218	3173
929.323	3165
929.428	3097
929.533	3329
929.638	3100
929.743	3135
929.848	3260
929.953	3233
930.058	3142
930.163	2979
930.267	3058
930.372	3222
930.477	3009
930.581	3348
930.685	3207
930.79	3058
930.894	3108
930.998	3089
931.103	3332
931.207	2925
931.311	2952
931.415	2895
931.519	2769
931.623	2811
