Data from test_V78500241_1563.txt Node
Date: Fri Mar 25 16:26:01 CST 2022
User: usil
Spectrometer: V785-0024
Trigger mode: 0
Integration Time (sec): 4.000000E-1
Scans to average: 1
Nonlinearity correction enabled: false
Boxcar width: 0
Storing dark spectrum: false
XAxis mode: Wavelengths
Number of Pixels in Spectrum: 1024
>>>>>Begin Spectral Data<<<<<
801.071	2910
801.214	2944
801.356	2883
801.499	2872
801.641	2861
801.783	2922
801.926	3032
802.068	2979
802.211	2971
802.353	3036
802.496	2975
802.638	3032
802.78	3013
802.923	3047
803.065	3001
803.208	2918
803.35	2876
803.492	2918
803.635	2944
803.777	2750
803.919	2887
804.061	3150
804.204	2941
804.346	2891
804.488	2845
804.63	2960
804.773	2868
804.915	2899
805.057	3055
805.199	2902
805.341	2975
805.483	3039
805.626	3028
805.768	2948
805.91	3093
806.052	3108
806.194	3020
806.336	3237
806.478	3055
806.62	2960
806.762	2990
806.904	3062
807.046	3150
807.188	2982
807.33	2914
807.472	2975
807.614	2872
807.756	2990
807.898	2887
808.04	2876
808.182	2971
808.324	2933
808.465	2887
808.607	2902
808.749	2792
808.891	2815
809.033	2956
809.174	2960
809.316	2918
809.458	2857
809.6	2785
809.741	2750
809.883	2788
810.025	2853
810.166	2861
810.308	2830
810.45	2845
810.591	2766
810.733	2743
810.875	2834
811.016	2762
811.158	2796
811.299	2823
811.441	2918
811.582	2880
811.724	2845
811.865	2842
812.007	2906
812.148	2887
812.29	2845
812.431	2857
812.573	2948
812.714	2979
812.855	3047
812.997	3074
813.138	3097
813.279	2979
813.421	3009
813.562	2971
813.703	2880
813.845	2887
813.986	2781
814.127	2697
814.268	2830
814.41	2819
814.551	2834
814.692	2918
814.833	2834
814.974	2876
815.115	2963
815.256	2823
815.397	2842
815.539	2861
815.68	2788
815.821	2807
815.962	2933
816.103	2937
816.244	2861
816.385	2861
816.526	2941
816.666	2880
816.807	2781
816.948	2872
817.089	2922
817.23	2819
817.371	2743
817.512	2785
817.653	2842
817.793	2804
817.934	2864
818.075	2963
818.216	2948
818.356	3005
818.497	2891
818.638	2796
818.778	2796
818.919	2766
819.06	2743
819.2	2834
819.341	2781
819.481	2788
819.622	2906
819.762	3055
819.903	3077
820.043	2929
820.184	2891
820.324	2895
820.465	2994
820.605	3017
820.746	3039
820.886	2922
821.026	3116
821.167	3165
821.307	3245
821.447	3272
821.588	3218
821.728	3195
821.868	3226
822.008	3070
822.149	3157
822.289	3199
822.429	3081
822.569	3100
822.709	3161
822.849	3017
822.99	3051
823.13	3135
823.27	3207
823.41	3119
823.55	3127
823.69	3116
823.83	3199
823.97	3093
824.11	2952
824.25	2963
824.389	3077
824.529	3085
824.669	3085
824.809	3207
824.949	3233
825.089	3192
825.228	3157
825.368	2967
825.508	2933
825.648	2937
825.787	3036
825.927	3001
826.067	2960
826.206	2994
826.346	3036
826.485	3077
826.625	3108
826.765	3260
826.904	3211
827.044	3005
827.183	2933
827.323	2868
827.462	2994
827.601	2880
827.741	2937
827.88	2937
828.02	2834
828.159	2967
828.298	3039
828.437	3085
828.577	3043
828.716	3253
828.855	3058
828.994	2883
829.134	2906
829.273	2925
829.412	2868
829.551	2864
829.69	2891
829.829	2975
829.968	3093
830.107	3005
830.246	2990
830.385	2929
830.524	2880
830.663	2781
830.802	2727
830.941	2648
831.08	2655
831.219	2773
831.357	2762
831.496	3005
831.635	2686
831.774	2651
831.913	2636
832.051	2556
832.19	2571
832.329	2686
832.467	2495
832.606	2507
832.744	2568
832.883	2571
833.022	2606
833.16	2651
833.299	2689
833.437	2705
833.576	2735
833.714	2735
833.852	2701
833.991	2750
834.129	2819
834.267	2834
834.406	2754
834.544	2857
834.682	2883
834.821	2845
834.959	3036
835.097	2902
835.235	3032
835.373	3024
835.511	3001
835.65	2967
835.788	2944
835.926	2834
836.064	2834
836.202	2838
836.34	3058
836.478	3127
836.615	3039
836.753	3104
836.891	3199
837.029	3100
837.167	3100
837.305	3058
837.443	3013
837.58	3005
837.718	3169
837.856	3047
837.993	3055
838.131	3112
838.269	3119
838.406	3093
838.544	3077
838.681	2975
838.819	2883
838.956	2766
839.094	2823
839.231	2929
839.369	3013
839.506	3329
839.643	3207
839.781	3017
839.918	2929
840.055	3013
840.193	3062
840.33	3085
840.467	3135
840.604	3165
840.742	3412
840.879	3074
841.016	3036
841.153	3100
841.29	3329
841.427	3275
841.564	3272
841.701	3291
841.838	3195
841.975	3154
842.112	3203
842.249	3085
842.385	3039
842.522	3253
842.659	3097
842.796	3070
842.933	3093
843.069	2994
843.206	3020
843.343	3157
843.479	3089
843.616	3150
843.752	2887
843.889	2864
844.025	3097
844.162	2891
844.298	3077
844.435	2902
844.571	2914
844.708	3051
844.844	3169
844.98	3249
845.117	3173
845.253	3032
845.389	2990
845.525	3097
845.661	3093
845.798	3005
845.934	3112
846.07	3024
846.206	3226
846.342	3317
846.478	3237
846.614	3108
846.75	3058
846.886	3024
847.022	3214
847.158	3097
847.294	3214
847.429	3237
847.565	3218
847.701	3477
847.837	3066
847.972	3009
848.108	3157
848.244	3135
848.379	2986
848.515	2956
848.65	2910
848.786	2925
848.921	2994
849.057	3077
849.192	3154
849.328	3055
849.463	3119
849.598	3070
849.734	3039
849.869	2982
850.004	2891
850.14	2956
850.275	2933
850.41	2830
850.545	2883
850.68	2918
850.815	2990
850.95	2982
851.085	3161
851.22	3074
851.355	3051
851.49	2979
851.625	2982
851.76	3001
851.895	2929
852.03	2883
852.165	3055
852.299	3104
852.434	3188
852.569	3142
852.703	3176
852.838	3260
852.973	3348
853.107	3291
853.242	3154
853.376	3138
853.511	2979
853.645	3039
853.78	3241
853.914	3093
854.048	3116
854.183	3074
854.317	3138
854.451	3275
854.585	3085
854.72	3074
854.854	3176
854.988	3013
855.122	3062
855.256	2971
855.39	3135
855.524	3192
855.658	3150
855.792	3195
855.926	3169
856.06	3233
856.194	3268
856.327	3176
856.461	3039
856.595	3104
856.729	3100
856.862	3207
856.996	3176
857.13	3207
857.263	3226
857.397	3260
857.53	3104
857.664	3165
857.797	3249
857.931	3279
858.064	3146
858.197	3237
858.331	3138
858.464	3077
858.597	2975
858.731	3150
858.864	3093
858.997	3074
859.13	3161
859.263	3135
859.396	3195
859.529	3039
859.662	3058
859.795	3055
859.928	3123
860.061	3283
860.194	3253
860.327	3097
860.46	3112
860.592	3256
860.725	3245
860.858	3253
860.99	3081
861.123	3013
861.256	3017
861.388	3138
861.521	3800
861.653	3017
861.786	2979
861.918	2963
862.05	3047
862.183	3077
862.315	3138
862.447	3173
862.58	3089
862.712	2937
862.844	2876
862.976	2975
863.108	3001
863.24	3275
863.372	2899
863.504	2948
863.636	2982
863.768	2998
863.9	2948
864.032	2899
864.164	2941
864.296	2986
864.428	3112
864.559	3142
864.691	3074
864.823	3043
864.954	3024
865.086	3070
865.217	3005
865.349	2941
865.48	2948
865.612	2998
865.743	3154
865.875	2960
866.006	2933
866.137	2967
866.269	2937
866.4	2937
866.531	2933
866.662	2887
866.793	2883
866.924	2899
867.055	2937
867.186	2902
867.317	2891
867.448	2842
867.579	2842
867.71	2861
867.841	2823
867.972	2899
868.103	2895
868.233	2876
868.364	2891
868.495	2887
868.625	3119
868.756	3112
868.886	2963
869.017	3043
869.147	3180
869.278	3154
869.408	3058
869.539	3020
869.669	3077
869.799	3028
869.929	3135
870.06	3112
870.19	3317
870.32	3283
870.45	3291
870.58	3378
870.71	3450
870.84	3473
870.97	3287
871.1	3245
871.23	3507
871.36	3420
871.489	3351
871.619	3386
871.749	3386
871.879	3435
872.008	3469
872.138	3359
872.267	3264
872.397	3108
872.526	3085
872.656	2975
872.785	3142
872.915	3226
873.044	3321
873.173	3211
873.303	3230
873.432	3237
873.561	3245
873.69	3161
873.819	3104
873.948	3184
874.077	3093
874.206	3058
874.335	3062
874.464	3207
874.593	3355
874.722	3233
874.851	3416
874.979	3340
875.108	3310
875.237	3188
875.365	3169
875.494	3135
875.623	3233
875.751	3055
875.88	3089
876.008	3146
876.136	3256
876.265	3363
876.393	3515
876.521	3386
876.65	3409
876.778	3336
876.906	3272
877.034	3230
877.162	3237
877.29	3180
877.418	3222
877.546	3226
877.674	3218
877.802	3184
877.93	3214
878.058	3165
878.185	3119
878.313	3165
878.441	3161
878.568	3081
878.696	3135
878.824	3233
878.951	3302
879.079	3458
879.206	3603
879.333	3401
879.461	3325
879.588	3367
879.715	3420
879.842	3591
879.97	3359
880.097	3150
880.224	3116
880.351	3203
880.478	3211
880.605	3188
880.732	3195
880.859	3481
880.986	3283
881.112	3298
881.239	3188
881.366	3058
881.493	3039
881.619	3070
881.746	3097
881.872	3108
881.999	3074
882.125	3157
882.252	3264
882.378	3313
882.505	3393
882.631	3230
882.757	3150
882.883	3207
883.01	3275
883.136	3165
883.262	3058
883.388	3108
883.514	3329
883.64	3359
883.766	3310
883.892	3199
884.018	3218
884.143	3412
884.269	3553
884.395	3173
884.52	3157
884.646	3188
884.772	3074
884.897	3116
885.023	3195
885.148	3332
885.274	3409
885.399	3351
885.524	3283
885.65	3233
885.775	3298
885.9	3279
886.025	3458
886.15	3336
886.275	3260
886.4	3233
886.525	3302
886.65	3291
886.775	3272
886.9	3511
887.025	3568
887.149	3397
887.274	3226
887.399	3180
887.523	3199
887.648	3146
887.773	3161
887.897	3382
888.021	3382
888.146	3283
888.27	3447
888.395	3496
888.519	3428
888.643	3435
888.767	3412
888.891	3310
889.015	3241
889.139	3310
889.263	3260
889.387	3386
889.511	3481
889.635	3382
889.759	3283
889.883	3268
890.006	3416
890.13	3477
890.254	3272
890.377	3344
890.501	3188
890.624	3138
890.748	3317
890.871	3142
890.995	3108
891.118	3043
891.241	3195
891.364	3253
891.488	3329
891.611	3188
891.734	3211
891.857	3291
891.98	3237
892.103	3336
892.226	3260
892.349	3203
892.471	3089
892.594	3222
892.717	3298
892.839	3283
892.962	3302
893.085	3351
893.207	3268
893.33	3104
893.452	3173
893.575	3332
893.697	3203
893.819	3462
893.941	3481
894.064	3458
894.186	3268
894.308	3272
894.43	3420
894.552	3523
894.674	3458
894.796	3275
894.918	3340
895.04	3275
895.161	3420
895.283	3374
895.405	3275
895.526	3386
895.648	3447
895.769	3401
895.891	3428
896.012	3458
896.134	3439
896.255	3420
896.376	3389
896.498	3359
896.619	3386
896.74	3313
896.861	3405
896.982	3660
897.103	3808
897.224	3553
897.345	3542
897.466	3462
897.587	3473
897.708	3591
897.828	3572
897.949	3420
898.07	3332
898.19	3397
898.311	3606
898.431	3424
898.552	3481
898.672	3587
898.792	3599
898.913	3473
899.033	3393
899.153	3310
899.273	3214
899.393	3268
899.513	3321
899.633	3336
899.753	3310
899.873	3294
899.993	3370
900.113	3313
900.232	3393
900.352	3310
900.472	3253
900.591	3211
900.711	3294
900.83	3222
900.95	3374
901.069	3477
901.189	3329
901.308	3157
901.427	3077
901.546	3199
901.665	3287
901.784	3306
901.904	3230
902.023	3135
902.141	3005
902.26	2967
902.379	3119
902.498	3058
902.617	3036
902.735	3157
902.854	3245
902.973	3188
903.091	3009
903.21	3047
903.328	3104
903.446	3135
903.565	3077
903.683	3188
903.801	3119
903.919	3241
904.038	3256
904.156	3135
904.274	3298
904.392	3279
904.51	3230
904.627	3272
904.745	3374
904.863	3477
904.981	3241
905.098	3157
905.216	3241
905.334	3264
905.451	3260
905.569	3272
905.686	3431
905.803	3416
905.921	3283
906.038	3443
906.155	3340
906.272	3241
906.389	3317
906.506	3230
906.623	3241
906.74	3245
906.857	3184
906.974	3222
907.091	3386
907.208	3542
907.324	3477
907.441	3393
907.557	3226
907.674	3195
907.79	3214
907.907	3260
908.023	3367
908.139	3393
908.256	3313
908.372	3359
908.488	3374
908.604	3260
908.72	3230
908.836	3233
908.952	3291
909.068	3336
909.184	3462
909.3	3378
909.415	3523
909.531	3439
909.647	3291
909.762	3268
909.878	3256
909.993	3336
910.108	3310
910.224	3355
910.339	3473
910.454	3409
910.57	3302
910.685	3279
910.8	3622
910.915	3530
911.03	3462
911.145	3291
911.259	3294
911.374	3321
911.489	3294
911.604	3249
911.718	3161
911.833	3150
911.947	3085
912.062	3017
912.176	3203
912.291	3203
912.405	3310
912.519	3530
912.633	3523
912.748	3393
912.862	3294
912.976	3218
913.09	3085
913.204	3199
913.318	3272
913.431	3378
913.545	3370
913.659	3435
913.772	3344
913.886	3264
914	3230
914.113	3382
914.226	3458
914.34	3420
914.453	3253
914.566	3450
914.68	3344
914.793	3359
914.906	3157
915.019	3173
915.132	3104
915.245	3192
915.358	3222
915.47	3279
915.583	3294
915.696	3321
915.809	3431
915.921	3409
916.034	3275
916.146	3275
916.259	3237
916.371	3428
916.483	3439
916.595	3310
916.708	3355
916.82	3340
916.932	3397
917.044	3397
917.156	3389
917.268	3291
917.38	3348
917.491	3378
917.603	3405
917.715	3469
917.826	3519
917.938	3420
918.049	3313
918.161	3454
918.272	3622
918.384	3644
918.495	3515
918.606	3329
918.717	3291
918.828	3416
918.939	3450
919.05	3363
919.161	3397
919.272	3195
919.383	3306
919.494	3549
919.604	3762
919.715	3530
919.826	3416
919.936	3500
920.047	3584
920.157	3572
920.267	3781
920.378	3641
920.488	3595
920.598	3819
920.708	3975
920.818	3892
920.928	3896
921.038	4051
921.148	4025
921.258	3720
921.368	3656
921.477	3648
921.587	3553
921.697	3469
921.806	3641
921.916	3572
922.025	3401
922.134	3424
922.244	3306
922.353	3431
922.462	3306
922.571	3226
922.68	3165
922.789	3131
922.898	3180
923.007	3127
923.116	3226
923.224	3222
923.333	3207
923.442	3146
923.55	3108
923.659	3138
923.767	3237
923.876	3154
923.984	3313
924.092	3131
924.201	3249
924.309	3245
924.417	3256
924.525	3184
924.633	3222
924.741	4166
924.849	3077
924.956	3294
925.064	3116
925.172	3047
925.279	3138
925.387	3241
925.494	3226
925.602	3409
925.709	3386
925.816	3241
925.924	3306
926.031	3397
926.138	3370
926.245	3389
926.352	3302
926.459	3439
926.566	3481
926.673	3325
926.779	3264
926.886	3279
926.993	3188
927.099	3169
927.206	3135
927.312	3161
927.419	3237
927.525	3245
927.631	3298
927.737	3173
927.843	3127
927.95	3028
928.056	3180
928.162	3226
928.267	3283
928.373	3888
928.479	3359
928.585	3135
928.69	3233
928.796	3302
928.901	3154
929.007	3081
929.112	3249
929.218	3214
929.323	3230
929.428	3173
929.533	3344
929.638	3157
929.743	3173
929.848	3325
929.953	3241
930.058	3203
930.163	3009
930.267	3043
930.372	3184
930.477	3097
930.581	3355
930.685	3260
930.79	3127
930.894	3169
930.998	3085
931.103	3302
931.207	2998
931.311	2960
931.415	2960
931.519	2823
931.623	2826
