Data from test_V78500241_1740.txt Node
Date: Fri Mar 25 16:27:15 CST 2022
User: usil
Spectrometer: V785-0024
Trigger mode: 0
Integration Time (sec): 4.000000E-1
Scans to average: 1
Nonlinearity correction enabled: false
Boxcar width: 0
Storing dark spectrum: false
XAxis mode: Wavelengths
Number of Pixels in Spectrum: 1024
>>>>>Begin Spectral Data<<<<<
801.071	2906
801.214	2914
801.356	2864
801.499	2902
801.641	2868
801.783	2918
801.926	3058
802.068	2948
802.211	2971
802.353	3032
802.496	2956
802.638	2971
802.78	3013
802.923	3077
803.065	3009
803.208	2872
803.35	2918
803.492	2925
803.635	2910
803.777	2735
803.919	2845
804.061	3157
804.204	2914
804.346	2899
804.488	2838
804.63	2994
804.773	2864
804.915	2891
805.057	3055
805.199	2944
805.341	2933
805.483	3036
805.626	2975
805.768	2952
805.91	3066
806.052	3089
806.194	3009
806.336	3211
806.478	3009
806.62	2948
806.762	2990
806.904	3074
807.046	3157
807.188	2979
807.33	2929
807.472	2967
807.614	2925
807.756	2963
807.898	2906
808.04	2880
808.182	2986
808.324	2956
808.465	2864
808.607	2876
808.749	2804
808.891	2830
809.033	2994
809.174	2994
809.316	2876
809.458	2918
809.6	2773
809.741	2727
809.883	2785
810.025	2826
810.166	2823
810.308	2838
810.45	2872
810.591	2792
810.733	2746
810.875	2838
811.016	2792
811.158	2788
811.299	2815
811.441	2910
811.582	2887
811.724	2777
811.865	2800
812.007	2883
812.148	2929
812.29	2830
812.431	2861
812.573	2929
812.714	2960
812.855	3051
812.997	3051
813.138	3093
813.279	2998
813.421	2975
813.562	2971
813.703	2838
813.845	2838
813.986	2762
814.127	2697
814.268	2796
814.41	2834
814.551	2777
814.692	2864
814.833	2807
814.974	2891
815.115	2925
815.256	2815
815.397	2792
815.539	2845
815.68	2758
815.821	2796
815.962	2956
816.103	2914
816.244	2887
816.385	2868
816.526	2914
816.666	2868
816.807	2739
816.948	2872
817.089	2883
817.23	2872
817.371	2766
817.512	2766
817.653	2838
817.793	2857
817.934	2853
818.075	2941
818.216	2967
818.356	3028
818.497	2910
818.638	2758
818.778	2807
818.919	2785
819.06	2739
819.2	2857
819.341	2769
819.481	2777
819.622	2891
819.762	3036
819.903	3024
820.043	2918
820.184	2899
820.324	2937
820.465	3001
820.605	3009
820.746	2998
820.886	2902
821.026	3089
821.167	3142
821.307	3211
821.447	3287
821.588	3306
821.728	3192
821.868	3199
822.008	3100
822.149	3184
822.289	3230
822.429	3104
822.569	3100
822.709	3184
822.849	2990
822.99	3066
823.13	3169
823.27	3211
823.41	3127
823.55	3199
823.69	3214
823.83	3214
823.97	3081
824.11	3039
824.25	3013
824.389	3104
824.529	3150
824.669	3074
824.809	3214
824.949	3264
825.089	3241
825.228	3180
825.368	3055
825.508	2994
825.648	2986
825.787	3020
825.927	3028
826.067	3028
826.206	3028
826.346	3085
826.485	3085
826.625	3104
826.765	3291
826.904	3230
827.044	3039
827.183	2982
827.323	2922
827.462	3036
827.601	2906
827.741	2963
827.88	2986
828.02	2929
828.159	3020
828.298	3066
828.437	3146
828.577	3058
828.716	3264
828.855	3123
828.994	2918
829.134	2941
829.273	2918
829.412	2922
829.551	2868
829.69	2944
829.829	3028
829.968	3169
830.107	3047
830.246	3032
830.385	2967
830.524	2929
830.663	2823
830.802	2781
830.941	2731
831.08	2689
831.219	2781
831.357	2804
831.496	2998
831.635	2743
831.774	2727
831.913	2697
832.051	2598
832.19	2621
832.329	2724
832.467	2560
832.606	2556
832.744	2613
832.883	2629
833.022	2629
833.16	2663
833.299	2686
833.437	2739
833.576	2731
833.714	2762
833.852	2746
833.991	2796
834.129	2861
834.267	2872
834.406	2857
834.544	2902
834.682	2876
834.821	2883
834.959	3085
835.097	2960
835.235	3066
835.373	2979
835.511	3058
835.65	2979
835.788	2986
835.926	2838
836.064	2838
836.202	2914
836.34	3119
836.478	3192
836.615	3116
836.753	3161
836.891	3264
837.029	3237
837.167	3123
837.305	3089
837.443	3081
837.58	2956
837.718	3161
837.856	3104
837.993	3036
838.131	3150
838.269	3165
838.406	3135
838.544	3146
838.681	2979
838.819	2948
838.956	2857
839.094	2872
839.231	2944
839.369	3043
839.506	3409
839.643	3237
839.781	3062
839.918	3017
840.055	3097
840.193	3077
840.33	3085
840.467	3100
840.604	3192
840.742	3458
840.879	3093
841.016	3081
841.153	3173
841.29	3378
841.427	3306
841.564	3253
841.701	3401
841.838	3245
841.975	3218
842.112	3230
842.249	3097
842.385	3036
842.522	3275
842.659	3123
842.796	3070
842.933	3146
843.069	3081
843.206	3070
843.343	3218
843.479	3161
843.616	3157
843.752	2933
843.889	2899
844.025	3104
844.162	2891
844.298	3085
844.435	2975
844.571	2933
844.708	3108
844.844	3241
844.98	3283
845.117	3245
845.253	3085
845.389	3032
845.525	3131
845.661	3093
845.798	3013
845.934	3161
846.07	3074
846.206	3256
846.342	3351
846.478	3264
846.614	3108
846.75	3077
846.886	3051
847.022	3291
847.158	3192
847.294	3214
847.429	3260
847.565	3253
847.701	3526
847.837	3058
847.972	3001
848.108	3233
848.244	3146
848.379	2986
848.515	2998
848.65	2948
848.786	2982
848.921	3039
849.057	3097
849.192	3199
849.328	3077
849.463	3154
849.598	3074
849.734	3051
849.869	2998
850.004	2967
850.14	2979
850.275	2929
850.41	2864
850.545	2922
850.68	2925
850.815	2998
850.95	2960
851.085	3192
851.22	3108
851.355	3032
851.49	2994
851.625	3028
851.76	3093
851.895	2944
852.03	2922
852.165	3100
852.299	3116
852.434	3192
852.569	3131
852.703	3218
852.838	3272
852.973	3329
853.107	3329
853.242	3176
853.376	3100
853.511	2998
853.645	3066
853.78	3260
853.914	3142
854.048	3146
854.183	3142
854.317	3157
854.451	3306
854.585	3157
854.72	3093
854.854	3207
854.988	3074
855.122	3119
855.256	3020
855.39	3169
855.524	3237
855.658	3176
855.792	3233
855.926	3218
856.06	3256
856.194	3272
856.327	3188
856.461	3104
856.595	3131
856.729	3138
856.862	3256
856.996	3218
857.13	3214
857.263	3222
857.397	3302
857.53	3154
857.664	3211
857.797	3245
857.931	3317
858.064	3165
858.197	3256
858.331	3176
858.464	3100
858.597	3017
858.731	3169
858.864	3154
858.997	3142
859.13	3173
859.263	3161
859.396	3188
859.529	3097
859.662	3074
859.795	3070
859.928	3154
860.061	3268
860.194	3306
860.327	3135
860.46	3104
860.592	3249
860.725	3268
860.858	3302
860.99	3104
861.123	3066
861.256	3089
861.388	3161
861.521	4021
861.653	3028
861.786	3036
861.918	3009
862.05	3055
862.183	3108
862.315	3203
862.447	3226
862.58	3135
862.712	2971
862.844	2918
862.976	3058
863.108	3039
863.24	3340
863.372	2876
863.504	2990
863.636	2925
863.768	3032
863.9	2986
864.032	2910
864.164	2956
864.296	3024
864.428	3097
864.559	3127
864.691	3093
864.823	3097
864.954	3077
865.086	3077
865.217	3009
865.349	2967
865.48	2994
865.612	3039
865.743	3154
865.875	2994
866.006	2956
866.137	3013
866.269	2963
866.4	2956
866.531	2933
866.662	2918
866.793	2918
866.924	2918
867.055	3001
867.186	2944
867.317	2899
867.448	2887
867.579	2876
867.71	2834
867.841	2853
867.972	2868
868.103	2922
868.233	2937
868.364	2883
868.495	2872
868.625	3081
868.756	3180
868.886	3020
869.017	3032
869.147	3180
869.278	3165
869.408	3066
869.539	3013
869.669	3100
869.799	3066
869.929	3142
870.06	3116
870.19	3344
870.32	3321
870.45	3294
870.58	3382
870.71	3447
870.84	3469
870.97	3355
871.1	3241
871.23	3492
871.36	3507
871.489	3359
871.619	3409
871.749	3447
871.879	3492
872.008	3466
872.138	3355
872.267	3302
872.397	3142
872.526	3112
872.656	3062
872.785	3112
872.915	3222
873.044	3344
873.173	3249
873.303	3241
873.432	3207
873.561	3256
873.69	3180
873.819	3138
873.948	3230
874.077	3104
874.206	3062
874.335	3112
874.464	3253
874.593	3321
874.722	3275
874.851	3401
874.979	3359
875.108	3348
875.237	3218
875.365	3180
875.494	3165
875.623	3279
875.751	3119
875.88	3089
876.008	3157
876.136	3287
876.265	3386
876.393	3519
876.521	3439
876.65	3405
876.778	3370
876.906	3275
877.034	3253
877.162	3245
877.29	3161
877.418	3268
877.546	3264
877.674	3313
877.802	3260
877.93	3218
878.058	3146
878.185	3127
878.313	3245
878.441	3226
878.568	3108
878.696	3180
878.824	3268
878.951	3310
879.079	3447
879.206	3656
879.333	3462
879.461	3355
879.588	3336
879.715	3534
879.842	3584
879.97	3443
880.097	3176
880.224	3184
880.351	3207
880.478	3253
880.605	3222
880.732	3203
880.859	3526
880.986	3294
881.112	3363
881.239	3218
881.366	3070
881.493	3043
881.619	3036
881.746	3093
881.872	3097
881.999	3089
882.125	3184
882.252	3226
882.378	3306
882.505	3466
882.631	3310
882.757	3184
882.883	3253
883.01	3230
883.136	3184
883.262	3108
883.388	3138
883.514	3329
883.64	3382
883.766	3306
883.892	3173
884.018	3260
884.143	3454
884.269	3542
884.395	3195
884.52	3176
884.646	3165
884.772	3135
884.897	3077
885.023	3222
885.148	3336
885.274	3409
885.399	3389
885.524	3287
885.65	3268
885.775	3332
885.9	3245
886.025	3466
886.15	3370
886.275	3313
886.4	3241
886.525	3332
886.65	3283
886.775	3268
886.9	3488
887.025	3637
887.149	3420
887.274	3260
887.399	3176
887.523	3241
887.648	3195
887.773	3207
887.897	3355
888.021	3386
888.146	3317
888.27	3492
888.395	3545
888.519	3431
888.643	3473
888.767	3458
888.891	3313
889.015	3237
889.139	3367
889.263	3230
889.387	3439
889.511	3564
889.635	3450
889.759	3306
889.883	3332
890.006	3382
890.13	3526
890.254	3249
890.377	3355
890.501	3218
890.624	3207
890.748	3310
890.871	3184
890.995	3150
891.118	3089
891.241	3218
891.364	3272
891.488	3332
891.611	3237
891.734	3237
891.857	3287
891.98	3233
892.103	3367
892.226	3298
892.349	3249
892.471	3135
892.594	3256
892.717	3306
892.839	3283
892.962	3332
893.085	3370
893.207	3367
893.33	3146
893.452	3214
893.575	3351
893.697	3268
893.819	3504
893.941	3454
894.064	3454
894.186	3291
894.308	3272
894.43	3439
894.552	3568
894.674	3496
894.796	3275
894.918	3359
895.04	3317
895.161	3412
895.283	3416
895.405	3313
895.526	3374
895.648	3424
895.769	3424
895.891	3496
896.012	3492
896.134	3454
896.255	3405
896.376	3397
896.498	3389
896.619	3443
896.74	3336
896.861	3420
896.982	3690
897.103	3857
897.224	3591
897.345	3481
897.466	3409
897.587	3500
897.708	3618
897.828	3542
897.949	3439
898.07	3310
898.19	3401
898.311	3606
898.431	3450
898.552	3538
898.672	3618
898.792	3614
898.913	3549
899.033	3412
899.153	3317
899.273	3237
899.393	3317
899.513	3302
899.633	3321
899.753	3344
899.873	3302
899.993	3351
900.113	3329
900.232	3409
900.352	3340
900.472	3275
900.591	3253
900.711	3313
900.83	3256
900.95	3431
901.069	3500
901.189	3325
901.308	3173
901.427	3165
901.546	3203
901.665	3302
901.784	3310
901.904	3249
902.023	3157
902.141	3032
902.26	2963
902.379	3157
902.498	3055
902.617	3066
902.735	3203
902.854	3230
902.973	3195
903.091	3039
903.21	3085
903.328	3165
903.446	3131
903.565	3135
903.683	3218
903.801	3165
903.919	3264
904.038	3313
904.156	3176
904.274	3283
904.392	3302
904.51	3294
904.627	3321
904.745	3454
904.863	3477
904.981	3302
905.098	3161
905.216	3245
905.334	3279
905.451	3317
905.569	3283
905.686	3439
905.803	3439
905.921	3291
906.038	3447
906.155	3389
906.272	3291
906.389	3336
906.506	3222
906.623	3237
906.74	3272
906.857	3207
906.974	3256
907.091	3443
907.208	3542
907.324	3458
907.441	3389
907.557	3222
907.674	3256
907.79	3188
907.907	3275
908.023	3370
908.139	3382
908.256	3321
908.372	3397
908.488	3332
908.604	3241
908.72	3211
908.836	3302
908.952	3279
909.068	3359
909.184	3466
909.3	3409
909.415	3481
909.531	3447
909.647	3291
909.762	3283
909.878	3264
909.993	3382
910.108	3317
910.224	3325
910.339	3420
910.454	3344
910.57	3317
910.685	3249
910.8	3591
910.915	3481
911.03	3447
911.145	3279
911.259	3272
911.374	3321
911.489	3233
911.604	3245
911.718	3119
911.833	3138
911.947	3077
912.062	3017
912.176	3173
912.291	3199
912.405	3211
912.519	3431
912.633	3492
912.748	3374
912.862	3230
912.976	3154
913.09	3081
913.204	3195
913.318	3207
913.431	3336
913.545	3336
913.659	3397
913.772	3348
913.886	3214
914	3214
914.113	3363
914.226	3393
914.34	3378
914.453	3241
914.566	3412
914.68	3294
914.793	3332
914.906	3138
915.019	3142
915.132	3074
915.245	3165
915.358	3218
915.47	3214
915.583	3272
915.696	3279
915.809	3439
915.921	3409
916.034	3294
916.146	3275
916.259	3253
916.371	3389
916.483	3374
916.595	3279
916.708	3363
916.82	3336
916.932	3325
917.044	3367
917.156	3363
917.268	3253
917.38	3310
917.491	3336
917.603	3351
917.715	3458
917.826	3492
917.938	3397
918.049	3272
918.161	3435
918.272	3603
918.384	3610
918.495	3443
918.606	3344
918.717	3275
918.828	3397
918.939	3405
919.05	3279
919.161	3363
919.272	3203
919.383	3302
919.494	3481
919.604	3667
919.715	3507
919.826	3462
919.936	3473
920.047	3580
920.157	3561
920.267	3778
920.378	3599
920.488	3553
920.598	3759
920.708	3975
920.818	3793
920.928	3823
921.038	3960
921.148	3975
921.258	3717
921.368	3618
921.477	3591
921.587	3587
921.697	3431
921.806	3610
921.916	3515
922.025	3378
922.134	3348
922.244	3302
922.353	3439
922.462	3264
922.571	3230
922.68	3100
922.789	3062
922.898	3108
923.007	3085
923.116	3211
923.224	3199
923.333	3203
923.442	3047
923.55	3077
923.659	3157
923.767	3237
923.876	3108
923.984	3211
924.092	3074
924.201	3169
924.309	3199
924.417	3260
924.525	3203
924.633	3260
924.741	4013
924.849	3055
924.956	3256
925.064	3093
925.172	3047
925.279	3104
925.387	3169
925.494	3195
925.602	3355
925.709	3325
925.816	3218
925.924	3275
926.031	3386
926.138	3329
926.245	3363
926.352	3253
926.459	3443
926.566	3481
926.673	3344
926.779	3241
926.886	3256
926.993	3146
927.099	3146
927.206	3093
927.312	3146
927.419	3237
927.525	3180
927.631	3291
927.737	3157
927.843	3146
927.95	3020
928.056	3142
928.162	3218
928.267	3226
928.373	3884
928.479	3283
928.585	3066
928.69	3199
928.796	3249
928.901	3135
929.007	3081
929.112	3230
929.218	3165
929.323	3157
929.428	3176
929.533	3291
929.638	3157
929.743	3173
929.848	3275
929.953	3222
930.058	3150
930.163	3013
930.267	3039
930.372	3192
930.477	3024
930.581	3321
930.685	3233
930.79	3051
930.894	3104
930.998	3085
931.103	3287
931.207	2956
931.311	2929
931.415	2876
931.519	2766
931.623	2807
