Data from test_V78500241_1977.txt Node
Date: Fri Mar 25 16:28:53 CST 2022
User: usil
Spectrometer: V785-0024
Trigger mode: 0
Integration Time (sec): 4.000000E-1
Scans to average: 1
Nonlinearity correction enabled: false
Boxcar width: 0
Storing dark spectrum: false
XAxis mode: Wavelengths
Number of Pixels in Spectrum: 1024
>>>>>Begin Spectral Data<<<<<
801.071	2963
801.214	3009
801.356	2910
801.499	2883
801.641	2929
801.783	3001
801.926	3112
802.068	2986
802.211	3043
802.353	3066
802.496	2963
802.638	3070
802.78	3051
802.923	3085
803.065	3043
803.208	2925
803.35	2933
803.492	2975
803.635	2967
803.777	2773
803.919	2895
804.061	3256
804.204	2994
804.346	2922
804.488	2899
804.63	3001
804.773	2910
804.915	2948
805.057	3135
805.199	2929
805.341	2986
805.483	3058
805.626	3005
805.768	3005
805.91	3135
806.052	3169
806.194	3055
806.336	3233
806.478	3062
806.62	2967
806.762	2986
806.904	3085
807.046	3180
807.188	3005
807.33	2918
807.472	2960
807.614	2914
807.756	2975
807.898	2922
808.04	2857
808.182	3020
808.324	2963
808.465	2902
808.607	2891
808.749	2811
808.891	2887
809.033	2994
809.174	2979
809.316	2918
809.458	2925
809.6	2796
809.741	2785
809.883	2739
810.025	2876
810.166	2872
810.308	2868
810.45	2857
810.591	2769
810.733	2807
810.875	2868
811.016	2785
811.158	2773
811.299	2804
811.441	2963
811.582	2910
811.724	2838
811.865	2883
812.007	2944
812.148	2944
812.29	2899
812.431	2910
812.573	2948
812.714	2979
812.855	3085
812.997	3070
813.138	3127
813.279	3020
813.421	3032
813.562	2986
813.703	2887
813.845	2925
813.986	2796
814.127	2777
814.268	2845
814.41	2838
814.551	2785
814.692	2883
814.833	2861
814.974	2925
815.115	2956
815.256	2849
815.397	2834
815.539	2868
815.68	2807
815.821	2785
815.962	2952
816.103	2960
816.244	2887
816.385	2895
816.526	2960
816.666	2902
816.807	2769
816.948	2872
817.089	2902
817.23	2887
817.371	2766
817.512	2826
817.653	2864
817.793	2838
817.934	2914
818.075	2971
818.216	2998
818.356	3036
818.497	2895
818.638	2800
818.778	2823
818.919	2834
819.06	2762
819.2	2929
819.341	2842
819.481	2815
819.622	2941
819.762	3123
819.903	3066
820.043	2944
820.184	2925
820.324	2910
820.465	3009
820.605	2990
820.746	3036
820.886	2952
821.026	3192
821.167	3203
821.307	3253
821.447	3279
821.588	3233
821.728	3237
821.868	3154
822.008	3097
822.149	3207
822.289	3264
822.429	3108
822.569	3085
822.709	3169
822.849	3032
822.99	3028
823.13	3192
823.27	3203
823.41	3116
823.55	3161
823.69	3169
823.83	3180
823.97	3119
824.11	3005
824.25	2990
824.389	3085
824.529	3116
824.669	3085
824.809	3218
824.949	3291
825.089	3253
825.228	3169
825.368	3009
825.508	2941
825.648	2971
825.787	3020
825.927	3085
826.067	2975
826.206	2979
826.346	3074
826.485	3097
826.625	3108
826.765	3275
826.904	3253
827.044	3009
827.183	2967
827.323	2876
827.462	3009
827.601	2891
827.741	2941
827.88	2967
828.02	2891
828.159	2963
828.298	3058
828.437	3104
828.577	3074
828.716	3264
828.855	3089
828.994	2925
829.134	2918
829.273	2922
829.412	2876
829.551	2880
829.69	2914
829.829	2994
829.968	3142
830.107	3039
830.246	2998
830.385	2925
830.524	2906
830.663	2811
830.802	2735
830.941	2682
831.08	2648
831.219	2773
831.357	2754
831.496	2967
831.635	2705
831.774	2663
831.913	2682
832.051	2545
832.19	2594
832.329	2686
832.467	2549
832.606	2488
832.744	2587
832.883	2575
833.022	2590
833.16	2667
833.299	2701
833.437	2712
833.576	2689
833.714	2735
833.852	2743
833.991	2785
834.129	2845
834.267	2826
834.406	2830
834.544	2876
834.682	2883
834.821	2857
834.959	3066
835.097	2899
835.235	3097
835.373	3013
835.511	3032
835.65	2963
835.788	3005
835.926	2845
836.064	2815
836.202	2864
836.34	3093
836.478	3150
836.615	3062
836.753	3146
836.891	3211
837.029	3188
837.167	3138
837.305	3062
837.443	3085
837.58	2971
837.718	3119
837.856	3055
837.993	3043
838.131	3135
838.269	3138
838.406	3093
838.544	3112
838.681	2929
838.819	2922
838.956	2819
839.094	2819
839.231	2914
839.369	3028
839.506	3382
839.643	3241
839.781	3032
839.918	2948
840.055	3039
840.193	3036
840.33	3036
840.467	3108
840.604	3192
840.742	3370
840.879	3074
841.016	3036
841.153	3104
841.29	3294
841.427	3298
841.564	3272
841.701	3329
841.838	3211
841.975	3176
842.112	3249
842.249	3066
842.385	3074
842.522	3249
842.659	3077
842.796	3028
842.933	3112
843.069	3070
843.206	3028
843.343	3150
843.479	3104
843.616	3169
843.752	2922
843.889	2868
844.025	3097
844.162	2902
844.298	3093
844.435	2944
844.571	2952
844.708	3070
844.844	3135
844.98	3245
845.117	3188
845.253	3055
845.389	3020
845.525	3104
845.661	3112
845.798	3001
845.934	3108
846.07	3074
846.206	3245
846.342	3291
846.478	3237
846.614	3093
846.75	3051
846.886	3005
847.022	3230
847.158	3127
847.294	3207
847.429	3222
847.565	3218
847.701	3488
847.837	3017
847.972	3001
848.108	3176
848.244	3150
848.379	3009
848.515	2944
848.65	2922
848.786	2952
848.921	3005
849.057	3089
849.192	3161
849.328	3047
849.463	3161
849.598	3085
849.734	3047
849.869	2986
850.004	2933
850.14	2975
850.275	2929
850.41	2880
850.545	2876
850.68	2956
850.815	2971
850.95	3005
851.085	3207
851.22	3112
851.355	3070
851.49	2990
851.625	3005
851.76	3009
851.895	2944
852.03	2944
852.165	3020
852.299	3123
852.434	3203
852.569	3123
852.703	3135
852.838	3256
852.973	3351
853.107	3275
853.242	3127
853.376	3081
853.511	3001
853.645	3051
853.78	3256
853.914	3116
854.048	3100
854.183	3123
854.317	3135
854.451	3306
854.585	3116
854.72	3100
854.854	3233
854.988	3081
855.122	3123
855.256	2982
855.39	3100
855.524	3249
855.658	3207
855.792	3154
855.926	3199
856.06	3203
856.194	3245
856.327	3176
856.461	3032
856.595	3081
856.729	3077
856.862	3180
856.996	3161
857.13	3169
857.263	3211
857.397	3283
857.53	3142
857.664	3180
857.797	3241
857.931	3264
858.064	3146
858.197	3188
858.331	3131
858.464	3074
858.597	3017
858.731	3116
858.864	3154
858.997	3055
859.13	3173
859.263	3150
859.396	3207
859.529	3081
859.662	3097
859.795	3089
859.928	3119
860.061	3253
860.194	3275
860.327	3146
860.46	3097
860.592	3233
860.725	3253
860.858	3260
860.99	3097
861.123	3070
861.256	3013
861.388	3131
861.521	3869
861.653	3055
861.786	3020
861.918	3013
862.05	3093
862.183	3093
862.315	3169
862.447	3199
862.58	3085
862.712	2960
862.844	2891
862.976	3032
863.108	2994
863.24	3363
863.372	2883
863.504	2956
863.636	2918
863.768	2967
863.9	2960
864.032	2910
864.164	2956
864.296	3017
864.428	3081
864.559	3093
864.691	3070
864.823	3039
864.954	3047
865.086	3058
865.217	3009
865.349	2948
865.48	2975
865.612	3013
865.743	3184
865.875	2986
866.006	2967
866.137	2933
866.269	2960
866.4	2956
866.531	2937
866.662	2899
866.793	2899
866.924	2906
867.055	2986
867.186	2918
867.317	2861
867.448	2815
867.579	2838
867.71	2857
867.841	2826
867.972	2906
868.103	2895
868.233	2876
868.364	2834
868.495	2864
868.625	3070
868.756	3165
868.886	2986
869.017	3017
869.147	3157
869.278	3119
869.408	3005
869.539	3017
869.669	3100
869.799	3036
869.929	3112
870.06	3100
870.19	3332
870.32	3272
870.45	3340
870.58	3397
870.71	3462
870.84	3424
870.97	3272
871.1	3253
871.23	3466
871.36	3420
871.489	3329
871.619	3416
871.749	3382
871.879	3397
872.008	3515
872.138	3374
872.267	3283
872.397	3127
872.526	3116
872.656	3039
872.785	3089
872.915	3241
873.044	3275
873.173	3245
873.303	3272
873.432	3249
873.561	3256
873.69	3131
873.819	3108
873.948	3188
874.077	3097
874.206	3024
874.335	3112
874.464	3222
874.593	3344
874.722	3222
874.851	3336
874.979	3382
875.108	3298
875.237	3184
875.365	3138
875.494	3146
875.623	3214
875.751	3062
875.88	3112
876.008	3165
876.136	3218
876.265	3348
876.393	3523
876.521	3431
876.65	3374
876.778	3344
876.906	3230
877.034	3192
877.162	3233
877.29	3169
877.418	3218
877.546	3245
877.674	3233
877.802	3218
877.93	3233
878.058	3154
878.185	3097
878.313	3165
878.441	3207
878.568	3074
878.696	3127
878.824	3230
878.951	3287
879.079	3424
879.206	3637
879.333	3428
879.461	3321
879.588	3344
879.715	3504
879.842	3614
879.97	3370
880.097	3161
880.224	3157
880.351	3173
880.478	3207
880.605	3211
880.732	3230
880.859	3473
880.986	3287
881.112	3317
881.239	3173
881.366	3043
881.493	3024
881.619	2998
881.746	3077
881.872	3062
881.999	3112
882.125	3161
882.252	3233
882.378	3306
882.505	3435
882.631	3306
882.757	3169
882.883	3184
883.01	3203
883.136	3169
883.262	3108
883.388	3135
883.514	3329
883.64	3340
883.766	3310
883.892	3176
884.018	3230
884.143	3401
884.269	3545
884.395	3180
884.52	3180
884.646	3161
884.772	3077
884.897	3085
885.023	3203
885.148	3321
885.274	3405
885.399	3389
885.524	3287
885.65	3245
885.775	3302
885.9	3268
886.025	3397
886.15	3336
886.275	3279
886.4	3226
886.525	3294
886.65	3275
886.775	3264
886.9	3511
887.025	3644
887.149	3397
887.274	3245
887.399	3195
887.523	3157
887.648	3180
887.773	3184
887.897	3416
888.021	3401
888.146	3298
888.27	3405
888.395	3458
888.519	3424
888.643	3424
888.767	3435
888.891	3302
889.015	3237
889.139	3275
889.263	3245
889.387	3409
889.511	3515
889.635	3443
889.759	3275
889.883	3283
890.006	3382
890.13	3492
890.254	3275
890.377	3317
890.501	3207
890.624	3188
890.748	3329
890.871	3176
890.995	3089
891.118	3070
891.241	3192
891.364	3260
891.488	3310
891.611	3195
891.734	3233
891.857	3294
891.98	3275
892.103	3332
892.226	3268
892.349	3218
892.471	3104
892.594	3214
892.717	3287
892.839	3264
892.962	3264
893.085	3378
893.207	3272
893.33	3138
893.452	3211
893.575	3294
893.697	3237
893.819	3405
893.941	3473
894.064	3431
894.186	3253
894.308	3264
894.43	3412
894.552	3519
894.674	3496
894.796	3268
894.918	3310
895.04	3287
895.161	3462
895.283	3386
895.405	3340
895.526	3389
895.648	3397
895.769	3428
895.891	3431
896.012	3485
896.134	3458
896.255	3409
896.376	3370
896.498	3336
896.619	3412
896.74	3401
896.861	3428
896.982	3679
897.103	3838
897.224	3603
897.345	3526
897.466	3435
897.587	3492
897.708	3603
897.828	3580
897.949	3466
898.07	3367
898.19	3405
898.311	3603
898.431	3485
898.552	3507
898.672	3572
898.792	3545
898.913	3481
899.033	3340
899.153	3268
899.273	3264
899.393	3279
899.513	3294
899.633	3310
899.753	3302
899.873	3264
899.993	3370
900.113	3310
900.232	3374
900.352	3310
900.472	3298
900.591	3195
900.711	3283
900.83	3249
900.95	3374
901.069	3511
901.189	3359
901.308	3146
901.427	3123
901.546	3138
901.665	3264
901.784	3313
901.904	3214
902.023	3104
902.141	3009
902.26	2994
902.379	3135
902.498	3043
902.617	3070
902.735	3226
902.854	3214
902.973	3195
903.091	3039
903.21	3039
903.328	3116
903.446	3100
903.565	3070
903.683	3207
903.801	3116
903.919	3226
904.038	3275
904.156	3150
904.274	3268
904.392	3249
904.51	3275
904.627	3317
904.745	3424
904.863	3481
904.981	3249
905.098	3165
905.216	3214
905.334	3306
905.451	3287
905.569	3291
905.686	3435
905.803	3428
905.921	3317
906.038	3416
906.155	3359
906.272	3302
906.389	3317
906.506	3214
906.623	3275
906.74	3306
906.857	3241
906.974	3237
907.091	3412
907.208	3523
907.324	3492
907.441	3386
907.557	3192
907.674	3237
907.79	3173
907.907	3287
908.023	3409
908.139	3348
908.256	3340
908.372	3409
908.488	3329
908.604	3275
908.72	3253
908.836	3279
908.952	3245
909.068	3302
909.184	3488
909.3	3367
909.415	3466
909.531	3485
909.647	3302
909.762	3329
909.878	3211
909.993	3382
910.108	3325
910.224	3321
910.339	3420
910.454	3332
910.57	3294
910.685	3256
910.8	3568
910.915	3526
911.03	3447
911.145	3287
911.259	3275
911.374	3279
911.489	3245
911.604	3214
911.718	3104
911.833	3161
911.947	3032
912.062	2925
912.176	3184
912.291	3218
912.405	3222
912.519	3435
912.633	3488
912.748	3351
912.862	3268
912.976	3184
913.09	3097
913.204	3165
913.318	3211
913.431	3340
913.545	3336
913.659	3397
913.772	3321
913.886	3260
914	3211
914.113	3329
914.226	3428
914.34	3363
914.453	3233
914.566	3435
914.68	3260
914.793	3325
914.906	3157
915.019	3131
915.132	3043
915.245	3150
915.358	3233
915.47	3211
915.583	3291
915.696	3287
915.809	3382
915.921	3420
916.034	3245
916.146	3249
916.259	3237
916.371	3382
916.483	3336
916.595	3253
916.708	3344
916.82	3302
916.932	3321
917.044	3306
917.156	3310
917.268	3222
917.38	3294
917.491	3313
917.603	3329
917.715	3466
917.826	3431
917.938	3382
918.049	3268
918.161	3397
918.272	3572
918.384	3561
918.495	3473
918.606	3359
918.717	3264
918.828	3355
918.939	3412
919.05	3313
919.161	3363
919.272	3176
919.383	3279
919.494	3443
919.604	3652
919.715	3450
919.826	3393
919.936	3431
920.047	3542
920.157	3561
920.267	3732
920.378	3576
920.488	3595
920.598	3800
920.708	3991
920.818	3857
920.928	3865
921.038	4017
921.148	3994
921.258	3698
921.368	3599
921.477	3545
921.587	3534
921.697	3466
921.806	3671
921.916	3530
922.025	3340
922.134	3340
922.244	3298
922.353	3378
922.462	3294
922.571	3211
922.68	3138
922.789	3032
922.898	3150
923.007	3116
923.116	3195
923.224	3176
923.333	3161
923.442	3112
923.55	3047
923.659	3138
923.767	3222
923.876	3108
923.984	3233
924.092	3127
924.201	3188
924.309	3230
924.417	3256
924.525	3157
924.633	3214
924.741	4139
924.849	3005
924.956	3237
925.064	3081
925.172	3047
925.279	3074
925.387	3188
925.494	3199
925.602	3310
925.709	3283
925.816	3195
925.924	3272
926.031	3351
926.138	3302
926.245	3344
926.352	3253
926.459	3401
926.566	3454
926.673	3256
926.779	3218
926.886	3241
926.993	3146
927.099	3150
927.206	3100
927.312	3093
927.419	3214
927.525	3188
927.631	3275
927.737	3123
927.843	3146
927.95	3013
928.056	3131
928.162	3184
928.267	3245
928.373	3854
928.479	3298
928.585	3097
928.69	3203
928.796	3253
928.901	3157
929.007	3062
929.112	3188
929.218	3195
929.323	3142
929.428	3127
929.533	3317
929.638	3089
929.743	3180
929.848	3237
929.953	3188
930.058	3146
930.163	2956
930.267	3036
930.372	3199
930.477	3039
930.581	3306
930.685	3154
930.79	3047
930.894	3100
930.998	3077
931.103	3237
931.207	2918
931.311	2929
931.415	2941
931.519	2758
931.623	2811
