Data from test_V78500241_1193.txt Node
Date: Fri Mar 25 16:23:28 CST 2022
User: usil
Spectrometer: V785-0024
Trigger mode: 0
Integration Time (sec): 4.000000E-1
Scans to average: 1
Nonlinearity correction enabled: false
Boxcar width: 0
Storing dark spectrum: false
XAxis mode: Wavelengths
Number of Pixels in Spectrum: 1024
>>>>>Begin Spectral Data<<<<<
801.071	2952
801.214	2990
801.356	2941
801.499	2960
801.641	2880
801.783	2967
801.926	3093
802.068	2998
802.211	3043
802.353	3043
802.496	2994
802.638	3028
802.78	3062
802.923	3135
803.065	3009
803.208	2944
803.35	2975
803.492	2967
803.635	2979
803.777	2777
803.919	2929
804.061	3249
804.204	2979
804.346	2925
804.488	2910
804.63	3009
804.773	2910
804.915	2952
805.057	3108
805.199	2971
805.341	2990
805.483	3070
805.626	3013
805.768	2967
805.91	3070
806.052	3138
806.194	3058
806.336	3302
806.478	3077
806.62	2975
806.762	3028
806.904	3081
807.046	3211
807.188	3032
807.33	2952
807.472	3032
807.614	2952
807.756	3009
807.898	2952
808.04	2895
808.182	3009
808.324	2982
808.465	2887
808.607	2899
808.749	2853
808.891	2849
809.033	2994
809.174	3017
809.316	2910
809.458	2929
809.6	2796
809.741	2781
809.883	2811
810.025	2914
810.166	2861
810.308	2887
810.45	2918
810.591	2785
810.733	2773
810.875	2807
811.016	2826
811.158	2823
811.299	2880
811.441	2967
811.582	2937
811.724	2861
811.865	2811
812.007	2948
812.148	2941
812.29	2849
812.431	2925
812.573	2937
812.714	2944
812.855	3062
812.997	3066
813.138	3146
813.279	3043
813.421	2963
813.562	2963
813.703	2883
813.845	2941
813.986	2777
814.127	2785
814.268	2849
814.41	2872
814.551	2842
814.692	2857
814.833	2838
814.974	2895
815.115	2979
815.256	2872
815.397	2830
815.539	2861
815.68	2811
815.821	2788
815.962	2967
816.103	2944
816.244	2925
816.385	2872
816.526	2990
816.666	2937
816.807	2766
816.948	2883
817.089	2944
817.23	2895
817.371	2800
817.512	2826
817.653	2891
817.793	2857
817.934	2918
818.075	2925
818.216	3024
818.356	2998
818.497	2899
818.638	2807
818.778	2864
818.919	2804
819.06	2769
819.2	2914
819.341	2792
819.481	2807
819.622	2929
819.762	3123
819.903	3043
820.043	2952
820.184	2914
820.324	2910
820.465	3043
820.605	3051
820.746	3062
820.886	2941
821.026	3135
821.167	3188
821.307	3283
821.447	3298
821.588	3272
821.728	3253
821.868	3230
822.008	3112
822.149	3222
822.289	3241
822.429	3081
822.569	3146
822.709	3226
822.849	3051
822.99	3108
823.13	3195
823.27	3222
823.41	3138
823.55	3146
823.69	3161
823.83	3199
823.97	3142
824.11	3005
824.25	3020
824.389	3093
824.529	3119
824.669	3077
824.809	3192
824.949	3245
825.089	3207
825.228	3176
825.368	2982
825.508	2960
825.648	2994
825.787	3036
825.927	3051
826.067	2982
826.206	2933
826.346	3062
826.485	3070
826.625	3135
826.765	3256
826.904	3245
827.044	3009
827.183	2944
827.323	2899
827.462	3020
827.601	2941
827.741	3005
827.88	2982
828.02	2914
828.159	2975
828.298	3039
828.437	3112
828.577	3017
828.716	3253
828.855	3077
828.994	2941
829.134	2914
829.273	2971
829.412	2929
829.551	2872
829.69	2933
829.829	2971
829.968	3131
830.107	3001
830.246	3043
830.385	2948
830.524	2929
830.663	2895
830.802	2762
830.941	2651
831.08	2670
831.219	2811
831.357	2746
831.496	3024
831.635	2735
831.774	2667
831.913	2697
832.051	2560
832.19	2583
832.329	2724
832.467	2556
832.606	2514
832.744	2602
832.883	2606
833.022	2613
833.16	2651
833.299	2663
833.437	2743
833.576	2674
833.714	2739
833.852	2762
833.991	2769
834.129	2834
834.267	2830
834.406	2811
834.544	2861
834.682	2899
834.821	2849
834.959	3085
835.097	2899
835.235	3062
835.373	3036
835.511	3020
835.65	2960
835.788	2933
835.926	2838
836.064	2823
836.202	2849
836.34	3093
836.478	3176
836.615	3070
836.753	3093
836.891	3226
837.029	3176
837.167	3123
837.305	3066
837.443	3043
837.58	2975
837.718	3131
837.856	3070
837.993	3074
838.131	3138
838.269	3108
838.406	3108
838.544	3077
838.681	2941
838.819	2948
838.956	2853
839.094	2842
839.231	2944
839.369	3047
839.506	3389
839.643	3211
839.781	3036
839.918	2986
840.055	3036
840.193	3081
840.33	3074
840.467	3123
840.604	3161
840.742	3378
840.879	3074
841.016	3039
841.153	3116
841.29	3348
841.427	3306
841.564	3287
841.701	3321
841.838	3211
841.975	3188
842.112	3226
842.249	3081
842.385	3051
842.522	3260
842.659	3100
842.796	3081
842.933	3066
843.069	3077
843.206	3043
843.343	3237
843.479	3123
843.616	3157
843.752	2899
843.889	2864
844.025	3131
844.162	2872
844.298	3093
844.435	2956
844.571	2925
844.708	3074
844.844	3222
844.98	3256
845.117	3173
845.253	3077
845.389	3028
845.525	3077
845.661	3104
845.798	3017
845.934	3142
846.07	3051
846.206	3222
846.342	3348
846.478	3298
846.614	3127
846.75	3051
846.886	3058
847.022	3268
847.158	3161
847.294	3222
847.429	3211
847.565	3237
847.701	3447
847.837	3009
847.972	2990
848.108	3157
848.244	3116
848.379	2994
848.515	2956
848.65	2887
848.786	2975
848.921	3024
849.057	3112
849.192	3127
849.328	3085
849.463	3112
849.598	3085
849.734	3070
849.869	2986
850.004	2891
850.14	2990
850.275	2902
850.41	2826
850.545	2902
850.68	2963
850.815	2967
850.95	2986
851.085	3222
851.22	3104
851.355	3051
851.49	2998
851.625	3009
851.76	3058
851.895	2918
852.03	2941
852.165	3070
852.299	3112
852.434	3199
852.569	3142
852.703	3161
852.838	3264
852.973	3340
853.107	3348
853.242	3146
853.376	3074
853.511	2971
853.645	3032
853.78	3211
853.914	3127
854.048	3108
854.183	3108
854.317	3135
854.451	3325
854.585	3146
854.72	3093
854.854	3245
854.988	3051
855.122	3051
855.256	3005
855.39	3116
855.524	3218
855.658	3199
855.792	3157
855.926	3176
856.06	3226
856.194	3287
856.327	3104
856.461	3070
856.595	3039
856.729	3081
856.862	3226
856.996	3180
857.13	3207
857.263	3230
857.397	3302
857.53	3100
857.664	3157
857.797	3222
857.931	3222
858.064	3195
858.197	3233
858.331	3142
858.464	3081
858.597	3009
858.731	3108
858.864	3150
858.997	3100
859.13	3138
859.263	3135
859.396	3233
859.529	3093
859.662	3070
859.795	3055
859.928	3146
860.061	3256
860.194	3291
860.327	3157
860.46	3108
860.592	3218
860.725	3218
860.858	3237
860.99	3100
861.123	3074
861.256	3066
861.388	3127
861.521	3709
861.653	3028
861.786	3017
861.918	2960
862.05	3066
862.183	3131
862.315	3135
862.447	3188
862.58	3104
862.712	2937
862.844	2868
862.976	3028
863.108	3032
863.24	3325
863.372	2872
863.504	3001
863.636	2967
863.768	3013
863.9	2986
864.032	2922
864.164	2971
864.296	3013
864.428	3070
864.559	3077
864.691	3089
864.823	3066
864.954	3039
865.086	3024
865.217	2994
865.349	2971
865.48	2990
865.612	3039
865.743	3146
865.875	2990
866.006	2948
866.137	2986
866.269	2963
866.4	2967
866.531	2914
866.662	2864
866.793	2941
866.924	2910
867.055	2975
867.186	2952
867.317	2864
867.448	2830
867.579	2849
867.71	2906
867.841	2823
867.972	2918
868.103	2880
868.233	2887
868.364	2864
868.495	2891
868.625	3066
868.756	3188
868.886	2963
869.017	3070
869.147	3157
869.278	3173
869.408	3020
869.539	3017
869.669	3119
869.799	3013
869.929	3131
870.06	3112
870.19	3348
870.32	3306
870.45	3272
870.58	3382
870.71	3447
870.84	3447
870.97	3268
871.1	3241
871.23	3500
871.36	3458
871.489	3332
871.619	3401
871.749	3435
871.879	3431
872.008	3469
872.138	3363
872.267	3275
872.397	3161
872.526	3093
872.656	2994
872.785	3093
872.915	3275
873.044	3325
873.173	3230
873.303	3241
873.432	3207
873.561	3249
873.69	3184
873.819	3146
873.948	3176
874.077	3093
874.206	3066
874.335	3081
874.464	3203
874.593	3302
874.722	3256
874.851	3382
874.979	3332
875.108	3344
875.237	3218
875.365	3176
875.494	3192
875.623	3260
875.751	3081
875.88	3077
876.008	3207
876.136	3207
876.265	3355
876.393	3496
876.521	3370
876.65	3386
876.778	3310
876.906	3275
877.034	3222
877.162	3218
877.29	3169
877.418	3253
877.546	3226
877.674	3241
877.802	3260
877.93	3192
878.058	3127
878.185	3093
878.313	3180
878.441	3214
878.568	3077
878.696	3184
878.824	3260
878.951	3287
879.079	3420
879.206	3663
879.333	3439
879.461	3313
879.588	3351
879.715	3466
879.842	3614
879.97	3370
880.097	3142
880.224	3097
880.351	3214
880.478	3253
880.605	3169
880.732	3207
880.859	3538
880.986	3329
881.112	3336
881.239	3192
881.366	3093
881.493	3036
881.619	3013
881.746	3081
881.872	3085
881.999	3074
882.125	3112
882.252	3222
882.378	3268
882.505	3447
882.631	3264
882.757	3142
882.883	3222
883.01	3245
883.136	3180
883.262	3089
883.388	3081
883.514	3272
883.64	3378
883.766	3294
883.892	3226
884.018	3249
884.143	3409
884.269	3496
884.395	3214
884.52	3142
884.646	3222
884.772	3112
884.897	3108
885.023	3218
885.148	3340
885.274	3409
885.399	3374
885.524	3253
885.65	3279
885.775	3298
885.9	3233
886.025	3382
886.15	3393
886.275	3275
886.4	3203
886.525	3287
886.65	3275
886.775	3237
886.9	3492
887.025	3667
887.149	3424
887.274	3230
887.399	3192
887.523	3161
887.648	3195
887.773	3211
887.897	3370
888.021	3386
888.146	3283
888.27	3458
888.395	3504
888.519	3409
888.643	3443
888.767	3428
888.891	3287
889.015	3253
889.139	3283
889.263	3272
889.387	3401
889.511	3519
889.635	3416
889.759	3260
889.883	3306
890.006	3393
890.13	3439
890.254	3264
890.377	3355
890.501	3173
890.624	3157
890.748	3279
890.871	3169
890.995	3051
891.118	3058
891.241	3173
891.364	3214
891.488	3287
891.611	3195
891.734	3222
891.857	3294
891.98	3245
892.103	3332
892.226	3283
892.349	3203
892.471	3138
892.594	3249
892.717	3241
892.839	3279
892.962	3294
893.085	3374
893.207	3325
893.33	3123
893.452	3222
893.575	3348
893.697	3222
893.819	3435
893.941	3485
894.064	3443
894.186	3260
894.308	3253
894.43	3443
894.552	3500
894.674	3515
894.796	3268
894.918	3329
895.04	3298
895.161	3416
895.283	3325
895.405	3336
895.526	3382
895.648	3401
895.769	3405
895.891	3469
896.012	3431
896.134	3485
896.255	3389
896.376	3367
896.498	3382
896.619	3397
896.74	3340
896.861	3397
896.982	3663
897.103	3861
897.224	3595
897.345	3496
897.466	3416
897.587	3504
897.708	3610
897.828	3553
897.949	3435
898.07	3355
898.19	3431
898.311	3610
898.431	3481
898.552	3496
898.672	3622
898.792	3576
898.913	3534
899.033	3397
899.153	3253
899.273	3188
899.393	3317
899.513	3298
899.633	3294
899.753	3351
899.873	3306
899.993	3412
900.113	3329
900.232	3386
900.352	3382
900.472	3306
900.591	3237
900.711	3298
900.83	3245
900.95	3405
901.069	3469
901.189	3336
901.308	3157
901.427	3135
901.546	3199
901.665	3275
901.784	3332
901.904	3199
902.023	3104
902.141	3009
902.26	2948
902.379	3135
902.498	3108
902.617	3017
902.735	3173
902.854	3253
902.973	3184
903.091	3032
903.21	3066
903.328	3150
903.446	3108
903.565	3131
903.683	3192
903.801	3123
903.919	3233
904.038	3249
904.156	3184
904.274	3260
904.392	3253
904.51	3302
904.627	3332
904.745	3439
904.863	3473
904.981	3253
905.098	3180
905.216	3192
905.334	3294
905.451	3294
905.569	3306
905.686	3424
905.803	3397
905.921	3275
906.038	3424
906.155	3329
906.272	3272
906.389	3302
906.506	3233
906.623	3211
906.74	3275
906.857	3207
906.974	3283
907.091	3428
907.208	3549
907.324	3477
907.441	3370
907.557	3260
907.674	3195
907.79	3192
907.907	3287
908.023	3351
908.139	3344
908.256	3340
908.372	3367
908.488	3329
908.604	3260
908.72	3222
908.836	3279
908.952	3313
909.068	3313
909.184	3469
909.3	3378
909.415	3481
909.531	3431
909.647	3268
909.762	3306
909.878	3260
909.993	3340
910.108	3336
910.224	3348
910.339	3412
910.454	3329
910.57	3298
910.685	3241
910.8	3564
910.915	3511
911.03	3500
911.145	3275
911.259	3253
911.374	3313
911.489	3211
911.604	3222
911.718	3131
911.833	3173
911.947	3039
912.062	2998
912.176	3165
912.291	3192
912.405	3241
912.519	3424
912.633	3466
912.748	3317
912.862	3272
912.976	3180
913.09	3058
913.204	3119
913.318	3226
913.431	3332
913.545	3340
913.659	3389
913.772	3351
913.886	3180
914	3176
914.113	3325
914.226	3412
914.34	3382
914.453	3233
914.566	3374
914.68	3283
914.793	3256
914.906	3154
915.019	3146
915.132	3058
915.245	3157
915.358	3173
915.47	3222
915.583	3260
915.696	3268
915.809	3428
915.921	3409
916.034	3207
916.146	3245
916.259	3203
916.371	3359
916.483	3359
916.595	3283
916.708	3336
916.82	3310
916.932	3321
917.044	3351
917.156	3317
917.268	3275
917.38	3283
917.491	3275
917.603	3351
917.715	3424
917.826	3447
917.938	3370
918.049	3256
918.161	3443
918.272	3545
918.384	3580
918.495	3473
918.606	3325
918.717	3260
918.828	3382
918.939	3443
919.05	3291
919.161	3378
919.272	3161
919.383	3287
919.494	3473
919.604	3644
919.715	3488
919.826	3424
919.936	3431
920.047	3587
920.157	3584
920.267	3774
920.378	3603
920.488	3564
920.598	3781
920.708	3987
920.818	3774
920.928	3846
921.038	4025
921.148	3968
921.258	3740
921.368	3606
921.477	3561
921.587	3523
921.697	3424
921.806	3610
921.916	3538
922.025	3321
922.134	3359
922.244	3302
922.353	3397
922.462	3249
922.571	3214
922.68	3131
922.789	3093
922.898	3135
923.007	3093
923.116	3211
923.224	3150
923.333	3180
923.442	3074
923.55	3089
923.659	3157
923.767	3211
923.876	3154
923.984	3241
924.092	3104
924.201	3176
924.309	3218
924.417	3256
924.525	3226
924.633	3211
924.741	3983
924.849	3028
924.956	3241
925.064	3066
925.172	3036
925.279	3085
925.387	3218
925.494	3176
925.602	3363
925.709	3291
925.816	3192
925.924	3283
926.031	3370
926.138	3325
926.245	3336
926.352	3222
926.459	3359
926.566	3458
926.673	3310
926.779	3199
926.886	3233
926.993	3157
927.099	3108
927.206	3093
927.312	3093
927.419	3211
927.525	3230
927.631	3268
927.737	3142
927.843	3089
927.95	3036
928.056	3135
928.162	3154
928.267	3184
928.373	3812
928.479	3287
928.585	3047
928.69	3211
928.796	3264
928.901	3119
929.007	3051
929.112	3199
929.218	3161
929.323	3127
929.428	3192
929.533	3268
929.638	3119
929.743	3192
929.848	3256
929.953	3226
930.058	3104
930.163	3020
930.267	3055
930.372	3173
930.477	3017
930.581	3287
930.685	3157
930.79	3024
930.894	3093
930.998	3123
931.103	3256
931.207	2944
931.311	2948
931.415	2902
931.519	2781
931.623	2773
