Data from test_V78500241_829.txt Node
Date: Fri Mar 25 16:20:56 CST 2022
User: usil
Spectrometer: V785-0024
Trigger mode: 0
Integration Time (sec): 4.000000E-1
Scans to average: 1
Nonlinearity correction enabled: false
Boxcar width: 0
Storing dark spectrum: false
XAxis mode: Wavelengths
Number of Pixels in Spectrum: 1024
>>>>>Begin Spectral Data<<<<<
801.071	2910
801.214	2960
801.356	2880
801.499	2910
801.641	2910
801.783	2933
801.926	3074
802.068	3001
802.211	3039
802.353	3055
802.496	2982
802.638	3005
802.78	3051
802.923	3085
803.065	3005
803.208	2929
803.35	2922
803.492	2956
803.635	2925
803.777	2769
803.919	2887
804.061	3195
804.204	2963
804.346	2925
804.488	2845
804.63	3017
804.773	2883
804.915	2933
805.057	3104
805.199	2937
805.341	2990
805.483	3055
805.626	3013
805.768	3005
805.91	3112
806.052	3089
806.194	3043
806.336	3207
806.478	3043
806.62	2963
806.762	3047
806.904	3024
807.046	3154
807.188	2963
807.33	2933
807.472	3001
807.614	2857
807.756	3009
807.898	2914
808.04	2902
808.182	2979
808.324	2937
808.465	2891
808.607	2883
808.749	2796
808.891	2834
809.033	2971
809.174	2929
809.316	2857
809.458	2925
809.6	2762
809.741	2800
809.883	2716
810.025	2849
810.166	2853
810.308	2838
810.45	2842
810.591	2788
810.733	2754
810.875	2842
811.016	2777
811.158	2762
811.299	2792
811.441	2956
811.582	2891
811.724	2845
811.865	2834
812.007	2872
812.148	2883
812.29	2861
812.431	2902
812.573	2922
812.714	2933
812.855	3047
812.997	3047
813.138	3138
813.279	3017
813.421	2986
813.562	2933
813.703	2887
813.845	2880
813.986	2750
814.127	2720
814.268	2781
814.41	2823
814.551	2811
814.692	2849
814.833	2804
814.974	2895
815.115	2956
815.256	2811
815.397	2815
815.539	2853
815.68	2769
815.821	2762
815.962	2918
816.103	2952
816.244	2861
816.385	2823
816.526	2944
816.666	2933
816.807	2766
816.948	2876
817.089	2918
817.23	2849
817.371	2800
817.512	2788
817.653	2838
817.793	2785
817.934	2880
818.075	2948
818.216	2944
818.356	2963
818.497	2872
818.638	2758
818.778	2838
818.919	2804
819.06	2766
819.2	2853
819.341	2815
819.481	2788
819.622	2929
819.762	3074
819.903	3047
820.043	2952
820.184	2861
820.324	2891
820.465	3017
820.605	3009
820.746	3043
820.886	2967
821.026	3077
821.167	3154
821.307	3294
821.447	3313
821.588	3253
821.728	3237
821.868	3199
822.008	3097
822.149	3180
822.289	3233
822.429	3112
822.569	3070
822.709	3195
822.849	3066
822.99	3135
823.13	3169
823.27	3245
823.41	3116
823.55	3104
823.69	3169
823.83	3184
823.97	3123
824.11	3047
824.25	3028
824.389	3089
824.529	3146
824.669	3070
824.809	3214
824.949	3272
825.089	3249
825.228	3218
825.368	3039
825.508	3009
825.648	3028
825.787	3070
825.927	3058
826.067	2998
826.206	2971
826.346	3112
826.485	3138
826.625	3135
826.765	3291
826.904	3253
827.044	3028
827.183	2944
827.323	2918
827.462	3009
827.601	2963
827.741	2963
827.88	2986
828.02	2918
828.159	3032
828.298	3093
828.437	3138
828.577	3081
828.716	3287
828.855	3112
828.994	2975
829.134	2952
829.273	2982
829.412	2910
829.551	2899
829.69	2910
829.829	3047
829.968	3161
830.107	3024
830.246	3070
830.385	2994
830.524	2899
830.663	2861
830.802	2785
830.941	2682
831.08	2682
831.219	2800
831.357	2796
831.496	3001
831.635	2750
831.774	2686
831.913	2678
832.051	2556
832.19	2598
832.329	2735
832.467	2571
832.606	2503
832.744	2606
832.883	2590
833.022	2610
833.16	2648
833.299	2727
833.437	2750
833.576	2754
833.714	2815
833.852	2750
833.991	2804
834.129	2891
834.267	2849
834.406	2857
834.544	2918
834.682	2929
834.821	2922
834.959	3077
835.097	2902
835.235	3104
835.373	3051
835.511	3085
835.65	2994
835.788	2986
835.926	2857
836.064	2834
836.202	2857
836.34	3131
836.478	3169
836.615	3058
836.753	3146
836.891	3214
837.029	3199
837.167	3138
837.305	3093
837.443	3077
837.58	2990
837.718	3195
837.856	3135
837.993	3085
838.131	3165
838.269	3154
838.406	3104
838.544	3085
838.681	2990
838.819	2963
838.956	2868
839.094	2845
839.231	2971
839.369	3066
839.506	3428
839.643	3222
839.781	3043
839.918	3001
840.055	3085
840.193	3089
840.33	3127
840.467	3123
840.604	3173
840.742	3447
840.879	3100
841.016	3097
841.153	3131
841.29	3363
841.427	3313
841.564	3275
841.701	3340
841.838	3256
841.975	3157
842.112	3245
842.249	3112
842.385	3058
842.522	3272
842.659	3108
842.796	3112
842.933	3150
843.069	3047
843.206	3020
843.343	3218
843.479	3135
843.616	3161
843.752	2925
843.889	2914
844.025	3116
844.162	2929
844.298	3108
844.435	2944
844.571	2941
844.708	3104
844.844	3218
844.98	3241
845.117	3226
845.253	3070
845.389	3051
845.525	3135
845.661	3100
845.798	3058
845.934	3157
846.07	3112
846.206	3264
846.342	3332
846.478	3260
846.614	3112
846.75	3085
846.886	3066
847.022	3260
847.158	3138
847.294	3245
847.429	3283
847.565	3233
847.701	3477
847.837	3074
847.972	3039
848.108	3176
848.244	3192
848.379	3001
848.515	2963
848.65	2941
848.786	2979
848.921	3051
849.057	3138
849.192	3176
849.328	3058
849.463	3146
849.598	3051
849.734	3074
849.869	3009
850.004	2971
850.14	3017
850.275	2948
850.41	2861
850.545	2880
850.68	2937
850.815	2971
850.95	3020
851.085	3230
851.22	3131
851.355	3077
851.49	3005
851.625	3074
851.76	2990
851.895	3005
852.03	2933
852.165	3051
852.299	3146
852.434	3222
852.569	3154
852.703	3203
852.838	3291
852.973	3378
853.107	3359
853.242	3173
853.376	3119
853.511	2944
853.645	3055
853.78	3275
853.914	3165
854.048	3127
854.183	3097
854.317	3176
854.451	3310
854.585	3123
854.72	3055
854.854	3279
854.988	3100
855.122	3097
855.256	3001
855.39	3161
855.524	3253
855.658	3203
855.792	3157
855.926	3203
856.06	3272
856.194	3291
856.327	3199
856.461	3093
856.595	3112
856.729	3119
856.862	3226
856.996	3161
857.13	3222
857.263	3237
857.397	3317
857.53	3154
857.664	3226
857.797	3237
857.931	3245
858.064	3188
858.197	3260
858.331	3146
858.464	3154
858.597	3028
858.731	3157
858.864	3165
858.997	3108
859.13	3173
859.263	3184
859.396	3226
859.529	3119
859.662	3085
859.795	3108
859.928	3188
860.061	3298
860.194	3336
860.327	3199
860.46	3131
860.592	3272
860.725	3294
860.858	3264
860.99	3165
861.123	3077
861.256	3081
861.388	3161
861.521	3907
861.653	3047
861.786	3036
861.918	3039
862.05	3093
862.183	3127
862.315	3146
862.447	3214
862.58	3127
862.712	2982
862.844	2929
862.976	3028
863.108	3020
863.24	3317
863.372	2887
863.504	2998
863.636	2994
863.768	2998
863.9	2990
864.032	2937
864.164	2952
864.296	2994
864.428	3085
864.559	3112
864.691	3074
864.823	3062
864.954	3074
865.086	3055
865.217	3020
865.349	2952
865.48	3005
865.612	3066
865.743	3192
865.875	2994
866.006	3005
866.137	3013
866.269	2937
866.4	2960
866.531	2960
866.662	2910
866.793	2941
866.924	2933
867.055	3017
867.186	2956
867.317	2914
867.448	2864
867.579	2918
867.71	2834
867.841	2845
867.972	2899
868.103	2902
868.233	2868
868.364	2937
868.495	2910
868.625	3093
868.756	3188
868.886	2982
869.017	3024
869.147	3188
869.278	3157
869.408	3058
869.539	3055
869.669	3104
869.799	3085
869.929	3142
870.06	3150
870.19	3317
870.32	3313
870.45	3313
870.58	3374
870.71	3477
870.84	3435
870.97	3287
871.1	3287
871.23	3515
871.36	3424
871.489	3355
871.619	3424
871.749	3420
871.879	3454
872.008	3473
872.138	3386
872.267	3253
872.397	3135
872.526	3089
872.656	3062
872.785	3112
872.915	3287
873.044	3332
873.173	3237
873.303	3272
873.432	3237
873.561	3207
873.69	3203
873.819	3157
873.948	3214
874.077	3131
874.206	3081
874.335	3089
874.464	3199
874.593	3355
874.722	3279
874.851	3397
874.979	3344
875.108	3329
875.237	3230
875.365	3173
875.494	3233
875.623	3245
875.751	3097
875.88	3100
876.008	3165
876.136	3249
876.265	3374
876.393	3511
876.521	3443
876.65	3370
876.778	3294
876.906	3233
877.034	3180
877.162	3245
877.29	3188
877.418	3291
877.546	3283
877.674	3298
877.802	3275
877.93	3275
878.058	3157
878.185	3123
878.313	3226
878.441	3222
878.568	3100
878.696	3184
878.824	3256
878.951	3340
879.079	3469
879.206	3625
879.333	3481
879.461	3310
879.588	3405
879.715	3477
879.842	3572
879.97	3393
880.097	3188
880.224	3116
880.351	3203
880.478	3214
880.605	3195
880.732	3184
880.859	3485
880.986	3348
881.112	3409
881.239	3222
881.366	3119
881.493	3055
881.619	3032
881.746	3077
881.872	3146
881.999	3142
882.125	3157
882.252	3272
882.378	3298
882.505	3450
882.631	3291
882.757	3165
882.883	3226
883.01	3218
883.136	3169
883.262	3138
883.388	3131
883.514	3351
883.64	3367
883.766	3317
883.892	3237
884.018	3268
884.143	3439
884.269	3549
884.395	3245
884.52	3222
884.646	3180
884.772	3127
884.897	3127
885.023	3195
885.148	3382
885.274	3439
885.399	3412
885.524	3298
885.65	3279
885.775	3317
885.9	3291
886.025	3435
886.15	3386
886.275	3332
886.4	3226
886.525	3294
886.65	3313
886.775	3313
886.9	3504
887.025	3663
887.149	3374
887.274	3302
887.399	3195
887.523	3211
887.648	3214
887.773	3195
887.897	3386
888.021	3420
888.146	3298
888.27	3454
888.395	3553
888.519	3462
888.643	3450
888.767	3485
888.891	3283
889.015	3226
889.139	3306
889.263	3287
889.387	3431
889.511	3507
889.635	3431
889.759	3302
889.883	3321
890.006	3374
890.13	3515
890.254	3279
890.377	3344
890.501	3226
890.624	3188
890.748	3279
890.871	3199
890.995	3119
891.118	3081
891.241	3188
891.364	3249
891.488	3344
891.611	3192
891.734	3222
891.857	3298
891.98	3264
892.103	3351
892.226	3306
892.349	3230
892.471	3104
892.594	3253
892.717	3287
892.839	3268
892.962	3294
893.085	3374
893.207	3306
893.33	3214
893.452	3230
893.575	3332
893.697	3306
893.819	3526
893.941	3492
894.064	3431
894.186	3317
894.308	3272
894.43	3435
894.552	3534
894.674	3515
894.796	3283
894.918	3317
895.04	3249
895.161	3466
895.283	3382
895.405	3298
895.526	3397
895.648	3428
895.769	3435
895.891	3431
896.012	3454
896.134	3469
896.255	3454
896.376	3378
896.498	3374
896.619	3462
896.74	3367
896.861	3420
896.982	3663
897.103	3831
897.224	3622
897.345	3553
897.466	3412
897.587	3526
897.708	3584
897.828	3553
897.949	3469
898.07	3313
898.19	3393
898.311	3584
898.431	3473
898.552	3515
898.672	3595
898.792	3603
898.913	3519
899.033	3443
899.153	3302
899.273	3218
899.393	3264
899.513	3355
899.633	3325
899.753	3355
899.873	3336
899.993	3435
900.113	3340
900.232	3431
900.352	3321
900.472	3325
900.591	3203
900.711	3302
900.83	3226
900.95	3420
901.069	3530
901.189	3367
901.308	3184
901.427	3123
901.546	3245
901.665	3302
901.784	3359
901.904	3226
902.023	3165
902.141	2979
902.26	2998
902.379	3127
902.498	3100
902.617	3039
902.735	3214
902.854	3237
902.973	3176
903.091	3058
903.21	3108
903.328	3123
903.446	3112
903.565	3070
903.683	3192
903.801	3142
903.919	3275
904.038	3313
904.156	3188
904.274	3245
904.392	3249
904.51	3268
904.627	3321
904.745	3458
904.863	3477
904.981	3260
905.098	3169
905.216	3237
905.334	3260
905.451	3325
905.569	3313
905.686	3431
905.803	3439
905.921	3260
906.038	3458
906.155	3344
906.272	3272
906.389	3329
906.506	3249
906.623	3275
906.74	3272
906.857	3180
906.974	3237
907.091	3454
907.208	3557
907.324	3488
907.441	3378
907.557	3253
907.674	3226
907.79	3226
907.907	3279
908.023	3325
908.139	3386
908.256	3306
908.372	3336
908.488	3325
908.604	3275
908.72	3283
908.836	3306
908.952	3253
909.068	3332
909.184	3496
909.3	3397
909.415	3496
909.531	3443
909.647	3298
909.762	3279
909.878	3249
909.993	3367
910.108	3340
910.224	3359
910.339	3416
910.454	3329
910.57	3291
910.685	3268
910.8	3614
910.915	3584
911.03	3428
911.145	3264
911.259	3272
911.374	3332
911.489	3222
911.604	3195
911.718	3135
911.833	3184
911.947	3024
912.062	2990
912.176	3161
912.291	3188
912.405	3222
912.519	3412
912.633	3488
912.748	3359
912.862	3253
912.976	3207
913.09	3017
913.204	3192
913.318	3237
913.431	3325
913.545	3329
913.659	3405
913.772	3348
913.886	3237
914	3199
914.113	3348
914.226	3405
914.34	3363
914.453	3226
914.566	3382
914.68	3329
914.793	3351
914.906	3131
915.019	3131
915.132	3066
915.245	3180
915.358	3192
915.47	3211
915.583	3302
915.696	3260
915.809	3405
915.921	3428
916.034	3237
916.146	3268
916.259	3211
916.371	3397
916.483	3351
916.595	3241
916.708	3351
916.82	3287
916.932	3310
917.044	3348
917.156	3367
917.268	3237
917.38	3287
917.491	3294
917.603	3359
917.715	3458
917.826	3473
917.938	3416
918.049	3275
918.161	3386
918.272	3576
918.384	3553
918.495	3481
918.606	3344
918.717	3237
918.828	3348
918.939	3397
919.05	3348
919.161	3367
919.272	3165
919.383	3253
919.494	3504
919.604	3660
919.715	3523
919.826	3382
919.936	3439
920.047	3610
920.157	3542
920.267	3785
920.378	3587
920.488	3564
920.598	3808
920.708	3968
920.818	3797
920.928	3819
921.038	4029
921.148	4025
921.258	3724
921.368	3637
921.477	3610
921.587	3538
921.697	3485
921.806	3652
921.916	3542
922.025	3355
922.134	3344
922.244	3283
922.353	3428
922.462	3272
922.571	3260
922.68	3066
922.789	3097
922.898	3104
923.007	3100
923.116	3203
923.224	3195
923.333	3169
923.442	3089
923.55	3108
923.659	3161
923.767	3230
923.876	3150
923.984	3226
924.092	3100
924.201	3165
924.309	3245
924.417	3253
924.525	3173
924.633	3214
924.741	4032
924.849	3077
924.956	3287
925.064	3108
925.172	3020
925.279	3112
925.387	3214
925.494	3211
925.602	3340
925.709	3329
925.816	3211
925.924	3279
926.031	3389
926.138	3348
926.245	3344
926.352	3249
926.459	3393
926.566	3424
926.673	3321
926.779	3287
926.886	3241
926.993	3146
927.099	3169
927.206	3108
927.312	3123
927.419	3253
927.525	3222
927.631	3268
927.737	3138
927.843	3100
927.95	3024
928.056	3127
928.162	3157
928.267	3211
928.373	3808
928.479	3306
928.585	3093
928.69	3218
928.796	3253
928.901	3188
929.007	3051
929.112	3150
929.218	3184
929.323	3161
929.428	3161
929.533	3294
929.638	3119
929.743	3146
929.848	3241
929.953	3245
930.058	3142
930.163	2998
930.267	3047
930.372	3176
930.477	3081
930.581	3374
930.685	3169
930.79	3074
930.894	3154
930.998	3112
931.103	3283
931.207	2944
931.311	2948
931.415	2914
931.519	2754
931.623	2826
