Data from test_V78500241_1243.txt Node
Date: Fri Mar 25 16:23:48 CST 2022
User: usil
Spectrometer: V785-0024
Trigger mode: 0
Integration Time (sec): 4.000000E-1
Scans to average: 1
Nonlinearity correction enabled: false
Boxcar width: 0
Storing dark spectrum: false
XAxis mode: Wavelengths
Number of Pixels in Spectrum: 1024
>>>>>Begin Spectral Data<<<<<
801.071	2914
801.214	2986
801.356	2883
801.499	2914
801.641	2868
801.783	2906
801.926	3039
802.068	2967
802.211	2990
802.353	2994
802.496	2960
802.638	2982
802.78	3005
802.923	3089
803.065	2975
803.208	2891
803.35	2941
803.492	2883
803.635	2902
803.777	2773
803.919	2868
804.061	3214
804.204	2933
804.346	2883
804.488	2811
804.63	2994
804.773	2868
804.915	2906
805.057	3093
805.199	2952
805.341	3009
805.483	3039
805.626	3009
805.768	2956
805.91	3074
806.052	3085
806.194	3043
806.336	3222
806.478	3036
806.62	2944
806.762	2933
806.904	3039
807.046	3112
807.188	2986
807.33	2910
807.472	3001
807.614	2880
807.756	2937
807.898	2891
808.04	2883
808.182	2944
808.324	2948
808.465	2899
808.607	2880
808.749	2792
808.891	2823
809.033	2952
809.174	2979
809.316	2880
809.458	2910
809.6	2785
809.741	2781
809.883	2754
810.025	2838
810.166	2842
810.308	2853
810.45	2807
810.591	2811
810.733	2766
810.875	2830
811.016	2777
811.158	2777
811.299	2792
811.441	2906
811.582	2910
811.724	2842
811.865	2823
812.007	2902
812.148	2899
812.29	2891
812.431	2899
812.573	2925
812.714	2971
812.855	3039
812.997	3024
813.138	3131
813.279	3028
813.421	2967
813.562	2937
813.703	2868
813.845	2902
813.986	2773
814.127	2689
814.268	2804
814.41	2819
814.551	2796
814.692	2876
814.833	2826
814.974	2895
815.115	2952
815.256	2804
815.397	2785
815.539	2857
815.68	2766
815.821	2758
815.962	2925
816.103	2899
816.244	2910
816.385	2861
816.526	2944
816.666	2937
816.807	2735
816.948	2883
817.089	2918
817.23	2830
817.371	2769
817.512	2807
817.653	2826
817.793	2807
817.934	2872
818.075	2979
818.216	2986
818.356	3039
818.497	2899
818.638	2754
818.778	2777
818.919	2796
819.06	2766
819.2	2861
819.341	2823
819.481	2819
819.622	2902
819.762	3097
819.903	3036
820.043	2899
820.184	2880
820.324	2883
820.465	3017
820.605	3024
820.746	3017
820.886	2937
821.026	3074
821.167	3157
821.307	3268
821.447	3329
821.588	3214
821.728	3161
821.868	3199
822.008	3074
822.149	3188
822.289	3203
822.429	3062
822.569	3070
822.709	3165
822.849	2990
822.99	3062
823.13	3123
823.27	3150
823.41	3097
823.55	3150
823.69	3157
823.83	3195
823.97	3081
824.11	2998
824.25	2979
824.389	3058
824.529	3070
824.669	3039
824.809	3192
824.949	3264
825.089	3207
825.228	3165
825.368	3024
825.508	2925
825.648	2960
825.787	3005
825.927	3020
826.067	2982
826.206	2967
826.346	3055
826.485	3062
826.625	3089
826.765	3245
826.904	3218
827.044	3032
827.183	2956
827.323	2849
827.462	2975
827.601	2876
827.741	2906
827.88	2944
828.02	2868
828.159	2948
828.298	3036
828.437	3100
828.577	3039
828.716	3218
828.855	3051
828.994	2906
829.134	2883
829.273	2910
829.412	2864
829.551	2826
829.69	2883
829.829	2967
829.968	3093
830.107	2994
830.246	3066
830.385	2929
830.524	2883
830.663	2842
830.802	2727
830.941	2625
831.08	2655
831.219	2754
831.357	2727
831.496	2956
831.635	2746
831.774	2670
831.913	2625
832.051	2549
832.19	2568
832.329	2655
832.467	2537
832.606	2492
832.744	2571
832.883	2571
833.022	2575
833.16	2629
833.299	2678
833.437	2708
833.576	2693
833.714	2720
833.852	2735
833.991	2754
834.129	2811
834.267	2819
834.406	2792
834.544	2830
834.682	2880
834.821	2861
834.959	3058
835.097	2906
835.235	3039
835.373	3017
835.511	2994
835.65	2910
835.788	2998
835.926	2826
836.064	2785
836.202	2811
836.34	3077
836.478	3173
836.615	3032
836.753	3116
836.891	3188
837.029	3173
837.167	3123
837.305	3077
837.443	3062
837.58	2982
837.718	3127
837.856	3062
837.993	3028
838.131	3127
838.269	3097
838.406	3070
838.544	3093
838.681	2925
838.819	2899
838.956	2830
839.094	2838
839.231	2914
839.369	3001
839.506	3378
839.643	3211
839.781	2994
839.918	2952
840.055	3020
840.193	3043
840.33	3055
840.467	3081
840.604	3154
840.742	3386
840.879	3051
841.016	3043
841.153	3123
841.29	3329
841.427	3310
841.564	3241
841.701	3294
841.838	3211
841.975	3207
842.112	3214
842.249	3070
842.385	3039
842.522	3256
842.659	3089
842.796	3039
842.933	3104
843.069	3017
843.206	3013
843.343	3150
843.479	3097
843.616	3127
843.752	2883
843.889	2868
844.025	3062
844.162	2864
844.298	3043
844.435	2963
844.571	2941
844.708	3036
844.844	3157
844.98	3218
845.117	3173
845.253	3085
845.389	2960
845.525	3116
845.661	3089
845.798	2982
845.934	3104
846.07	3070
846.206	3195
846.342	3313
846.478	3207
846.614	3058
846.75	3070
846.886	3009
847.022	3275
847.158	3135
847.294	3176
847.429	3222
847.565	3207
847.701	3473
847.837	2982
847.972	3001
848.108	3157
848.244	3180
848.379	2979
848.515	2956
848.65	2906
848.786	2960
848.921	3009
849.057	3077
849.192	3146
849.328	3074
849.463	3085
849.598	3043
849.734	3013
849.869	2918
850.004	2933
850.14	3020
850.275	2918
850.41	2849
850.545	2849
850.68	2929
850.815	2967
850.95	2944
851.085	3207
851.22	3070
851.355	3036
851.49	2975
851.625	3024
851.76	2998
851.895	2887
852.03	2914
852.165	3036
852.299	3085
852.434	3199
852.569	3108
852.703	3165
852.838	3233
852.973	3329
853.107	3351
853.242	3146
853.376	3093
853.511	3009
853.645	3017
853.78	3222
853.914	3089
854.048	3131
854.183	3112
854.317	3157
854.451	3298
854.585	3131
854.72	3127
854.854	3226
854.988	3055
855.122	3055
855.256	2967
855.39	3138
855.524	3214
855.658	3173
855.792	3093
855.926	3214
856.06	3222
856.194	3291
856.327	3165
856.461	3036
856.595	3085
856.729	3116
856.862	3176
856.996	3138
857.13	3184
857.263	3233
857.397	3245
857.53	3146
857.664	3173
857.797	3192
857.931	3256
858.064	3207
858.197	3230
858.331	3119
858.464	3070
858.597	2990
858.731	3131
858.864	3142
858.997	3119
859.13	3131
859.263	3161
859.396	3230
859.529	3081
859.662	3055
859.795	3070
859.928	3173
860.061	3294
860.194	3268
860.327	3142
860.46	3097
860.592	3245
860.725	3275
860.858	3237
860.99	3070
861.123	3066
861.256	3047
861.388	3131
861.521	3698
861.653	3009
861.786	2982
861.918	3009
862.05	3047
862.183	3077
862.315	3169
862.447	3192
862.58	3081
862.712	2944
862.844	2861
862.976	3032
863.108	3024
863.24	3291
863.372	2853
863.504	2979
863.636	2922
863.768	3024
863.9	2986
864.032	2887
864.164	2906
864.296	2998
864.428	3097
864.559	3097
864.691	3047
864.823	3089
864.954	2994
865.086	3013
865.217	2990
865.349	2948
865.48	2994
865.612	2998
865.743	3138
865.875	2982
866.006	2929
866.137	2990
866.269	2952
866.4	2952
866.531	2910
866.662	2868
866.793	2899
866.924	2876
867.055	2937
867.186	2918
867.317	2864
867.448	2826
867.579	2819
867.71	2864
867.841	2811
867.972	2891
868.103	2906
868.233	2838
868.364	2853
868.495	2895
868.625	3058
868.756	3142
868.886	2960
869.017	3001
869.147	3150
869.278	3150
869.408	3013
869.539	3013
869.669	3043
869.799	3020
869.929	3127
870.06	3135
870.19	3332
870.32	3302
870.45	3298
870.58	3374
870.71	3416
870.84	3431
870.97	3256
871.1	3192
871.23	3466
871.36	3454
871.489	3332
871.619	3397
871.749	3412
871.879	3439
872.008	3473
872.138	3367
872.267	3256
872.397	3131
872.526	3100
872.656	3005
872.785	3077
872.915	3245
873.044	3355
873.173	3218
873.303	3241
873.432	3222
873.561	3211
873.69	3150
873.819	3123
873.948	3180
874.077	3085
874.206	3062
874.335	3097
874.464	3226
874.593	3363
874.722	3268
874.851	3374
874.979	3332
875.108	3268
875.237	3192
875.365	3112
875.494	3165
875.623	3256
875.751	3047
875.88	3055
876.008	3199
876.136	3180
876.265	3340
876.393	3492
876.521	3382
876.65	3393
876.778	3310
876.906	3260
877.034	3184
877.162	3245
877.29	3165
877.418	3249
877.546	3230
877.674	3264
877.802	3264
877.93	3203
878.058	3150
878.185	3104
878.313	3157
878.441	3237
878.568	3081
878.696	3116
878.824	3241
878.951	3275
879.079	3447
879.206	3580
879.333	3405
879.461	3325
879.588	3367
879.715	3443
879.842	3568
879.97	3359
880.097	3180
880.224	3104
880.351	3195
880.478	3192
880.605	3146
880.732	3211
880.859	3462
880.986	3298
881.112	3302
881.239	3192
881.366	3119
881.493	2998
881.619	3013
881.746	3077
881.872	3081
881.999	3108
882.125	3154
882.252	3211
882.378	3302
882.505	3443
882.631	3317
882.757	3116
882.883	3207
883.01	3214
883.136	3146
883.262	3100
883.388	3093
883.514	3306
883.64	3382
883.766	3332
883.892	3176
884.018	3230
884.143	3389
884.269	3542
884.395	3195
884.52	3146
884.646	3195
884.772	3089
884.897	3104
885.023	3207
885.148	3348
885.274	3397
885.399	3355
885.524	3268
885.65	3222
885.775	3348
885.9	3268
886.025	3420
886.15	3351
886.275	3272
886.4	3222
886.525	3325
886.65	3260
886.775	3291
886.9	3485
887.025	3648
887.149	3412
887.274	3260
887.399	3180
887.523	3192
887.648	3184
887.773	3173
887.897	3359
888.021	3409
888.146	3298
888.27	3435
888.395	3500
888.519	3416
888.643	3447
888.767	3450
888.891	3325
889.015	3264
889.139	3275
889.263	3272
889.387	3386
889.511	3545
889.635	3424
889.759	3325
889.883	3268
890.006	3359
890.13	3507
890.254	3272
890.377	3348
890.501	3176
890.624	3169
890.748	3291
890.871	3195
890.995	3077
891.118	3058
891.241	3230
891.364	3245
891.488	3283
891.611	3176
891.734	3199
891.857	3321
891.98	3264
892.103	3332
892.226	3279
892.349	3195
892.471	3138
892.594	3249
892.717	3272
892.839	3272
892.962	3302
893.085	3336
893.207	3283
893.33	3157
893.452	3214
893.575	3355
893.697	3241
893.819	3477
893.941	3511
894.064	3431
894.186	3249
894.308	3256
894.43	3473
894.552	3530
894.674	3447
894.796	3287
894.918	3291
895.04	3302
895.161	3389
895.283	3363
895.405	3283
895.526	3359
895.648	3397
895.769	3439
895.891	3401
896.012	3466
896.134	3473
896.255	3401
896.376	3374
896.498	3389
896.619	3374
896.74	3393
896.861	3397
896.982	3698
897.103	3835
897.224	3580
897.345	3530
897.466	3420
897.587	3507
897.708	3603
897.828	3568
897.949	3428
898.07	3336
898.19	3386
898.311	3629
898.431	3412
898.552	3485
898.672	3614
898.792	3568
898.913	3519
899.033	3370
899.153	3298
899.273	3211
899.393	3268
899.513	3310
899.633	3291
899.753	3332
899.873	3298
899.993	3367
900.113	3340
900.232	3378
900.352	3317
900.472	3302
900.591	3203
900.711	3313
900.83	3233
900.95	3424
901.069	3481
901.189	3344
901.308	3176
901.427	3100
901.546	3154
901.665	3294
901.784	3310
901.904	3207
902.023	3161
902.141	3024
902.26	2998
902.379	3112
902.498	3089
902.617	3028
902.735	3165
902.854	3222
902.973	3192
903.091	3013
903.21	3051
903.328	3100
903.446	3131
903.565	3051
903.683	3184
903.801	3119
903.919	3214
904.038	3268
904.156	3161
904.274	3253
904.392	3253
904.51	3283
904.627	3287
904.745	3481
904.863	3469
904.981	3245
905.098	3176
905.216	3272
905.334	3302
905.451	3313
905.569	3264
905.686	3443
905.803	3435
905.921	3272
906.038	3458
906.155	3344
906.272	3245
906.389	3321
906.506	3249
906.623	3237
906.74	3249
906.857	3165
906.974	3230
907.091	3458
907.208	3564
907.324	3462
907.441	3359
907.557	3195
907.674	3222
907.79	3192
907.907	3298
908.023	3370
908.139	3374
908.256	3283
908.372	3397
908.488	3374
908.604	3268
908.72	3199
908.836	3291
908.952	3230
909.068	3329
909.184	3481
909.3	3397
909.415	3473
909.531	3431
909.647	3298
909.762	3329
909.878	3253
909.993	3355
910.108	3332
910.224	3306
910.339	3424
910.454	3336
910.57	3268
910.685	3245
910.8	3603
910.915	3557
911.03	3420
911.145	3298
911.259	3268
911.374	3272
911.489	3256
911.604	3230
911.718	3127
911.833	3142
911.947	3001
912.062	3009
912.176	3173
912.291	3233
912.405	3226
912.519	3435
912.633	3435
912.748	3351
912.862	3287
912.976	3169
913.09	3058
913.204	3142
913.318	3199
913.431	3329
913.545	3344
913.659	3462
913.772	3340
913.886	3218
914	3150
914.113	3359
914.226	3382
914.34	3367
914.453	3241
914.566	3401
914.68	3302
914.793	3317
914.906	3116
915.019	3074
915.132	3047
915.245	3184
915.358	3161
915.47	3253
915.583	3279
915.696	3275
915.809	3416
915.921	3416
916.034	3268
916.146	3230
916.259	3214
916.371	3378
916.483	3351
916.595	3249
916.708	3329
916.82	3336
916.932	3336
917.044	3344
917.156	3340
917.268	3260
917.38	3275
917.491	3275
917.603	3370
917.715	3439
917.826	3466
917.938	3393
918.049	3275
918.161	3443
918.272	3568
918.384	3591
918.495	3515
918.606	3351
918.717	3294
918.828	3363
918.939	3370
919.05	3283
919.161	3344
919.272	3150
919.383	3283
919.494	3496
919.604	3698
919.715	3488
919.826	3386
919.936	3431
920.047	3534
920.157	3542
920.267	3774
920.378	3603
920.488	3618
920.598	3774
920.708	3960
920.818	3774
920.928	3819
921.038	4063
921.148	3983
921.258	3709
921.368	3633
921.477	3568
921.587	3557
921.697	3473
921.806	3606
921.916	3549
922.025	3317
922.134	3386
922.244	3348
922.353	3412
922.462	3287
922.571	3253
922.68	3157
922.789	3089
922.898	3135
923.007	3108
923.116	3218
923.224	3142
923.333	3104
923.442	3097
923.55	3112
923.659	3142
923.767	3180
923.876	3066
923.984	3249
924.092	3085
924.201	3226
924.309	3222
924.417	3241
924.525	3192
924.633	3245
924.741	4013
924.849	3055
924.956	3264
925.064	3077
925.172	3058
925.279	3100
925.387	3199
925.494	3203
925.602	3344
925.709	3348
925.816	3184
925.924	3256
926.031	3378
926.138	3313
926.245	3348
926.352	3268
926.459	3386
926.566	3477
926.673	3294
926.779	3218
926.886	3237
926.993	3154
927.099	3116
927.206	3062
927.312	3150
927.419	3260
927.525	3146
927.631	3253
927.737	3116
927.843	3112
927.95	3020
928.056	3131
928.162	3176
928.267	3253
928.373	3865
928.479	3287
928.585	3051
928.69	3180
928.796	3237
928.901	3180
929.007	3070
929.112	3230
929.218	3161
929.323	3173
929.428	3146
929.533	3321
929.638	3089
929.743	3211
929.848	3253
929.953	3218
930.058	3131
930.163	2998
930.267	3058
930.372	3169
930.477	3058
930.581	3370
930.685	3184
930.79	3055
930.894	3074
930.998	3066
931.103	3283
931.207	2963
931.311	2914
931.415	2925
931.519	2750
931.623	2807
