Data from test_V78500241_23.txt Node
Date: Fri Mar 25 16:15:21 CST 2022
User: usil
Spectrometer: V785-0024
Trigger mode: 0
Integration Time (sec): 4.000000E-1
Scans to average: 1
Nonlinearity correction enabled: false
Boxcar width: 0
Storing dark spectrum: false
XAxis mode: Wavelengths
Number of Pixels in Spectrum: 1024
>>>>>Begin Spectral Data<<<<<
801.071	2998
801.214	2986
801.356	2918
801.499	2941
801.641	2929
801.783	2941
801.926	3100
802.068	3055
802.211	3085
802.353	3123
802.496	3043
802.638	3051
802.78	3104
802.923	3165
803.065	3108
803.208	2975
803.35	2990
803.492	3013
803.635	2963
803.777	2815
803.919	2918
804.061	3268
804.204	2975
804.346	2975
804.488	2952
804.63	3020
804.773	2922
804.915	2967
805.057	3131
805.199	3001
805.341	3051
805.483	3116
805.626	3051
805.768	3005
805.91	3154
806.052	3199
806.194	3097
806.336	3283
806.478	3077
806.62	3032
806.762	3032
806.904	3097
807.046	3207
807.188	3032
807.33	2944
807.472	3036
807.614	2963
807.756	3020
807.898	2990
808.04	2944
808.182	3020
808.324	3001
808.465	2929
808.607	2906
808.749	2883
808.891	2876
809.033	3020
809.174	3039
809.316	2979
809.458	2960
809.6	2800
809.741	2823
809.883	2819
810.025	2906
810.166	2902
810.308	2902
810.45	2922
810.591	2842
810.733	2819
810.875	2880
811.016	2826
811.158	2838
811.299	2868
811.441	2971
811.582	2960
811.724	2887
811.865	2902
812.007	2944
812.148	2914
812.29	2887
812.431	2929
812.573	3017
812.714	3047
812.855	3055
812.997	3093
813.138	3146
813.279	3062
813.421	3039
813.562	2994
813.703	2925
813.845	2952
813.986	2796
814.127	2777
814.268	2891
814.41	2895
814.551	2861
814.692	2944
814.833	2895
814.974	2906
815.115	3032
815.256	2876
815.397	2887
815.539	2906
815.68	2811
815.821	2853
815.962	3001
816.103	2982
816.244	2925
816.385	2895
816.526	2982
816.666	2979
816.807	2842
816.948	2960
817.089	2971
817.23	2895
817.371	2842
817.512	2845
817.653	2868
817.793	2895
817.934	2906
818.075	3036
818.216	3051
818.356	3058
818.497	2922
818.638	2857
818.778	2880
818.919	2857
819.06	2777
819.2	2956
819.341	2849
819.481	2883
819.622	2986
819.762	3184
819.903	3093
820.043	2960
820.184	2975
820.324	2952
820.465	3077
820.605	3066
820.746	3066
820.886	3005
821.026	3123
821.167	3176
821.307	3351
821.447	3313
821.588	3275
821.728	3268
821.868	3249
822.008	3085
822.149	3207
822.289	3294
822.429	3150
822.569	3138
822.709	3180
822.849	3074
822.99	3142
823.13	3195
823.27	3237
823.41	3135
823.55	3211
823.69	3214
823.83	3241
823.97	3154
824.11	3024
824.25	3043
824.389	3112
824.529	3173
824.669	3142
824.809	3233
824.949	3329
825.089	3283
825.228	3226
825.368	3062
825.508	3005
825.648	3001
825.787	3089
825.927	3066
826.067	2994
826.206	3001
826.346	3074
826.485	3138
826.625	3199
826.765	3351
826.904	3283
827.044	3066
827.183	2986
827.323	2933
827.462	3009
827.601	2990
827.741	2952
827.88	2986
828.02	2906
828.159	3051
828.298	3074
828.437	3157
828.577	3142
828.716	3310
828.855	3131
828.994	2971
829.134	2899
829.273	2979
829.412	2925
829.551	2910
829.69	2925
829.829	2990
829.968	3173
830.107	3093
830.246	3089
830.385	2971
830.524	2922
830.663	2876
830.802	2804
830.941	2693
831.08	2682
831.219	2796
831.357	2807
831.496	2986
831.635	2754
831.774	2689
831.913	2678
832.051	2587
832.19	2632
832.329	2743
832.467	2541
832.606	2526
832.744	2598
832.883	2636
833.022	2648
833.16	2724
833.299	2716
833.437	2743
833.576	2708
833.714	2792
833.852	2754
833.991	2842
834.129	2838
834.267	2845
834.406	2842
834.544	2925
834.682	2868
834.821	2929
834.959	3138
835.097	2941
835.235	3093
835.373	3043
835.511	3081
835.65	3005
835.788	3009
835.926	2895
836.064	2853
836.202	2925
836.34	3123
836.478	3218
836.615	3116
836.753	3211
836.891	3268
837.029	3207
837.167	3150
837.305	3112
837.443	3058
837.58	3013
837.718	3184
837.856	3146
837.993	3146
838.131	3176
838.269	3195
838.406	3138
838.544	3173
838.681	2998
838.819	2948
838.956	2902
839.094	2838
839.231	2956
839.369	3055
839.506	3401
839.643	3283
839.781	3058
839.918	2967
840.055	3066
840.193	3085
840.33	3104
840.467	3161
840.604	3230
840.742	3469
840.879	3097
841.016	3108
841.153	3211
841.29	3393
841.427	3386
841.564	3317
841.701	3359
841.838	3241
841.975	3245
842.112	3245
842.249	3150
842.385	3077
842.522	3302
842.659	3146
842.796	3108
842.933	3165
843.069	3119
843.206	3089
843.343	3264
843.479	3188
843.616	3169
843.752	2937
843.889	2914
844.025	3127
844.162	2910
844.298	3119
844.435	2982
844.571	2948
844.708	3108
844.844	3249
844.98	3317
845.117	3214
845.253	3097
845.389	3039
845.525	3150
845.661	3176
845.798	3093
845.934	3157
846.07	3135
846.206	3249
846.342	3389
846.478	3253
846.614	3116
846.75	3142
846.886	3077
847.022	3260
847.158	3180
847.294	3233
847.429	3332
847.565	3253
847.701	3526
847.837	3058
847.972	3055
848.108	3237
848.244	3214
848.379	3043
848.515	2971
848.65	2979
848.786	3005
848.921	3074
849.057	3135
849.192	3199
849.328	3104
849.463	3188
849.598	3127
849.734	3100
849.869	3017
850.004	2925
850.14	2982
850.275	2952
850.41	2883
850.545	2906
850.68	2986
850.815	3013
850.95	3020
851.085	3253
851.22	3173
851.355	3066
851.49	3005
851.625	3070
851.76	3024
851.895	2948
852.03	2952
852.165	3093
852.299	3173
852.434	3245
852.569	3192
852.703	3230
852.838	3294
852.973	3401
853.107	3382
853.242	3138
853.376	3165
853.511	3024
853.645	3093
853.78	3268
853.914	3150
854.048	3169
854.183	3154
854.317	3176
854.451	3287
854.585	3222
854.72	3138
854.854	3287
854.988	3093
855.122	3150
855.256	2982
855.39	3154
855.524	3298
855.658	3222
855.792	3188
855.926	3268
856.06	3268
856.194	3306
856.327	3211
856.461	3108
856.595	3138
856.729	3119
856.862	3279
856.996	3199
857.13	3283
857.263	3256
857.397	3344
857.53	3173
857.664	3256
857.797	3291
857.931	3313
858.064	3218
858.197	3291
858.331	3154
858.464	3138
858.597	3028
858.731	3176
858.864	3203
858.997	3123
859.13	3203
859.263	3195
859.396	3241
859.529	3138
859.662	3127
859.795	3112
859.928	3218
860.061	3306
860.194	3367
860.327	3180
860.46	3154
860.592	3298
860.725	3302
860.858	3298
860.99	3154
861.123	3100
861.256	3074
861.388	3211
861.521	3759
861.653	3074
861.786	2998
861.918	3058
862.05	3131
862.183	3127
862.315	3165
862.447	3237
862.58	3135
862.712	2952
862.844	2929
862.976	3070
863.108	3024
863.24	3485
863.372	2929
863.504	2994
863.636	2979
863.768	3051
863.9	3020
864.032	2941
864.164	3001
864.296	3062
864.428	3123
864.559	3150
864.691	3150
864.823	3093
864.954	3097
865.086	3097
865.217	3070
865.349	2982
865.48	3036
865.612	3039
865.743	3176
865.875	3017
866.006	2975
866.137	3047
866.269	3020
866.4	2933
866.531	2963
866.662	2902
866.793	2914
866.924	2929
867.055	3020
867.186	3005
867.317	2902
867.448	2861
867.579	2861
867.71	2902
867.841	2845
867.972	2922
868.103	2929
868.233	2914
868.364	2883
868.495	2933
868.625	3123
868.756	3253
868.886	3001
869.017	3070
869.147	3173
869.278	3222
869.408	3070
869.539	3066
869.669	3135
869.799	3100
869.929	3161
870.06	3127
870.19	3367
870.32	3302
870.45	3340
870.58	3405
870.71	3542
870.84	3454
870.97	3310
871.1	3291
871.23	3500
871.36	3466
871.489	3424
871.619	3409
871.749	3481
871.879	3515
872.008	3530
872.138	3416
872.267	3310
872.397	3188
872.526	3146
872.656	3036
872.785	3173
872.915	3310
873.044	3370
873.173	3268
873.303	3283
873.432	3329
873.561	3272
873.69	3184
873.819	3173
873.948	3249
874.077	3180
874.206	3097
874.335	3116
874.464	3268
874.593	3389
874.722	3310
874.851	3420
874.979	3435
875.108	3367
875.237	3256
875.365	3226
875.494	3211
875.623	3275
875.751	3131
875.88	3161
876.008	3283
876.136	3253
876.265	3454
876.393	3538
876.521	3523
876.65	3416
876.778	3332
876.906	3317
877.034	3268
877.162	3253
877.29	3245
877.418	3287
877.546	3321
877.674	3275
877.802	3317
877.93	3218
878.058	3199
878.185	3131
878.313	3253
878.441	3241
878.568	3116
878.696	3173
878.824	3321
878.951	3382
879.079	3504
879.206	3686
879.333	3458
879.461	3439
879.588	3454
879.715	3572
879.842	3633
879.97	3412
880.097	3199
880.224	3169
880.351	3249
880.478	3283
880.605	3268
880.732	3214
880.859	3500
880.986	3367
881.112	3378
881.239	3279
881.366	3146
881.493	3062
881.619	3116
881.746	3089
881.872	3142
881.999	3157
882.125	3214
882.252	3298
882.378	3359
882.505	3473
882.631	3317
882.757	3195
882.883	3256
883.01	3237
883.136	3195
883.262	3146
883.388	3169
883.514	3409
883.64	3405
883.766	3336
883.892	3237
884.018	3294
884.143	3469
884.269	3603
884.395	3237
884.52	3211
884.646	3241
884.772	3180
884.897	3165
885.023	3283
885.148	3374
885.274	3462
885.399	3443
885.524	3321
885.65	3268
885.775	3363
885.9	3325
886.025	3462
886.15	3466
886.275	3336
886.4	3245
886.525	3389
886.65	3294
886.775	3329
886.9	3530
887.025	3732
887.149	3469
887.274	3302
887.399	3226
887.523	3222
887.648	3233
887.773	3222
887.897	3435
888.021	3428
888.146	3359
888.27	3473
888.395	3614
888.519	3488
888.643	3462
888.767	3530
888.891	3340
889.015	3283
889.139	3340
889.263	3302
889.387	3492
889.511	3568
889.635	3519
889.759	3359
889.883	3378
890.006	3439
890.13	3549
890.254	3344
890.377	3378
890.501	3283
890.624	3214
890.748	3336
890.871	3184
890.995	3138
891.118	3116
891.241	3253
891.364	3233
891.488	3340
891.611	3199
891.734	3211
891.857	3344
891.98	3313
892.103	3348
892.226	3283
892.349	3291
892.471	3127
892.594	3329
892.717	3336
892.839	3332
892.962	3340
893.085	3443
893.207	3321
893.33	3195
893.452	3275
893.575	3370
893.697	3302
893.819	3507
893.941	3561
894.064	3511
894.186	3397
894.308	3325
894.43	3500
894.552	3595
894.674	3523
894.796	3355
894.918	3386
895.04	3329
895.161	3530
895.283	3469
895.405	3325
895.526	3447
895.648	3500
895.769	3496
895.891	3485
896.012	3545
896.134	3545
896.255	3473
896.376	3416
896.498	3458
896.619	3477
896.74	3435
896.861	3469
896.982	3736
897.103	3903
897.224	3717
897.345	3564
897.466	3500
897.587	3530
897.708	3648
897.828	3587
897.949	3473
898.07	3393
898.19	3500
898.311	3660
898.431	3523
898.552	3625
898.672	3675
898.792	3667
898.913	3629
899.033	3488
899.153	3378
899.273	3253
899.393	3336
899.513	3389
899.633	3382
899.753	3351
899.873	3351
899.993	3458
900.113	3393
900.232	3481
900.352	3393
900.472	3359
900.591	3249
900.711	3340
900.83	3260
900.95	3507
901.069	3549
901.189	3424
901.308	3192
901.427	3165
901.546	3233
901.665	3355
901.784	3409
901.904	3230
902.023	3165
902.141	3032
902.26	3047
902.379	3195
902.498	3123
902.617	3077
902.735	3291
902.854	3298
902.973	3241
903.091	3108
903.21	3112
903.328	3207
903.446	3146
903.565	3104
903.683	3272
903.801	3169
903.919	3275
904.038	3348
904.156	3203
904.274	3363
904.392	3355
904.51	3329
904.627	3386
904.745	3473
904.863	3538
904.981	3294
905.098	3264
905.216	3272
905.334	3382
905.451	3355
905.569	3389
905.686	3466
905.803	3485
905.921	3336
906.038	3462
906.155	3420
906.272	3344
906.389	3401
906.506	3268
906.623	3279
906.74	3344
906.857	3241
906.974	3329
907.091	3488
907.208	3622
907.324	3519
907.441	3412
907.557	3287
907.674	3291
907.79	3260
907.907	3351
908.023	3443
908.139	3424
908.256	3378
908.372	3439
908.488	3382
908.604	3298
908.72	3298
908.836	3344
908.952	3291
909.068	3401
909.184	3507
909.3	3412
909.415	3553
909.531	3496
909.647	3325
909.762	3340
909.878	3325
909.993	3416
910.108	3378
910.224	3378
910.339	3488
910.454	3393
910.57	3363
910.685	3287
910.8	3625
910.915	3564
911.03	3504
911.145	3317
911.259	3348
911.374	3313
911.489	3283
911.604	3310
911.718	3154
911.833	3195
911.947	3051
912.062	3009
912.176	3195
912.291	3233
912.405	3237
912.519	3439
912.633	3530
912.748	3370
912.862	3298
912.976	3233
913.09	3116
913.204	3173
913.318	3272
913.431	3374
913.545	3431
913.659	3477
913.772	3359
913.886	3237
914	3245
914.113	3416
914.226	3466
914.34	3409
914.453	3264
914.566	3462
914.68	3351
914.793	3355
914.906	3173
915.019	3184
915.132	3138
915.245	3192
915.358	3275
915.47	3264
915.583	3325
915.696	3348
915.809	3439
915.921	3488
916.034	3264
916.146	3310
916.259	3294
916.371	3466
916.483	3416
916.595	3298
916.708	3382
916.82	3386
916.932	3412
917.044	3393
917.156	3367
917.268	3291
917.38	3344
917.491	3340
917.603	3443
917.715	3519
917.826	3507
917.938	3450
918.049	3310
918.161	3488
918.272	3652
918.384	3652
918.495	3500
918.606	3374
918.717	3329
918.828	3431
918.939	3481
919.05	3325
919.161	3401
919.272	3207
919.383	3336
919.494	3557
919.604	3755
919.715	3523
919.826	3450
919.936	3515
920.047	3663
920.157	3603
920.267	3838
920.378	3641
920.488	3606
920.598	3850
920.708	4055
920.818	3899
920.928	3907
921.038	4101
921.148	4059
921.258	3751
921.368	3652
921.477	3633
921.587	3610
921.697	3526
921.806	3663
921.916	3591
922.025	3397
922.134	3454
922.244	3409
922.353	3511
922.462	3355
922.571	3256
922.68	3169
922.789	3157
922.898	3169
923.007	3150
923.116	3253
923.224	3249
923.333	3199
923.442	3119
923.55	3161
923.659	3150
923.767	3275
923.876	3184
923.984	3325
924.092	3146
924.201	3287
924.309	3237
924.417	3336
924.525	3268
924.633	3329
924.741	4246
924.849	3135
924.956	3325
925.064	3116
925.172	3119
925.279	3176
925.387	3287
925.494	3237
925.602	3393
925.709	3363
925.816	3207
925.924	3317
926.031	3462
926.138	3397
926.245	3412
926.352	3340
926.459	3469
926.566	3534
926.673	3370
926.779	3340
926.886	3317
926.993	3188
927.099	3195
927.206	3192
927.312	3169
927.419	3241
927.525	3272
927.631	3351
927.737	3199
927.843	3154
927.95	3081
928.056	3176
928.162	3233
928.267	3317
928.373	3827
928.479	3332
928.585	3119
928.69	3241
928.796	3340
928.901	3176
929.007	3123
929.112	3287
929.218	3237
929.323	3230
929.428	3180
929.533	3370
929.638	3169
929.743	3260
929.848	3291
929.953	3253
930.058	3188
930.163	3024
930.267	3074
930.372	3241
930.477	3081
930.581	3374
930.685	3253
930.79	3085
930.894	3131
930.998	3173
931.103	3298
931.207	2990
931.311	2982
931.415	2952
931.519	2788
931.623	2834
