Data from test_V78500241_516.txt Node
Date: Fri Mar 25 16:18:46 CST 2022
User: usil
Spectrometer: V785-0024
Trigger mode: 0
Integration Time (sec): 4.000000E-1
Scans to average: 1
Nonlinearity correction enabled: false
Boxcar width: 0
Storing dark spectrum: false
XAxis mode: Wavelengths
Number of Pixels in Spectrum: 1024
>>>>>Begin Spectral Data<<<<<
801.071	2914
801.214	2914
801.356	2857
801.499	2902
801.641	2868
801.783	2902
801.926	3039
802.068	2975
802.211	3005
802.353	3036
802.496	2971
802.638	2975
802.78	3074
802.923	3104
803.065	3005
803.208	2864
803.35	2944
803.492	2899
803.635	2952
803.777	2766
803.919	2872
804.061	3218
804.204	2952
804.346	2918
804.488	2849
804.63	2967
804.773	2826
804.915	2906
805.057	3051
805.199	2929
805.341	2944
805.483	3009
805.626	3009
805.768	2971
805.91	3058
806.052	3104
806.194	2998
806.336	3214
806.478	3009
806.62	2956
806.762	2929
806.904	3032
807.046	3188
807.188	2956
807.33	2902
807.472	2986
807.614	2922
807.756	2990
807.898	2933
808.04	2883
808.182	2963
808.324	2929
808.465	2883
808.607	2857
808.749	2815
808.891	2857
809.033	2975
809.174	2944
809.316	2883
809.458	2857
809.6	2777
809.741	2766
809.883	2739
810.025	2845
810.166	2834
810.308	2842
810.45	2864
810.591	2746
810.733	2769
810.875	2815
811.016	2773
811.158	2758
811.299	2785
811.441	2922
811.582	2902
811.724	2826
811.865	2807
812.007	2929
812.148	2868
812.29	2861
812.431	2857
812.573	2937
812.714	2982
812.855	3058
812.997	3051
813.138	3104
813.279	3013
813.421	2990
813.562	2918
813.703	2861
813.845	2876
813.986	2792
814.127	2716
814.268	2826
814.41	2807
814.551	2823
814.692	2876
814.833	2796
814.974	2861
815.115	2990
815.256	2834
815.397	2800
815.539	2868
815.68	2769
815.821	2785
815.962	2895
816.103	2899
816.244	2925
816.385	2849
816.526	2963
816.666	2914
816.807	2697
816.948	2864
817.089	2883
817.23	2891
817.371	2788
817.512	2773
817.653	2842
817.793	2811
817.934	2853
818.075	2975
818.216	2960
818.356	3036
818.497	2899
818.638	2788
818.778	2842
818.919	2750
819.06	2754
819.2	2857
819.341	2804
819.481	2777
819.622	2933
819.762	3100
819.903	3051
820.043	2887
820.184	2872
820.324	2902
820.465	2998
820.605	3051
820.746	3028
820.886	2944
821.026	3077
821.167	3169
821.307	3230
821.447	3302
821.588	3233
821.728	3230
821.868	3146
822.008	3093
822.149	3203
822.289	3203
822.429	3081
822.569	3077
822.709	3176
822.849	3036
822.99	3077
823.13	3173
823.27	3199
823.41	3127
823.55	3135
823.69	3146
823.83	3180
823.97	3100
824.11	3009
824.25	2982
824.389	3127
824.529	3089
824.669	3055
824.809	3180
824.949	3241
825.089	3184
825.228	3112
825.368	3001
825.508	2944
825.648	2998
825.787	2982
825.927	3017
826.067	2941
826.206	2956
826.346	3043
826.485	3081
826.625	3081
826.765	3275
826.904	3226
827.044	3001
827.183	2944
827.323	2887
827.462	2963
827.601	2914
827.741	2937
827.88	2956
828.02	2826
828.159	2967
828.298	2994
828.437	3100
828.577	3058
828.716	3199
828.855	3070
828.994	2918
829.134	2883
829.273	2952
829.412	2872
829.551	2853
829.69	2891
829.829	2933
829.968	3097
830.107	3036
830.246	3020
830.385	2941
830.524	2902
830.663	2804
830.802	2743
830.941	2617
831.08	2674
831.219	2735
831.357	2724
831.496	2948
831.635	2697
831.774	2632
831.913	2655
832.051	2530
832.19	2598
832.329	2678
832.467	2537
832.606	2461
832.744	2579
832.883	2579
833.022	2564
833.16	2670
833.299	2667
833.437	2667
833.576	2693
833.714	2716
833.852	2735
833.991	2773
834.129	2826
834.267	2815
834.406	2781
834.544	2849
834.682	2842
834.821	2857
834.959	3058
835.097	2868
835.235	3043
835.373	2975
835.511	2998
835.65	2937
835.788	2952
835.926	2777
836.064	2811
836.202	2849
836.34	3062
836.478	3157
836.615	3058
836.753	3154
836.891	3214
837.029	3184
837.167	3093
837.305	3074
837.443	2998
837.58	2971
837.718	3112
837.856	3055
837.993	3028
838.131	3108
838.269	3085
838.406	3085
838.544	3047
838.681	2910
838.819	2952
838.956	2796
839.094	2834
839.231	2895
839.369	3001
839.506	3344
839.643	3207
839.781	3028
839.918	2960
840.055	3047
840.193	3036
840.33	3066
840.467	3077
840.604	3173
840.742	3389
840.879	3047
841.016	3047
841.153	3119
841.29	3321
841.427	3287
841.564	3245
841.701	3283
841.838	3188
841.975	3116
842.112	3207
842.249	3070
842.385	3039
842.522	3268
842.659	3093
842.796	3058
842.933	3089
843.069	3001
843.206	3032
843.343	3161
843.479	3058
843.616	3119
843.752	2876
843.889	2853
844.025	3077
844.162	2872
844.298	3066
844.435	2929
844.571	2895
844.708	3047
844.844	3188
844.98	3241
845.117	3157
845.253	3036
845.389	3009
845.525	3081
845.661	3100
845.798	2963
845.934	3108
846.07	3055
846.206	3237
846.342	3317
846.478	3211
846.614	3123
846.75	3028
846.886	2990
847.022	3173
847.158	3108
847.294	3207
847.429	3253
847.565	3192
847.701	3485
847.837	3020
847.972	2979
848.108	3146
848.244	3119
848.379	3028
848.515	2941
848.65	2899
848.786	2925
848.921	3005
849.057	3104
849.192	3135
849.328	3093
849.463	3093
849.598	3028
849.734	3032
849.869	2948
850.004	2914
850.14	2990
850.275	2910
850.41	2834
850.545	2861
850.68	2910
850.815	2971
850.95	2929
851.085	3203
851.22	3066
851.355	3024
851.49	2960
851.625	3001
851.76	2994
851.895	2910
852.03	2941
852.165	3051
852.299	3081
852.434	3176
852.569	3135
852.703	3150
852.838	3233
852.973	3287
853.107	3355
853.242	3138
853.376	3097
853.511	2998
853.645	3017
853.78	3230
853.914	3100
854.048	3146
854.183	3077
854.317	3127
854.451	3306
854.585	3116
854.72	3058
854.854	3233
854.988	3024
855.122	3032
855.256	2952
855.39	3104
855.524	3237
855.658	3161
855.792	3161
855.926	3180
856.06	3161
856.194	3260
856.327	3157
856.461	3028
856.595	3108
856.729	3097
856.862	3214
856.996	3157
857.13	3226
857.263	3199
857.397	3283
857.53	3104
857.664	3195
857.797	3230
857.931	3230
858.064	3119
858.197	3192
858.331	3135
858.464	3112
858.597	3005
858.731	3135
858.864	3108
858.997	3104
859.13	3127
859.263	3165
859.396	3176
859.529	3093
859.662	3055
859.795	3051
859.928	3131
860.061	3260
860.194	3272
860.327	3112
860.46	3100
860.592	3264
860.725	3253
860.858	3218
860.99	3100
861.123	3032
861.256	3020
861.388	3108
861.521	3827
861.653	2986
861.786	2986
861.918	2998
862.05	3024
862.183	3104
862.315	3097
862.447	3165
862.58	3097
862.712	2929
862.844	2883
862.976	3024
863.108	2990
863.24	3428
863.372	2876
863.504	2948
863.636	2956
863.768	3047
863.9	2990
864.032	2956
864.164	2918
864.296	2979
864.428	3119
864.559	3074
864.691	3055
864.823	3077
864.954	3039
865.086	3024
865.217	2971
865.349	2971
865.48	2948
865.612	2994
865.743	3161
865.875	2994
866.006	2887
866.137	2971
866.269	2902
866.4	2918
866.531	2895
866.662	2887
866.793	2857
866.924	2887
867.055	2975
867.186	2922
867.317	2826
867.448	2834
867.579	2830
867.71	2845
867.841	2823
867.972	2914
868.103	2895
868.233	2864
868.364	2853
868.495	2918
868.625	3051
868.756	3184
868.886	2937
869.017	2998
869.147	3157
869.278	3131
869.408	3039
869.539	2998
869.669	3062
869.799	3039
869.929	3146
870.06	3055
870.19	3306
870.32	3245
870.45	3253
870.58	3329
870.71	3450
870.84	3454
870.97	3264
871.1	3237
871.23	3492
871.36	3473
871.489	3313
871.619	3382
871.749	3405
871.879	3435
872.008	3447
872.138	3378
872.267	3218
872.397	3116
872.526	3123
872.656	2994
872.785	3093
872.915	3253
873.044	3313
873.173	3188
873.303	3184
873.432	3230
873.561	3218
873.69	3176
873.819	3123
873.948	3169
874.077	3081
874.206	3036
874.335	3047
874.464	3188
874.593	3344
874.722	3199
874.851	3393
874.979	3325
875.108	3291
875.237	3157
875.365	3127
875.494	3154
875.623	3222
875.751	3062
875.88	3123
876.008	3173
876.136	3192
876.265	3332
876.393	3523
876.521	3412
876.65	3363
876.778	3325
876.906	3256
877.034	3199
877.162	3199
877.29	3184
877.418	3237
877.546	3249
877.674	3222
877.802	3207
877.93	3207
878.058	3097
878.185	3104
878.313	3211
878.441	3173
878.568	3043
878.696	3135
878.824	3249
878.951	3310
879.079	3450
879.206	3568
879.333	3447
879.461	3351
879.588	3348
879.715	3450
879.842	3610
879.97	3367
880.097	3127
880.224	3161
880.351	3176
880.478	3176
880.605	3184
880.732	3203
880.859	3485
880.986	3291
881.112	3306
881.239	3195
881.366	3043
881.493	3024
881.619	2990
881.746	3043
881.872	3055
881.999	3100
882.125	3131
882.252	3249
882.378	3260
882.505	3367
882.631	3211
882.757	3135
882.883	3226
883.01	3176
883.136	3146
883.262	3077
883.388	3104
883.514	3272
883.64	3329
883.766	3317
883.892	3192
884.018	3218
884.143	3409
884.269	3530
884.395	3184
884.52	3154
884.646	3146
884.772	3127
884.897	3074
885.023	3157
885.148	3302
885.274	3382
885.399	3329
885.524	3283
885.65	3249
885.775	3298
885.9	3291
886.025	3409
886.15	3340
886.275	3287
886.4	3203
886.525	3283
886.65	3291
886.775	3275
886.9	3469
887.025	3637
887.149	3386
887.274	3268
887.399	3138
887.523	3165
887.648	3188
887.773	3173
887.897	3370
888.021	3416
888.146	3287
888.27	3420
888.395	3523
888.519	3450
888.643	3450
888.767	3450
888.891	3317
889.015	3230
889.139	3283
889.263	3268
889.387	3397
889.511	3500
889.635	3454
889.759	3294
889.883	3317
890.006	3412
890.13	3507
890.254	3298
890.377	3279
890.501	3241
890.624	3157
890.748	3310
890.871	3184
890.995	3146
891.118	3043
891.241	3207
891.364	3218
891.488	3348
891.611	3199
891.734	3268
891.857	3317
891.98	3279
892.103	3397
892.226	3294
892.349	3226
892.471	3154
892.594	3253
892.717	3310
892.839	3367
892.962	3306
893.085	3382
893.207	3313
893.33	3161
893.452	3260
893.575	3340
893.697	3287
893.819	3462
893.941	3545
894.064	3519
894.186	3321
894.308	3313
894.43	3515
894.552	3564
894.674	3496
894.796	3325
894.918	3336
895.04	3332
895.161	3466
895.283	3409
895.405	3340
895.526	3393
895.648	3492
895.769	3481
895.891	3488
896.012	3496
896.134	3504
896.255	3450
896.376	3386
896.498	3389
896.619	3435
896.74	3378
896.861	3439
896.982	3705
897.103	3907
897.224	3625
897.345	3538
897.466	3443
897.587	3496
897.708	3644
897.828	3580
897.949	3454
898.07	3363
898.19	3450
898.311	3618
898.431	3469
898.552	3523
898.672	3641
898.792	3545
898.913	3504
899.033	3447
899.153	3329
899.273	3233
899.393	3294
899.513	3325
899.633	3355
899.753	3348
899.873	3340
899.993	3428
900.113	3367
900.232	3401
900.352	3401
900.472	3359
900.591	3211
900.711	3336
900.83	3260
900.95	3443
901.069	3507
901.189	3416
901.308	3195
901.427	3176
901.546	3214
901.665	3332
901.784	3382
901.904	3256
902.023	3180
902.141	3051
902.26	3005
902.379	3192
902.498	3055
902.617	3089
902.735	3245
902.854	3233
902.973	3264
903.091	3093
903.21	3097
903.328	3165
903.446	3131
903.565	3119
903.683	3260
903.801	3169
903.919	3310
904.038	3348
904.156	3203
904.274	3321
904.392	3245
904.51	3336
904.627	3340
904.745	3450
904.863	3553
904.981	3321
905.098	3192
905.216	3275
905.334	3340
905.451	3336
905.569	3298
905.686	3450
905.803	3466
905.921	3344
906.038	3481
906.155	3405
906.272	3279
906.389	3359
906.506	3283
906.623	3260
906.74	3302
906.857	3188
906.974	3260
907.091	3443
907.208	3553
907.324	3496
907.441	3409
907.557	3279
907.674	3253
907.79	3226
907.907	3272
908.023	3386
908.139	3409
908.256	3363
908.372	3397
908.488	3409
908.604	3313
908.72	3264
908.836	3336
908.952	3374
909.068	3348
909.184	3492
909.3	3389
909.415	3504
909.531	3519
909.647	3321
909.762	3336
909.878	3298
909.993	3393
910.108	3370
910.224	3374
910.339	3409
910.454	3355
910.57	3344
910.685	3283
910.8	3606
910.915	3538
911.03	3488
911.145	3291
911.259	3329
911.374	3344
911.489	3287
911.604	3233
911.718	3150
911.833	3207
911.947	3074
912.062	3036
912.176	3150
912.291	3199
912.405	3249
912.519	3447
912.633	3507
912.748	3397
912.862	3317
912.976	3199
913.09	3123
913.204	3207
913.318	3222
913.431	3393
913.545	3393
913.659	3450
913.772	3351
913.886	3264
914	3249
914.113	3405
914.226	3439
914.34	3393
914.453	3260
914.566	3435
914.68	3298
914.793	3325
914.906	3161
915.019	3116
915.132	3104
915.245	3184
915.358	3199
915.47	3249
915.583	3275
915.696	3344
915.809	3409
915.921	3450
916.034	3291
916.146	3245
916.259	3272
916.371	3412
916.483	3397
916.595	3287
916.708	3378
916.82	3370
916.932	3420
917.044	3393
917.156	3374
917.268	3245
917.38	3340
917.491	3344
917.603	3393
917.715	3469
917.826	3485
917.938	3374
918.049	3275
918.161	3504
918.272	3591
918.384	3591
918.495	3515
918.606	3344
918.717	3310
918.828	3458
918.939	3401
919.05	3294
919.161	3401
919.272	3184
919.383	3306
919.494	3545
919.604	3686
919.715	3507
919.826	3454
919.936	3477
920.047	3599
920.157	3595
920.267	3819
920.378	3614
920.488	3584
920.598	3823
920.708	3953
920.818	3827
920.928	3819
921.038	4055
921.148	4002
921.258	3717
921.368	3656
921.477	3614
921.587	3564
921.697	3496
921.806	3671
921.916	3580
922.025	3374
922.134	3416
922.244	3370
922.353	3420
922.462	3302
922.571	3245
922.68	3142
922.789	3116
922.898	3173
923.007	3131
923.116	3241
923.224	3188
923.333	3211
923.442	3116
923.55	3138
923.659	3165
923.767	3233
923.876	3123
923.984	3222
924.092	3180
924.201	3207
924.309	3226
924.417	3329
924.525	3214
924.633	3249
924.741	4192
924.849	3074
924.956	3275
925.064	3081
925.172	3097
925.279	3093
925.387	3203
925.494	3207
925.602	3367
925.709	3329
925.816	3222
925.924	3336
926.031	3412
926.138	3367
926.245	3374
926.352	3268
926.459	3439
926.566	3469
926.673	3332
926.779	3256
926.886	3253
926.993	3180
927.099	3089
927.206	3146
927.312	3119
927.419	3241
927.525	3199
927.631	3291
927.737	3169
927.843	3150
927.95	3013
928.056	3154
928.162	3214
928.267	3245
928.373	3812
928.479	3348
928.585	3081
928.69	3241
928.796	3241
928.901	3180
929.007	3104
929.112	3233
929.218	3195
929.323	3207
929.428	3176
929.533	3336
929.638	3146
929.743	3154
929.848	3279
929.953	3192
930.058	3150
930.163	2982
930.267	3051
930.372	3249
930.477	3039
930.581	3351
930.685	3214
930.79	3089
930.894	3119
930.998	3142
931.103	3268
931.207	2967
931.311	2971
931.415	2925
931.519	2750
931.623	2845
