Data from test_V78500241_40.txt Node
Date: Fri Mar 25 16:15:28 CST 2022
User: usil
Spectrometer: V785-0024
Trigger mode: 0
Integration Time (sec): 4.000000E-1
Scans to average: 1
Nonlinearity correction enabled: false
Boxcar width: 0
Storing dark spectrum: false
XAxis mode: Wavelengths
Number of Pixels in Spectrum: 1024
>>>>>Begin Spectral Data<<<<<
801.071	3001
801.214	3013
801.356	2956
801.499	2979
801.641	2925
801.783	2963
801.926	3070
802.068	3020
802.211	3074
802.353	3070
802.496	3032
802.638	3066
802.78	3077
802.923	3100
803.065	3055
803.208	2933
803.35	2952
803.492	3013
803.635	2998
803.777	2792
803.919	2922
804.061	3241
804.204	3005
804.346	2982
804.488	2880
804.63	3051
804.773	2944
804.915	2975
805.057	3135
805.199	3001
805.341	3051
805.483	3093
805.626	3043
805.768	3009
805.91	3150
806.052	3161
806.194	3116
806.336	3291
806.478	3070
806.62	2994
806.762	3051
806.904	3127
807.046	3233
807.188	3017
807.33	2998
807.472	3039
807.614	2975
807.756	3036
807.898	3001
808.04	2956
808.182	3070
808.324	2982
808.465	2948
808.607	2948
808.749	2849
808.891	2876
809.033	3013
809.174	3024
809.316	2914
809.458	2952
809.6	2819
809.741	2804
809.883	2819
810.025	2887
810.166	2918
810.308	2910
810.45	2925
810.591	2826
810.733	2800
810.875	2887
811.016	2830
811.158	2853
811.299	2891
811.441	2986
811.582	2956
811.724	2910
811.865	2876
812.007	2952
812.148	2956
812.29	2902
812.431	2902
812.573	2982
812.714	3017
812.855	3112
812.997	3089
813.138	3173
813.279	3058
813.421	3032
813.562	3005
813.703	2944
813.845	2948
813.986	2823
814.127	2785
814.268	2857
814.41	2891
814.551	2887
814.692	2941
814.833	2857
814.974	2956
815.115	2994
815.256	2883
815.397	2849
815.539	2929
815.68	2811
815.821	2861
815.962	2994
816.103	2963
816.244	2937
816.385	2937
816.526	3032
816.666	2982
816.807	2781
816.948	2952
817.089	2971
817.23	2941
817.371	2838
817.512	2838
817.653	2895
817.793	2895
817.934	2944
818.075	3005
818.216	3058
818.356	3119
818.497	2937
818.638	2857
818.778	2838
818.919	2838
819.06	2819
819.2	2933
819.341	2830
819.481	2857
819.622	2982
819.762	3138
819.903	3112
820.043	2994
820.184	2941
820.324	2956
820.465	3097
820.605	3055
820.746	3066
820.886	2975
821.026	3165
821.167	3218
821.307	3302
821.447	3367
821.588	3279
821.728	3245
821.868	3241
822.008	3104
822.149	3256
822.289	3294
822.429	3131
822.569	3169
822.709	3256
822.849	3104
822.99	3131
823.13	3233
823.27	3268
823.41	3169
823.55	3207
823.69	3214
823.83	3233
823.97	3138
824.11	3055
824.25	3055
824.389	3150
824.529	3169
824.669	3142
824.809	3249
824.949	3313
825.089	3268
825.228	3195
825.368	3047
825.508	3028
825.648	2963
825.787	3024
825.927	3051
826.067	3028
826.206	3005
826.346	3119
826.485	3131
826.625	3157
826.765	3275
826.904	3287
827.044	3062
827.183	2971
827.323	2922
827.462	3001
827.601	2948
827.741	2975
827.88	3032
828.02	2872
828.159	3009
828.298	3093
828.437	3146
828.577	3066
828.716	3287
828.855	3157
828.994	3009
829.134	2948
829.273	2982
829.412	2914
829.551	2910
829.69	2933
829.829	2998
829.968	3173
830.107	3043
830.246	3055
830.385	2929
830.524	2910
830.663	2845
830.802	2758
830.941	2693
831.08	2659
831.219	2834
831.357	2777
831.496	2971
831.635	2735
831.774	2644
831.913	2659
832.051	2621
832.19	2636
832.329	2735
832.467	2579
832.606	2533
832.744	2648
832.883	2648
833.022	2625
833.16	2667
833.299	2724
833.437	2720
833.576	2727
833.714	2727
833.852	2762
833.991	2781
834.129	2849
834.267	2880
834.406	2819
834.544	2895
834.682	2891
834.821	2906
834.959	3127
835.097	2925
835.235	3108
835.373	3051
835.511	3028
835.65	3001
835.788	2971
835.926	2872
836.064	2880
836.202	2872
836.34	3180
836.478	3218
836.615	3123
836.753	3195
836.891	3283
837.029	3230
837.167	3150
837.305	3093
837.443	3093
837.58	3028
837.718	3184
837.856	3142
837.993	3081
838.131	3157
838.269	3123
838.406	3123
838.544	3150
838.681	3009
838.819	2967
838.956	2899
839.094	2857
839.231	2986
839.369	3081
839.506	3420
839.643	3279
839.781	3093
839.918	2998
840.055	3070
840.193	3119
840.33	3138
840.467	3150
840.604	3237
840.742	3492
840.879	3097
841.016	3127
841.153	3161
841.29	3378
841.427	3359
841.564	3336
841.701	3374
841.838	3279
841.975	3260
842.112	3256
842.249	3116
842.385	3100
842.522	3298
842.659	3135
842.796	3100
842.933	3195
843.069	3108
843.206	3062
843.343	3226
843.479	3157
843.616	3146
843.752	2971
843.889	2925
844.025	3154
844.162	2925
844.298	3089
844.435	2986
844.571	2979
844.708	3100
844.844	3260
844.98	3340
845.117	3272
845.253	3093
845.389	3058
845.525	3138
845.661	3176
845.798	3058
845.934	3154
846.07	3112
846.206	3268
846.342	3336
846.478	3253
846.614	3104
846.75	3146
846.886	3112
847.022	3294
847.158	3188
847.294	3218
847.429	3321
847.565	3256
847.701	3507
847.837	3089
847.972	3058
848.108	3199
848.244	3199
848.379	3032
848.515	2967
848.65	2971
848.786	2971
848.921	3043
849.057	3131
849.192	3176
849.328	3089
849.463	3173
849.598	3123
849.734	3108
849.869	3051
850.004	2975
850.14	3024
850.275	2979
850.41	2872
850.545	2925
850.68	2979
850.815	2990
850.95	3043
851.085	3249
851.22	3192
851.355	3070
851.49	3039
851.625	3062
851.76	3055
851.895	2986
852.03	2944
852.165	3081
852.299	3161
852.434	3226
852.569	3180
852.703	3214
852.838	3310
852.973	3386
853.107	3393
853.242	3180
853.376	3180
853.511	2982
853.645	3077
853.78	3294
853.914	3138
854.048	3173
854.183	3142
854.317	3207
854.451	3340
854.585	3207
854.72	3131
854.854	3272
854.988	3066
855.122	3112
855.256	2979
855.39	3169
855.524	3298
855.658	3222
855.792	3184
855.926	3214
856.06	3256
856.194	3283
856.327	3207
856.461	3127
856.595	3142
856.729	3146
856.862	3253
856.996	3150
857.13	3214
857.263	3279
857.397	3313
857.53	3169
857.664	3195
857.797	3294
857.931	3298
858.064	3249
858.197	3287
858.331	3199
858.464	3123
858.597	3089
858.731	3165
858.864	3169
858.997	3142
859.13	3195
859.263	3264
859.396	3218
859.529	3119
859.662	3142
859.795	3089
859.928	3188
860.061	3302
860.194	3340
860.327	3169
860.46	3138
860.592	3310
860.725	3275
860.858	3279
860.99	3169
861.123	3112
861.256	3077
861.388	3188
861.521	3907
861.653	3047
861.786	3032
861.918	3085
862.05	3116
862.183	3123
862.315	3192
862.447	3279
862.58	3176
862.712	2998
862.844	2906
862.976	3039
863.108	3017
863.24	3466
863.372	2975
863.504	3020
863.636	3024
863.768	3062
863.9	3036
864.032	2944
864.164	2975
864.296	3039
864.428	3161
864.559	3135
864.691	3081
864.823	3112
864.954	3104
865.086	3085
865.217	3028
865.349	3009
865.48	2998
865.612	3074
865.743	3218
865.875	3036
866.006	2990
866.137	2994
866.269	2986
866.4	3005
866.531	2918
866.662	2929
866.793	2967
866.924	2918
867.055	3062
867.186	2967
867.317	2910
867.448	2849
867.579	2902
867.71	2891
867.841	2883
867.972	2956
868.103	2960
868.233	2937
868.364	2937
868.495	2956
868.625	3135
868.756	3207
868.886	3047
869.017	3009
869.147	3199
869.278	3230
869.408	3097
869.539	3028
869.669	3161
869.799	3055
869.929	3214
870.06	3135
870.19	3336
870.32	3283
870.45	3348
870.58	3439
870.71	3526
870.84	3488
870.97	3355
871.1	3279
871.23	3542
871.36	3504
871.489	3351
871.619	3450
871.749	3450
871.879	3515
872.008	3519
872.138	3401
872.267	3321
872.397	3184
872.526	3165
872.656	3043
872.785	3135
872.915	3313
873.044	3393
873.173	3233
873.303	3294
873.432	3249
873.561	3298
873.69	3176
873.819	3180
873.948	3279
874.077	3131
874.206	3055
874.335	3104
874.464	3260
874.593	3393
874.722	3287
874.851	3424
874.979	3386
875.108	3367
875.237	3222
875.365	3207
875.494	3249
875.623	3291
875.751	3135
875.88	3161
876.008	3245
876.136	3287
876.265	3416
876.393	3553
876.521	3458
876.65	3431
876.778	3367
876.906	3306
877.034	3264
877.162	3260
877.29	3199
877.418	3283
877.546	3317
877.674	3329
877.802	3275
877.93	3241
878.058	3173
878.185	3138
878.313	3230
878.441	3260
878.568	3123
878.696	3214
878.824	3279
878.951	3336
879.079	3477
879.206	3648
879.333	3485
879.461	3367
879.588	3409
879.715	3530
879.842	3679
879.97	3481
880.097	3207
880.224	3203
880.351	3230
880.478	3237
880.605	3203
880.732	3249
880.859	3572
880.986	3336
881.112	3351
881.239	3230
881.366	3112
881.493	3119
881.619	3055
881.746	3100
881.872	3119
881.999	3142
882.125	3195
882.252	3264
882.378	3382
882.505	3492
882.631	3329
882.757	3214
882.883	3302
883.01	3291
883.136	3207
883.262	3123
883.388	3146
883.514	3367
883.64	3428
883.766	3389
883.892	3203
884.018	3275
884.143	3447
884.269	3564
884.395	3275
884.52	3188
884.646	3226
884.772	3211
884.897	3119
885.023	3214
885.148	3359
885.274	3450
885.399	3435
885.524	3275
885.65	3325
885.775	3351
885.9	3332
886.025	3428
886.15	3435
886.275	3363
886.4	3233
886.525	3340
886.65	3310
886.775	3306
886.9	3545
887.025	3690
887.149	3439
887.274	3310
887.399	3203
887.523	3237
887.648	3237
887.773	3237
887.897	3405
888.021	3409
888.146	3340
888.27	3485
888.395	3580
888.519	3481
888.643	3519
888.767	3504
888.891	3382
889.015	3279
889.139	3359
889.263	3310
889.387	3462
889.511	3599
889.635	3458
889.759	3336
889.883	3329
890.006	3424
890.13	3519
890.254	3336
890.377	3363
890.501	3253
890.624	3214
890.748	3389
890.871	3260
890.995	3127
891.118	3089
891.241	3230
891.364	3279
891.488	3359
891.611	3199
891.734	3298
891.857	3325
891.98	3249
892.103	3367
892.226	3344
892.349	3275
892.471	3169
892.594	3302
892.717	3382
892.839	3325
892.962	3325
893.085	3443
893.207	3382
893.33	3154
893.452	3264
893.575	3348
893.697	3363
893.819	3526
893.941	3549
894.064	3481
894.186	3310
894.308	3306
894.43	3477
894.552	3584
894.674	3538
894.796	3332
894.918	3370
895.04	3348
895.161	3469
895.283	3439
895.405	3348
895.526	3389
895.648	3469
895.769	3439
895.891	3504
896.012	3496
896.134	3530
896.255	3401
896.376	3424
896.498	3420
896.619	3458
896.74	3401
896.861	3443
896.982	3705
897.103	3911
897.224	3667
897.345	3576
897.466	3519
897.587	3576
897.708	3682
897.828	3610
897.949	3485
898.07	3382
898.19	3469
898.311	3625
898.431	3504
898.552	3568
898.672	3622
898.792	3629
898.913	3542
899.033	3469
899.153	3336
899.273	3279
899.393	3348
899.513	3401
899.633	3340
899.753	3348
899.873	3374
899.993	3439
900.113	3374
900.232	3466
900.352	3397
900.472	3272
900.591	3226
900.711	3344
900.83	3294
900.95	3469
901.069	3485
901.189	3370
901.308	3222
901.427	3188
901.546	3203
901.665	3348
901.784	3374
901.904	3241
902.023	3188
902.141	3058
902.26	3077
902.379	3157
902.498	3116
902.617	3074
902.735	3253
902.854	3268
902.973	3218
903.091	3081
903.21	3104
903.328	3138
903.446	3131
903.565	3135
903.683	3283
903.801	3154
903.919	3321
904.038	3291
904.156	3245
904.274	3332
904.392	3298
904.51	3321
904.627	3378
904.745	3496
904.863	3538
904.981	3287
905.098	3218
905.216	3230
905.334	3348
905.451	3370
905.569	3351
905.686	3462
905.803	3443
905.921	3348
906.038	3526
906.155	3428
906.272	3310
906.389	3370
906.506	3287
906.623	3306
906.74	3302
906.857	3207
906.974	3321
907.091	3481
907.208	3606
907.324	3526
907.441	3401
907.557	3260
907.674	3298
907.79	3253
907.907	3321
908.023	3393
908.139	3378
908.256	3393
908.372	3416
908.488	3416
908.604	3302
908.72	3279
908.836	3313
908.952	3313
909.068	3405
909.184	3519
909.3	3435
909.415	3526
909.531	3538
909.647	3306
909.762	3291
909.878	3348
909.993	3397
910.108	3386
910.224	3389
910.339	3466
910.454	3344
910.57	3355
910.685	3298
910.8	3625
910.915	3553
911.03	3458
911.145	3329
911.259	3329
911.374	3321
911.489	3298
911.604	3298
911.718	3165
911.833	3203
911.947	3032
912.062	3028
912.176	3211
912.291	3237
912.405	3256
912.519	3511
912.633	3553
912.748	3363
912.862	3306
912.976	3260
913.09	3127
913.204	3176
913.318	3268
913.431	3389
913.545	3405
913.659	3466
913.772	3348
913.886	3294
914	3256
914.113	3363
914.226	3462
914.34	3409
914.453	3268
914.566	3481
914.68	3382
914.793	3370
914.906	3192
915.019	3169
915.132	3138
915.245	3249
915.358	3260
915.47	3237
915.583	3279
915.696	3370
915.809	3424
915.921	3507
916.034	3283
916.146	3310
916.259	3287
916.371	3409
916.483	3420
916.595	3325
916.708	3374
916.82	3428
916.932	3409
917.044	3370
917.156	3382
917.268	3298
917.38	3348
917.491	3363
917.603	3416
917.715	3511
917.826	3530
917.938	3401
918.049	3336
918.161	3485
918.272	3637
918.384	3622
918.495	3561
918.606	3393
918.717	3370
918.828	3462
918.939	3454
919.05	3348
919.161	3412
919.272	3237
919.383	3340
919.494	3545
919.604	3728
919.715	3530
919.826	3462
919.936	3545
920.047	3610
920.157	3603
920.267	3812
920.378	3644
920.488	3584
920.598	3850
920.708	3968
920.818	3865
920.928	3918
921.038	4063
921.148	4051
921.258	3800
921.368	3717
921.477	3610
921.587	3564
921.697	3515
921.806	3660
921.916	3595
922.025	3355
922.134	3401
922.244	3378
922.353	3462
922.462	3367
922.571	3264
922.68	3135
922.789	3154
922.898	3192
923.007	3150
923.116	3283
923.224	3233
923.333	3230
923.442	3127
923.55	3108
923.659	3203
923.767	3268
923.876	3131
923.984	3256
924.092	3176
924.201	3241
924.309	3275
924.417	3275
924.525	3237
924.633	3264
924.741	4246
924.849	3058
924.956	3287
925.064	3169
925.172	3062
925.279	3142
925.387	3222
925.494	3226
925.602	3439
925.709	3329
925.816	3199
925.924	3348
926.031	3424
926.138	3359
926.245	3435
926.352	3332
926.459	3466
926.566	3511
926.673	3370
926.779	3306
926.886	3298
926.993	3222
927.099	3180
927.206	3112
927.312	3150
927.419	3283
927.525	3279
927.631	3340
927.737	3161
927.843	3161
927.95	3104
928.056	3138
928.162	3207
928.267	3321
928.373	3850
928.479	3382
928.585	3097
928.69	3249
928.796	3291
928.901	3230
929.007	3074
929.112	3241
929.218	3275
929.323	3199
929.428	3195
929.533	3351
929.638	3176
929.743	3222
929.848	3325
929.953	3256
930.058	3195
930.163	3036
930.267	3138
930.372	3245
930.477	3089
930.581	3348
930.685	3260
930.79	3066
930.894	3157
930.998	3108
931.103	3344
931.207	3024
931.311	2986
931.415	2937
931.519	2800
931.623	2811
