Data from test_V78500241_164.txt Node
Date: Fri Mar 25 16:16:20 CST 2022
User: usil
Spectrometer: V785-0024
Trigger mode: 0
Integration Time (sec): 4.000000E-1
Scans to average: 1
Nonlinearity correction enabled: false
Boxcar width: 0
Storing dark spectrum: false
XAxis mode: Wavelengths
Number of Pixels in Spectrum: 1024
>>>>>Begin Spectral Data<<<<<
801.071	2979
801.214	3013
801.356	2937
801.499	3005
801.641	2944
801.783	2982
801.926	3066
802.068	3009
802.211	3043
802.353	3085
802.496	3028
802.638	3058
802.78	3097
802.923	3089
803.065	3085
803.208	2967
803.35	2967
803.492	2971
803.635	2975
803.777	2781
803.919	2933
804.061	3317
804.204	3013
804.346	2963
804.488	2902
804.63	3028
804.773	2918
804.915	2944
805.057	3119
805.199	2933
805.341	3020
805.483	3093
805.626	3032
805.768	2979
805.91	3123
806.052	3146
806.194	3081
806.336	3275
806.478	3047
806.62	2990
806.762	3055
806.904	3085
807.046	3184
807.188	3001
807.33	2925
807.472	3028
807.614	2929
807.756	3020
807.898	2971
808.04	2922
808.182	3043
808.324	2971
808.465	2933
808.607	2914
808.749	2849
808.891	2895
809.033	3001
809.174	3028
809.316	2933
809.458	2944
809.6	2800
809.741	2804
809.883	2811
810.025	2887
810.166	2883
810.308	2891
810.45	2914
810.591	2819
810.733	2796
810.875	2891
811.016	2830
811.158	2766
811.299	2872
811.441	2975
811.582	2918
811.724	2887
811.865	2864
812.007	2941
812.148	2922
812.29	2887
812.431	2914
812.573	2971
812.714	2956
812.855	3081
812.997	3100
813.138	3157
813.279	3074
813.421	2994
813.562	3020
813.703	2922
813.845	2918
813.986	2830
814.127	2785
814.268	2857
814.41	2895
814.551	2845
814.692	2937
814.833	2880
814.974	2948
815.115	2986
815.256	2857
815.397	2910
815.539	2910
815.68	2845
815.821	2838
815.962	2975
816.103	2994
816.244	2937
816.385	2922
816.526	2994
816.666	2979
816.807	2811
816.948	2922
817.089	2960
817.23	2880
817.371	2830
817.512	2826
817.653	2895
817.793	2880
817.934	2902
818.075	3032
818.216	3047
818.356	3062
818.497	2922
818.638	2815
818.778	2815
818.919	2815
819.06	2819
819.2	2944
819.341	2834
819.481	2861
819.622	2925
819.762	3150
819.903	3138
820.043	2960
820.184	2937
820.324	2963
820.465	3097
820.605	3051
820.746	3058
820.886	2990
821.026	3138
821.167	3184
821.307	3310
821.447	3310
821.588	3291
821.728	3226
821.868	3256
822.008	3112
822.149	3230
822.289	3253
822.429	3169
822.569	3180
822.709	3214
822.849	3089
822.99	3123
823.13	3207
823.27	3283
823.41	3165
823.55	3180
823.69	3230
823.83	3253
823.97	3192
824.11	3070
824.25	3047
824.389	3108
824.529	3169
824.669	3093
824.809	3237
824.949	3298
825.089	3310
825.228	3222
825.368	3036
825.508	3001
825.648	2986
825.787	3055
825.927	3051
826.067	2994
826.206	2979
826.346	3085
826.485	3093
826.625	3116
826.765	3325
826.904	3275
827.044	3039
827.183	2963
827.323	2891
827.462	3074
827.601	2994
827.741	2967
827.88	2982
828.02	2891
828.159	3020
828.298	3085
828.437	3119
828.577	3062
828.716	3256
828.855	3150
828.994	2952
829.134	2918
829.273	2937
829.412	2891
829.551	2876
829.69	2948
829.829	3001
829.968	3188
830.107	3047
830.246	3100
830.385	2990
830.524	2922
830.663	2876
830.802	2769
830.941	2701
831.08	2697
831.219	2781
831.357	2785
831.496	2982
831.635	2762
831.774	2689
831.913	2708
832.051	2590
832.19	2651
832.329	2727
832.467	2549
832.606	2541
832.744	2636
832.883	2598
833.022	2617
833.16	2670
833.299	2701
833.437	2682
833.576	2750
833.714	2766
833.852	2754
833.991	2804
834.129	2880
834.267	2868
834.406	2826
834.544	2887
834.682	2910
834.821	2891
834.959	3070
835.097	2925
835.235	3100
835.373	3039
835.511	3051
835.65	2994
835.788	3001
835.926	2849
836.064	2876
836.202	2891
836.34	3108
836.478	3207
836.615	3066
836.753	3180
836.891	3260
837.029	3203
837.167	3104
837.305	3108
837.443	3066
837.58	3013
837.718	3184
837.856	3135
837.993	3062
838.131	3119
838.269	3108
838.406	3142
838.544	3100
838.681	2986
838.819	2941
838.956	2857
839.094	2857
839.231	2956
839.369	3070
839.506	3409
839.643	3275
839.781	3032
839.918	2998
840.055	3100
840.193	3051
840.33	3077
840.467	3150
840.604	3157
840.742	3409
840.879	3070
841.016	3100
841.153	3157
841.29	3351
841.427	3355
841.564	3283
841.701	3313
841.838	3291
841.975	3211
842.112	3241
842.249	3127
842.385	3108
842.522	3272
842.659	3123
842.796	3074
842.933	3131
843.069	3074
843.206	3074
843.343	3222
843.479	3150
843.616	3161
843.752	2925
843.889	2941
844.025	3089
844.162	2918
844.298	3154
844.435	2990
844.571	2952
844.708	3085
844.844	3218
844.98	3275
845.117	3230
845.253	3081
845.389	3032
845.525	3116
845.661	3142
845.798	3058
845.934	3154
846.07	3104
846.206	3241
846.342	3325
846.478	3279
846.614	3097
846.75	3097
846.886	3051
847.022	3321
847.158	3142
847.294	3256
847.429	3287
847.565	3233
847.701	3515
847.837	3093
847.972	3020
848.108	3199
848.244	3150
848.379	3013
848.515	2982
848.65	2944
848.786	2990
848.921	3055
849.057	3157
849.192	3138
849.328	3074
849.463	3154
849.598	3051
849.734	3066
849.869	2979
850.004	2979
850.14	3005
850.275	2925
850.41	2872
850.545	2952
850.68	2963
850.815	2998
850.95	3009
851.085	3249
851.22	3131
851.355	3062
851.49	2998
851.625	3013
851.76	3062
851.895	2971
852.03	2937
852.165	3089
852.299	3119
852.434	3211
852.569	3165
852.703	3214
852.838	3291
852.973	3378
853.107	3370
853.242	3203
853.376	3104
853.511	2975
853.645	3066
853.78	3264
853.914	3165
854.048	3116
854.183	3100
854.317	3150
854.451	3329
854.585	3192
854.72	3116
854.854	3264
854.988	3062
855.122	3131
855.256	3001
855.39	3154
855.524	3268
855.658	3222
855.792	3184
855.926	3176
856.06	3226
856.194	3306
856.327	3176
856.461	3131
856.595	3150
856.729	3138
856.862	3272
856.996	3161
857.13	3245
857.263	3237
857.397	3287
857.53	3142
857.664	3226
857.797	3291
857.931	3294
858.064	3203
858.197	3222
858.331	3180
858.464	3127
858.597	3036
858.731	3104
858.864	3131
858.997	3138
859.13	3161
859.263	3188
859.396	3226
859.529	3112
859.662	3127
859.795	3058
859.928	3199
860.061	3310
860.194	3332
860.327	3169
860.46	3097
860.592	3260
860.725	3294
860.858	3264
860.99	3131
861.123	3058
861.256	3089
861.388	3150
861.521	3743
861.653	3055
861.786	2975
861.918	3001
862.05	3077
862.183	3116
862.315	3199
862.447	3264
862.58	3116
862.712	2982
862.844	2929
862.976	2998
863.108	3028
863.24	3340
863.372	2914
863.504	2990
863.636	2994
863.768	3047
863.9	3005
864.032	2933
864.164	2941
864.296	3043
864.428	3074
864.559	3116
864.691	3112
864.823	3085
864.954	3047
865.086	3039
865.217	3020
865.349	2967
865.48	3024
865.612	3028
865.743	3180
865.875	3005
866.006	2952
866.137	2990
866.269	2952
866.4	2971
866.531	2944
866.662	2914
866.793	2933
866.924	2914
867.055	2994
867.186	2944
867.317	2887
867.448	2872
867.579	2857
867.71	2891
867.841	2868
867.972	2925
868.103	2914
868.233	2891
868.364	2910
868.495	2925
868.625	3036
868.756	3176
868.886	2986
869.017	3039
869.147	3184
869.278	3176
869.408	3043
869.539	3077
869.669	3104
869.799	3055
869.929	3188
870.06	3112
870.19	3348
870.32	3298
870.45	3321
870.58	3409
870.71	3450
870.84	3466
870.97	3317
871.1	3237
871.23	3507
871.36	3481
871.489	3348
871.619	3424
871.749	3393
871.879	3435
872.008	3511
872.138	3397
872.267	3268
872.397	3176
872.526	3157
872.656	3039
872.785	3119
872.915	3287
873.044	3336
873.173	3233
873.303	3275
873.432	3226
873.561	3230
873.69	3176
873.819	3184
873.948	3230
874.077	3150
874.206	3074
874.335	3085
874.464	3272
874.593	3370
874.722	3233
874.851	3416
874.979	3386
875.108	3370
875.237	3218
875.365	3180
875.494	3188
875.623	3283
875.751	3097
875.88	3142
876.008	3199
876.136	3268
876.265	3382
876.393	3545
876.521	3458
876.65	3389
876.778	3367
876.906	3241
877.034	3207
877.162	3249
877.29	3203
877.418	3260
877.546	3272
877.674	3279
877.802	3195
877.93	3245
878.058	3169
878.185	3093
878.313	3230
878.441	3192
878.568	3100
878.696	3165
878.824	3256
878.951	3340
879.079	3469
879.206	3633
879.333	3412
879.461	3393
879.588	3412
879.715	3530
879.842	3610
879.97	3378
880.097	3214
880.224	3157
880.351	3214
880.478	3237
880.605	3195
880.732	3226
880.859	3515
880.986	3329
881.112	3370
881.239	3199
881.366	3135
881.493	3055
881.619	3047
881.746	3085
881.872	3119
881.999	3097
882.125	3138
882.252	3279
882.378	3294
882.505	3397
882.631	3325
882.757	3199
882.883	3214
883.01	3260
883.136	3203
883.262	3097
883.388	3116
883.514	3370
883.64	3405
883.766	3336
883.892	3203
884.018	3260
884.143	3492
884.269	3606
884.395	3218
884.52	3169
884.646	3214
884.772	3123
884.897	3142
885.023	3245
885.148	3325
885.274	3428
885.399	3386
885.524	3317
885.65	3291
885.775	3363
885.9	3291
886.025	3485
886.15	3367
886.275	3317
886.4	3253
886.525	3298
886.65	3279
886.775	3291
886.9	3523
887.025	3679
887.149	3412
887.274	3298
887.399	3222
887.523	3218
887.648	3211
887.773	3214
887.897	3374
888.021	3431
888.146	3317
888.27	3443
888.395	3549
888.519	3454
888.643	3462
888.767	3485
888.891	3321
889.015	3260
889.139	3287
889.263	3256
889.387	3412
889.511	3523
889.635	3439
889.759	3302
889.883	3336
890.006	3382
890.13	3530
890.254	3279
890.377	3329
890.501	3188
890.624	3165
890.748	3340
890.871	3211
890.995	3058
891.118	3089
891.241	3180
891.364	3256
891.488	3325
891.611	3222
891.734	3245
891.857	3306
891.98	3253
892.103	3363
892.226	3291
892.349	3241
892.471	3097
892.594	3313
892.717	3325
892.839	3268
892.962	3348
893.085	3374
893.207	3344
893.33	3135
893.452	3233
893.575	3359
893.697	3249
893.819	3477
893.941	3469
894.064	3515
894.186	3272
894.308	3272
894.43	3439
894.552	3538
894.674	3500
894.796	3310
894.918	3382
895.04	3287
895.161	3409
895.283	3393
895.405	3321
895.526	3374
895.648	3439
895.769	3401
895.891	3500
896.012	3504
896.134	3523
896.255	3424
896.376	3397
896.498	3336
896.619	3443
896.74	3389
896.861	3424
896.982	3671
897.103	3861
897.224	3606
897.345	3542
897.466	3466
897.587	3538
897.708	3633
897.828	3572
897.949	3454
898.07	3378
898.19	3351
898.311	3622
898.431	3485
898.552	3504
898.672	3663
898.792	3572
898.913	3564
899.033	3428
899.153	3283
899.273	3226
899.393	3329
899.513	3336
899.633	3344
899.753	3370
899.873	3336
899.993	3359
900.113	3370
900.232	3435
900.352	3355
900.472	3279
900.591	3192
900.711	3332
900.83	3283
900.95	3401
901.069	3507
901.189	3389
901.308	3207
901.427	3131
901.546	3184
901.665	3291
901.784	3317
901.904	3207
902.023	3146
902.141	3055
902.26	3055
902.379	3108
902.498	3077
902.617	3077
902.735	3241
902.854	3237
902.973	3195
903.091	3066
903.21	3085
903.328	3142
903.446	3131
903.565	3104
903.683	3211
903.801	3138
903.919	3272
904.038	3336
904.156	3154
904.274	3310
904.392	3230
904.51	3321
904.627	3348
904.745	3447
904.863	3492
904.981	3256
905.098	3150
905.216	3237
905.334	3306
905.451	3310
905.569	3310
905.686	3447
905.803	3477
905.921	3332
906.038	3431
906.155	3378
906.272	3283
906.389	3382
906.506	3256
906.623	3287
906.74	3287
906.857	3188
906.974	3275
907.091	3450
907.208	3553
907.324	3507
907.441	3420
907.557	3230
907.674	3237
907.79	3214
907.907	3291
908.023	3409
908.139	3378
908.256	3378
908.372	3412
908.488	3351
908.604	3249
908.72	3260
908.836	3283
908.952	3313
909.068	3378
909.184	3511
909.3	3401
909.415	3545
909.531	3447
909.647	3268
909.762	3287
909.878	3279
909.993	3386
910.108	3340
910.224	3367
910.339	3424
910.454	3359
910.57	3317
910.685	3245
910.8	3614
910.915	3553
911.03	3485
911.145	3268
911.259	3264
911.374	3344
911.489	3268
911.604	3233
911.718	3127
911.833	3165
911.947	3085
912.062	3001
912.176	3165
912.291	3237
912.405	3291
912.519	3428
912.633	3496
912.748	3348
912.862	3313
912.976	3161
913.09	3028
913.204	3165
913.318	3211
913.431	3329
913.545	3340
913.659	3401
913.772	3374
913.886	3249
914	3207
914.113	3382
914.226	3428
914.34	3355
914.453	3275
914.566	3393
914.68	3298
914.793	3336
914.906	3123
915.019	3097
915.132	3066
915.245	3169
915.358	3195
915.47	3249
915.583	3294
915.696	3325
915.809	3424
915.921	3435
916.034	3272
916.146	3245
916.259	3199
916.371	3405
916.483	3393
916.595	3291
916.708	3370
916.82	3351
916.932	3374
917.044	3340
917.156	3363
917.268	3245
917.38	3268
917.491	3283
917.603	3416
917.715	3450
917.826	3466
917.938	3424
918.049	3302
918.161	3462
918.272	3572
918.384	3549
918.495	3576
918.606	3336
918.717	3272
918.828	3416
918.939	3488
919.05	3298
919.161	3370
919.272	3203
919.383	3279
919.494	3511
919.604	3701
919.715	3523
919.826	3397
919.936	3511
920.047	3595
920.157	3606
920.267	3774
920.378	3660
920.488	3564
920.598	3804
920.708	3998
920.818	3850
920.928	3835
921.038	4036
921.148	3987
921.258	3751
921.368	3660
921.477	3603
921.587	3568
921.697	3458
921.806	3633
921.916	3545
922.025	3367
922.134	3374
922.244	3336
922.353	3450
922.462	3260
922.571	3226
922.68	3112
922.789	3058
922.898	3135
923.007	3100
923.116	3207
923.224	3161
923.333	3176
923.442	3116
923.55	3085
923.659	3150
923.767	3195
923.876	3112
923.984	3192
924.092	3131
924.201	3180
924.309	3256
924.417	3260
924.525	3222
924.633	3279
924.741	4173
924.849	3089
924.956	3313
925.064	3104
925.172	3043
925.279	3131
925.387	3203
925.494	3180
925.602	3359
925.709	3363
925.816	3214
925.924	3302
926.031	3382
926.138	3310
926.245	3382
926.352	3256
926.459	3431
926.566	3481
926.673	3348
926.779	3275
926.886	3253
926.993	3173
927.099	3142
927.206	3188
927.312	3112
927.419	3222
927.525	3207
927.631	3245
927.737	3184
927.843	3138
927.95	3024
928.056	3180
928.162	3195
928.267	3264
928.373	3888
928.479	3317
928.585	3089
928.69	3203
928.796	3275
928.901	3173
929.007	3058
929.112	3207
929.218	3192
929.323	3127
929.428	3211
929.533	3325
929.638	3119
929.743	3230
929.848	3291
929.953	3218
930.058	3199
930.163	3013
930.267	3032
930.372	3211
930.477	3039
930.581	3317
930.685	3199
930.79	3089
930.894	3157
930.998	3104
931.103	3287
931.207	2979
931.311	2941
931.415	2914
931.519	2750
931.623	2769
