Data from test_V78500241_1596.txt Node
Date: Fri Mar 25 16:26:15 CST 2022
User: usil
Spectrometer: V785-0024
Trigger mode: 0
Integration Time (sec): 4.000000E-1
Scans to average: 1
Nonlinearity correction enabled: false
Boxcar width: 0
Storing dark spectrum: false
XAxis mode: Wavelengths
Number of Pixels in Spectrum: 1024
>>>>>Begin Spectral Data<<<<<
801.071	2929
801.214	2979
801.356	2914
801.499	2963
801.641	2918
801.783	2960
801.926	3051
802.068	3036
802.211	3020
802.353	3051
802.496	2982
802.638	3051
802.78	3085
802.923	3116
803.065	3043
803.208	2925
803.35	2971
803.492	2971
803.635	2944
803.777	2792
803.919	2925
804.061	3226
804.204	2998
804.346	2937
804.488	2914
804.63	3013
804.773	2899
804.915	2975
805.057	3131
805.199	2948
805.341	2990
805.483	3058
805.626	3032
805.768	2963
805.91	3108
806.052	3135
806.194	3043
806.336	3272
806.478	3043
806.62	2971
806.762	2990
806.904	3081
807.046	3165
807.188	2960
807.33	2963
807.472	3024
807.614	2941
807.756	2956
807.898	2906
808.04	2910
808.182	2986
808.324	2963
808.465	2899
808.607	2902
808.749	2807
808.891	2895
809.033	2998
809.174	2960
809.316	2883
809.458	2895
809.6	2815
809.741	2792
809.883	2777
810.025	2868
810.166	2883
810.308	2853
810.45	2876
810.591	2811
810.733	2769
810.875	2864
811.016	2788
811.158	2788
811.299	2823
811.441	2979
811.582	2883
811.724	2853
811.865	2842
812.007	2929
812.148	2887
812.29	2842
812.431	2914
812.573	2956
812.714	2956
812.855	3039
812.997	3058
813.138	3127
813.279	2998
813.421	3005
813.562	2952
813.703	2910
813.845	2872
813.986	2800
814.127	2758
814.268	2845
814.41	2868
814.551	2864
814.692	2933
814.833	2861
814.974	2929
815.115	2990
815.256	2861
815.397	2807
815.539	2895
815.68	2792
815.821	2823
815.962	2960
816.103	2963
816.244	2941
816.385	2906
816.526	3032
816.666	2975
816.807	2762
816.948	2914
817.089	2906
817.23	2902
817.371	2796
817.512	2823
817.653	2864
817.793	2857
817.934	2925
818.075	3001
818.216	2982
818.356	3051
818.497	2891
818.638	2853
818.778	2868
818.919	2819
819.06	2785
819.2	2887
819.341	2853
819.481	2842
819.622	2933
819.762	3116
819.903	3066
820.043	2971
820.184	2910
820.324	2937
820.465	3013
820.605	3055
820.746	3089
820.886	2975
821.026	3138
821.167	3218
821.307	3302
821.447	3294
821.588	3260
821.728	3256
821.868	3237
822.008	3104
822.149	3207
822.289	3249
822.429	3135
822.569	3085
822.709	3218
822.849	3058
822.99	3085
823.13	3154
823.27	3260
823.41	3138
823.55	3188
823.69	3184
823.83	3230
823.97	3097
824.11	3051
824.25	3058
824.389	3085
824.529	3081
824.669	3081
824.809	3245
824.949	3287
825.089	3245
825.228	3165
825.368	3036
825.508	2971
825.648	2963
825.787	3017
825.927	3028
826.067	2956
826.206	2994
826.346	3051
826.485	3119
826.625	3138
826.765	3287
826.904	3260
827.044	3024
827.183	2967
827.323	2868
827.462	2986
827.601	2933
827.741	2956
827.88	2998
828.02	2887
828.159	3009
828.298	3062
828.437	3131
828.577	3066
828.716	3245
828.855	3108
828.994	2963
829.134	2925
829.273	2910
829.412	2941
829.551	2853
829.69	2918
829.829	3036
829.968	3161
830.107	3032
830.246	3039
830.385	2925
830.524	2933
830.663	2842
830.802	2773
830.941	2686
831.08	2659
831.219	2815
831.357	2754
831.496	2994
831.635	2735
831.774	2663
831.913	2640
832.051	2568
832.19	2590
832.329	2678
832.467	2560
832.606	2533
832.744	2583
832.883	2590
833.022	2621
833.16	2667
833.299	2739
833.437	2724
833.576	2739
833.714	2708
833.852	2720
833.991	2800
834.129	2849
834.267	2853
834.406	2834
834.544	2910
834.682	2910
834.821	2899
834.959	3089
835.097	2910
835.235	3116
835.373	3001
835.511	3036
835.65	3005
835.788	2982
835.926	2819
836.064	2838
836.202	2876
836.34	3104
836.478	3154
836.615	3085
836.753	3100
836.891	3226
837.029	3188
837.167	3146
837.305	3097
837.443	3039
837.58	3017
837.718	3180
837.856	3100
837.993	3028
838.131	3135
838.269	3131
838.406	3112
838.544	3150
838.681	2956
838.819	2922
838.956	2804
839.094	2864
839.231	2941
839.369	2998
839.506	3409
839.643	3233
839.781	3039
839.918	2971
840.055	3047
840.193	3058
840.33	3074
840.467	3127
840.604	3180
840.742	3412
840.879	3089
841.016	3077
841.153	3123
841.29	3359
841.427	3310
841.564	3287
841.701	3317
841.838	3230
841.975	3157
842.112	3230
842.249	3051
842.385	3047
842.522	3287
842.659	3123
842.796	3070
842.933	3108
843.069	3070
843.206	3032
843.343	3188
843.479	3112
843.616	3138
843.752	2902
843.889	2918
844.025	3097
844.162	2899
844.298	3074
844.435	2986
844.571	2956
844.708	3100
844.844	3169
844.98	3230
845.117	3199
845.253	3047
845.389	3017
845.525	3104
845.661	3116
845.798	3036
845.934	3146
846.07	3047
846.206	3264
846.342	3348
846.478	3253
846.614	3112
846.75	3055
846.886	3024
847.022	3237
847.158	3142
847.294	3161
847.429	3218
847.565	3249
847.701	3462
847.837	3070
847.972	3032
848.108	3173
848.244	3138
848.379	2998
848.515	2948
848.65	2956
848.786	2994
848.921	3032
849.057	3093
849.192	3146
849.328	3070
849.463	3108
849.598	3081
849.734	3055
849.869	2952
850.004	2925
850.14	2956
850.275	2899
850.41	2868
850.545	2906
850.68	2937
850.815	2963
850.95	2986
851.085	3184
851.22	3108
851.355	3009
851.49	2952
851.625	3039
851.76	3013
851.895	2944
852.03	2929
852.165	3066
852.299	3112
852.434	3207
852.569	3135
852.703	3169
852.838	3245
852.973	3348
853.107	3344
853.242	3176
853.376	3085
853.511	2998
853.645	3062
853.78	3218
853.914	3131
854.048	3108
854.183	3089
854.317	3142
854.451	3302
854.585	3112
854.72	3119
854.854	3245
854.988	3089
855.122	3089
855.256	2982
855.39	3093
855.524	3214
855.658	3176
855.792	3157
855.926	3207
856.06	3226
856.194	3268
856.327	3150
856.461	3127
856.595	3081
856.729	3062
856.862	3256
856.996	3161
857.13	3230
857.263	3253
857.397	3275
857.53	3150
857.664	3211
857.797	3249
857.931	3264
858.064	3203
858.197	3233
858.331	3150
858.464	3108
858.597	3013
858.731	3104
858.864	3169
858.997	3097
859.13	3165
859.263	3199
859.396	3233
859.529	3077
859.662	3108
859.795	3032
859.928	3146
860.061	3302
860.194	3283
860.327	3154
860.46	3108
860.592	3275
860.725	3294
860.858	3241
860.99	3127
861.123	3039
861.256	3077
861.388	3169
861.521	3838
861.653	3039
861.786	2990
861.918	3001
862.05	3077
862.183	3131
862.315	3157
862.447	3146
862.58	3089
862.712	2944
862.844	2887
862.976	3039
863.108	3043
863.24	3340
863.372	2902
863.504	2956
863.636	2952
863.768	3028
863.9	3009
864.032	2944
864.164	2948
864.296	3013
864.428	3100
864.559	3135
864.691	3070
864.823	3017
864.954	3058
865.086	3047
865.217	2986
865.349	2941
865.48	2975
865.612	3047
865.743	3154
865.875	2990
866.006	2922
866.137	2975
866.269	2948
866.4	2941
866.531	2937
866.662	2910
866.793	2902
866.924	2891
867.055	2975
867.186	2933
867.317	2902
867.448	2849
867.579	2804
867.71	2853
867.841	2842
867.972	2914
868.103	2914
868.233	2906
868.364	2887
868.495	2902
868.625	3062
868.756	3123
868.886	2998
869.017	3024
869.147	3169
869.278	3154
869.408	3009
869.539	3058
869.669	3074
869.799	3066
869.929	3119
870.06	3146
870.19	3359
870.32	3283
870.45	3317
870.58	3348
870.71	3473
870.84	3481
870.97	3317
871.1	3218
871.23	3488
871.36	3462
871.489	3336
871.619	3378
871.749	3435
871.879	3431
872.008	3473
872.138	3389
872.267	3291
872.397	3150
872.526	3081
872.656	3013
872.785	3131
872.915	3256
873.044	3332
873.173	3256
873.303	3253
873.432	3233
873.561	3264
873.69	3097
873.819	3154
873.948	3230
874.077	3119
874.206	3058
874.335	3074
874.464	3214
874.593	3329
874.722	3272
874.851	3386
874.979	3359
875.108	3317
875.237	3188
875.365	3192
875.494	3165
875.623	3260
875.751	3081
875.88	3138
876.008	3230
876.136	3230
876.265	3363
876.393	3519
876.521	3447
876.65	3431
876.778	3332
876.906	3218
877.034	3222
877.162	3222
877.29	3184
877.418	3287
877.546	3275
877.674	3245
877.802	3249
877.93	3249
878.058	3150
878.185	3077
878.313	3256
878.441	3256
878.568	3089
878.696	3157
878.824	3249
878.951	3321
879.079	3473
879.206	3625
879.333	3424
879.461	3325
879.588	3344
879.715	3481
879.842	3553
879.97	3393
880.097	3154
880.224	3127
880.351	3211
880.478	3192
880.605	3199
880.732	3207
880.859	3496
880.986	3294
881.112	3302
881.239	3165
881.366	3100
881.493	2979
881.619	3032
881.746	3055
881.872	3100
881.999	3066
882.125	3116
882.252	3237
882.378	3302
882.505	3435
882.631	3291
882.757	3135
882.883	3211
883.01	3226
883.136	3161
883.262	3089
883.388	3116
883.514	3336
883.64	3431
883.766	3313
883.892	3173
884.018	3245
884.143	3397
884.269	3561
884.395	3192
884.52	3180
884.646	3222
884.772	3112
884.897	3085
885.023	3218
885.148	3317
885.274	3473
885.399	3382
885.524	3241
885.65	3241
885.775	3367
885.9	3268
886.025	3431
886.15	3370
886.275	3306
886.4	3233
886.525	3321
886.65	3253
886.775	3294
886.9	3473
887.025	3622
887.149	3435
887.274	3222
887.399	3188
887.523	3161
887.648	3165
887.773	3195
887.897	3355
888.021	3393
888.146	3291
888.27	3439
888.395	3534
888.519	3412
888.643	3443
888.767	3435
888.891	3329
889.015	3218
889.139	3283
889.263	3268
889.387	3401
889.511	3485
889.635	3466
889.759	3294
889.883	3287
890.006	3386
890.13	3488
890.254	3222
890.377	3359
890.501	3207
890.624	3173
890.748	3313
890.871	3169
890.995	3093
891.118	3058
891.241	3165
891.364	3211
891.488	3298
891.611	3188
891.734	3222
891.857	3275
891.98	3264
892.103	3336
892.226	3275
892.349	3230
892.471	3108
892.594	3214
892.717	3275
892.839	3268
892.962	3272
893.085	3332
893.207	3287
893.33	3142
893.452	3195
893.575	3321
893.697	3218
893.819	3431
893.941	3469
894.064	3428
894.186	3291
894.308	3306
894.43	3450
894.552	3515
894.674	3447
894.796	3287
894.918	3287
895.04	3291
895.161	3439
895.283	3412
895.405	3291
895.526	3405
895.648	3435
895.769	3443
895.891	3450
896.012	3397
896.134	3477
896.255	3393
896.376	3355
896.498	3317
896.619	3447
896.74	3348
896.861	3397
896.982	3698
897.103	3835
897.224	3591
897.345	3511
897.466	3412
897.587	3530
897.708	3622
897.828	3530
897.949	3481
898.07	3336
898.19	3428
898.311	3587
898.431	3428
898.552	3523
898.672	3591
898.792	3561
898.913	3557
899.033	3374
899.153	3287
899.273	3241
899.393	3294
899.513	3336
899.633	3336
899.753	3363
899.873	3313
899.993	3359
900.113	3332
900.232	3374
900.352	3325
900.472	3310
900.591	3195
900.711	3283
900.83	3249
900.95	3416
901.069	3526
901.189	3329
901.308	3154
901.427	3123
901.546	3161
901.665	3287
901.784	3367
901.904	3192
902.023	3154
902.141	3005
902.26	2994
902.379	3138
902.498	3108
902.617	3036
902.735	3192
902.854	3211
902.973	3161
903.091	3017
903.21	3039
903.328	3161
903.446	3108
903.565	3074
903.683	3214
903.801	3123
903.919	3180
904.038	3237
904.156	3150
904.274	3344
904.392	3256
904.51	3283
904.627	3363
904.745	3431
904.863	3511
904.981	3245
905.098	3184
905.216	3260
905.334	3287
905.451	3302
905.569	3310
905.686	3412
905.803	3447
905.921	3287
906.038	3382
906.155	3374
906.272	3249
906.389	3313
906.506	3218
906.623	3233
906.74	3264
906.857	3192
906.974	3249
907.091	3431
907.208	3580
907.324	3466
907.441	3405
907.557	3211
907.674	3245
907.79	3222
907.907	3256
908.023	3355
908.139	3386
908.256	3325
908.372	3351
908.488	3378
908.604	3272
908.72	3192
908.836	3275
908.952	3283
909.068	3332
909.184	3473
909.3	3405
909.415	3488
909.531	3435
909.647	3287
909.762	3264
909.878	3237
909.993	3363
910.108	3329
910.224	3313
910.339	3389
910.454	3317
910.57	3317
910.685	3249
910.8	3599
910.915	3549
911.03	3416
911.145	3230
911.259	3253
911.374	3253
911.489	3253
911.604	3218
911.718	3131
911.833	3135
911.947	3036
912.062	2971
912.176	3173
912.291	3199
912.405	3207
912.519	3420
912.633	3443
912.748	3310
912.862	3245
912.976	3146
913.09	3085
913.204	3100
913.318	3214
913.431	3310
913.545	3325
913.659	3378
913.772	3310
913.886	3207
914	3180
914.113	3344
914.226	3393
914.34	3348
914.453	3203
914.566	3435
914.68	3283
914.793	3275
914.906	3131
915.019	3070
915.132	3036
915.245	3161
915.358	3218
915.47	3222
915.583	3264
915.696	3313
915.809	3454
915.921	3424
916.034	3245
916.146	3256
916.259	3230
916.371	3363
916.483	3382
916.595	3256
916.708	3389
916.82	3359
916.932	3363
917.044	3340
917.156	3317
917.268	3237
917.38	3291
917.491	3279
917.603	3378
917.715	3462
917.826	3458
917.938	3393
918.049	3264
918.161	3412
918.272	3534
918.384	3534
918.495	3458
918.606	3340
918.717	3291
918.828	3405
918.939	3401
919.05	3291
919.161	3336
919.272	3180
919.383	3287
919.494	3466
919.604	3675
919.715	3485
919.826	3389
919.936	3428
920.047	3561
920.157	3538
920.267	3762
920.378	3572
920.488	3584
920.598	3762
920.708	3941
920.818	3816
920.928	3823
921.038	4032
921.148	3975
921.258	3686
921.368	3595
921.477	3587
921.587	3530
921.697	3481
921.806	3603
921.916	3496
922.025	3298
922.134	3370
922.244	3306
922.353	3443
922.462	3241
922.571	3230
922.68	3135
922.789	3062
922.898	3146
923.007	3085
923.116	3192
923.224	3192
923.333	3150
923.442	3093
923.55	3100
923.659	3150
923.767	3199
923.876	3169
923.984	3207
924.092	3081
924.201	3192
924.309	3249
924.417	3249
924.525	3192
924.633	3237
924.741	4188
924.849	3032
924.956	3275
925.064	3100
925.172	3005
925.279	3077
925.387	3211
925.494	3207
925.602	3344
925.709	3344
925.816	3192
925.924	3283
926.031	3363
926.138	3298
926.245	3355
926.352	3279
926.459	3412
926.566	3454
926.673	3313
926.779	3226
926.886	3230
926.993	3104
927.099	3157
927.206	3127
927.312	3131
927.419	3192
927.525	3176
927.631	3268
927.737	3161
927.843	3138
927.95	2990
928.056	3138
928.162	3180
928.267	3256
928.373	3876
928.479	3294
928.585	3028
928.69	3230
928.796	3226
928.901	3161
929.007	3039
929.112	3199
929.218	3142
929.323	3127
929.428	3138
929.533	3264
929.638	3116
929.743	3173
929.848	3230
929.953	3207
930.058	3123
930.163	3001
930.267	3055
930.372	3207
930.477	2994
930.581	3317
930.685	3161
930.79	3020
930.894	3100
930.998	3051
931.103	3245
931.207	2925
931.311	2944
931.415	2899
931.519	2750
931.623	2800
