Data from test_V78500241_1465.txt Node
Date: Fri Mar 25 16:25:21 CST 2022
User: usil
Spectrometer: V785-0024
Trigger mode: 0
Integration Time (sec): 4.000000E-1
Scans to average: 1
Nonlinearity correction enabled: false
Boxcar width: 0
Storing dark spectrum: false
XAxis mode: Wavelengths
Number of Pixels in Spectrum: 1024
>>>>>Begin Spectral Data<<<<<
801.071	2906
801.214	2918
801.356	2849
801.499	2868
801.641	2800
801.783	2922
801.926	3032
802.068	2971
802.211	2952
802.353	3013
802.496	3001
802.638	3005
802.78	3047
802.923	3097
803.065	2990
803.208	2864
803.35	2906
803.492	2918
803.635	2948
803.777	2758
803.919	2857
804.061	3211
804.204	2952
804.346	2906
804.488	2853
804.63	2963
804.773	2872
804.915	2868
805.057	3085
805.199	2887
805.341	2990
805.483	3028
805.626	2990
805.768	2944
805.91	3089
806.052	3119
806.194	3020
806.336	3199
806.478	2986
806.62	2925
806.762	2937
806.904	3085
807.046	3161
807.188	2994
807.33	2906
807.472	2975
807.614	2895
807.756	3005
807.898	2910
808.04	2861
808.182	2975
808.324	2960
808.465	2876
808.607	2838
808.749	2811
808.891	2853
809.033	2956
809.174	2982
809.316	2880
809.458	2880
809.6	2739
809.741	2773
809.883	2750
810.025	2842
810.166	2815
810.308	2864
810.45	2857
810.591	2766
810.733	2750
810.875	2804
811.016	2800
811.158	2792
811.299	2800
811.441	2937
811.582	2906
811.724	2807
811.865	2807
812.007	2902
812.148	2891
812.29	2864
812.431	2887
812.573	2914
812.714	2952
812.855	3024
812.997	3020
813.138	3127
813.279	2986
813.421	3001
813.562	2960
813.703	2883
813.845	2902
813.986	2777
814.127	2746
814.268	2804
814.41	2826
814.551	2792
814.692	2891
814.833	2800
814.974	2883
815.115	2975
815.256	2807
815.397	2804
815.539	2845
815.68	2739
815.821	2815
815.962	2910
816.103	2895
816.244	2853
816.385	2868
816.526	2975
816.666	2895
816.807	2762
816.948	2868
817.089	2918
817.23	2834
817.371	2796
817.512	2769
817.653	2819
817.793	2819
817.934	2910
818.075	2956
818.216	2994
818.356	3039
818.497	2880
818.638	2796
818.778	2777
818.919	2792
819.06	2777
819.2	2887
819.341	2823
819.481	2796
819.622	2922
819.762	3108
819.903	3024
820.043	2883
820.184	2876
820.324	2872
820.465	3032
820.605	3005
820.746	3062
820.886	2910
821.026	3093
821.167	3173
821.307	3253
821.447	3264
821.588	3230
821.728	3214
821.868	3188
822.008	3062
822.149	3184
822.289	3218
822.429	3081
822.569	3058
822.709	3161
822.849	3028
822.99	3058
823.13	3142
823.27	3203
823.41	3119
823.55	3135
823.69	3116
823.83	3203
823.97	3104
824.11	3009
824.25	2982
824.389	3024
824.529	3104
824.669	3074
824.809	3192
824.949	3230
825.089	3230
825.228	3146
825.368	3009
825.508	2963
825.648	2967
825.787	3013
825.927	2990
826.067	2960
826.206	2998
826.346	3047
826.485	3074
826.625	3070
826.765	3264
826.904	3230
827.044	2967
827.183	2914
827.323	2834
827.462	2979
827.601	2899
827.741	2933
827.88	2944
828.02	2872
828.159	2967
828.298	2994
828.437	3077
828.577	3055
828.716	3203
828.855	3093
828.994	2887
829.134	2906
829.273	2880
829.412	2842
829.551	2838
829.69	2906
829.829	2956
829.968	3131
830.107	3024
830.246	3047
830.385	2899
830.524	2864
830.663	2788
830.802	2754
830.941	2674
831.08	2644
831.219	2766
831.357	2750
831.496	2929
831.635	2716
831.774	2632
831.913	2648
832.051	2571
832.19	2594
832.329	2670
832.467	2530
832.606	2488
832.744	2602
832.883	2590
833.022	2568
833.16	2644
833.299	2678
833.437	2670
833.576	2701
833.714	2724
833.852	2716
833.991	2777
834.129	2834
834.267	2838
834.406	2807
834.544	2880
834.682	2868
834.821	2880
834.959	3055
835.097	2922
835.235	3055
835.373	3001
835.511	3032
835.65	2952
835.788	2937
835.926	2807
836.064	2792
836.202	2800
836.34	3062
836.478	3154
836.615	3047
836.753	3116
836.891	3161
837.029	3173
837.167	3074
837.305	3081
837.443	3005
837.58	2937
837.718	3135
837.856	3066
837.993	3051
838.131	3112
838.269	3100
838.406	3085
838.544	3077
838.681	2948
838.819	2906
838.956	2826
839.094	2804
839.231	2941
839.369	3017
839.506	3344
839.643	3207
839.781	3005
839.918	2922
840.055	3070
840.193	3077
840.33	3032
840.467	3077
840.604	3131
840.742	3416
840.879	3062
841.016	3074
841.153	3142
841.29	3321
841.427	3249
841.564	3264
841.701	3302
841.838	3233
841.975	3173
842.112	3195
842.249	3055
842.385	3032
842.522	3253
842.659	3089
842.796	3047
842.933	3093
843.069	3058
843.206	3039
843.343	3161
843.479	3077
843.616	3116
843.752	2922
843.889	2861
844.025	3085
844.162	2891
844.298	3032
844.435	2941
844.571	2914
844.708	3085
844.844	3165
844.98	3233
845.117	3169
845.253	3055
845.389	3001
845.525	3104
845.661	3135
845.798	2986
845.934	3100
846.07	3032
846.206	3211
846.342	3279
846.478	3218
846.614	3058
846.75	3062
846.886	3028
847.022	3245
847.158	3123
847.294	3184
847.429	3233
847.565	3218
847.701	3469
847.837	3017
847.972	3020
848.108	3154
848.244	3127
848.379	2994
848.515	2967
848.65	2925
848.786	2948
848.921	2998
849.057	3097
849.192	3100
849.328	3085
849.463	3157
849.598	3028
849.734	3028
849.869	2971
850.004	2952
850.14	2971
850.275	2941
850.41	2872
850.545	2853
850.68	2982
850.815	2918
850.95	2982
851.085	3157
851.22	3066
851.355	3013
851.49	2990
851.625	3001
851.76	2967
851.895	2899
852.03	2857
852.165	3024
852.299	3058
852.434	3165
852.569	3127
852.703	3173
852.838	3241
852.973	3306
853.107	3336
853.242	3119
853.376	3047
853.511	2975
853.645	3058
853.78	3233
853.914	3150
854.048	3104
854.183	3089
854.317	3138
854.451	3260
854.585	3116
854.72	3108
854.854	3195
854.988	3070
855.122	3074
855.256	2944
855.39	3077
855.524	3222
855.658	3195
855.792	3154
855.926	3184
856.06	3195
856.194	3237
856.327	3154
856.461	3039
856.595	3070
856.729	3062
856.862	3203
856.996	3184
857.13	3184
857.263	3222
857.397	3253
857.53	3070
857.664	3173
857.797	3214
857.931	3233
858.064	3135
858.197	3184
858.331	3119
858.464	3142
858.597	3005
858.731	3112
858.864	3123
858.997	3051
859.13	3150
859.263	3180
859.396	3211
859.529	3089
859.662	3077
859.795	3043
859.928	3116
860.061	3302
860.194	3245
860.327	3112
860.46	3108
860.592	3237
860.725	3207
860.858	3226
860.99	3104
861.123	3024
861.256	3051
861.388	3104
861.521	3842
861.653	2986
861.786	2994
861.918	2979
862.05	3058
862.183	3070
862.315	3116
862.447	3165
862.58	3089
862.712	2933
862.844	2849
862.976	3039
863.108	3009
863.24	3302
863.372	2895
863.504	2986
863.636	2925
863.768	3017
863.9	2994
864.032	2910
864.164	2944
864.296	2998
864.428	3089
864.559	3097
864.691	3062
864.823	3055
864.954	3058
865.086	3058
865.217	3001
865.349	2960
865.48	2994
865.612	3009
865.743	3093
865.875	2956
866.006	2895
866.137	2963
866.269	2895
866.4	2944
866.531	2910
866.662	2849
866.793	2910
866.924	2902
867.055	2956
867.186	2925
867.317	2887
867.448	2838
867.579	2842
867.71	2883
867.841	2800
867.972	2887
868.103	2937
868.233	2891
868.364	2883
868.495	2906
868.625	3074
868.756	3135
868.886	2956
869.017	2998
869.147	3173
869.278	3138
869.408	3001
869.539	3036
869.669	3093
869.799	3051
869.929	3127
870.06	3104
870.19	3325
870.32	3302
870.45	3306
870.58	3378
870.71	3447
870.84	3412
870.97	3283
871.1	3199
871.23	3485
871.36	3405
871.489	3348
871.619	3401
871.749	3386
871.879	3424
872.008	3481
872.138	3348
872.267	3264
872.397	3112
872.526	3043
872.656	3017
872.785	3089
872.915	3192
873.044	3294
873.173	3226
873.303	3253
873.432	3222
873.561	3222
873.69	3150
873.819	3154
873.948	3180
874.077	3108
874.206	3070
874.335	3104
874.464	3241
874.593	3340
874.722	3241
874.851	3382
874.979	3329
875.108	3283
875.237	3199
875.365	3150
875.494	3127
875.623	3211
875.751	3062
875.88	3135
876.008	3176
876.136	3199
876.265	3355
876.393	3504
876.521	3389
876.65	3332
876.778	3272
876.906	3233
877.034	3199
877.162	3211
877.29	3169
877.418	3237
877.546	3241
877.674	3226
877.802	3199
877.93	3211
878.058	3154
878.185	3112
878.313	3192
878.441	3203
878.568	3028
878.696	3176
878.824	3253
878.951	3306
879.079	3454
879.206	3580
879.333	3439
879.461	3351
879.588	3332
879.715	3481
879.842	3561
879.97	3397
880.097	3188
880.224	3116
880.351	3199
880.478	3222
880.605	3214
880.732	3161
880.859	3496
880.986	3321
881.112	3374
881.239	3207
881.366	3077
881.493	3020
881.619	3005
881.746	3070
881.872	3100
881.999	3108
882.125	3138
882.252	3260
882.378	3275
882.505	3405
882.631	3302
882.757	3112
882.883	3218
883.01	3184
883.136	3142
883.262	3066
883.388	3119
883.514	3306
883.64	3363
883.766	3294
883.892	3199
884.018	3226
884.143	3412
884.269	3549
884.395	3184
884.52	3108
884.646	3154
884.772	3104
884.897	3119
885.023	3176
885.148	3325
885.274	3409
885.399	3363
885.524	3294
885.65	3230
885.775	3268
885.9	3283
886.025	3416
886.15	3359
886.275	3294
886.4	3230
886.525	3325
886.65	3256
886.775	3306
886.9	3473
887.025	3614
887.149	3431
887.274	3298
887.399	3192
887.523	3184
887.648	3180
887.773	3199
887.897	3359
888.021	3397
888.146	3325
888.27	3405
888.395	3545
888.519	3435
888.643	3412
888.767	3466
888.891	3321
889.015	3275
889.139	3275
889.263	3233
889.387	3397
889.511	3515
889.635	3477
889.759	3268
889.883	3336
890.006	3351
890.13	3462
890.254	3264
890.377	3332
890.501	3180
890.624	3176
890.748	3325
890.871	3150
890.995	3104
891.118	3062
891.241	3188
891.364	3211
891.488	3291
891.611	3146
891.734	3214
891.857	3275
891.98	3199
892.103	3363
892.226	3268
892.349	3180
892.471	3119
892.594	3230
892.717	3275
892.839	3291
892.962	3313
893.085	3359
893.207	3329
893.33	3119
893.452	3176
893.575	3348
893.697	3245
893.819	3466
893.941	3515
894.064	3439
894.186	3294
894.308	3237
894.43	3428
894.552	3519
894.674	3428
894.796	3275
894.918	3344
895.04	3256
895.161	3393
895.283	3397
895.405	3310
895.526	3348
895.648	3393
895.769	3431
895.891	3492
896.012	3462
896.134	3492
896.255	3412
896.376	3386
896.498	3374
896.619	3401
896.74	3336
896.861	3363
896.982	3652
897.103	3869
897.224	3603
897.345	3534
897.466	3397
897.587	3500
897.708	3614
897.828	3507
897.949	3416
898.07	3329
898.19	3393
898.311	3584
898.431	3450
898.552	3542
898.672	3591
898.792	3614
898.913	3500
899.033	3367
899.153	3256
899.273	3241
899.393	3298
899.513	3310
899.633	3279
899.753	3306
899.873	3317
899.993	3397
900.113	3329
900.232	3348
900.352	3348
900.472	3279
900.591	3218
900.711	3275
900.83	3233
900.95	3405
901.069	3496
901.189	3321
901.308	3150
901.427	3104
901.546	3184
901.665	3275
901.784	3336
901.904	3218
902.023	3131
902.141	2979
902.26	2975
902.379	3077
902.498	3058
902.617	3039
902.735	3180
902.854	3226
902.973	3237
903.091	3047
903.21	3032
903.328	3104
903.446	3097
903.565	3116
903.683	3165
903.801	3127
903.919	3222
904.038	3294
904.156	3157
904.274	3310
904.392	3245
904.51	3287
904.627	3321
904.745	3447
904.863	3515
904.981	3275
905.098	3123
905.216	3218
905.334	3321
905.451	3302
905.569	3291
905.686	3397
905.803	3466
905.921	3264
906.038	3405
906.155	3336
906.272	3294
906.389	3306
906.506	3241
906.623	3260
906.74	3287
906.857	3184
906.974	3237
907.091	3439
907.208	3568
907.324	3462
907.441	3374
907.557	3268
907.674	3260
907.79	3222
907.907	3253
908.023	3329
908.139	3355
908.256	3340
908.372	3374
908.488	3359
908.604	3249
908.72	3226
908.836	3294
908.952	3283
909.068	3325
909.184	3458
909.3	3386
909.415	3462
909.531	3454
909.647	3268
909.762	3302
909.878	3253
909.993	3340
910.108	3363
910.224	3348
910.339	3435
910.454	3340
910.57	3260
910.685	3272
910.8	3572
910.915	3523
911.03	3405
911.145	3253
911.259	3279
911.374	3291
911.489	3237
911.604	3188
911.718	3112
911.833	3157
911.947	2998
912.062	2971
912.176	3165
912.291	3184
912.405	3233
912.519	3409
912.633	3454
912.748	3317
912.862	3291
912.976	3146
913.09	3062
913.204	3127
913.318	3211
913.431	3340
913.545	3386
913.659	3431
913.772	3344
913.886	3203
914	3226
914.113	3348
914.226	3405
914.34	3355
914.453	3222
914.566	3405
914.68	3272
914.793	3321
914.906	3104
915.019	3100
915.132	3070
915.245	3176
915.358	3188
915.47	3260
915.583	3233
915.696	3272
915.809	3397
915.921	3443
916.034	3279
916.146	3260
916.259	3207
916.371	3367
916.483	3359
916.595	3279
916.708	3344
916.82	3332
916.932	3348
917.044	3336
917.156	3348
917.268	3237
917.38	3287
917.491	3291
917.603	3370
917.715	3443
917.826	3458
917.938	3355
918.049	3260
918.161	3462
918.272	3557
918.384	3595
918.495	3492
918.606	3340
918.717	3264
918.828	3348
918.939	3435
919.05	3291
919.161	3355
919.272	3173
919.383	3279
919.494	3469
919.604	3682
919.715	3469
919.826	3389
919.936	3450
920.047	3610
920.157	3538
920.267	3755
920.378	3599
920.488	3564
920.598	3793
920.708	3991
920.818	3812
920.928	3812
921.038	3998
921.148	4025
921.258	3709
921.368	3644
921.477	3595
921.587	3545
921.697	3469
921.806	3622
921.916	3515
922.025	3370
922.134	3310
922.244	3272
922.353	3466
922.462	3260
922.571	3226
922.68	3066
922.789	3062
922.898	3138
923.007	3058
923.116	3226
923.224	3195
923.333	3173
923.442	3085
923.55	3077
923.659	3138
923.767	3161
923.876	3104
923.984	3203
924.092	3055
924.201	3195
924.309	3211
924.417	3241
924.525	3180
924.633	3249
924.741	4166
924.849	3039
924.956	3249
925.064	3100
925.172	3028
925.279	3097
925.387	3214
925.494	3199
925.602	3336
925.709	3340
925.816	3180
925.924	3253
926.031	3397
926.138	3332
926.245	3351
926.352	3241
926.459	3401
926.566	3504
926.673	3325
926.779	3226
926.886	3260
926.993	3180
927.099	3154
927.206	3116
927.312	3112
927.419	3249
927.525	3188
927.631	3279
927.737	3146
927.843	3116
927.95	3070
928.056	3127
928.162	3150
928.267	3233
928.373	3800
928.479	3302
928.585	3020
928.69	3192
928.796	3283
928.901	3169
929.007	3070
929.112	3169
929.218	3188
929.323	3161
929.428	3119
929.533	3317
929.638	3142
929.743	3180
929.848	3306
929.953	3176
930.058	3112
930.163	2994
930.267	3005
930.372	3207
930.477	3020
930.581	3302
930.685	3169
930.79	3074
930.894	3146
930.998	3112
931.103	3272
931.207	2960
931.311	2933
931.415	2902
931.519	2769
931.623	2804
