Data from test_V78500241_1074.txt Node
Date: Fri Mar 25 16:22:38 CST 2022
User: usil
Spectrometer: V785-0024
Trigger mode: 0
Integration Time (sec): 4.000000E-1
Scans to average: 1
Nonlinearity correction enabled: false
Boxcar width: 0
Storing dark spectrum: false
XAxis mode: Wavelengths
Number of Pixels in Spectrum: 1024
>>>>>Begin Spectral Data<<<<<
801.071	2902
801.214	2956
801.356	2876
801.499	2864
801.641	2883
801.783	2941
801.926	3032
802.068	2960
802.211	2986
802.353	3047
802.496	2971
802.638	2998
802.78	3047
802.923	3062
803.065	2994
803.208	2925
803.35	2933
803.492	2933
803.635	2918
803.777	2754
803.919	2868
804.061	3169
804.204	2929
804.346	2933
804.488	2838
804.63	2967
804.773	2906
804.915	2906
805.057	3077
805.199	2918
805.341	2960
805.483	3074
805.626	2967
805.768	2971
805.91	3070
806.052	3135
806.194	3009
806.336	3203
806.478	3055
806.62	2982
806.762	2982
806.904	3028
807.046	3150
807.188	2960
807.33	2891
807.472	2967
807.614	2895
807.756	2979
807.898	2910
808.04	2944
808.182	2960
808.324	2990
808.465	2910
808.607	2823
808.749	2788
808.891	2861
809.033	2975
809.174	2963
809.316	2895
809.458	2887
809.6	2743
809.741	2773
809.883	2800
810.025	2834
810.166	2849
810.308	2830
810.45	2845
810.591	2758
810.733	2746
810.875	2819
811.016	2773
811.158	2735
811.299	2800
811.441	2918
811.582	2880
811.724	2842
811.865	2830
812.007	2925
812.148	2910
812.29	2830
812.431	2880
812.573	2906
812.714	2960
812.855	3055
812.997	3047
813.138	3093
813.279	3013
813.421	2967
813.562	2925
813.703	2857
813.845	2876
813.986	2769
814.127	2712
814.268	2853
814.41	2815
814.551	2800
814.692	2887
814.833	2785
814.974	2902
815.115	2960
815.256	2819
815.397	2807
815.539	2880
815.68	2785
815.821	2788
815.962	2918
816.103	2956
816.244	2853
816.385	2845
816.526	2952
816.666	2914
816.807	2724
816.948	2880
817.089	2880
817.23	2849
817.371	2762
817.512	2743
817.653	2826
817.793	2830
817.934	2883
818.075	3005
818.216	2982
818.356	3009
818.497	2895
818.638	2792
818.778	2838
818.919	2758
819.06	2762
819.2	2914
819.341	2773
819.481	2804
819.622	2929
819.762	3070
819.903	3085
820.043	2925
820.184	2899
820.324	2895
820.465	2975
820.605	3013
820.746	2986
820.886	2906
821.026	3104
821.167	3157
821.307	3264
821.447	3279
821.588	3245
821.728	3188
821.868	3195
822.008	3104
822.149	3165
822.289	3230
822.429	3100
822.569	3085
822.709	3176
822.849	3055
822.99	3108
823.13	3157
823.27	3154
823.41	3081
823.55	3135
823.69	3112
823.83	3222
823.97	3085
824.11	2982
824.25	2986
824.389	3005
824.529	3146
824.669	3100
824.809	3150
824.949	3207
825.089	3188
825.228	3157
825.368	3017
825.508	2925
825.648	2975
825.787	3036
825.927	3009
826.067	2975
826.206	2933
826.346	3013
826.485	3058
826.625	3138
826.765	3272
826.904	3237
827.044	2986
827.183	2948
827.323	2849
827.462	2971
827.601	2876
827.741	2918
827.88	2948
828.02	2853
828.159	2975
828.298	3039
828.437	3116
828.577	3032
828.716	3218
828.855	3070
828.994	2887
829.134	2861
829.273	2922
829.412	2872
829.551	2872
829.69	2857
829.829	2948
829.968	3093
830.107	3013
830.246	3001
830.385	2910
830.524	2902
830.663	2796
830.802	2708
830.941	2644
831.08	2617
831.219	2769
831.357	2766
831.496	2948
831.635	2708
831.774	2659
831.913	2655
832.051	2556
832.19	2594
832.329	2651
832.467	2514
832.606	2461
832.744	2583
832.883	2568
833.022	2583
833.16	2598
833.299	2682
833.437	2708
833.576	2682
833.714	2724
833.852	2766
833.991	2743
834.129	2815
834.267	2807
834.406	2796
834.544	2842
834.682	2872
834.821	2857
834.959	3036
835.097	2906
835.235	3051
835.373	2998
835.511	3013
835.65	2982
835.788	2948
835.926	2823
836.064	2811
836.202	2830
836.34	3062
836.478	3146
836.615	3039
836.753	3150
836.891	3195
837.029	3157
837.167	3051
837.305	3058
837.443	3001
837.58	2967
837.718	3142
837.856	3074
837.993	3039
838.131	3146
838.269	3100
838.406	3116
838.544	3066
838.681	2971
838.819	2925
838.956	2823
839.094	2838
839.231	2880
839.369	3055
839.506	3367
839.643	3184
839.781	3024
839.918	2956
840.055	3009
840.193	3043
840.33	3036
840.467	3070
840.604	3131
840.742	3370
840.879	3009
841.016	3062
841.153	3116
841.29	3351
841.427	3287
841.564	3272
841.701	3302
841.838	3169
841.975	3218
842.112	3207
842.249	3070
842.385	3055
842.522	3249
842.659	3036
842.796	3051
842.933	3093
843.069	3043
843.206	2998
843.343	3203
843.479	3100
843.616	3119
843.752	2948
843.889	2853
844.025	3104
844.162	2857
844.298	3039
844.435	2941
844.571	2914
844.708	3032
844.844	3169
844.98	3241
845.117	3211
845.253	3058
845.389	2998
845.525	3104
845.661	3100
845.798	2990
845.934	3119
846.07	3032
846.206	3233
846.342	3306
846.478	3203
846.614	3051
846.75	3013
846.886	3051
847.022	3256
847.158	3104
847.294	3207
847.429	3260
847.565	3207
847.701	3447
847.837	3013
847.972	3017
848.108	3188
848.244	3157
848.379	2979
848.515	2937
848.65	2906
848.786	2986
848.921	3028
849.057	3123
849.192	3077
849.328	3036
849.463	3116
849.598	3043
849.734	3005
849.869	2960
850.004	2887
850.14	2948
850.275	2891
850.41	2830
850.545	2887
850.68	2933
850.815	2944
850.95	2944
851.085	3146
851.22	3119
851.355	3013
851.49	2948
851.625	3013
851.76	3017
851.895	2937
852.03	2941
852.165	3024
852.299	3062
852.434	3173
852.569	3112
852.703	3188
852.838	3249
852.973	3329
853.107	3287
853.242	3131
853.376	3081
853.511	2948
853.645	3039
853.78	3222
853.914	3108
854.048	3089
854.183	3036
854.317	3100
854.451	3306
854.585	3097
854.72	3070
854.854	3218
854.988	3036
855.122	3081
855.256	2956
855.39	3108
855.524	3230
855.658	3138
855.792	3154
855.926	3154
856.06	3199
856.194	3253
856.327	3142
856.461	3081
856.595	3070
856.729	3154
856.862	3188
856.996	3154
857.13	3199
857.263	3249
857.397	3237
857.53	3131
857.664	3211
857.797	3211
857.931	3256
858.064	3142
858.197	3237
858.331	3104
858.464	3070
858.597	3017
858.731	3100
858.864	3104
858.997	3070
859.13	3169
859.263	3150
859.396	3192
859.529	3093
859.662	3039
859.795	3058
859.928	3104
860.061	3233
860.194	3275
860.327	3104
860.46	3100
860.592	3237
860.725	3253
860.858	3245
860.99	3093
861.123	3051
861.256	3077
861.388	3184
861.521	3793
861.653	2986
861.786	2975
861.918	2975
862.05	3104
862.183	3051
862.315	3161
862.447	3203
862.58	3081
862.712	2952
862.844	2857
862.976	2994
863.108	3005
863.24	3298
863.372	2891
863.504	2979
863.636	2952
863.768	3020
863.9	2986
864.032	2918
864.164	2929
864.296	2986
864.428	3077
864.559	3131
864.691	3066
864.823	3051
864.954	3017
865.086	3020
865.217	2982
865.349	2914
865.48	2963
865.612	3005
865.743	3138
865.875	2990
866.006	2941
866.137	2960
866.269	2933
866.4	2880
866.531	2895
866.662	2883
866.793	2883
866.924	2895
867.055	2975
867.186	2941
867.317	2880
867.448	2823
867.579	2853
867.71	2834
867.841	2777
867.972	2902
868.103	2899
868.233	2887
868.364	2887
868.495	2880
868.625	3074
868.756	3127
868.886	2975
869.017	3013
869.147	3119
869.278	3135
869.408	3077
869.539	3024
869.669	3074
869.799	3028
869.929	3157
870.06	3112
870.19	3306
870.32	3268
870.45	3302
870.58	3367
870.71	3466
870.84	3416
870.97	3321
871.1	3291
871.23	3481
871.36	3439
871.489	3363
871.619	3393
871.749	3374
871.879	3412
872.008	3488
872.138	3351
872.267	3275
872.397	3135
872.526	3127
872.656	2952
872.785	3058
872.915	3218
873.044	3306
873.173	3203
873.303	3226
873.432	3264
873.561	3211
873.69	3184
873.819	3123
873.948	3188
874.077	3116
874.206	3028
874.335	3097
874.464	3199
874.593	3363
874.722	3226
874.851	3401
874.979	3344
875.108	3325
875.237	3211
875.365	3184
875.494	3184
875.623	3275
875.751	3074
875.88	3089
876.008	3211
876.136	3195
876.265	3370
876.393	3500
876.521	3405
876.65	3397
876.778	3344
876.906	3249
877.034	3211
877.162	3203
877.29	3180
877.418	3268
877.546	3218
877.674	3237
877.802	3226
877.93	3222
878.058	3165
878.185	3093
878.313	3199
878.441	3192
878.568	3085
878.696	3173
878.824	3214
878.951	3283
879.079	3435
879.206	3606
879.333	3435
879.461	3332
879.588	3348
879.715	3469
879.842	3595
879.97	3393
880.097	3176
880.224	3135
880.351	3146
880.478	3214
880.605	3203
880.732	3157
880.859	3473
880.986	3291
881.112	3298
881.239	3222
881.366	3077
881.493	3058
881.619	3024
881.746	3074
881.872	3100
881.999	3081
882.125	3138
882.252	3298
882.378	3256
882.505	3435
882.631	3279
882.757	3131
882.883	3192
883.01	3249
883.136	3127
883.262	3070
883.388	3135
883.514	3329
883.64	3374
883.766	3321
883.892	3218
884.018	3207
884.143	3443
884.269	3542
884.395	3230
884.52	3138
884.646	3188
884.772	3108
884.897	3089
885.023	3195
885.148	3355
885.274	3367
885.399	3325
885.524	3249
885.65	3260
885.775	3272
885.9	3260
886.025	3412
886.15	3348
886.275	3272
886.4	3233
886.525	3317
886.65	3287
886.775	3272
886.9	3519
887.025	3625
887.149	3397
887.274	3253
887.399	3180
887.523	3180
887.648	3176
887.773	3184
887.897	3363
888.021	3393
888.146	3279
888.27	3443
888.395	3553
888.519	3416
888.643	3481
888.767	3450
888.891	3310
889.015	3268
889.139	3253
889.263	3207
889.387	3416
889.511	3526
889.635	3454
889.759	3275
889.883	3294
890.006	3359
890.13	3466
890.254	3283
890.377	3355
890.501	3237
890.624	3188
890.748	3279
890.871	3214
890.995	3089
891.118	3070
891.241	3169
891.364	3192
891.488	3291
891.611	3180
891.734	3241
891.857	3294
891.98	3237
892.103	3351
892.226	3253
892.349	3218
892.471	3085
892.594	3272
892.717	3287
892.839	3264
892.962	3294
893.085	3367
893.207	3253
893.33	3192
893.452	3154
893.575	3348
893.697	3230
893.819	3447
893.941	3488
894.064	3431
894.186	3291
894.308	3249
894.43	3481
894.552	3500
894.674	3458
894.796	3249
894.918	3306
895.04	3279
895.161	3412
895.283	3348
895.405	3325
895.526	3332
895.648	3409
895.769	3428
895.891	3447
896.012	3477
896.134	3420
896.255	3420
896.376	3397
896.498	3378
896.619	3454
896.74	3386
896.861	3401
896.982	3720
897.103	3804
897.224	3564
897.345	3485
897.466	3435
897.587	3485
897.708	3603
897.828	3584
897.949	3454
898.07	3332
898.19	3401
898.311	3576
898.431	3416
898.552	3492
898.672	3549
898.792	3625
898.913	3504
899.033	3409
899.153	3329
899.273	3195
899.393	3272
899.513	3306
899.633	3310
899.753	3321
899.873	3279
899.993	3370
900.113	3332
900.232	3367
900.352	3359
900.472	3294
900.591	3195
900.711	3317
900.83	3226
900.95	3374
901.069	3469
901.189	3344
901.308	3192
901.427	3142
901.546	3222
901.665	3313
901.784	3340
901.904	3184
902.023	3138
902.141	3017
902.26	2963
902.379	3104
902.498	3066
902.617	3074
902.735	3214
902.854	3260
902.973	3211
903.091	3039
903.21	3077
903.328	3142
903.446	3097
903.565	3097
903.683	3195
903.801	3138
903.919	3249
904.038	3283
904.156	3169
904.274	3260
904.392	3249
904.51	3256
904.627	3313
904.745	3420
904.863	3504
904.981	3264
905.098	3154
905.216	3241
905.334	3298
905.451	3291
905.569	3275
905.686	3416
905.803	3420
905.921	3253
906.038	3428
906.155	3359
906.272	3279
906.389	3329
906.506	3241
906.623	3230
906.74	3283
906.857	3176
906.974	3253
907.091	3416
907.208	3519
907.324	3431
907.441	3401
907.557	3233
907.674	3226
907.79	3222
907.907	3272
908.023	3340
908.139	3397
908.256	3298
908.372	3363
908.488	3363
908.604	3226
908.72	3222
908.836	3283
908.952	3264
909.068	3340
909.184	3481
909.3	3363
909.415	3462
909.531	3492
909.647	3287
909.762	3302
909.878	3272
909.993	3344
910.108	3344
910.224	3336
910.339	3424
910.454	3329
910.57	3310
910.685	3253
910.8	3599
910.915	3526
911.03	3454
911.145	3272
911.259	3260
911.374	3313
911.489	3241
911.604	3264
911.718	3119
911.833	3169
911.947	3009
912.062	3024
912.176	3142
912.291	3188
912.405	3211
912.519	3435
912.633	3469
912.748	3329
912.862	3306
912.976	3180
913.09	3062
913.204	3127
913.318	3226
913.431	3325
913.545	3332
913.659	3409
913.772	3340
913.886	3214
914	3203
914.113	3374
914.226	3424
914.34	3405
914.453	3195
914.566	3389
914.68	3245
914.793	3294
914.906	3150
915.019	3112
915.132	3062
915.245	3180
915.358	3211
915.47	3260
915.583	3260
915.696	3306
915.809	3409
915.921	3412
916.034	3264
916.146	3268
916.259	3249
916.371	3378
916.483	3363
916.595	3241
916.708	3306
916.82	3329
916.932	3329
917.044	3351
917.156	3340
917.268	3272
917.38	3306
917.491	3313
917.603	3325
917.715	3416
917.826	3435
917.938	3405
918.049	3283
918.161	3447
918.272	3534
918.384	3572
918.495	3504
918.606	3348
918.717	3317
918.828	3431
918.939	3378
919.05	3294
919.161	3412
919.272	3161
919.383	3260
919.494	3500
919.604	3618
919.715	3485
919.826	3329
919.936	3435
920.047	3568
920.157	3591
920.267	3740
920.378	3614
920.488	3534
920.598	3797
920.708	3945
920.818	3831
920.928	3842
921.038	4013
921.148	3987
921.258	3675
921.368	3622
921.477	3564
921.587	3530
921.697	3454
921.806	3622
921.916	3469
922.025	3351
922.134	3389
922.244	3329
922.353	3435
922.462	3325
922.571	3237
922.68	3108
922.789	3104
922.898	3135
923.007	3097
923.116	3245
923.224	3165
923.333	3195
923.442	3089
923.55	3093
923.659	3081
923.767	3214
923.876	3123
923.984	3195
924.092	3081
924.201	3169
924.309	3199
924.417	3245
924.525	3161
924.633	3253
924.741	3994
924.849	3028
924.956	3237
925.064	3104
925.172	3047
925.279	3119
925.387	3173
925.494	3195
925.602	3340
925.709	3344
925.816	3218
925.924	3302
926.031	3370
926.138	3370
926.245	3348
926.352	3203
926.459	3389
926.566	3462
926.673	3317
926.779	3218
926.886	3233
926.993	3157
927.099	3165
927.206	3093
927.312	3135
927.419	3268
927.525	3222
927.631	3298
927.737	3146
927.843	3138
927.95	3009
928.056	3180
928.162	3169
928.267	3249
928.373	3861
928.479	3321
928.585	3047
928.69	3195
928.796	3237
928.901	3176
929.007	3051
929.112	3211
929.218	3211
929.323	3142
929.428	3142
929.533	3313
929.638	3104
929.743	3176
929.848	3268
929.953	3188
930.058	3154
930.163	3013
930.267	3074
930.372	3192
930.477	2998
930.581	3317
930.685	3199
930.79	3070
930.894	3119
930.998	3093
931.103	3275
931.207	2971
931.311	2963
931.415	2887
931.519	2785
931.623	2773
