Data from test_V78500241_1085.txt Node
Date: Fri Mar 25 16:22:43 CST 2022
User: usil
Spectrometer: V785-0024
Trigger mode: 0
Integration Time (sec): 4.000000E-1
Scans to average: 1
Nonlinearity correction enabled: false
Boxcar width: 0
Storing dark spectrum: false
XAxis mode: Wavelengths
Number of Pixels in Spectrum: 1024
>>>>>Begin Spectral Data<<<<<
801.071	2902
801.214	2982
801.356	2861
801.499	2880
801.641	2834
801.783	2914
801.926	3058
802.068	2944
802.211	2994
802.353	3032
802.496	2971
802.638	3001
802.78	3039
802.923	3066
803.065	3028
803.208	2883
803.35	2948
803.492	2925
803.635	2929
803.777	2750
803.919	2853
804.061	3207
804.204	2979
804.346	2937
804.488	2845
804.63	2990
804.773	2830
804.915	2922
805.057	3093
805.199	2948
805.341	2975
805.483	3051
805.626	3001
805.768	2967
805.91	3081
806.052	3116
806.194	3077
806.336	3237
806.478	3047
806.62	2986
806.762	2982
806.904	3039
807.046	3135
807.188	2948
807.33	2899
807.472	2967
807.614	2948
807.756	2956
807.898	2937
808.04	2883
808.182	3005
808.324	2948
808.465	2876
808.607	2891
808.749	2796
808.891	2838
809.033	2941
809.174	2971
809.316	2918
809.458	2895
809.6	2762
809.741	2788
809.883	2777
810.025	2834
810.166	2845
810.308	2853
810.45	2838
810.591	2777
810.733	2762
810.875	2838
811.016	2796
811.158	2750
811.299	2826
811.441	2910
811.582	2895
811.724	2830
811.865	2868
812.007	2910
812.148	2929
812.29	2849
812.431	2902
812.573	2941
812.714	2967
812.855	3013
812.997	3081
813.138	3112
813.279	2967
813.421	2971
813.562	2967
813.703	2872
813.845	2914
813.986	2807
814.127	2724
814.268	2834
814.41	2834
814.551	2849
814.692	2887
814.833	2872
814.974	2895
815.115	2925
815.256	2864
815.397	2800
815.539	2887
815.68	2796
815.821	2807
815.962	2956
816.103	2922
816.244	2887
816.385	2872
816.526	2982
816.666	2868
816.807	2769
816.948	2895
817.089	2918
817.23	2857
817.371	2781
817.512	2766
817.653	2819
817.793	2834
817.934	2899
818.075	2960
818.216	2982
818.356	2998
818.497	2868
818.638	2777
818.778	2811
818.919	2773
819.06	2724
819.2	2872
819.341	2804
819.481	2815
819.622	2929
819.762	3127
819.903	3028
820.043	2922
820.184	2918
820.324	2883
820.465	3017
820.605	3020
820.746	3009
820.886	2922
821.026	3085
821.167	3176
821.307	3268
821.447	3283
821.588	3218
821.728	3222
821.868	3188
822.008	3081
822.149	3165
822.289	3245
822.429	3085
822.569	3100
822.709	3195
822.849	3005
822.99	3028
823.13	3165
823.27	3184
823.41	3089
823.55	3108
823.69	3123
823.83	3195
823.97	3127
824.11	3001
824.25	2982
824.389	3043
824.529	3093
824.669	3066
824.809	3199
824.949	3249
825.089	3256
825.228	3165
825.368	3013
825.508	2937
825.648	2952
825.787	3017
825.927	3032
826.067	2948
826.206	2937
826.346	3024
826.485	3085
826.625	3070
826.765	3253
826.904	3157
827.044	2986
827.183	2922
827.323	2845
827.462	2937
827.601	2922
827.741	2880
827.88	2960
828.02	2807
828.159	2944
828.298	3032
828.437	3119
828.577	3039
828.716	3226
828.855	3089
828.994	2899
829.134	2876
829.273	2929
829.412	2876
829.551	2849
829.69	2876
829.829	2979
829.968	3135
830.107	3020
830.246	3028
830.385	2895
830.524	2864
830.663	2826
830.802	2712
830.941	2629
831.08	2644
831.219	2724
831.357	2739
831.496	2925
831.635	2697
831.774	2632
831.913	2667
832.051	2530
832.19	2598
832.329	2670
832.467	2530
832.606	2438
832.744	2571
832.883	2541
833.022	2560
833.16	2602
833.299	2678
833.437	2674
833.576	2682
833.714	2766
833.852	2724
833.991	2762
834.129	2845
834.267	2804
834.406	2769
834.544	2861
834.682	2853
834.821	2857
834.959	3077
835.097	2883
835.235	3062
835.373	3005
835.511	3032
835.65	2941
835.788	2982
835.926	2861
836.064	2815
836.202	2819
836.34	3055
836.478	3142
836.615	3017
836.753	3180
836.891	3195
837.029	3176
837.167	3112
837.305	3081
837.443	3051
837.58	2967
837.718	3112
837.856	3070
837.993	2994
838.131	3123
838.269	3100
838.406	3051
838.544	3051
838.681	2960
838.819	2895
838.956	2834
839.094	2849
839.231	2948
839.369	3017
839.506	3355
839.643	3218
839.781	3020
839.918	2960
840.055	3039
840.193	3028
840.33	3062
840.467	3047
840.604	3165
840.742	3382
840.879	3074
841.016	3020
841.153	3093
841.29	3310
841.427	3260
841.564	3260
841.701	3332
841.838	3180
841.975	3176
842.112	3237
842.249	3138
842.385	3055
842.522	3253
842.659	3085
842.796	3074
842.933	3097
843.069	3036
843.206	3024
843.343	3192
843.479	3123
843.616	3112
843.752	2906
843.889	2811
844.025	3051
844.162	2861
844.298	3116
844.435	2925
844.571	2910
844.708	3062
844.844	3176
844.98	3207
845.117	3173
845.253	3043
845.389	2994
845.525	3093
845.661	3066
845.798	3036
845.934	3100
846.07	3051
846.206	3245
846.342	3279
846.478	3211
846.614	3085
846.75	3085
846.886	3036
847.022	3211
847.158	3161
847.294	3157
847.429	3226
847.565	3222
847.701	3458
847.837	3043
847.972	2982
848.108	3157
848.244	3127
848.379	2982
848.515	2944
848.65	2906
848.786	2967
848.921	3047
849.057	3039
849.192	3138
849.328	3093
849.463	3131
849.598	3058
849.734	3013
849.869	2986
850.004	2941
850.14	2948
850.275	2883
850.41	2838
850.545	2922
850.68	2933
850.815	2941
850.95	2948
851.085	3157
851.22	3089
851.355	2979
851.49	2994
851.625	2971
851.76	3036
851.895	2933
852.03	2937
852.165	3020
852.299	3119
852.434	3146
852.569	3127
852.703	3173
852.838	3253
852.973	3279
853.107	3367
853.242	3150
853.376	3119
853.511	2967
853.645	3047
853.78	3195
853.914	3123
854.048	3093
854.183	3085
854.317	3165
854.451	3291
854.585	3135
854.72	3100
854.854	3207
854.988	3020
855.122	3085
855.256	3005
855.39	3100
855.524	3230
855.658	3199
855.792	3165
855.926	3195
856.06	3184
856.194	3302
856.327	3097
856.461	3108
856.595	3058
856.729	3119
856.862	3195
856.996	3157
857.13	3233
857.263	3214
857.397	3256
857.53	3116
857.664	3207
857.797	3272
857.931	3218
858.064	3176
858.197	3192
858.331	3123
858.464	3100
858.597	2994
858.731	3100
858.864	3085
858.997	3089
859.13	3157
859.263	3142
859.396	3161
859.529	3077
859.662	3085
859.795	3009
859.928	3138
860.061	3291
860.194	3275
860.327	3142
860.46	3112
860.592	3230
860.725	3279
860.858	3237
860.99	3093
861.123	3055
861.256	3077
861.388	3119
861.521	3797
861.653	2982
861.786	2975
861.918	2971
862.05	3066
862.183	3116
862.315	3146
862.447	3176
862.58	3074
862.712	2941
862.844	2880
862.976	3009
863.108	3017
863.24	3393
863.372	2883
863.504	2971
863.636	2937
863.768	3036
863.9	2971
864.032	2906
864.164	2941
864.296	3017
864.428	3116
864.559	3104
864.691	3058
864.823	3093
864.954	3032
865.086	3017
865.217	3005
865.349	2982
865.48	2979
865.612	2998
865.743	3123
865.875	2956
866.006	2941
866.137	2979
866.269	2952
866.4	2941
866.531	2895
866.662	2929
866.793	2895
866.924	2891
867.055	2979
867.186	2906
867.317	2857
867.448	2804
867.579	2857
867.71	2819
867.841	2826
867.972	2864
868.103	2887
868.233	2891
868.364	2868
868.495	2868
868.625	3066
868.756	3146
868.886	2967
869.017	3017
869.147	3165
869.278	3150
869.408	3028
869.539	3024
869.669	3097
869.799	3032
869.929	3142
870.06	3066
870.19	3313
870.32	3249
870.45	3283
870.58	3340
870.71	3428
870.84	3477
870.97	3298
871.1	3237
871.23	3485
871.36	3454
871.489	3321
871.619	3405
871.749	3401
871.879	3439
872.008	3447
872.138	3329
872.267	3245
872.397	3138
872.526	3062
872.656	3024
872.785	3119
872.915	3256
873.044	3325
873.173	3249
873.303	3207
873.432	3241
873.561	3230
873.69	3161
873.819	3127
873.948	3214
874.077	3093
874.206	3039
874.335	3100
874.464	3203
874.593	3336
874.722	3249
874.851	3367
874.979	3378
875.108	3317
875.237	3180
875.365	3199
875.494	3165
875.623	3230
875.751	3066
875.88	3112
876.008	3173
876.136	3241
876.265	3336
876.393	3488
876.521	3382
876.65	3382
876.778	3367
876.906	3203
877.034	3222
877.162	3184
877.29	3165
877.418	3283
877.546	3211
877.674	3222
877.802	3233
877.93	3226
878.058	3165
878.185	3089
878.313	3195
878.441	3154
878.568	3070
878.696	3146
878.824	3253
878.951	3279
879.079	3412
879.206	3587
879.333	3435
879.461	3310
879.588	3370
879.715	3492
879.842	3576
879.97	3393
880.097	3169
880.224	3138
880.351	3165
880.478	3184
880.605	3214
880.732	3207
880.859	3523
880.986	3325
881.112	3302
881.239	3214
881.366	3077
881.493	2994
881.619	3036
881.746	3058
881.872	3112
881.999	3100
882.125	3146
882.252	3256
882.378	3268
882.505	3409
882.631	3253
882.757	3123
882.883	3211
883.01	3245
883.136	3146
883.262	3108
883.388	3077
883.514	3275
883.64	3370
883.766	3253
883.892	3184
884.018	3241
884.143	3401
884.269	3534
884.395	3199
884.52	3165
884.646	3176
884.772	3123
884.897	3077
885.023	3207
885.148	3321
885.274	3409
885.399	3367
885.524	3336
885.65	3268
885.775	3294
885.9	3291
886.025	3450
886.15	3351
886.275	3283
886.4	3230
886.525	3287
886.65	3283
886.775	3256
886.9	3488
887.025	3652
887.149	3389
887.274	3245
887.399	3176
887.523	3184
887.648	3199
887.773	3184
887.897	3355
888.021	3355
888.146	3268
888.27	3420
888.395	3530
888.519	3450
888.643	3443
888.767	3477
888.891	3317
889.015	3218
889.139	3279
889.263	3222
889.387	3424
889.511	3500
889.635	3443
889.759	3260
889.883	3294
890.006	3405
890.13	3492
890.254	3249
890.377	3370
890.501	3188
890.624	3173
890.748	3298
890.871	3150
890.995	3085
891.118	3104
891.241	3222
891.364	3218
891.488	3272
891.611	3199
891.734	3199
891.857	3272
891.98	3214
892.103	3310
892.226	3256
892.349	3199
892.471	3119
892.594	3241
892.717	3268
892.839	3287
892.962	3340
893.085	3329
893.207	3294
893.33	3165
893.452	3176
893.575	3370
893.697	3272
893.819	3473
893.941	3466
894.064	3473
894.186	3241
894.308	3253
894.43	3447
894.552	3526
894.674	3435
894.796	3256
894.918	3291
895.04	3287
895.161	3435
895.283	3359
895.405	3268
895.526	3355
895.648	3439
895.769	3412
895.891	3412
896.012	3492
896.134	3466
896.255	3393
896.376	3367
896.498	3370
896.619	3401
896.74	3344
896.861	3416
896.982	3652
897.103	3823
897.224	3595
897.345	3477
897.466	3420
897.587	3523
897.708	3633
897.828	3534
897.949	3409
898.07	3294
898.19	3378
898.311	3591
898.431	3447
898.552	3507
898.672	3595
898.792	3576
898.913	3504
899.033	3405
899.153	3260
899.273	3226
899.393	3302
899.513	3340
899.633	3294
899.753	3317
899.873	3287
899.993	3386
900.113	3329
900.232	3382
900.352	3351
900.472	3279
900.591	3199
900.711	3279
900.83	3256
900.95	3401
901.069	3477
901.189	3382
901.308	3112
901.427	3157
901.546	3195
901.665	3313
901.784	3294
901.904	3188
902.023	3127
902.141	3036
902.26	3001
902.379	3173
902.498	3093
902.617	3055
902.735	3230
902.854	3241
902.973	3214
903.091	3058
903.21	3074
903.328	3104
903.446	3116
903.565	3116
903.683	3184
903.801	3119
903.919	3264
904.038	3253
904.156	3173
904.274	3294
904.392	3249
904.51	3268
904.627	3313
904.745	3439
904.863	3488
904.981	3253
905.098	3161
905.216	3226
905.334	3275
905.451	3363
905.569	3302
905.686	3416
905.803	3454
905.921	3294
906.038	3443
906.155	3321
906.272	3237
906.389	3329
906.506	3233
906.623	3260
906.74	3245
906.857	3203
906.974	3279
907.091	3458
907.208	3587
907.324	3454
907.441	3340
907.557	3233
907.674	3237
907.79	3222
907.907	3279
908.023	3287
908.139	3359
908.256	3298
908.372	3340
908.488	3340
908.604	3256
908.72	3230
908.836	3272
908.952	3287
909.068	3332
909.184	3458
909.3	3397
909.415	3473
909.531	3496
909.647	3291
909.762	3317
909.878	3264
909.993	3351
910.108	3351
910.224	3321
910.339	3397
910.454	3367
910.57	3256
910.685	3264
910.8	3595
910.915	3507
911.03	3428
911.145	3256
911.259	3268
911.374	3317
911.489	3222
911.604	3207
911.718	3093
911.833	3154
911.947	3036
912.062	2979
912.176	3150
912.291	3211
912.405	3176
912.519	3401
912.633	3462
912.748	3336
912.862	3256
912.976	3146
913.09	3032
913.204	3123
913.318	3214
913.431	3359
913.545	3313
913.659	3412
913.772	3317
913.886	3203
914	3184
914.113	3348
914.226	3416
914.34	3355
914.453	3222
914.566	3431
914.68	3287
914.793	3291
914.906	3150
915.019	3127
915.132	3089
915.245	3142
915.358	3218
915.47	3226
915.583	3241
915.696	3272
915.809	3389
915.921	3412
916.034	3249
916.146	3222
916.259	3211
916.371	3359
916.483	3363
916.595	3298
916.708	3363
916.82	3351
916.932	3336
917.044	3344
917.156	3351
917.268	3302
917.38	3291
917.491	3283
917.603	3370
917.715	3409
917.826	3454
917.938	3382
918.049	3272
918.161	3469
918.272	3599
918.384	3595
918.495	3469
918.606	3313
918.717	3253
918.828	3355
918.939	3409
919.05	3275
919.161	3386
919.272	3157
919.383	3264
919.494	3500
919.604	3682
919.715	3519
919.826	3431
919.936	3481
920.047	3564
920.157	3523
920.267	3789
920.378	3561
920.488	3584
920.598	3766
920.708	3941
920.818	3766
920.928	3823
921.038	4044
921.148	3979
921.258	3675
921.368	3671
921.477	3576
921.587	3549
921.697	3450
921.806	3622
921.916	3530
922.025	3351
922.134	3336
922.244	3294
922.353	3420
922.462	3275
922.571	3241
922.68	3127
922.789	3077
922.898	3119
923.007	3104
923.116	3180
923.224	3146
923.333	3146
923.442	3104
923.55	3077
923.659	3169
923.767	3195
923.876	3127
923.984	3268
924.092	3104
924.201	3176
924.309	3222
924.417	3253
924.525	3203
924.633	3237
924.741	4021
924.849	3017
924.956	3279
925.064	3093
925.172	3081
925.279	3097
925.387	3195
925.494	3195
925.602	3355
925.709	3321
925.816	3207
925.924	3279
926.031	3370
926.138	3317
926.245	3363
926.352	3237
926.459	3389
926.566	3454
926.673	3283
926.779	3272
926.886	3226
926.993	3131
927.099	3135
927.206	3131
927.312	3104
927.419	3245
927.525	3245
927.631	3279
927.737	3123
927.843	3119
927.95	3055
928.056	3108
928.162	3169
928.267	3260
928.373	3896
928.479	3283
928.585	3058
928.69	3222
928.796	3294
928.901	3192
929.007	3039
929.112	3195
929.218	3165
929.323	3104
929.428	3150
929.533	3283
929.638	3100
929.743	3176
929.848	3256
929.953	3199
930.058	3127
930.163	3017
930.267	3062
930.372	3222
930.477	3013
930.581	3279
930.685	3173
930.79	3074
930.894	3119
930.998	3100
931.103	3272
931.207	2982
931.311	2922
931.415	2899
931.519	2785
931.623	2796
