Data from test_V78500241_227.txt Node
Date: Fri Mar 25 16:16:46 CST 2022
User: usil
Spectrometer: V785-0024
Trigger mode: 0
Integration Time (sec): 4.000000E-1
Scans to average: 1
Nonlinearity correction enabled: false
Boxcar width: 0
Storing dark spectrum: false
XAxis mode: Wavelengths
Number of Pixels in Spectrum: 1024
>>>>>Begin Spectral Data<<<<<
801.071	2922
801.214	2994
801.356	2883
801.499	2952
801.641	2891
801.783	2944
801.926	3020
802.068	2994
802.211	3017
802.353	3062
802.496	2990
802.638	3043
802.78	3112
802.923	3081
803.065	3074
803.208	2960
803.35	2925
803.492	2941
803.635	2914
803.777	2785
803.919	2853
804.061	3272
804.204	2990
804.346	2929
804.488	2883
804.63	3017
804.773	2948
804.915	2967
805.057	3104
805.199	2952
805.341	2998
805.483	3070
805.626	3024
805.768	3005
805.91	3066
806.052	3146
806.194	3036
806.336	3275
806.478	3066
806.62	2975
806.762	3001
806.904	3074
807.046	3176
807.188	2990
807.33	2960
807.472	2998
807.614	2929
807.756	2994
807.898	2975
808.04	2944
808.182	2990
808.324	2975
808.465	2914
808.607	2895
808.749	2826
808.891	2876
809.033	2963
809.174	3001
809.316	2902
809.458	2933
809.6	2815
809.741	2792
809.883	2788
810.025	2876
810.166	2895
810.308	2845
810.45	2864
810.591	2811
810.733	2811
810.875	2842
811.016	2807
811.158	2769
811.299	2807
811.441	2963
811.582	2899
811.724	2792
811.865	2864
812.007	2937
812.148	2925
812.29	2918
812.431	2914
812.573	2952
812.714	2975
812.855	3089
812.997	3051
813.138	3150
813.279	3070
813.421	2994
813.562	3013
813.703	2902
813.845	2876
813.986	2807
814.127	2743
814.268	2853
814.41	2861
814.551	2823
814.692	2918
814.833	2857
814.974	2941
815.115	3001
815.256	2823
815.397	2853
815.539	2883
815.68	2811
815.821	2807
815.962	2963
816.103	2933
816.244	2876
816.385	2895
816.526	2971
816.666	2891
816.807	2773
816.948	2937
817.089	2948
817.23	2842
817.371	2766
817.512	2819
817.653	2838
817.793	2838
817.934	2880
818.075	2982
818.216	3020
818.356	3047
818.497	2937
818.638	2842
818.778	2849
818.919	2826
819.06	2796
819.2	2918
819.341	2804
819.481	2807
819.622	2944
819.762	3123
819.903	3062
820.043	2929
820.184	2910
820.324	2887
820.465	3017
820.605	2994
820.746	3051
820.886	2952
821.026	3123
821.167	3116
821.307	3306
821.447	3279
821.588	3214
821.728	3230
821.868	3253
822.008	3089
822.149	3157
822.289	3237
822.429	3100
822.569	3100
822.709	3207
822.849	3039
822.99	3085
823.13	3176
823.27	3230
823.41	3119
823.55	3169
823.69	3161
823.83	3211
823.97	3116
824.11	3005
824.25	3020
824.389	3123
824.529	3093
824.669	3028
824.809	3226
824.949	3275
825.089	3245
825.228	3169
825.368	2990
825.508	2975
825.648	3005
825.787	3024
825.927	3043
826.067	2975
826.206	2952
826.346	3074
826.485	3055
826.625	3135
826.765	3272
826.904	3268
827.044	2998
827.183	2956
827.323	2868
827.462	2975
827.601	2925
827.741	2937
827.88	3001
828.02	2857
828.159	2979
828.298	3043
828.437	3150
828.577	3058
828.716	3287
828.855	3100
828.994	2922
829.134	2914
829.273	2929
829.412	2830
829.551	2868
829.69	2922
829.829	2998
829.968	3131
830.107	3051
830.246	3077
830.385	2895
830.524	2914
830.663	2823
830.802	2739
830.941	2667
831.08	2682
831.219	2762
831.357	2807
831.496	3005
831.635	2739
831.774	2701
831.913	2667
832.051	2583
832.19	2590
832.329	2659
832.467	2541
832.606	2499
832.744	2602
832.883	2602
833.022	2606
833.16	2640
833.299	2697
833.437	2724
833.576	2686
833.714	2712
833.852	2731
833.991	2785
834.129	2880
834.267	2819
834.406	2842
834.544	2872
834.682	2883
834.821	2929
834.959	3093
835.097	2883
835.235	3039
835.373	2998
835.511	3017
835.65	2960
835.788	2952
835.926	2883
836.064	2826
836.202	2857
836.34	3070
836.478	3161
836.615	3043
836.753	3127
836.891	3222
837.029	3169
837.167	3127
837.305	3051
837.443	3017
837.58	2952
837.718	3116
837.856	3070
837.993	3070
838.131	3108
838.269	3119
838.406	3100
838.544	3097
838.681	2960
838.819	2937
838.956	2819
839.094	2838
839.231	2967
839.369	3070
839.506	3428
839.643	3211
839.781	2986
839.918	2994
840.055	3024
840.193	3024
840.33	3085
840.467	3097
840.604	3135
840.742	3409
840.879	3074
841.016	3070
841.153	3142
841.29	3363
841.427	3313
841.564	3294
841.701	3355
841.838	3226
841.975	3226
842.112	3184
842.249	3077
842.385	3070
842.522	3245
842.659	3097
842.796	3097
842.933	3131
843.069	3089
843.206	3055
843.343	3169
843.479	3097
843.616	3146
843.752	2922
843.889	2902
844.025	3127
844.162	2883
844.298	3100
844.435	2963
844.571	2929
844.708	3108
844.844	3226
844.98	3256
845.117	3203
845.253	3081
845.389	3009
845.525	3119
845.661	3089
845.798	3024
845.934	3161
846.07	3070
846.206	3211
846.342	3329
846.478	3249
846.614	3062
846.75	3108
846.886	3013
847.022	3230
847.158	3135
847.294	3211
847.429	3291
847.565	3237
847.701	3466
847.837	3043
847.972	3020
848.108	3173
848.244	3169
848.379	2986
848.515	2941
848.65	2952
848.786	2960
848.921	3039
849.057	3123
849.192	3176
849.328	3081
849.463	3127
849.598	3055
849.734	3051
849.869	3001
850.004	2929
850.14	2986
850.275	2910
850.41	2887
850.545	2906
850.68	2952
850.815	2971
850.95	2971
851.085	3188
851.22	3116
851.355	3032
851.49	2998
851.625	3020
851.76	3005
851.895	2941
852.03	2937
852.165	3062
852.299	3131
852.434	3173
852.569	3199
852.703	3119
852.838	3249
852.973	3332
853.107	3351
853.242	3135
853.376	3077
853.511	2986
853.645	3081
853.78	3218
853.914	3146
854.048	3142
854.183	3100
854.317	3195
854.451	3332
854.585	3100
854.72	3070
854.854	3222
854.988	3062
855.122	3104
855.256	2971
855.39	3135
855.524	3249
855.658	3199
855.792	3173
855.926	3195
856.06	3195
856.194	3241
856.327	3142
856.461	3074
856.595	3089
856.729	3104
856.862	3214
856.996	3214
857.13	3230
857.263	3207
857.397	3256
857.53	3142
857.664	3207
857.797	3260
857.931	3302
858.064	3150
858.197	3222
858.331	3173
858.464	3138
858.597	3017
858.731	3131
858.864	3150
858.997	3123
859.13	3173
859.263	3192
859.396	3188
859.529	3081
859.662	3074
859.795	3055
859.928	3165
860.061	3298
860.194	3302
860.327	3138
860.46	3100
860.592	3260
860.725	3241
860.858	3264
860.99	3077
861.123	3066
861.256	3070
861.388	3154
861.521	3873
861.653	3032
861.786	3001
861.918	3013
862.05	3039
862.183	3085
862.315	3161
862.447	3214
862.58	3074
862.712	2922
862.844	2883
862.976	3009
863.108	3024
863.24	3370
863.372	2929
863.504	2994
863.636	2941
863.768	3047
863.9	3017
864.032	2902
864.164	2963
864.296	3020
864.428	3104
864.559	3135
864.691	3077
864.823	3039
864.954	3066
865.086	3062
865.217	3032
865.349	2967
865.48	2986
865.612	2986
865.743	3180
865.875	3005
866.006	2925
866.137	2975
866.269	2960
866.4	2941
866.531	2910
866.662	2902
866.793	2853
866.924	2906
867.055	2975
867.186	2937
867.317	2868
867.448	2861
867.579	2826
867.71	2845
867.841	2834
867.972	2933
868.103	2899
868.233	2910
868.364	2883
868.495	2922
868.625	3081
868.756	3222
868.886	2960
869.017	3013
869.147	3218
869.278	3173
869.408	3036
869.539	3028
869.669	3089
869.799	3039
869.929	3150
870.06	3104
870.19	3317
870.32	3291
870.45	3275
870.58	3348
870.71	3473
870.84	3485
870.97	3298
871.1	3256
871.23	3500
871.36	3458
871.489	3386
871.619	3412
871.749	3420
871.879	3443
872.008	3500
872.138	3359
872.267	3256
872.397	3157
872.526	3104
872.656	3036
872.785	3100
872.915	3249
873.044	3332
873.173	3245
873.303	3287
873.432	3214
873.561	3264
873.69	3176
873.819	3184
873.948	3165
874.077	3138
874.206	3066
874.335	3077
874.464	3195
874.593	3310
874.722	3294
874.851	3393
874.979	3355
875.108	3340
875.237	3192
875.365	3188
875.494	3173
875.623	3237
875.751	3077
875.88	3100
876.008	3214
876.136	3245
876.265	3412
876.393	3511
876.521	3409
876.65	3409
876.778	3378
876.906	3302
877.034	3222
877.162	3264
877.29	3199
877.418	3291
877.546	3264
877.674	3268
877.802	3298
877.93	3264
878.058	3123
878.185	3085
878.313	3222
878.441	3214
878.568	3077
878.696	3142
878.824	3222
878.951	3363
879.079	3401
879.206	3625
879.333	3447
879.461	3374
879.588	3351
879.715	3447
879.842	3591
879.97	3401
880.097	3199
880.224	3135
880.351	3195
880.478	3245
880.605	3184
880.732	3199
880.859	3488
880.986	3275
881.112	3367
881.239	3226
881.366	3119
881.493	3077
881.619	3032
881.746	3066
881.872	3108
881.999	3097
882.125	3138
882.252	3218
882.378	3294
882.505	3420
882.631	3275
882.757	3135
882.883	3233
883.01	3211
883.136	3173
883.262	3070
883.388	3077
883.514	3355
883.64	3374
883.766	3272
883.892	3203
884.018	3253
884.143	3435
884.269	3538
884.395	3218
884.52	3135
884.646	3176
884.772	3104
884.897	3104
885.023	3245
885.148	3340
885.274	3420
885.399	3340
885.524	3325
885.65	3264
885.775	3306
885.9	3291
886.025	3424
886.15	3363
886.275	3283
886.4	3275
886.525	3321
886.65	3256
886.775	3283
886.9	3477
887.025	3633
887.149	3447
887.274	3272
887.399	3176
887.523	3180
887.648	3180
887.773	3226
887.897	3367
888.021	3420
888.146	3332
888.27	3420
888.395	3538
888.519	3420
888.643	3462
888.767	3450
888.891	3294
889.015	3264
889.139	3272
889.263	3233
889.387	3393
889.511	3500
889.635	3447
889.759	3321
889.883	3287
890.006	3416
890.13	3466
890.254	3256
890.377	3351
890.501	3207
890.624	3188
890.748	3313
890.871	3199
890.995	3123
891.118	3051
891.241	3222
891.364	3226
891.488	3313
891.611	3203
891.734	3272
891.857	3294
891.98	3218
892.103	3325
892.226	3249
892.349	3207
892.471	3116
892.594	3222
892.717	3249
892.839	3256
892.962	3287
893.085	3351
893.207	3336
893.33	3138
893.452	3203
893.575	3370
893.697	3275
893.819	3504
893.941	3526
894.064	3439
894.186	3256
894.308	3287
894.43	3458
894.552	3561
894.674	3477
894.796	3287
894.918	3359
895.04	3249
895.161	3409
895.283	3412
895.405	3310
895.526	3344
895.648	3454
895.769	3401
895.891	3477
896.012	3458
896.134	3450
896.255	3428
896.376	3370
896.498	3412
896.619	3416
896.74	3401
896.861	3466
896.982	3660
897.103	3857
897.224	3618
897.345	3519
897.466	3450
897.587	3500
897.708	3603
897.828	3561
897.949	3481
898.07	3294
898.19	3428
898.311	3564
898.431	3466
898.552	3507
898.672	3614
898.792	3587
898.913	3538
899.033	3378
899.153	3321
899.273	3203
899.393	3294
899.513	3336
899.633	3317
899.753	3370
899.873	3313
899.993	3382
900.113	3348
900.232	3393
900.352	3325
900.472	3268
900.591	3214
900.711	3317
900.83	3230
900.95	3416
901.069	3496
901.189	3397
901.308	3192
901.427	3150
901.546	3199
901.665	3294
901.784	3348
901.904	3195
902.023	3188
902.141	3028
902.26	2979
902.379	3150
902.498	3097
902.617	3039
902.735	3195
902.854	3237
902.973	3218
903.091	3081
903.21	3070
903.328	3135
903.446	3093
903.565	3104
903.683	3207
903.801	3161
903.919	3230
904.038	3287
904.156	3150
904.274	3298
904.392	3241
904.51	3279
904.627	3321
904.745	3458
904.863	3507
904.981	3260
905.098	3192
905.216	3211
905.334	3310
905.451	3283
905.569	3313
905.686	3450
905.803	3424
905.921	3310
906.038	3450
906.155	3359
906.272	3310
906.389	3351
906.506	3230
906.623	3253
906.74	3253
906.857	3199
906.974	3260
907.091	3462
907.208	3564
907.324	3488
907.441	3374
907.557	3222
907.674	3264
907.79	3233
907.907	3294
908.023	3386
908.139	3397
908.256	3321
908.372	3351
908.488	3386
908.604	3298
908.72	3256
908.836	3302
908.952	3260
909.068	3355
909.184	3515
909.3	3401
909.415	3542
909.531	3443
909.647	3253
909.762	3313
909.878	3268
909.993	3401
910.108	3348
910.224	3374
910.339	3428
910.454	3351
910.57	3298
910.685	3256
910.8	3580
910.915	3568
911.03	3458
911.145	3275
911.259	3317
911.374	3298
911.489	3287
911.604	3230
911.718	3119
911.833	3135
911.947	3058
912.062	3001
912.176	3161
912.291	3256
912.405	3218
912.519	3428
912.633	3477
912.748	3393
912.862	3302
912.976	3199
913.09	3108
913.204	3146
913.318	3222
913.431	3370
913.545	3351
913.659	3458
913.772	3344
913.886	3195
914	3226
914.113	3370
914.226	3386
914.34	3367
914.453	3245
914.566	3424
914.68	3283
914.793	3298
914.906	3138
915.019	3146
915.132	3127
915.245	3154
915.358	3230
915.47	3226
915.583	3279
915.696	3291
915.809	3416
915.921	3431
916.034	3237
916.146	3279
916.259	3214
916.371	3389
916.483	3367
916.595	3264
916.708	3294
916.82	3363
916.932	3325
917.044	3363
917.156	3340
917.268	3256
917.38	3336
917.491	3344
917.603	3374
917.715	3443
917.826	3447
917.938	3378
918.049	3325
918.161	3416
918.272	3587
918.384	3595
918.495	3496
918.606	3332
918.717	3264
918.828	3359
918.939	3431
919.05	3336
919.161	3351
919.272	3199
919.383	3287
919.494	3534
919.604	3717
919.715	3504
919.826	3462
919.936	3458
920.047	3584
920.157	3538
920.267	3781
920.378	3603
920.488	3580
920.598	3808
920.708	3979
920.818	3789
920.928	3838
921.038	4036
921.148	4013
921.258	3724
921.368	3667
921.477	3572
921.587	3530
921.697	3443
921.806	3629
921.916	3485
922.025	3363
922.134	3409
922.244	3291
922.353	3409
922.462	3298
922.571	3214
922.68	3108
922.789	3108
922.898	3180
923.007	3123
923.116	3253
923.224	3207
923.333	3214
923.442	3108
923.55	3085
923.659	3131
923.767	3211
923.876	3104
923.984	3249
924.092	3138
924.201	3214
924.309	3233
924.417	3275
924.525	3233
924.633	3264
924.741	4181
924.849	3089
924.956	3283
925.064	3089
925.172	3036
925.279	3146
925.387	3218
925.494	3237
925.602	3378
925.709	3367
925.816	3180
925.924	3283
926.031	3382
926.138	3329
926.245	3382
926.352	3241
926.459	3450
926.566	3450
926.673	3332
926.779	3275
926.886	3283
926.993	3184
927.099	3142
927.206	3100
927.312	3119
927.419	3245
927.525	3245
927.631	3310
927.737	3146
927.843	3142
927.95	3036
928.056	3176
928.162	3165
928.267	3275
928.373	3884
928.479	3298
928.585	3100
928.69	3253
928.796	3279
928.901	3146
929.007	3051
929.112	3233
929.218	3192
929.323	3138
929.428	3165
929.533	3344
929.638	3157
929.743	3157
929.848	3272
929.953	3203
930.058	3131
930.163	3020
930.267	3066
930.372	3214
930.477	3077
930.581	3336
930.685	3195
930.79	3062
930.894	3157
930.998	3104
931.103	3291
931.207	2990
931.311	2941
931.415	2944
931.519	2777
931.623	2849
