Data from test_V78500241_202.txt Node
Date: Fri Mar 25 16:16:36 CST 2022
User: usil
Spectrometer: V785-0024
Trigger mode: 0
Integration Time (sec): 4.000000E-1
Scans to average: 1
Nonlinearity correction enabled: false
Boxcar width: 0
Storing dark spectrum: false
XAxis mode: Wavelengths
Number of Pixels in Spectrum: 1024
>>>>>Begin Spectral Data<<<<<
801.071	2990
801.214	2986
801.356	2918
801.499	2922
801.641	2918
801.783	3009
801.926	3112
802.068	3028
802.211	3032
802.353	3066
802.496	2998
802.638	3074
802.78	3104
802.923	3127
803.065	3070
803.208	2933
803.35	2967
803.492	2990
803.635	2986
803.777	2834
803.919	2887
804.061	3241
804.204	3020
804.346	2979
804.488	2868
804.63	3058
804.773	2906
804.915	2963
805.057	3119
805.199	2960
805.341	3020
805.483	3116
805.626	3043
805.768	3039
805.91	3157
806.052	3184
806.194	3093
806.336	3279
806.478	3039
806.62	3013
806.762	3039
806.904	3089
807.046	3230
807.188	3028
807.33	2979
807.472	3066
807.614	2967
807.756	3009
807.898	2967
808.04	2960
808.182	3005
808.324	3039
808.465	2918
808.607	2922
808.749	2872
808.891	2895
809.033	3024
809.174	3009
809.316	2941
809.458	2929
809.6	2807
809.741	2826
809.883	2785
810.025	2910
810.166	2902
810.308	2895
810.45	2895
810.591	2815
810.733	2838
810.875	2864
811.016	2788
811.158	2819
811.299	2849
811.441	2998
811.582	2910
811.724	2864
811.865	2864
812.007	2929
812.148	2895
812.29	2895
812.431	2944
812.573	2971
812.714	3013
812.855	3070
812.997	3062
813.138	3173
813.279	3047
813.421	2998
813.562	3032
813.703	2925
813.845	2967
813.986	2819
814.127	2796
814.268	2861
814.41	2864
814.551	2857
814.692	2925
814.833	2876
814.974	2952
815.115	2967
815.256	2883
815.397	2842
815.539	2922
815.68	2838
815.821	2845
815.962	2986
816.103	2963
816.244	2895
816.385	2887
816.526	3017
816.666	2963
816.807	2788
816.948	2944
817.089	2929
817.23	2918
817.371	2811
817.512	2834
817.653	2842
817.793	2857
817.934	2952
818.075	2986
818.216	3036
818.356	3043
818.497	2929
818.638	2800
818.778	2887
818.919	2823
819.06	2796
819.2	2922
819.341	2815
819.481	2845
819.622	2990
819.762	3169
819.903	3097
820.043	2925
820.184	2963
820.324	2948
820.465	3051
820.605	3089
820.746	3066
820.886	2963
821.026	3142
821.167	3199
821.307	3321
821.447	3351
821.588	3287
821.728	3253
821.868	3272
822.008	3085
822.149	3233
822.289	3226
822.429	3135
822.569	3127
822.709	3211
822.849	3074
822.99	3104
823.13	3241
823.27	3241
823.41	3157
823.55	3169
823.69	3188
823.83	3226
823.97	3154
824.11	3051
824.25	3039
824.389	3127
824.529	3188
824.669	3104
824.809	3203
824.949	3283
825.089	3241
825.228	3222
825.368	3039
825.508	2982
825.648	2967
825.787	3039
825.927	3036
826.067	3009
826.206	2994
826.346	3058
826.485	3100
826.625	3146
826.765	3321
826.904	3245
827.044	3028
827.183	2975
827.323	2933
827.462	3013
827.601	2960
827.741	2979
827.88	2982
828.02	2902
828.159	3005
828.298	3051
828.437	3184
828.577	3089
828.716	3294
828.855	3154
828.994	2952
829.134	2937
829.273	2967
829.412	2876
829.551	2883
829.69	2925
829.829	3039
829.968	3135
830.107	3036
830.246	3036
830.385	2952
830.524	2914
830.663	2857
830.802	2792
830.941	2693
831.08	2670
831.219	2811
831.357	2796
831.496	2975
831.635	2739
831.774	2693
831.913	2716
832.051	2564
832.19	2613
832.329	2705
832.467	2568
832.606	2503
832.744	2610
832.883	2590
833.022	2606
833.16	2697
833.299	2724
833.437	2705
833.576	2731
833.714	2750
833.852	2754
833.991	2785
834.129	2891
834.267	2887
834.406	2796
834.544	2899
834.682	2899
834.821	2925
834.959	3104
835.097	2963
835.235	3074
835.373	3039
835.511	3055
835.65	2994
835.788	2986
835.926	2857
836.064	2842
836.202	2910
836.34	3135
836.478	3169
836.615	3081
836.753	3161
836.891	3241
837.029	3192
837.167	3180
837.305	3093
837.443	3070
837.58	3032
837.718	3180
837.856	3116
837.993	3058
838.131	3173
838.269	3104
838.406	3161
838.544	3131
838.681	2963
838.819	2937
838.956	2826
839.094	2842
839.231	2963
839.369	3074
839.506	3450
839.643	3245
839.781	3058
839.918	2990
840.055	3039
840.193	3085
840.33	3104
840.467	3146
840.604	3176
840.742	3450
840.879	3085
841.016	3051
841.153	3131
841.29	3351
841.427	3359
841.564	3317
841.701	3313
841.838	3264
841.975	3218
842.112	3260
842.249	3100
842.385	3066
842.522	3287
842.659	3123
842.796	3055
842.933	3157
843.069	3032
843.206	3093
843.343	3184
843.479	3173
843.616	3180
843.752	2941
843.889	2895
844.025	3112
844.162	2891
844.298	3127
844.435	2975
844.571	2967
844.708	3135
844.844	3245
844.98	3256
845.117	3287
845.253	3085
845.389	3009
845.525	3146
845.661	3116
845.798	3005
845.934	3119
846.07	3104
846.206	3260
846.342	3313
846.478	3230
846.614	3093
846.75	3070
846.886	3077
847.022	3264
847.158	3157
847.294	3184
847.429	3294
847.565	3253
847.701	3523
847.837	3074
847.972	3066
848.108	3199
848.244	3184
848.379	2979
848.515	2960
848.65	2982
848.786	2982
848.921	3036
849.057	3127
849.192	3176
849.328	3077
849.463	3138
849.598	3089
849.734	3032
849.869	3009
850.004	2971
850.14	2994
850.275	2902
850.41	2887
850.545	2922
850.68	2929
850.815	2967
850.95	2979
851.085	3203
851.22	3119
851.355	3043
851.49	3047
851.625	3013
851.76	3043
851.895	2963
852.03	2922
852.165	3043
852.299	3165
852.434	3169
852.569	3188
852.703	3218
852.838	3241
852.973	3393
853.107	3325
853.242	3176
853.376	3116
853.511	3032
853.645	3055
853.78	3249
853.914	3146
854.048	3135
854.183	3135
854.317	3161
854.451	3313
854.585	3157
854.72	3104
854.854	3211
854.988	3081
855.122	3127
855.256	3001
855.39	3112
855.524	3249
855.658	3222
855.792	3169
855.926	3214
856.06	3237
856.194	3283
856.327	3157
856.461	3077
856.595	3089
856.729	3081
856.862	3211
856.996	3199
857.13	3233
857.263	3241
857.397	3313
857.53	3119
857.664	3237
857.797	3214
857.931	3291
858.064	3192
858.197	3291
858.331	3138
858.464	3112
858.597	3055
858.731	3173
858.864	3154
858.997	3138
859.13	3150
859.263	3207
859.396	3241
859.529	3070
859.662	3093
859.795	3077
859.928	3169
860.061	3294
860.194	3306
860.327	3176
860.46	3161
860.592	3287
860.725	3287
860.858	3294
860.99	3123
861.123	3066
861.256	3039
861.388	3154
861.521	3892
861.653	3024
861.786	3039
861.918	3013
862.05	3074
862.183	3104
862.315	3135
862.447	3207
862.58	3108
862.712	2986
862.844	2906
862.976	3074
863.108	3009
863.24	3348
863.372	2872
863.504	3001
863.636	2979
863.768	3047
863.9	2986
864.032	2922
864.164	2933
864.296	3028
864.428	3123
864.559	3116
864.691	3077
864.823	3100
864.954	3070
865.086	3093
865.217	3055
865.349	2941
865.48	3013
865.612	3020
865.743	3169
865.875	3024
866.006	2979
866.137	3001
866.269	2986
866.4	2948
866.531	2956
866.662	2906
866.793	2929
866.924	2960
867.055	2982
867.186	2956
867.317	2906
867.448	2883
867.579	2861
867.71	2868
867.841	2845
867.972	2914
868.103	2895
868.233	2895
868.364	2891
868.495	2963
868.625	3100
868.756	3192
868.886	3013
869.017	3032
869.147	3150
869.278	3161
869.408	3081
869.539	3024
869.669	3119
869.799	3058
869.929	3150
870.06	3108
870.19	3355
870.32	3275
870.45	3306
870.58	3401
870.71	3473
870.84	3450
870.97	3283
871.1	3264
871.23	3492
871.36	3458
871.489	3355
871.619	3431
871.749	3504
871.879	3435
872.008	3507
872.138	3412
872.267	3272
872.397	3169
872.526	3146
872.656	3032
872.785	3093
872.915	3245
873.044	3325
873.173	3233
873.303	3226
873.432	3214
873.561	3245
873.69	3165
873.819	3154
873.948	3222
874.077	3100
874.206	3104
874.335	3127
874.464	3233
874.593	3344
874.722	3249
874.851	3458
874.979	3378
875.108	3325
875.237	3188
875.365	3199
875.494	3195
875.623	3279
875.751	3085
875.88	3150
876.008	3214
876.136	3230
876.265	3378
876.393	3523
876.521	3382
876.65	3405
876.778	3378
876.906	3279
877.034	3214
877.162	3241
877.29	3207
877.418	3264
877.546	3283
877.674	3283
877.802	3230
877.93	3233
878.058	3146
878.185	3119
878.313	3268
878.441	3180
878.568	3131
878.696	3146
878.824	3291
878.951	3310
879.079	3477
879.206	3580
879.333	3420
879.461	3332
879.588	3389
879.715	3485
879.842	3606
879.97	3405
880.097	3188
880.224	3138
880.351	3260
880.478	3226
880.605	3214
880.732	3199
880.859	3526
880.986	3321
881.112	3351
881.239	3253
881.366	3116
881.493	3043
881.619	3039
881.746	3066
881.872	3062
881.999	3074
882.125	3131
882.252	3203
882.378	3283
882.505	3454
882.631	3310
882.757	3157
882.883	3233
883.01	3249
883.136	3161
883.262	3093
883.388	3119
883.514	3321
883.64	3397
883.766	3332
883.892	3211
884.018	3249
884.143	3439
884.269	3538
884.395	3237
884.52	3222
884.646	3214
884.772	3188
884.897	3127
885.023	3203
885.148	3325
885.274	3401
885.399	3351
885.524	3294
885.65	3283
885.775	3310
885.9	3291
886.025	3428
886.15	3378
886.275	3313
886.4	3283
886.525	3348
886.65	3291
886.775	3306
886.9	3492
887.025	3679
887.149	3416
887.274	3302
887.399	3195
887.523	3173
887.648	3199
887.773	3211
887.897	3374
888.021	3416
888.146	3310
888.27	3443
888.395	3564
888.519	3458
888.643	3469
888.767	3488
888.891	3336
889.015	3249
889.139	3279
889.263	3233
889.387	3428
889.511	3507
889.635	3485
889.759	3298
889.883	3332
890.006	3363
890.13	3492
890.254	3283
890.377	3386
890.501	3230
890.624	3245
890.748	3317
890.871	3188
890.995	3142
891.118	3070
891.241	3169
891.364	3253
891.488	3332
891.611	3195
891.734	3195
891.857	3283
891.98	3283
892.103	3332
892.226	3329
892.349	3211
892.471	3138
892.594	3256
892.717	3272
892.839	3237
892.962	3306
893.085	3336
893.207	3359
893.33	3157
893.452	3245
893.575	3351
893.697	3253
893.819	3473
893.941	3523
894.064	3447
894.186	3253
894.308	3279
894.43	3428
894.552	3561
894.674	3466
894.796	3302
894.918	3329
895.04	3317
895.161	3424
895.283	3397
895.405	3370
895.526	3355
895.648	3458
895.769	3435
895.891	3473
896.012	3507
896.134	3477
896.255	3443
896.376	3370
896.498	3340
896.619	3466
896.74	3393
896.861	3416
896.982	3717
897.103	3835
897.224	3667
897.345	3523
897.466	3439
897.587	3523
897.708	3618
897.828	3576
897.949	3504
898.07	3359
898.19	3435
898.311	3584
898.431	3488
898.552	3519
898.672	3584
898.792	3576
898.913	3561
899.033	3443
899.153	3268
899.273	3218
899.393	3306
899.513	3325
899.633	3336
899.753	3344
899.873	3313
899.993	3431
900.113	3393
900.232	3405
900.352	3313
900.472	3283
900.591	3233
900.711	3306
900.83	3237
900.95	3439
901.069	3511
901.189	3374
901.308	3176
901.427	3131
901.546	3226
901.665	3306
901.784	3367
901.904	3245
902.023	3131
902.141	3051
902.26	3024
902.379	3146
902.498	3081
902.617	3070
902.735	3226
902.854	3230
902.973	3203
903.091	3074
903.21	3058
903.328	3127
903.446	3123
903.565	3100
903.683	3233
903.801	3180
903.919	3226
904.038	3306
904.156	3157
904.274	3310
904.392	3253
904.51	3317
904.627	3332
904.745	3435
904.863	3481
904.981	3268
905.098	3165
905.216	3279
905.334	3306
905.451	3272
905.569	3329
905.686	3428
905.803	3435
905.921	3287
906.038	3481
906.155	3405
906.272	3249
906.389	3359
906.506	3268
906.623	3268
906.74	3294
906.857	3180
906.974	3291
907.091	3500
907.208	3549
907.324	3477
907.441	3370
907.557	3268
907.674	3256
907.79	3207
907.907	3294
908.023	3370
908.139	3389
908.256	3321
908.372	3405
908.488	3363
908.604	3287
908.72	3279
908.836	3268
908.952	3249
909.068	3325
909.184	3462
909.3	3447
909.415	3485
909.531	3454
909.647	3291
909.762	3287
909.878	3256
909.993	3397
910.108	3386
910.224	3332
910.339	3405
910.454	3378
910.57	3313
910.685	3249
910.8	3625
910.915	3561
911.03	3450
911.145	3241
911.259	3344
911.374	3336
911.489	3237
911.604	3241
911.718	3112
911.833	3195
911.947	3047
912.062	3020
912.176	3199
912.291	3176
912.405	3241
912.519	3412
912.633	3462
912.748	3325
912.862	3253
912.976	3150
913.09	3058
913.204	3150
913.318	3237
913.431	3374
913.545	3336
913.659	3401
913.772	3351
913.886	3245
914	3226
914.113	3351
914.226	3431
914.34	3382
914.453	3233
914.566	3450
914.68	3306
914.793	3332
914.906	3184
915.019	3135
915.132	3100
915.245	3176
915.358	3222
915.47	3237
915.583	3233
915.696	3298
915.809	3454
915.921	3397
916.034	3260
916.146	3256
916.259	3249
916.371	3405
916.483	3359
916.595	3294
916.708	3321
916.82	3336
916.932	3336
917.044	3370
917.156	3340
917.268	3245
917.38	3340
917.491	3268
917.603	3351
917.715	3481
917.826	3515
917.938	3439
918.049	3313
918.161	3466
918.272	3652
918.384	3561
918.495	3511
918.606	3317
918.717	3279
918.828	3370
918.939	3424
919.05	3329
919.161	3355
919.272	3157
919.383	3283
919.494	3515
919.604	3701
919.715	3504
919.826	3412
919.936	3454
920.047	3576
920.157	3561
920.267	3816
920.378	3603
920.488	3584
920.598	3766
920.708	3949
920.818	3911
920.928	3827
921.038	4006
921.148	3979
921.258	3743
921.368	3663
921.477	3561
921.587	3587
921.697	3435
921.806	3637
921.916	3523
922.025	3367
922.134	3355
922.244	3340
922.353	3447
922.462	3310
922.571	3241
922.68	3138
922.789	3074
922.898	3108
923.007	3119
923.116	3249
923.224	3192
923.333	3180
923.442	3093
923.55	3116
923.659	3180
923.767	3214
923.876	3146
923.984	3253
924.092	3093
924.201	3203
924.309	3214
924.417	3253
924.525	3241
924.633	3237
924.741	4188
924.849	3039
924.956	3245
925.064	3097
925.172	3055
925.279	3108
925.387	3199
925.494	3199
925.602	3374
925.709	3321
925.816	3203
925.924	3313
926.031	3367
926.138	3340
926.245	3359
926.352	3291
926.459	3428
926.566	3473
926.673	3306
926.779	3272
926.886	3279
926.993	3161
927.099	3123
927.206	3146
927.312	3116
927.419	3245
927.525	3214
927.631	3283
927.737	3165
927.843	3150
927.95	3066
928.056	3138
928.162	3184
928.267	3283
928.373	3892
928.479	3302
928.585	3097
928.69	3207
928.796	3260
928.901	3173
929.007	3055
929.112	3214
929.218	3188
929.323	3142
929.428	3188
929.533	3336
929.638	3146
929.743	3195
929.848	3256
929.953	3222
930.058	3157
930.163	3005
930.267	2990
930.372	3214
930.477	3055
930.581	3302
930.685	3199
930.79	3066
930.894	3146
930.998	3123
931.103	3310
931.207	2986
931.311	2952
931.415	2937
931.519	2781
931.623	2857
