Data from test_V78500241_719.txt Node
Date: Fri Mar 25 16:20:11 CST 2022
User: usil
Spectrometer: V785-0024
Trigger mode: 0
Integration Time (sec): 4.000000E-1
Scans to average: 1
Nonlinearity correction enabled: false
Boxcar width: 0
Storing dark spectrum: false
XAxis mode: Wavelengths
Number of Pixels in Spectrum: 1024
>>>>>Begin Spectral Data<<<<<
801.071	2914
801.214	2895
801.356	2838
801.499	2891
801.641	2830
801.783	2910
801.926	3005
802.068	2948
802.211	3013
802.353	3032
802.496	2963
802.638	3028
802.78	3009
802.923	3081
803.065	3001
803.208	2861
803.35	2914
803.492	2941
803.635	2941
803.777	2754
803.919	2853
804.061	3195
804.204	2948
804.346	2933
804.488	2842
804.63	2963
804.773	2842
804.915	2906
805.057	3085
805.199	2929
805.341	2982
805.483	3032
805.626	2990
805.768	2933
805.91	3070
806.052	3097
806.194	3036
806.336	3199
806.478	3028
806.62	2925
806.762	2941
806.904	3055
807.046	3161
807.188	2971
807.33	2895
807.472	2986
807.614	2887
807.756	2975
807.898	2906
808.04	2868
808.182	2956
808.324	2933
808.465	2842
808.607	2838
808.749	2796
808.891	2853
809.033	2918
809.174	2982
809.316	2891
809.458	2880
809.6	2777
809.741	2758
809.883	2758
810.025	2857
810.166	2838
810.308	2796
810.45	2838
810.591	2777
810.733	2788
810.875	2830
811.016	2762
811.158	2705
811.299	2769
811.441	2914
811.582	2895
811.724	2762
811.865	2800
812.007	2864
812.148	2914
812.29	2861
812.431	2880
812.573	2895
812.714	2937
812.855	3009
812.997	3036
813.138	3123
813.279	2979
813.421	2971
813.562	2994
813.703	2872
813.845	2868
813.986	2724
814.127	2705
814.268	2785
814.41	2815
814.551	2811
814.692	2845
814.833	2788
814.974	2880
815.115	2952
815.256	2838
815.397	2788
815.539	2819
815.68	2788
815.821	2781
815.962	2887
816.103	2929
816.244	2880
816.385	2857
816.526	2948
816.666	2857
816.807	2727
816.948	2876
817.089	2876
817.23	2887
817.371	2758
817.512	2781
817.653	2838
817.793	2819
817.934	2853
818.075	2922
818.216	2986
818.356	2990
818.497	2853
818.638	2754
818.778	2807
818.919	2754
819.06	2720
819.2	2864
819.341	2773
819.481	2777
819.622	2910
819.762	3097
819.903	3005
820.043	2963
820.184	2902
820.324	2899
820.465	2975
820.605	2979
820.746	3028
820.886	2937
821.026	3112
821.167	3173
821.307	3237
821.447	3253
821.588	3203
821.728	3188
821.868	3138
822.008	3062
822.149	3195
822.289	3230
822.429	3085
822.569	3070
822.709	3150
822.849	3032
822.99	3051
823.13	3138
823.27	3138
823.41	3047
823.55	3157
823.69	3127
823.83	3169
823.97	3081
824.11	2998
824.25	2956
824.389	3077
824.529	3116
824.669	3051
824.809	3184
824.949	3237
825.089	3199
825.228	3154
825.368	3028
825.508	2960
825.648	2982
825.787	3032
825.927	3028
826.067	2979
826.206	2933
826.346	3024
826.485	3077
826.625	3112
826.765	3237
826.904	3253
827.044	3028
827.183	2963
827.323	2887
827.462	3017
827.601	2963
827.741	2925
827.88	2956
828.02	2887
828.159	2960
828.298	3100
828.437	3176
828.577	3062
828.716	3287
828.855	3119
828.994	2948
829.134	2910
829.273	2944
829.412	2906
829.551	2895
829.69	2902
829.829	3009
829.968	3173
830.107	3051
830.246	3074
830.385	2952
830.524	2899
830.663	2826
830.802	2788
830.941	2689
831.08	2655
831.219	2796
831.357	2781
831.496	2994
831.635	2769
831.774	2708
831.913	2724
832.051	2606
832.19	2606
832.329	2781
832.467	2613
832.606	2503
832.744	2602
832.883	2621
833.022	2621
833.16	2686
833.299	2724
833.437	2743
833.576	2720
833.714	2777
833.852	2769
833.991	2792
834.129	2864
834.267	2861
834.406	2861
834.544	2891
834.682	2925
834.821	2891
834.959	3100
835.097	2944
835.235	3135
835.373	3039
835.511	3047
835.65	2975
835.788	2998
835.926	2899
836.064	2891
836.202	2899
836.34	3123
836.478	3142
836.615	3085
836.753	3146
836.891	3237
837.029	3203
837.167	3180
837.305	3081
837.443	3081
837.58	2998
837.718	3135
837.856	3097
837.993	3093
838.131	3142
838.269	3119
838.406	3093
838.544	3089
838.681	2952
838.819	2933
838.956	2830
839.094	2849
839.231	2925
839.369	3047
839.506	3447
839.643	3260
839.781	3047
839.918	3020
840.055	3108
840.193	3051
840.33	3127
840.467	3135
840.604	3180
840.742	3420
840.879	3074
841.016	3074
841.153	3146
841.29	3382
841.427	3348
841.564	3298
841.701	3363
841.838	3260
841.975	3176
842.112	3245
842.249	3138
842.385	3066
842.522	3313
842.659	3089
842.796	3074
842.933	3154
843.069	3089
843.206	3093
843.343	3222
843.479	3123
843.616	3165
843.752	2937
843.889	2902
844.025	3112
844.162	2899
844.298	3119
844.435	2986
844.571	2918
844.708	3112
844.844	3180
844.98	3279
845.117	3203
845.253	3089
845.389	3036
845.525	3135
845.661	3081
845.798	3024
845.934	3135
846.07	3085
846.206	3230
846.342	3275
846.478	3218
846.614	3119
846.75	3100
846.886	3074
847.022	3279
847.158	3184
847.294	3203
847.429	3287
847.565	3230
847.701	3557
847.837	3089
847.972	3024
848.108	3176
848.244	3176
848.379	3009
848.515	2986
848.65	2990
848.786	2975
848.921	3055
849.057	3135
849.192	3241
849.328	3089
849.463	3138
849.598	3100
849.734	3028
849.869	2986
850.004	2929
850.14	2975
850.275	2937
850.41	2883
850.545	2910
850.68	2948
850.815	2952
850.95	3009
851.085	3207
851.22	3161
851.355	3085
851.49	3009
851.625	3005
851.76	3005
851.895	2971
852.03	2956
852.165	3062
852.299	3123
852.434	3199
852.569	3169
852.703	3211
852.838	3237
852.973	3409
853.107	3329
853.242	3180
853.376	3104
853.511	2971
853.645	3047
853.78	3302
853.914	3157
854.048	3112
854.183	3100
854.317	3169
854.451	3325
854.585	3127
854.72	3138
854.854	3199
854.988	3123
855.122	3112
855.256	3009
855.39	3142
855.524	3264
855.658	3195
855.792	3169
855.926	3256
856.06	3233
856.194	3279
856.327	3169
856.461	3157
856.595	3112
856.729	3119
856.862	3279
856.996	3207
857.13	3214
857.263	3275
857.397	3306
857.53	3150
857.664	3226
857.797	3222
857.931	3302
858.064	3165
858.197	3260
858.331	3199
858.464	3112
858.597	3036
858.731	3131
858.864	3176
858.997	3058
859.13	3157
859.263	3222
859.396	3226
859.529	3097
859.662	3123
859.795	3104
859.928	3154
860.061	3283
860.194	3313
860.327	3146
860.46	3108
860.592	3253
860.725	3272
860.858	3291
860.99	3127
861.123	3104
861.256	3081
861.388	3180
861.521	3896
861.653	3036
861.786	3020
861.918	3036
862.05	3066
862.183	3142
862.315	3199
862.447	3233
862.58	3097
862.712	2925
862.844	2929
862.976	3047
863.108	3024
863.24	3443
863.372	2906
863.504	2982
863.636	2948
863.768	3039
863.9	2994
864.032	2948
864.164	2982
864.296	3051
864.428	3085
864.559	3116
864.691	3116
864.823	3085
864.954	3036
865.086	3055
865.217	3024
865.349	2967
865.48	2994
865.612	3032
865.743	3165
865.875	3013
866.006	2952
866.137	2994
866.269	2990
866.4	2944
866.531	2906
866.662	2922
866.793	2948
866.924	2933
867.055	2956
867.186	2937
867.317	2899
867.448	2826
867.579	2880
867.71	2887
867.841	2834
867.972	2948
868.103	2914
868.233	2925
868.364	2883
868.495	2948
868.625	3085
868.756	3161
868.886	2956
869.017	3058
869.147	3173
869.278	3138
869.408	3077
869.539	3066
869.669	3104
869.799	3066
869.929	3157
870.06	3112
870.19	3336
870.32	3310
870.45	3279
870.58	3370
870.71	3462
870.84	3450
870.97	3325
871.1	3226
871.23	3511
871.36	3485
871.489	3382
871.619	3439
871.749	3412
871.879	3466
872.008	3526
872.138	3370
872.267	3256
872.397	3135
872.526	3127
872.656	3024
872.785	3123
872.915	3249
873.044	3310
873.173	3230
873.303	3268
873.432	3291
873.561	3233
873.69	3180
873.819	3169
873.948	3195
874.077	3112
874.206	3112
874.335	3119
874.464	3218
874.593	3389
874.722	3264
874.851	3386
874.979	3370
875.108	3382
875.237	3188
875.365	3154
875.494	3195
875.623	3237
875.751	3066
875.88	3108
876.008	3192
876.136	3237
876.265	3359
876.393	3477
876.521	3469
876.65	3370
876.778	3351
876.906	3260
877.034	3192
877.162	3272
877.29	3192
877.418	3287
877.546	3214
877.674	3256
877.802	3268
877.93	3237
878.058	3157
878.185	3119
878.313	3218
878.441	3199
878.568	3116
878.696	3184
878.824	3256
878.951	3306
879.079	3492
879.206	3629
879.333	3435
879.461	3370
879.588	3340
879.715	3450
879.842	3587
879.97	3367
880.097	3195
880.224	3138
880.351	3192
880.478	3222
880.605	3226
880.732	3207
880.859	3526
880.986	3306
881.112	3359
881.239	3222
881.366	3108
881.493	3051
881.619	3024
881.746	3116
881.872	3093
881.999	3138
882.125	3188
882.252	3222
882.378	3291
882.505	3450
882.631	3291
882.757	3169
882.883	3211
883.01	3230
883.136	3165
883.262	3108
883.388	3100
883.514	3279
883.64	3359
883.766	3332
883.892	3188
884.018	3279
884.143	3431
884.269	3523
884.395	3226
884.52	3180
884.646	3214
884.772	3154
884.897	3119
885.023	3154
885.148	3386
885.274	3450
885.399	3367
885.524	3279
885.65	3279
885.775	3344
885.9	3313
886.025	3443
886.15	3397
886.275	3325
886.4	3268
886.525	3325
886.65	3245
886.775	3291
886.9	3507
887.025	3641
887.149	3401
887.274	3268
887.399	3180
887.523	3214
887.648	3188
887.773	3214
887.897	3420
888.021	3439
888.146	3275
888.27	3443
888.395	3534
888.519	3405
888.643	3458
888.767	3469
888.891	3340
889.015	3245
889.139	3302
889.263	3268
889.387	3412
889.511	3530
889.635	3428
889.759	3260
889.883	3310
890.006	3389
890.13	3523
890.254	3287
890.377	3389
890.501	3188
890.624	3214
890.748	3287
890.871	3199
890.995	3127
891.118	3074
891.241	3195
891.364	3256
891.488	3325
891.611	3161
891.734	3249
891.857	3298
891.98	3272
892.103	3351
892.226	3275
892.349	3218
892.471	3135
892.594	3272
892.717	3272
892.839	3310
892.962	3302
893.085	3367
893.207	3302
893.33	3176
893.452	3207
893.575	3325
893.697	3256
893.819	3515
893.941	3488
894.064	3477
894.186	3245
894.308	3256
894.43	3466
894.552	3526
894.674	3458
894.796	3275
894.918	3313
895.04	3306
895.161	3424
895.283	3389
895.405	3310
895.526	3389
895.648	3450
895.769	3405
895.891	3443
896.012	3492
896.134	3504
896.255	3386
896.376	3389
896.498	3348
896.619	3431
896.74	3348
896.861	3420
896.982	3675
897.103	3812
897.224	3587
897.345	3504
897.466	3439
897.587	3519
897.708	3660
897.828	3526
897.949	3458
898.07	3294
898.19	3420
898.311	3591
898.431	3443
898.552	3492
898.672	3587
898.792	3618
898.913	3515
899.033	3447
899.153	3272
899.273	3256
899.393	3294
899.513	3332
899.633	3329
899.753	3382
899.873	3332
899.993	3389
900.113	3329
900.232	3382
900.352	3348
900.472	3313
900.591	3233
900.711	3340
900.83	3230
900.95	3386
901.069	3519
901.189	3386
901.308	3157
901.427	3123
901.546	3199
901.665	3283
901.784	3348
901.904	3207
902.023	3131
902.141	3028
902.26	3051
902.379	3127
902.498	3104
902.617	3074
902.735	3188
902.854	3253
902.973	3211
903.091	3062
903.21	3104
903.328	3169
903.446	3169
903.565	3138
903.683	3218
903.801	3135
903.919	3287
904.038	3287
904.156	3180
904.274	3317
904.392	3291
904.51	3321
904.627	3340
904.745	3511
904.863	3488
904.981	3310
905.098	3226
905.216	3310
905.334	3317
905.451	3317
905.569	3344
905.686	3462
905.803	3496
905.921	3336
906.038	3462
906.155	3367
906.272	3287
906.389	3393
906.506	3256
906.623	3313
906.74	3336
906.857	3222
906.974	3344
907.091	3485
907.208	3595
907.324	3469
907.441	3405
907.557	3268
907.674	3256
907.79	3287
907.907	3321
908.023	3378
908.139	3435
908.256	3363
908.372	3409
908.488	3378
908.604	3306
908.72	3245
908.836	3313
908.952	3336
909.068	3386
909.184	3507
909.3	3454
909.415	3561
909.531	3511
909.647	3325
909.762	3325
909.878	3313
909.993	3409
910.108	3409
910.224	3355
910.339	3450
910.454	3405
910.57	3310
910.685	3291
910.8	3644
910.915	3587
911.03	3504
911.145	3332
911.259	3332
911.374	3382
911.489	3298
911.604	3253
911.718	3173
911.833	3218
911.947	3097
912.062	3009
912.176	3199
912.291	3237
912.405	3268
912.519	3473
912.633	3542
912.748	3370
912.862	3279
912.976	3165
913.09	3100
913.204	3135
913.318	3230
913.431	3378
913.545	3367
913.659	3473
913.772	3378
913.886	3264
914	3211
914.113	3397
914.226	3481
914.34	3389
914.453	3245
914.566	3469
914.68	3321
914.793	3355
914.906	3192
915.019	3157
915.132	3135
915.245	3169
915.358	3203
915.47	3283
915.583	3321
915.696	3351
915.809	3447
915.921	3492
916.034	3298
916.146	3298
916.259	3272
916.371	3458
916.483	3382
916.595	3325
916.708	3363
916.82	3431
916.932	3344
917.044	3374
917.156	3386
917.268	3283
917.38	3367
917.491	3344
917.603	3405
917.715	3469
917.826	3466
917.938	3447
918.049	3313
918.161	3462
918.272	3603
918.384	3595
918.495	3504
918.606	3359
918.717	3275
918.828	3405
918.939	3443
919.05	3382
919.161	3389
919.272	3241
919.383	3310
919.494	3496
919.604	3724
919.715	3545
919.826	3435
919.936	3458
920.047	3591
920.157	3595
920.267	3785
920.378	3637
920.488	3572
920.598	3797
920.708	3968
920.818	3827
920.928	3873
921.038	4059
921.148	4029
921.258	3728
921.368	3663
921.477	3603
921.587	3572
921.697	3485
921.806	3648
921.916	3572
922.025	3416
922.134	3397
922.244	3363
922.353	3492
922.462	3279
922.571	3275
922.68	3157
922.789	3097
922.898	3184
923.007	3146
923.116	3226
923.224	3218
923.333	3237
923.442	3097
923.55	3112
923.659	3161
923.767	3218
923.876	3123
923.984	3249
924.092	3150
924.201	3222
924.309	3260
924.417	3245
924.525	3260
924.633	3275
924.741	4211
924.849	3085
924.956	3321
925.064	3173
925.172	3062
925.279	3127
925.387	3245
925.494	3222
925.602	3382
925.709	3389
925.816	3226
925.924	3291
926.031	3431
926.138	3340
926.245	3397
926.352	3260
926.459	3450
926.566	3530
926.673	3336
926.779	3256
926.886	3268
926.993	3195
927.099	3161
927.206	3150
927.312	3112
927.419	3260
927.525	3192
927.631	3340
927.737	3203
927.843	3176
927.95	3055
928.056	3192
928.162	3199
928.267	3275
928.373	3857
928.479	3294
928.585	3089
928.69	3237
928.796	3321
928.901	3195
929.007	3077
929.112	3211
929.218	3199
929.323	3180
929.428	3135
929.533	3325
929.638	3119
929.743	3195
929.848	3291
929.953	3184
930.058	3176
930.163	2979
930.267	3077
930.372	3218
930.477	3074
930.581	3325
930.685	3222
930.79	3081
930.894	3085
930.998	3131
931.103	3291
931.207	3005
931.311	2975
931.415	2918
931.519	2781
931.623	2838
