Data from test_V78500241_107.txt Node
Date: Fri Mar 25 16:15:56 CST 2022
User: usil
Spectrometer: V785-0024
Trigger mode: 0
Integration Time (sec): 4.000000E-1
Scans to average: 1
Nonlinearity correction enabled: false
Boxcar width: 0
Storing dark spectrum: false
XAxis mode: Wavelengths
Number of Pixels in Spectrum: 1024
>>>>>Begin Spectral Data<<<<<
801.071	2963
801.214	2922
801.356	2891
801.499	2937
801.641	2925
801.783	2971
801.926	3074
802.068	3009
802.211	3066
802.353	3100
802.496	2979
802.638	3074
802.78	3074
802.923	3142
803.065	3043
803.208	2944
803.35	2948
803.492	2971
803.635	2956
803.777	2758
803.919	2929
804.061	3233
804.204	2998
804.346	2941
804.488	2910
804.63	3051
804.773	2922
804.915	2967
805.057	3169
805.199	2990
805.341	3047
805.483	3074
805.626	3074
805.768	3032
805.91	3119
806.052	3138
806.194	3116
806.336	3283
806.478	3108
806.62	2971
806.762	3039
806.904	3157
807.046	3268
807.188	3070
807.33	2979
807.472	3028
807.614	2944
807.756	3036
807.898	2994
808.04	2925
808.182	3024
808.324	2979
808.465	2925
808.607	2952
808.749	2834
808.891	2902
809.033	3047
809.174	3051
809.316	2971
809.458	2952
809.6	2834
809.741	2811
809.883	2861
810.025	2872
810.166	2902
810.308	2880
810.45	2906
810.591	2834
810.733	2826
810.875	2883
811.016	2830
811.158	2811
811.299	2876
811.441	3020
811.582	2956
811.724	2914
811.865	2872
812.007	2967
812.148	2952
812.29	2918
812.431	2925
812.573	2979
812.714	2990
812.855	3089
812.997	3127
813.138	3157
813.279	3055
813.421	3039
813.562	3017
813.703	2948
813.845	2948
813.986	2826
814.127	2777
814.268	2891
814.41	2906
814.551	2880
814.692	2899
814.833	2857
814.974	2899
815.115	3013
815.256	2899
815.397	2891
815.539	2918
815.68	2842
815.821	2849
815.962	2990
816.103	2979
816.244	2941
816.385	2937
816.526	3013
816.666	2956
816.807	2762
816.948	2914
817.089	2956
817.23	2902
817.371	2864
817.512	2883
817.653	2922
817.793	2902
817.934	2914
818.075	3009
818.216	3051
818.356	3104
818.497	2948
818.638	2834
818.778	2883
818.919	2849
819.06	2830
819.2	2933
819.341	2842
819.481	2868
819.622	2956
819.762	3127
819.903	3077
820.043	2994
820.184	2982
820.324	2986
820.465	3066
820.605	3058
820.746	3089
820.886	2998
821.026	3138
821.167	3207
821.307	3306
821.447	3348
821.588	3260
821.728	3275
821.868	3253
822.008	3135
822.149	3222
822.289	3313
822.429	3135
822.569	3176
822.709	3230
822.849	3108
822.99	3112
823.13	3214
823.27	3279
823.41	3184
823.55	3211
823.69	3188
823.83	3256
823.97	3192
824.11	3024
824.25	3013
824.389	3112
824.529	3146
824.669	3127
824.809	3253
824.949	3294
825.089	3253
825.228	3226
825.368	3024
825.508	2956
825.648	3001
825.787	3055
825.927	3055
826.067	3005
826.206	3043
826.346	3116
826.485	3161
826.625	3169
826.765	3336
826.904	3275
827.044	3043
827.183	2975
827.323	2948
827.462	3058
827.601	2960
827.741	2979
827.88	3005
828.02	2906
828.159	2994
828.298	3085
828.437	3173
828.577	3104
828.716	3294
828.855	3116
828.994	2952
829.134	2952
829.273	2975
829.412	2914
829.551	2937
829.69	2944
829.829	3081
829.968	3176
830.107	3055
830.246	3074
830.385	2979
830.524	2922
830.663	2864
830.802	2769
830.941	2712
831.08	2705
831.219	2849
831.357	2800
831.496	2967
831.635	2750
831.774	2716
831.913	2701
832.051	2621
832.19	2648
832.329	2720
832.467	2552
832.606	2522
832.744	2606
832.883	2617
833.022	2629
833.16	2724
833.299	2739
833.437	2758
833.576	2739
833.714	2762
833.852	2796
833.991	2792
834.129	2853
834.267	2853
834.406	2826
834.544	2933
834.682	2933
834.821	2918
834.959	3074
835.097	2979
835.235	3131
835.373	3058
835.511	3051
835.65	2998
835.788	3020
835.926	2872
836.064	2857
836.202	2910
836.34	3138
836.478	3180
836.615	3097
836.753	3195
836.891	3256
837.029	3192
837.167	3176
837.305	3104
837.443	3074
837.58	3017
837.718	3161
837.856	3119
837.993	3081
838.131	3184
838.269	3146
838.406	3176
838.544	3165
838.681	2986
838.819	2975
838.956	2842
839.094	2872
839.231	2963
839.369	3100
839.506	3412
839.643	3344
839.781	3081
839.918	2990
840.055	3081
840.193	3146
840.33	3108
840.467	3161
840.604	3161
840.742	3428
840.879	3104
841.016	3093
841.153	3165
841.29	3389
841.427	3382
841.564	3336
841.701	3363
841.838	3283
841.975	3237
842.112	3241
842.249	3089
842.385	3055
842.522	3294
842.659	3116
842.796	3127
842.933	3138
843.069	3081
843.206	3097
843.343	3230
843.479	3154
843.616	3192
843.752	2933
843.889	2902
844.025	3119
844.162	2891
844.298	3123
844.435	2986
844.571	2967
844.708	3157
844.844	3214
844.98	3260
845.117	3245
845.253	3074
845.389	3074
845.525	3188
845.661	3138
845.798	3074
845.934	3116
846.07	3097
846.206	3310
846.342	3340
846.478	3283
846.614	3135
846.75	3116
846.886	3108
847.022	3302
847.158	3218
847.294	3253
847.429	3291
847.565	3241
847.701	3507
847.837	3112
847.972	3032
848.108	3184
848.244	3165
848.379	3024
848.515	2967
848.65	2982
848.786	3051
848.921	3051
849.057	3161
849.192	3176
849.328	3081
849.463	3131
849.598	3119
849.734	3070
849.869	2994
850.004	2952
850.14	3005
850.275	2952
850.41	2906
850.545	2918
850.68	2944
850.815	2986
850.95	3024
851.085	3222
851.22	3131
851.355	3070
851.49	3047
851.625	3074
851.76	3055
851.895	2941
852.03	2941
852.165	3062
852.299	3142
852.434	3214
852.569	3211
852.703	3226
852.838	3298
852.973	3386
853.107	3363
853.242	3207
853.376	3135
853.511	3024
853.645	3062
853.78	3249
853.914	3180
854.048	3116
854.183	3131
854.317	3173
854.451	3294
854.585	3165
854.72	3089
854.854	3222
854.988	3062
855.122	3119
855.256	3009
855.39	3165
855.524	3253
855.658	3222
855.792	3218
855.926	3272
856.06	3230
856.194	3287
856.327	3169
856.461	3093
856.595	3077
856.729	3127
856.862	3256
856.996	3203
857.13	3222
857.263	3264
857.397	3336
857.53	3192
857.664	3237
857.797	3283
857.931	3332
858.064	3211
858.197	3275
858.331	3184
858.464	3112
858.597	3043
858.731	3180
858.864	3192
858.997	3142
859.13	3195
859.263	3237
859.396	3203
859.529	3131
859.662	3089
859.795	3081
859.928	3176
860.061	3310
860.194	3302
860.327	3165
860.46	3100
860.592	3275
860.725	3298
860.858	3306
860.99	3169
861.123	3058
861.256	3081
861.388	3226
861.521	3740
861.653	3062
861.786	3009
861.918	3051
862.05	3100
862.183	3123
862.315	3211
862.447	3226
862.58	3119
862.712	2982
862.844	2872
862.976	3055
863.108	3043
863.24	3450
863.372	2925
863.504	3024
863.636	2956
863.768	3070
863.9	3024
864.032	2925
864.164	2979
864.296	3028
864.428	3138
864.559	3119
864.691	3108
864.823	3142
864.954	3085
865.086	3066
865.217	3020
865.349	2982
865.48	3036
865.612	3039
865.743	3142
865.875	3020
866.006	2944
866.137	3032
866.269	2990
866.4	2963
866.531	2979
866.662	2899
866.793	2922
866.924	2956
867.055	3039
867.186	2952
867.317	2906
867.448	2876
867.579	2872
867.71	2887
867.841	2849
867.972	2960
868.103	2895
868.233	2925
868.364	2941
868.495	2960
868.625	3116
868.756	3180
868.886	3017
869.017	3043
869.147	3249
869.278	3195
869.408	3058
869.539	3062
869.669	3138
869.799	3070
869.929	3180
870.06	3150
870.19	3344
870.32	3321
870.45	3329
870.58	3412
870.71	3500
870.84	3481
870.97	3310
871.1	3272
871.23	3507
871.36	3462
871.489	3405
871.619	3431
871.749	3431
871.879	3454
872.008	3534
872.138	3363
872.267	3317
872.397	3161
872.526	3146
872.656	3039
872.785	3131
872.915	3260
873.044	3378
873.173	3233
873.303	3313
873.432	3241
873.561	3294
873.69	3127
873.819	3165
873.948	3222
874.077	3119
874.206	3097
874.335	3112
874.464	3245
874.593	3397
874.722	3306
874.851	3439
874.979	3397
875.108	3367
875.237	3222
875.365	3241
875.494	3211
875.623	3253
875.751	3131
875.88	3123
876.008	3222
876.136	3222
876.265	3416
876.393	3542
876.521	3401
876.65	3412
876.778	3348
876.906	3291
877.034	3260
877.162	3253
877.29	3214
877.418	3302
877.546	3260
877.674	3291
877.802	3272
877.93	3279
878.058	3173
878.185	3135
878.313	3260
878.441	3218
878.568	3192
878.696	3169
878.824	3325
878.951	3340
879.079	3492
879.206	3656
879.333	3443
879.461	3367
879.588	3416
879.715	3519
879.842	3633
879.97	3424
880.097	3203
880.224	3154
880.351	3233
880.478	3230
880.605	3245
880.732	3218
880.859	3542
880.986	3329
881.112	3374
881.239	3237
881.366	3116
881.493	3062
881.619	3047
881.746	3104
881.872	3081
881.999	3135
882.125	3165
882.252	3283
882.378	3329
882.505	3450
882.631	3310
882.757	3184
882.883	3237
883.01	3253
883.136	3188
883.262	3097
883.388	3154
883.514	3378
883.64	3431
883.766	3348
883.892	3214
884.018	3249
884.143	3405
884.269	3587
884.395	3230
884.52	3195
884.646	3173
884.772	3173
884.897	3108
885.023	3233
885.148	3355
885.274	3450
885.399	3401
885.524	3279
885.65	3260
885.775	3363
885.9	3294
886.025	3431
886.15	3431
886.275	3359
886.4	3256
886.525	3332
886.65	3310
886.775	3313
886.9	3523
887.025	3648
887.149	3443
887.274	3294
887.399	3195
887.523	3256
887.648	3218
887.773	3233
887.897	3431
888.021	3458
888.146	3340
888.27	3431
888.395	3584
888.519	3443
888.643	3488
888.767	3519
888.891	3310
889.015	3268
889.139	3325
889.263	3268
889.387	3469
889.511	3526
889.635	3469
889.759	3313
889.883	3294
890.006	3416
890.13	3530
890.254	3298
890.377	3389
890.501	3230
890.624	3237
890.748	3325
890.871	3195
890.995	3142
891.118	3077
891.241	3218
891.364	3211
891.488	3332
891.611	3211
891.734	3226
891.857	3302
891.98	3283
892.103	3389
892.226	3310
892.349	3256
892.471	3131
892.594	3264
892.717	3302
892.839	3336
892.962	3310
893.085	3374
893.207	3329
893.33	3245
893.452	3241
893.575	3363
893.697	3237
893.819	3485
893.941	3511
894.064	3492
894.186	3298
894.308	3260
894.43	3481
894.552	3564
894.674	3481
894.796	3302
894.918	3332
895.04	3298
895.161	3458
895.283	3389
895.405	3340
895.526	3409
895.648	3447
895.769	3447
895.891	3450
896.012	3488
896.134	3469
896.255	3447
896.376	3393
896.498	3370
896.619	3492
896.74	3382
896.861	3443
896.982	3713
897.103	3861
897.224	3618
897.345	3523
897.466	3473
897.587	3523
897.708	3637
897.828	3576
897.949	3523
898.07	3340
898.19	3462
898.311	3652
898.431	3439
898.552	3534
898.672	3633
898.792	3622
898.913	3545
899.033	3466
899.153	3294
899.273	3203
899.393	3321
899.513	3325
899.633	3370
899.753	3363
899.873	3344
899.993	3374
900.113	3344
900.232	3409
900.352	3370
900.472	3302
900.591	3230
900.711	3317
900.83	3264
900.95	3477
901.069	3523
901.189	3405
901.308	3184
901.427	3154
901.546	3256
901.665	3325
901.784	3310
901.904	3230
902.023	3176
902.141	3036
902.26	3017
902.379	3161
902.498	3104
902.617	3097
902.735	3237
902.854	3279
902.973	3233
903.091	3028
903.21	3074
903.328	3138
903.446	3119
903.565	3116
903.683	3218
903.801	3157
903.919	3268
904.038	3310
904.156	3154
904.274	3310
904.392	3291
904.51	3310
904.627	3397
904.745	3511
904.863	3534
904.981	3294
905.098	3218
905.216	3264
905.334	3306
905.451	3351
905.569	3355
905.686	3443
905.803	3473
905.921	3355
906.038	3420
906.155	3363
906.272	3313
906.389	3359
906.506	3245
906.623	3264
906.74	3317
906.857	3241
906.974	3291
907.091	3462
907.208	3633
907.324	3526
907.441	3439
907.557	3241
907.674	3222
907.79	3249
907.907	3336
908.023	3374
908.139	3382
908.256	3336
908.372	3336
908.488	3382
908.604	3291
908.72	3241
908.836	3317
908.952	3279
909.068	3382
909.184	3481
909.3	3416
909.415	3526
909.531	3496
909.647	3260
909.762	3298
909.878	3291
909.993	3382
910.108	3351
910.224	3370
910.339	3458
910.454	3363
910.57	3302
910.685	3317
910.8	3656
910.915	3580
911.03	3443
911.145	3253
911.259	3298
911.374	3321
911.489	3279
911.604	3253
911.718	3142
911.833	3218
911.947	3070
912.062	3028
912.176	3184
912.291	3192
912.405	3256
912.519	3454
912.633	3466
912.748	3329
912.862	3302
912.976	3169
913.09	3097
913.204	3184
913.318	3249
913.431	3313
913.545	3401
913.659	3458
913.772	3332
913.886	3256
914	3260
914.113	3397
914.226	3435
914.34	3397
914.453	3237
914.566	3412
914.68	3313
914.793	3317
914.906	3192
915.019	3119
915.132	3081
915.245	3199
915.358	3260
915.47	3241
915.583	3287
915.696	3291
915.809	3420
915.921	3492
916.034	3298
916.146	3291
916.259	3253
916.371	3435
916.483	3469
916.595	3291
916.708	3382
916.82	3363
916.932	3393
917.044	3378
917.156	3344
917.268	3264
917.38	3302
917.491	3306
917.603	3416
917.715	3458
917.826	3488
917.938	3393
918.049	3329
918.161	3428
918.272	3618
918.384	3584
918.495	3492
918.606	3370
918.717	3306
918.828	3363
918.939	3409
919.05	3332
919.161	3374
919.272	3195
919.383	3291
919.494	3549
919.604	3686
919.715	3511
919.826	3443
919.936	3450
920.047	3633
920.157	3568
920.267	3778
920.378	3595
920.488	3549
920.598	3827
920.708	3972
920.818	3869
920.928	3880
921.038	4051
921.148	4029
921.258	3713
921.368	3686
921.477	3614
921.587	3564
921.697	3439
921.806	3686
921.916	3526
922.025	3367
922.134	3412
922.244	3329
922.353	3492
922.462	3291
922.571	3268
922.68	3123
922.789	3097
922.898	3154
923.007	3119
923.116	3214
923.224	3154
923.333	3222
923.442	3123
923.55	3146
923.659	3192
923.767	3230
923.876	3131
923.984	3287
924.092	3104
924.201	3233
924.309	3218
924.417	3302
924.525	3203
924.633	3275
924.741	4230
924.849	3017
924.956	3291
925.064	3131
925.172	3066
925.279	3123
925.387	3230
925.494	3237
925.602	3382
925.709	3367
925.816	3253
925.924	3306
926.031	3378
926.138	3363
926.245	3386
926.352	3287
926.459	3454
926.566	3477
926.673	3348
926.779	3272
926.886	3275
926.993	3146
927.099	3180
927.206	3100
927.312	3100
927.419	3283
927.525	3214
927.631	3245
927.737	3176
927.843	3161
927.95	3058
928.056	3138
928.162	3222
928.267	3272
928.373	3827
928.479	3367
928.585	3070
928.69	3256
928.796	3313
928.901	3184
929.007	3085
929.112	3222
929.218	3180
929.323	3180
929.428	3138
929.533	3348
929.638	3154
929.743	3173
929.848	3291
929.953	3253
930.058	3165
930.163	3036
930.267	3077
930.372	3173
930.477	3055
930.581	3317
930.685	3203
930.79	3051
930.894	3135
930.998	3097
931.103	3321
931.207	2982
931.311	2948
931.415	2944
931.519	2792
931.623	2845
