Data from test_V78500241_1055.txt Node
Date: Fri Mar 25 16:22:30 CST 2022
User: usil
Spectrometer: V785-0024
Trigger mode: 0
Integration Time (sec): 4.000000E-1
Scans to average: 1
Nonlinearity correction enabled: false
Boxcar width: 0
Storing dark spectrum: false
XAxis mode: Wavelengths
Number of Pixels in Spectrum: 1024
>>>>>Begin Spectral Data<<<<<
801.071	2948
801.214	2952
801.356	2891
801.499	2910
801.641	2883
801.783	2902
801.926	3039
802.068	2967
802.211	3001
802.353	3100
802.496	2925
802.638	3032
802.78	3043
802.923	3081
803.065	2990
803.208	2880
803.35	2918
803.492	2941
803.635	2910
803.777	2769
803.919	2826
804.061	3184
804.204	2963
804.346	2899
804.488	2868
804.63	2941
804.773	2925
804.915	2906
805.057	3093
805.199	2902
805.341	2998
805.483	3009
805.626	3001
805.768	2956
805.91	3100
806.052	3135
806.194	3055
806.336	3237
806.478	3066
806.62	2944
806.762	2967
806.904	3024
807.046	3154
807.188	2998
807.33	2914
807.472	3013
807.614	2925
807.756	2971
807.898	2937
808.04	2941
808.182	2963
808.324	2948
808.465	2883
808.607	2895
808.749	2777
808.891	2849
809.033	2967
809.174	2948
809.316	2910
809.458	2902
809.6	2811
809.741	2762
809.883	2773
810.025	2842
810.166	2861
810.308	2838
810.45	2815
810.591	2773
810.733	2792
810.875	2845
811.016	2792
811.158	2750
811.299	2830
811.441	2925
811.582	2910
811.724	2834
811.865	2838
812.007	2895
812.148	2883
812.29	2845
812.431	2895
812.573	2960
812.714	2982
812.855	3043
812.997	3051
813.138	3131
813.279	3047
813.421	2975
813.562	2971
813.703	2895
813.845	2880
813.986	2739
814.127	2724
814.268	2811
814.41	2830
814.551	2800
814.692	2883
814.833	2796
814.974	2876
815.115	2979
815.256	2815
815.397	2796
815.539	2895
815.68	2773
815.821	2769
815.962	2922
816.103	2929
816.244	2868
816.385	2826
816.526	2960
816.666	2922
816.807	2731
816.948	2918
817.089	2895
817.23	2849
817.371	2781
817.512	2777
817.653	2861
817.793	2804
817.934	2918
818.075	3017
818.216	2975
818.356	3017
818.497	2891
818.638	2807
818.778	2804
818.919	2807
819.06	2750
819.2	2891
819.341	2800
819.481	2800
819.622	2918
819.762	3077
819.903	3028
820.043	2941
820.184	2906
820.324	2906
820.465	3032
820.605	2982
820.746	3024
820.886	2941
821.026	3074
821.167	3180
821.307	3275
821.447	3287
821.588	3264
821.728	3214
821.868	3157
822.008	3074
822.149	3211
822.289	3237
822.429	3112
822.569	3077
822.709	3192
822.849	3055
822.99	3062
823.13	3176
823.27	3233
823.41	3123
823.55	3131
823.69	3184
823.83	3203
823.97	3138
824.11	2994
824.25	2986
824.389	3077
824.529	3135
824.669	3062
824.809	3199
824.949	3245
825.089	3237
825.228	3157
825.368	3009
825.508	2941
825.648	2986
825.787	3032
825.927	3009
826.067	2952
826.206	2967
826.346	3043
826.485	3066
826.625	3074
826.765	3306
826.904	3188
827.044	2971
827.183	2941
827.323	2872
827.462	2952
827.601	2910
827.741	2944
827.88	2952
828.02	2857
828.159	2944
828.298	3047
828.437	3077
828.577	3043
828.716	3233
828.855	3093
828.994	2857
829.134	2880
829.273	2906
829.412	2845
829.551	2838
829.69	2895
829.829	2998
829.968	3138
830.107	3043
830.246	2979
830.385	2910
830.524	2853
830.663	2823
830.802	2712
830.941	2606
831.08	2659
831.219	2762
831.357	2746
831.496	2963
831.635	2727
831.774	2667
831.913	2610
832.051	2507
832.19	2564
832.329	2667
832.467	2568
832.606	2488
832.744	2606
832.883	2560
833.022	2575
833.16	2667
833.299	2708
833.437	2708
833.576	2674
833.714	2705
833.852	2731
833.991	2762
834.129	2815
834.267	2845
834.406	2823
834.544	2887
834.682	2872
834.821	2834
834.959	3070
835.097	2944
835.235	3104
835.373	2994
835.511	3036
835.65	2929
835.788	2918
835.926	2838
836.064	2796
836.202	2819
836.34	3058
836.478	3135
836.615	3032
836.753	3146
836.891	3169
837.029	3161
837.167	3123
837.305	3039
837.443	3028
837.58	2986
837.718	3131
837.856	3066
837.993	3024
838.131	3089
838.269	3070
838.406	3051
838.544	3074
838.681	2933
838.819	2914
838.956	2804
839.094	2830
839.231	2899
839.369	3028
839.506	3389
839.643	3207
839.781	2994
839.918	3028
840.055	3043
840.193	3051
840.33	3070
840.467	3089
840.604	3192
840.742	3416
840.879	3032
841.016	3039
841.153	3135
841.29	3317
841.427	3279
841.564	3245
841.701	3287
841.838	3184
841.975	3165
842.112	3203
842.249	3062
842.385	3036
842.522	3268
842.659	3131
842.796	3070
842.933	3131
843.069	3047
843.206	3066
843.343	3161
843.479	3131
843.616	3119
843.752	2918
843.889	2868
844.025	3043
844.162	2876
844.298	3104
844.435	2982
844.571	2906
844.708	3051
844.844	3150
844.98	3256
845.117	3199
845.253	3055
845.389	2998
845.525	3123
845.661	3100
845.798	3020
845.934	3131
846.07	3085
846.206	3192
846.342	3348
846.478	3211
846.614	3066
846.75	3043
846.886	2982
847.022	3230
847.158	3142
847.294	3146
847.429	3260
847.565	3184
847.701	3488
847.837	3058
847.972	3020
848.108	3142
848.244	3157
848.379	3001
848.515	2929
848.65	2937
848.786	2979
848.921	2990
849.057	3123
849.192	3207
849.328	3066
849.463	3104
849.598	3036
849.734	3028
849.869	2967
850.004	2887
850.14	2960
850.275	2937
850.41	2823
850.545	2868
850.68	2952
850.815	2941
850.95	2960
851.085	3199
851.22	3104
851.355	3043
851.49	2956
851.625	2982
851.76	2998
851.895	2963
852.03	2895
852.165	3062
852.299	3138
852.434	3184
852.569	3192
852.703	3192
852.838	3249
852.973	3340
853.107	3348
853.242	3169
853.376	3123
853.511	2956
853.645	3058
853.78	3237
853.914	3138
854.048	3104
854.183	3070
854.317	3108
854.451	3294
854.585	3108
854.72	3070
854.854	3218
854.988	3047
855.122	3093
855.256	2986
855.39	3112
855.524	3233
855.658	3207
855.792	3142
855.926	3192
856.06	3192
856.194	3253
856.327	3104
856.461	3093
856.595	3020
856.729	3123
856.862	3226
856.996	3169
857.13	3203
857.263	3203
857.397	3253
857.53	3123
857.664	3161
857.797	3233
857.931	3264
858.064	3146
858.197	3195
858.331	3146
858.464	3081
858.597	2963
858.731	3127
858.864	3119
858.997	3097
859.13	3184
859.263	3169
859.396	3222
859.529	3077
859.662	3085
859.795	3066
859.928	3119
860.061	3268
860.194	3279
860.327	3097
860.46	3074
860.592	3203
860.725	3256
860.858	3207
860.99	3097
861.123	3058
861.256	3009
861.388	3161
861.521	3793
861.653	3024
861.786	2956
861.918	3001
862.05	3055
862.183	3081
862.315	3146
862.447	3195
862.58	3070
862.712	2929
862.844	2853
862.976	2998
863.108	3013
863.24	3416
863.372	2861
863.504	2960
863.636	2895
863.768	3028
863.9	2971
864.032	2929
864.164	2956
864.296	3024
864.428	3089
864.559	3097
864.691	3062
864.823	3074
864.954	3047
865.086	3036
865.217	2998
865.349	2979
865.48	2994
865.612	2990
865.743	3131
865.875	2994
866.006	2960
866.137	2979
866.269	2925
866.4	2929
866.531	2918
866.662	2876
866.793	2895
866.924	2876
867.055	2975
867.186	2906
867.317	2906
867.448	2845
867.579	2842
867.71	2853
867.841	2804
867.972	2899
868.103	2899
868.233	2830
868.364	2868
868.495	2891
868.625	3051
868.756	3161
868.886	2960
869.017	3036
869.147	3180
869.278	3165
869.408	3070
869.539	3028
869.669	3100
869.799	3051
869.929	3108
870.06	3055
870.19	3310
870.32	3313
870.45	3275
870.58	3348
870.71	3416
870.84	3409
870.97	3298
871.1	3222
871.23	3462
871.36	3431
871.489	3363
871.619	3374
871.749	3397
871.879	3405
872.008	3473
872.138	3367
872.267	3264
872.397	3142
872.526	3104
872.656	3032
872.785	3093
872.915	3253
873.044	3302
873.173	3226
873.303	3268
873.432	3237
873.561	3230
873.69	3131
873.819	3146
873.948	3199
874.077	3123
874.206	3039
874.335	3085
874.464	3199
874.593	3363
874.722	3237
874.851	3386
874.979	3359
875.108	3344
875.237	3169
875.365	3161
875.494	3119
875.623	3245
875.751	3093
875.88	3119
876.008	3165
876.136	3192
876.265	3359
876.393	3507
876.521	3386
876.65	3367
876.778	3374
876.906	3222
877.034	3195
877.162	3230
877.29	3180
877.418	3260
877.546	3218
877.674	3249
877.802	3253
877.93	3203
878.058	3157
878.185	3077
878.313	3207
878.441	3188
878.568	3081
878.696	3169
878.824	3214
878.951	3275
879.079	3458
879.206	3606
879.333	3397
879.461	3329
879.588	3351
879.715	3519
879.842	3606
879.97	3355
880.097	3188
880.224	3085
880.351	3169
880.478	3192
880.605	3203
880.732	3161
880.859	3481
880.986	3306
881.112	3317
881.239	3245
881.366	3070
881.493	3020
881.619	2994
881.746	3051
881.872	3070
881.999	3081
882.125	3119
882.252	3241
882.378	3275
882.505	3447
882.631	3332
882.757	3146
882.883	3184
883.01	3218
883.136	3173
883.262	3108
883.388	3104
883.514	3313
883.64	3294
883.766	3310
883.892	3188
884.018	3268
884.143	3439
884.269	3542
884.395	3199
884.52	3154
884.646	3192
884.772	3104
884.897	3116
885.023	3188
885.148	3348
885.274	3458
885.399	3367
885.524	3230
885.65	3272
885.775	3329
885.9	3260
886.025	3401
886.15	3374
886.275	3321
886.4	3241
886.525	3310
886.65	3256
886.775	3253
886.9	3492
887.025	3614
887.149	3393
887.274	3264
887.399	3173
887.523	3176
887.648	3176
887.773	3165
887.897	3344
888.021	3397
888.146	3298
888.27	3454
888.395	3538
888.519	3439
888.643	3435
888.767	3458
888.891	3291
889.015	3230
889.139	3275
889.263	3230
889.387	3382
889.511	3481
889.635	3466
889.759	3283
889.883	3294
890.006	3420
890.13	3500
890.254	3298
890.377	3367
890.501	3207
890.624	3199
890.748	3298
890.871	3165
890.995	3097
891.118	3070
891.241	3222
891.364	3256
891.488	3336
891.611	3192
891.734	3230
891.857	3264
891.98	3241
892.103	3367
892.226	3256
892.349	3207
892.471	3135
892.594	3222
892.717	3302
892.839	3260
892.962	3237
893.085	3351
893.207	3294
893.33	3116
893.452	3199
893.575	3317
893.697	3256
893.819	3447
893.941	3500
894.064	3397
894.186	3264
894.308	3260
894.43	3431
894.552	3515
894.674	3428
894.796	3291
894.918	3340
895.04	3264
895.161	3389
895.283	3382
895.405	3321
895.526	3332
895.648	3401
895.769	3431
895.891	3462
896.012	3454
896.134	3485
896.255	3412
896.376	3378
896.498	3348
896.619	3443
896.74	3367
896.861	3409
896.982	3709
897.103	3850
897.224	3606
897.345	3523
897.466	3393
897.587	3469
897.708	3629
897.828	3564
897.949	3443
898.07	3321
898.19	3370
898.311	3603
898.431	3439
898.552	3526
898.672	3595
898.792	3580
898.913	3511
899.033	3435
899.153	3268
899.273	3207
899.393	3313
899.513	3306
899.633	3283
899.753	3332
899.873	3317
899.993	3359
900.113	3329
900.232	3397
900.352	3363
900.472	3279
900.591	3195
900.711	3313
900.83	3268
900.95	3428
901.069	3500
901.189	3359
901.308	3169
901.427	3112
901.546	3165
901.665	3256
901.784	3302
901.904	3207
902.023	3131
902.141	3058
902.26	2994
902.379	3108
902.498	3077
902.617	3062
902.735	3176
902.854	3253
902.973	3226
903.091	3070
903.21	3066
903.328	3127
903.446	3085
903.565	3074
903.683	3180
903.801	3150
903.919	3249
904.038	3275
904.156	3184
904.274	3287
904.392	3233
904.51	3275
904.627	3313
904.745	3435
904.863	3496
904.981	3249
905.098	3165
905.216	3275
905.334	3272
905.451	3294
905.569	3294
905.686	3401
905.803	3431
905.921	3253
906.038	3439
906.155	3329
906.272	3291
906.389	3325
906.506	3249
906.623	3241
906.74	3264
906.857	3195
906.974	3253
907.091	3462
907.208	3534
907.324	3473
907.441	3363
907.557	3237
907.674	3207
907.79	3150
907.907	3275
908.023	3382
908.139	3359
908.256	3336
908.372	3382
908.488	3370
908.604	3268
908.72	3237
908.836	3298
908.952	3306
909.068	3313
909.184	3530
909.3	3401
909.415	3492
909.531	3481
909.647	3237
909.762	3256
909.878	3264
909.993	3325
910.108	3355
910.224	3348
910.339	3443
910.454	3370
910.57	3279
910.685	3237
910.8	3576
910.915	3534
911.03	3405
911.145	3275
911.259	3294
911.374	3279
911.489	3291
911.604	3260
911.718	3131
911.833	3161
911.947	3032
912.062	2982
912.176	3173
912.291	3195
912.405	3230
912.519	3428
912.633	3485
912.748	3359
912.862	3226
912.976	3165
913.09	3089
913.204	3112
913.318	3195
913.431	3340
913.545	3313
913.659	3412
913.772	3329
913.886	3230
914	3195
914.113	3355
914.226	3401
914.34	3412
914.453	3188
914.566	3428
914.68	3279
914.793	3268
914.906	3146
915.019	3123
915.132	3047
915.245	3169
915.358	3192
915.47	3237
915.583	3275
915.696	3279
915.809	3409
915.921	3409
916.034	3287
916.146	3249
916.259	3241
916.371	3359
916.483	3382
916.595	3264
916.708	3348
916.82	3363
916.932	3325
917.044	3279
917.156	3359
917.268	3260
917.38	3302
917.491	3298
917.603	3336
917.715	3447
917.826	3405
917.938	3351
918.049	3291
918.161	3450
918.272	3557
918.384	3534
918.495	3507
918.606	3329
918.717	3310
918.828	3344
918.939	3420
919.05	3317
919.161	3386
919.272	3176
919.383	3272
919.494	3473
919.604	3682
919.715	3492
919.826	3424
919.936	3428
920.047	3553
920.157	3504
920.267	3759
920.378	3614
920.488	3622
920.598	3785
920.708	4021
920.818	3808
920.928	3800
921.038	4040
921.148	3949
921.258	3709
921.368	3622
921.477	3580
921.587	3504
921.697	3488
921.806	3625
921.916	3523
922.025	3310
922.134	3332
922.244	3317
922.353	3431
922.462	3306
922.571	3287
922.68	3104
922.789	3089
922.898	3093
923.007	3112
923.116	3214
923.224	3157
923.333	3180
923.442	3085
923.55	3074
923.659	3150
923.767	3195
923.876	3176
923.984	3272
924.092	3066
924.201	3161
924.309	3207
924.417	3264
924.525	3199
924.633	3237
924.741	4200
924.849	3043
924.956	3249
925.064	3093
925.172	3062
925.279	3108
925.387	3214
925.494	3180
925.602	3340
925.709	3313
925.816	3207
925.924	3272
926.031	3363
926.138	3298
926.245	3367
926.352	3218
926.459	3428
926.566	3447
926.673	3325
926.779	3245
926.886	3256
926.993	3230
927.099	3093
927.206	3112
927.312	3081
927.419	3218
927.525	3199
927.631	3264
927.737	3180
927.843	3093
927.95	2994
928.056	3142
928.162	3180
928.267	3237
928.373	3953
928.479	3313
928.585	3051
928.69	3237
928.796	3302
928.901	3192
929.007	3024
929.112	3222
929.218	3199
929.323	3135
929.428	3161
929.533	3306
929.638	3157
929.743	3165
929.848	3253
929.953	3192
930.058	3127
930.163	2986
930.267	3017
930.372	3203
930.477	3039
930.581	3317
930.685	3176
930.79	3055
930.894	3131
930.998	3104
931.103	3249
931.207	2925
931.311	2933
931.415	2933
931.519	2746
931.623	2823
