Data from test_V78500241_410.txt Node
Date: Fri Mar 25 16:18:02 CST 2022
User: usil
Spectrometer: V785-0024
Trigger mode: 0
Integration Time (sec): 4.000000E-1
Scans to average: 1
Nonlinearity correction enabled: false
Boxcar width: 0
Storing dark spectrum: false
XAxis mode: Wavelengths
Number of Pixels in Spectrum: 1024
>>>>>Begin Spectral Data<<<<<
801.071	2895
801.214	2963
801.356	2899
801.499	2952
801.641	2876
801.783	2960
801.926	3093
802.068	2967
802.211	3009
802.353	3036
802.496	2952
802.638	3013
802.78	3051
802.923	3104
803.065	3055
803.208	2902
803.35	2922
803.492	2910
803.635	2952
803.777	2788
803.919	2891
804.061	3195
804.204	2975
804.346	2925
804.488	2872
804.63	3024
804.773	2895
804.915	2941
805.057	3112
805.199	2929
805.341	2963
805.483	3077
805.626	3028
805.768	2994
805.91	3066
806.052	3131
806.194	3070
806.336	3226
806.478	3047
806.62	2979
806.762	2963
806.904	3089
807.046	3207
807.188	2990
807.33	2933
807.472	2975
807.614	2868
807.756	2990
807.898	2899
808.04	2929
808.182	3024
808.324	2979
808.465	2910
808.607	2906
808.749	2807
808.891	2842
809.033	2971
809.174	3005
809.316	2864
809.458	2872
809.6	2788
809.741	2777
809.883	2762
810.025	2872
810.166	2861
810.308	2842
810.45	2861
810.591	2766
810.733	2754
810.875	2811
811.016	2804
811.158	2754
811.299	2804
811.441	2910
811.582	2895
811.724	2823
811.865	2864
812.007	2914
812.148	2838
812.29	2853
812.431	2891
812.573	2933
812.714	2933
812.855	3036
812.997	3043
813.138	3112
813.279	3013
813.421	2967
813.562	2956
813.703	2823
813.845	2883
813.986	2792
814.127	2708
814.268	2804
814.41	2815
814.551	2807
814.692	2887
814.833	2857
814.974	2918
815.115	2960
815.256	2807
815.397	2838
815.539	2857
815.68	2766
815.821	2815
815.962	2941
816.103	2922
816.244	2868
816.385	2849
816.526	2998
816.666	2902
816.807	2743
816.948	2895
817.089	2899
817.23	2857
817.371	2781
817.512	2792
817.653	2876
817.793	2811
817.934	2861
818.075	2952
818.216	2963
818.356	3032
818.497	2902
818.638	2807
818.778	2853
818.919	2838
819.06	2773
819.2	2902
819.341	2815
819.481	2864
819.622	2937
819.762	3104
819.903	3043
820.043	2918
820.184	2960
820.324	2922
820.465	3058
820.605	3043
820.746	3039
820.886	2963
821.026	3097
821.167	3169
821.307	3325
821.447	3313
821.588	3272
821.728	3222
821.868	3230
822.008	3146
822.149	3195
822.289	3287
822.429	3097
822.569	3127
822.709	3233
822.849	3024
822.99	3081
823.13	3195
823.27	3214
823.41	3150
823.55	3192
823.69	3176
823.83	3222
823.97	3157
824.11	3028
824.25	3017
824.389	3123
824.529	3127
824.669	3100
824.809	3226
824.949	3275
825.089	3245
825.228	3188
825.368	3024
825.508	3009
825.648	3005
825.787	3005
825.927	3032
826.067	3036
826.206	2986
826.346	3066
826.485	3135
826.625	3150
826.765	3298
826.904	3226
827.044	3043
827.183	2998
827.323	2899
827.462	2998
827.601	2971
827.741	2956
827.88	3001
828.02	2864
828.159	3032
828.298	3062
828.437	3154
828.577	3081
828.716	3310
828.855	3154
828.994	2937
829.134	2918
829.273	2910
829.412	2891
829.551	2925
829.69	2963
829.829	3013
829.968	3176
830.107	3062
830.246	3047
830.385	2986
830.524	2929
830.663	2876
830.802	2750
830.941	2682
831.08	2724
831.219	2823
831.357	2792
831.496	3009
831.635	2769
831.774	2697
831.913	2708
832.051	2552
832.19	2659
832.329	2716
832.467	2579
832.606	2526
832.744	2606
832.883	2617
833.022	2621
833.16	2674
833.299	2708
833.437	2735
833.576	2739
833.714	2781
833.852	2743
833.991	2766
834.129	2868
834.267	2876
834.406	2838
834.544	2906
834.682	2922
834.821	2899
834.959	3093
835.097	2914
835.235	3066
835.373	2994
835.511	3020
835.65	2979
835.788	3001
835.926	2876
836.064	2857
836.202	2887
836.34	3131
836.478	3230
836.615	3089
836.753	3169
836.891	3256
837.029	3173
837.167	3127
837.305	3108
837.443	3077
837.58	2990
837.718	3207
837.856	3100
837.993	3043
838.131	3108
838.269	3104
838.406	3116
838.544	3093
838.681	2982
838.819	2933
838.956	2876
839.094	2834
839.231	2956
839.369	3032
839.506	3405
839.643	3214
839.781	3051
839.918	2960
840.055	3062
840.193	3051
840.33	3089
840.467	3131
840.604	3146
840.742	3447
840.879	3093
841.016	3032
841.153	3165
841.29	3351
841.427	3325
841.564	3302
841.701	3344
841.838	3272
841.975	3192
842.112	3275
842.249	3119
842.385	3081
842.522	3321
842.659	3154
842.796	3100
842.933	3150
843.069	3089
843.206	3081
843.343	3226
843.479	3150
843.616	3184
843.752	2929
843.889	2918
844.025	3100
844.162	2883
844.298	3119
844.435	2994
844.571	2925
844.708	3077
844.844	3188
844.98	3272
845.117	3237
845.253	3112
845.389	3051
845.525	3146
845.661	3135
845.798	3051
845.934	3169
846.07	3116
846.206	3268
846.342	3344
846.478	3275
846.614	3108
846.75	3070
846.886	3032
847.022	3272
847.158	3173
847.294	3230
847.429	3272
847.565	3268
847.701	3519
847.837	3081
847.972	3013
848.108	3188
848.244	3192
848.379	3020
848.515	2952
848.65	2971
848.786	3032
848.921	3047
849.057	3127
849.192	3119
849.328	3108
849.463	3157
849.598	3070
849.734	3081
849.869	3028
850.004	2918
850.14	3009
850.275	2956
850.41	2864
850.545	2891
850.68	2933
850.815	2986
850.95	2994
851.085	3214
851.22	3138
851.355	3058
851.49	3017
851.625	3028
851.76	3070
851.895	2941
852.03	2967
852.165	3032
852.299	3173
852.434	3218
852.569	3173
852.703	3211
852.838	3249
852.973	3393
853.107	3367
853.242	3154
853.376	3104
853.511	3017
853.645	3081
853.78	3287
853.914	3146
854.048	3180
854.183	3058
854.317	3131
854.451	3310
854.585	3165
854.72	3093
854.854	3233
854.988	3074
855.122	3104
855.256	3001
855.39	3135
855.524	3287
855.658	3226
855.792	3169
855.926	3195
856.06	3279
856.194	3287
856.327	3230
856.461	3108
856.595	3104
856.729	3104
856.862	3207
856.996	3203
857.13	3241
857.263	3218
857.397	3306
857.53	3180
857.664	3214
857.797	3249
857.931	3253
858.064	3211
858.197	3226
858.331	3157
858.464	3104
858.597	3055
858.731	3150
858.864	3108
858.997	3104
859.13	3211
859.263	3184
859.396	3233
859.529	3116
859.662	3100
859.795	3066
859.928	3131
860.061	3298
860.194	3306
860.327	3146
860.46	3123
860.592	3260
860.725	3272
860.858	3298
860.99	3108
861.123	3085
861.256	3066
861.388	3169
861.521	3846
861.653	3058
861.786	3005
861.918	3039
862.05	3089
862.183	3150
862.315	3176
862.447	3214
862.58	3108
862.712	2944
862.844	2906
862.976	3066
863.108	3024
863.24	3466
863.372	2922
863.504	2979
863.636	2979
863.768	3112
863.9	3001
864.032	2914
864.164	2960
864.296	3043
864.428	3127
864.559	3093
864.691	3093
864.823	3077
864.954	3036
865.086	3119
865.217	3024
865.349	2975
865.48	2990
865.612	3043
865.743	3150
865.875	3020
866.006	2952
866.137	3013
866.269	2975
866.4	2948
866.531	2929
866.662	2937
866.793	2864
866.924	2895
867.055	3036
867.186	2948
867.317	2910
867.448	2857
867.579	2880
867.71	2868
867.841	2845
867.972	2925
868.103	2925
868.233	2918
868.364	2895
868.495	2925
868.625	3104
868.756	3222
868.886	3039
869.017	3058
869.147	3176
869.278	3165
869.408	3058
869.539	3001
869.669	3112
869.799	3093
869.929	3161
870.06	3165
870.19	3348
870.32	3283
870.45	3329
870.58	3393
870.71	3435
870.84	3511
870.97	3321
871.1	3211
871.23	3526
871.36	3481
871.489	3393
871.619	3397
871.749	3443
871.879	3447
872.008	3507
872.138	3378
872.267	3298
872.397	3150
872.526	3112
872.656	3013
872.785	3085
872.915	3268
873.044	3336
873.173	3275
873.303	3226
873.432	3245
873.561	3279
873.69	3138
873.819	3157
873.948	3207
874.077	3112
874.206	3066
874.335	3119
874.464	3256
874.593	3363
874.722	3268
874.851	3401
874.979	3363
875.108	3302
875.237	3233
875.365	3188
875.494	3195
875.623	3260
875.751	3123
875.88	3112
876.008	3195
876.136	3222
876.265	3378
876.393	3515
876.521	3431
876.65	3420
876.778	3332
876.906	3291
877.034	3249
877.162	3241
877.29	3203
877.418	3279
877.546	3268
877.674	3291
877.802	3245
877.93	3256
878.058	3142
878.185	3135
878.313	3241
878.441	3207
878.568	3085
878.696	3195
878.824	3256
878.951	3313
879.079	3458
879.206	3606
879.333	3454
879.461	3355
879.588	3367
879.715	3477
879.842	3606
879.97	3367
880.097	3211
880.224	3173
880.351	3199
880.478	3245
880.605	3207
880.732	3207
880.859	3488
880.986	3298
881.112	3359
881.239	3199
881.366	3097
881.493	3028
881.619	3051
881.746	3055
881.872	3070
881.999	3116
882.125	3127
882.252	3230
882.378	3321
882.505	3431
882.631	3294
882.757	3150
882.883	3233
883.01	3245
883.136	3184
883.262	3112
883.388	3116
883.514	3294
883.64	3420
883.766	3329
883.892	3192
884.018	3272
884.143	3454
884.269	3553
884.395	3180
884.52	3180
884.646	3233
884.772	3161
884.897	3123
885.023	3230
885.148	3325
885.274	3458
885.399	3355
885.524	3279
885.65	3294
885.775	3321
885.9	3287
886.025	3412
886.15	3370
886.275	3310
886.4	3279
886.525	3332
886.65	3260
886.775	3294
886.9	3504
887.025	3644
887.149	3405
887.274	3230
887.399	3199
887.523	3214
887.648	3199
887.773	3188
887.897	3428
888.021	3409
888.146	3313
888.27	3439
888.395	3526
888.519	3439
888.643	3458
888.767	3481
888.891	3306
889.015	3230
889.139	3313
889.263	3283
889.387	3405
889.511	3496
889.635	3443
889.759	3325
889.883	3294
890.006	3393
890.13	3500
890.254	3298
890.377	3367
890.501	3218
890.624	3188
890.748	3298
890.871	3157
890.995	3123
891.118	3077
891.241	3184
891.364	3230
891.488	3351
891.611	3203
891.734	3260
891.857	3317
891.98	3302
892.103	3363
892.226	3344
892.349	3233
892.471	3154
892.594	3226
892.717	3306
892.839	3283
892.962	3302
893.085	3389
893.207	3313
893.33	3180
893.452	3218
893.575	3340
893.697	3253
893.819	3496
893.941	3526
894.064	3435
894.186	3283
894.308	3298
894.43	3462
894.552	3523
894.674	3481
894.796	3306
894.918	3363
895.04	3283
895.161	3443
895.283	3401
895.405	3321
895.526	3382
895.648	3443
895.769	3462
895.891	3469
896.012	3466
896.134	3412
896.255	3409
896.376	3393
896.498	3420
896.619	3428
896.74	3389
896.861	3416
896.982	3740
897.103	3884
897.224	3580
897.345	3515
897.466	3428
897.587	3511
897.708	3622
897.828	3538
897.949	3458
898.07	3351
898.19	3409
898.311	3614
898.431	3469
898.552	3523
898.672	3568
898.792	3587
898.913	3511
899.033	3409
899.153	3298
899.273	3207
899.393	3264
899.513	3355
899.633	3329
899.753	3340
899.873	3321
899.993	3374
900.113	3351
900.232	3370
900.352	3355
900.472	3310
900.591	3237
900.711	3264
900.83	3237
900.95	3443
901.069	3485
901.189	3359
901.308	3188
901.427	3135
901.546	3154
901.665	3310
901.784	3329
901.904	3218
902.023	3150
902.141	3005
902.26	3017
902.379	3119
902.498	3085
902.617	3055
902.735	3207
902.854	3253
902.973	3165
903.091	3055
903.21	3097
903.328	3150
903.446	3085
903.565	3062
903.683	3195
903.801	3127
903.919	3313
904.038	3287
904.156	3199
904.274	3329
904.392	3249
904.51	3279
904.627	3348
904.745	3462
904.863	3492
904.981	3233
905.098	3203
905.216	3245
905.334	3260
905.451	3310
905.569	3329
905.686	3447
905.803	3424
905.921	3283
906.038	3428
906.155	3374
906.272	3294
906.389	3340
906.506	3169
906.623	3291
906.74	3291
906.857	3218
906.974	3230
907.091	3458
907.208	3561
907.324	3496
907.441	3378
907.557	3233
907.674	3260
907.79	3192
907.907	3306
908.023	3447
908.139	3389
908.256	3363
908.372	3386
908.488	3386
908.604	3249
908.72	3241
908.836	3302
908.952	3287
909.068	3340
909.184	3496
909.3	3389
909.415	3469
909.531	3477
909.647	3313
909.762	3279
909.878	3302
909.993	3329
910.108	3317
910.224	3382
910.339	3389
910.454	3374
910.57	3317
910.685	3233
910.8	3595
910.915	3587
911.03	3454
911.145	3291
911.259	3249
911.374	3344
911.489	3249
911.604	3272
911.718	3077
911.833	3154
911.947	3028
912.062	3020
912.176	3180
912.291	3192
912.405	3253
912.519	3439
912.633	3462
912.748	3351
912.862	3283
912.976	3226
913.09	3058
913.204	3169
913.318	3214
913.431	3363
913.545	3348
913.659	3363
913.772	3313
913.886	3218
914	3176
914.113	3374
914.226	3435
914.34	3363
914.453	3222
914.566	3443
914.68	3298
914.793	3325
914.906	3123
915.019	3089
915.132	3077
915.245	3165
915.358	3184
915.47	3203
915.583	3287
915.696	3253
915.809	3389
915.921	3439
916.034	3283
916.146	3279
916.259	3222
916.371	3405
916.483	3359
916.595	3287
916.708	3313
916.82	3325
916.932	3348
917.044	3351
917.156	3363
917.268	3253
917.38	3302
917.491	3279
917.603	3393
917.715	3462
917.826	3477
917.938	3405
918.049	3268
918.161	3412
918.272	3553
918.384	3549
918.495	3485
918.606	3340
918.717	3268
918.828	3367
918.939	3439
919.05	3294
919.161	3405
919.272	3135
919.383	3283
919.494	3564
919.604	3648
919.715	3500
919.826	3428
919.936	3469
920.047	3561
920.157	3553
920.267	3774
920.378	3641
920.488	3599
920.598	3816
920.708	3956
920.818	3854
920.928	3873
921.038	4051
921.148	3983
921.258	3694
921.368	3641
921.477	3572
921.587	3534
921.697	3485
921.806	3629
921.916	3519
922.025	3355
922.134	3370
922.244	3317
922.353	3466
922.462	3245
922.571	3249
922.68	3108
922.789	3081
922.898	3154
923.007	3077
923.116	3222
923.224	3195
923.333	3195
923.442	3089
923.55	3100
923.659	3154
923.767	3207
923.876	3104
923.984	3180
924.092	3108
924.201	3176
924.309	3218
924.417	3275
924.525	3207
924.633	3264
924.741	4181
924.849	3058
924.956	3279
925.064	3100
925.172	3036
925.279	3112
925.387	3245
925.494	3245
925.602	3336
925.709	3340
925.816	3180
925.924	3287
926.031	3393
926.138	3359
926.245	3351
926.352	3256
926.459	3424
926.566	3481
926.673	3363
926.779	3249
926.886	3256
926.993	3146
927.099	3097
927.206	3135
927.312	3112
927.419	3218
927.525	3176
927.631	3287
927.737	3150
927.843	3161
927.95	3036
928.056	3104
928.162	3241
928.267	3321
928.373	3884
928.479	3313
928.585	3070
928.69	3233
928.796	3268
928.901	3169
929.007	3070
929.112	3203
929.218	3169
929.323	3127
929.428	3142
929.533	3332
929.638	3123
929.743	3173
929.848	3272
929.953	3195
930.058	3150
930.163	2990
930.267	3093
930.372	3207
930.477	3043
930.581	3298
930.685	3188
930.79	3051
930.894	3123
930.998	3081
931.103	3268
931.207	2925
931.311	2960
931.415	2933
931.519	2777
931.623	2834
