Data from test_V78500241_683.txt Node
Date: Fri Mar 25 16:19:56 CST 2022
User: usil
Spectrometer: V785-0024
Trigger mode: 0
Integration Time (sec): 4.000000E-1
Scans to average: 1
Nonlinearity correction enabled: false
Boxcar width: 0
Storing dark spectrum: false
XAxis mode: Wavelengths
Number of Pixels in Spectrum: 1024
>>>>>Begin Spectral Data<<<<<
801.071	2933
801.214	2948
801.356	2887
801.499	2914
801.641	2914
801.783	2956
801.926	3017
802.068	2990
802.211	3047
802.353	3020
802.496	2979
802.638	3047
802.78	3024
802.923	3100
803.065	2956
803.208	2899
803.35	2941
803.492	2925
803.635	2910
803.777	2811
803.919	2849
804.061	3222
804.204	2975
804.346	2918
804.488	2849
804.63	3009
804.773	2891
804.915	2880
805.057	3097
805.199	2956
805.341	2998
805.483	3028
805.626	3013
805.768	2948
805.91	3097
806.052	3077
806.194	3005
806.336	3249
806.478	3013
806.62	2929
806.762	2971
806.904	3047
807.046	3169
807.188	2982
807.33	2883
807.472	2967
807.614	2895
807.756	2998
807.898	2910
808.04	2910
808.182	2937
808.324	2902
808.465	2914
808.607	2899
808.749	2750
808.891	2830
809.033	2960
809.174	2941
809.316	2918
809.458	2906
809.6	2792
809.741	2762
809.883	2788
810.025	2845
810.166	2834
810.308	2834
810.45	2872
810.591	2762
810.733	2773
810.875	2864
811.016	2785
811.158	2758
811.299	2838
811.441	2937
811.582	2868
811.724	2838
811.865	2845
812.007	2864
812.148	2864
812.29	2853
812.431	2891
812.573	2922
812.714	2956
812.855	3036
812.997	3066
813.138	3100
813.279	2960
813.421	2982
813.562	2979
813.703	2895
813.845	2899
813.986	2781
814.127	2731
814.268	2762
814.41	2861
814.551	2807
814.692	2887
814.833	2834
814.974	2876
815.115	2963
815.256	2838
815.397	2766
815.539	2868
815.68	2762
815.821	2792
815.962	2952
816.103	2925
816.244	2857
816.385	2891
816.526	2952
816.666	2918
816.807	2754
816.948	2868
817.089	2929
817.23	2849
817.371	2762
817.512	2762
817.653	2861
817.793	2788
817.934	2861
818.075	2960
818.216	2982
818.356	2982
818.497	2910
818.638	2792
818.778	2792
818.919	2815
819.06	2750
819.2	2906
819.341	2815
819.481	2785
819.622	2914
819.762	3039
819.903	3036
820.043	2910
820.184	2880
820.324	2876
820.465	2994
820.605	2944
820.746	3009
820.886	2918
821.026	3070
821.167	3123
821.307	3214
821.447	3287
821.588	3226
821.728	3157
821.868	3218
822.008	3081
822.149	3195
822.289	3226
822.429	3089
822.569	3097
822.709	3165
822.849	3001
822.99	3070
823.13	3184
823.27	3230
823.41	3157
823.55	3173
823.69	3180
823.83	3222
823.97	3135
824.11	3009
824.25	3055
824.389	3081
824.529	3135
824.669	3066
824.809	3222
824.949	3264
825.089	3211
825.228	3165
825.368	3062
825.508	2982
825.648	2998
825.787	3020
825.927	3051
826.067	3028
826.206	2952
826.346	3081
826.485	3074
826.625	3161
826.765	3317
826.904	3249
827.044	3028
827.183	3009
827.323	2891
827.462	3020
827.601	2963
827.741	2944
827.88	2948
828.02	2902
828.159	3043
828.298	3058
828.437	3165
828.577	3097
828.716	3287
828.855	3119
828.994	2944
829.134	2906
829.273	2960
829.412	2880
829.551	2914
829.69	2944
829.829	3009
829.968	3188
830.107	3058
830.246	3043
830.385	2975
830.524	2902
830.663	2815
830.802	2777
830.941	2689
831.08	2689
831.219	2785
831.357	2781
831.496	3001
831.635	2788
831.774	2686
831.913	2716
832.051	2575
832.19	2590
832.329	2731
832.467	2590
832.606	2522
832.744	2636
832.883	2598
833.022	2617
833.16	2716
833.299	2731
833.437	2712
833.576	2746
833.714	2750
833.852	2754
833.991	2792
834.129	2880
834.267	2887
834.406	2845
834.544	2895
834.682	2914
834.821	2868
834.959	3066
835.097	2914
835.235	3062
835.373	3024
835.511	3039
835.65	3001
835.788	3017
835.926	2876
836.064	2849
836.202	2895
836.34	3116
836.478	3184
836.615	3112
836.753	3207
836.891	3264
837.029	3195
837.167	3142
837.305	3093
837.443	3047
837.58	2990
837.718	3173
837.856	3081
837.993	3036
838.131	3119
838.269	3146
838.406	3127
838.544	3150
838.681	2971
838.819	2891
838.956	2834
839.094	2864
839.231	2929
839.369	3081
839.506	3405
839.643	3222
839.781	3036
839.918	2971
840.055	3058
840.193	3085
840.33	3104
840.467	3135
840.604	3154
840.742	3409
840.879	3058
841.016	3104
841.153	3142
841.29	3370
841.427	3336
841.564	3332
841.701	3340
841.838	3214
841.975	3230
842.112	3249
842.249	3135
842.385	3077
842.522	3294
842.659	3116
842.796	3135
842.933	3131
843.069	3066
843.206	3097
843.343	3192
843.479	3100
843.616	3157
843.752	2914
843.889	2891
844.025	3116
844.162	2906
844.298	3127
844.435	2982
844.571	2910
844.708	3081
844.844	3199
844.98	3310
845.117	3218
845.253	3081
845.389	3043
845.525	3112
845.661	3138
845.798	3051
845.934	3138
846.07	3112
846.206	3233
846.342	3325
846.478	3260
846.614	3135
846.75	3074
846.886	3074
847.022	3275
847.158	3173
847.294	3249
847.429	3291
847.565	3218
847.701	3507
847.837	3051
847.972	3005
848.108	3176
848.244	3135
848.379	3036
848.515	2960
848.65	2994
848.786	2986
848.921	3017
849.057	3112
849.192	3154
849.328	3074
849.463	3123
849.598	3039
849.734	3074
849.869	2971
850.004	2960
850.14	3001
850.275	2933
850.41	2849
850.545	2918
850.68	2971
850.815	2960
850.95	2998
851.085	3188
851.22	3135
851.355	3055
851.49	3032
851.625	3032
851.76	3081
851.895	2963
852.03	2937
852.165	3089
852.299	3184
852.434	3207
852.569	3150
852.703	3165
852.838	3260
852.973	3370
853.107	3359
853.242	3176
853.376	3108
853.511	3017
853.645	3093
853.78	3268
853.914	3157
854.048	3119
854.183	3104
854.317	3188
854.451	3298
854.585	3161
854.72	3089
854.854	3233
854.988	3093
855.122	3116
855.256	2994
855.39	3123
855.524	3275
855.658	3192
855.792	3188
855.926	3222
856.06	3233
856.194	3283
856.327	3161
856.461	3081
856.595	3138
856.729	3077
856.862	3230
856.996	3218
857.13	3214
857.263	3226
857.397	3279
857.53	3077
857.664	3199
857.797	3241
857.931	3291
858.064	3180
858.197	3268
858.331	3127
858.464	3112
858.597	3024
858.731	3135
858.864	3169
858.997	3116
859.13	3154
859.263	3195
859.396	3264
859.529	3104
859.662	3100
859.795	3070
859.928	3218
860.061	3264
860.194	3325
860.327	3142
860.46	3127
860.592	3256
860.725	3279
860.858	3249
860.99	3123
861.123	3097
861.256	3074
861.388	3192
861.521	3953
861.653	3070
861.786	3013
861.918	3036
862.05	3089
862.183	3104
862.315	3165
862.447	3230
862.58	3097
862.712	2990
862.844	2902
862.976	3036
863.108	3017
863.24	3450
863.372	2902
863.504	2986
863.636	2944
863.768	3085
863.9	2971
864.032	2906
864.164	2971
864.296	3036
864.428	3108
864.559	3116
864.691	3112
864.823	3119
864.954	3051
865.086	3097
865.217	3009
865.349	2982
865.48	2994
865.612	3043
865.743	3214
865.875	2998
866.006	2956
866.137	2994
866.269	2948
866.4	2979
866.531	2960
866.662	2891
866.793	2922
866.924	2914
867.055	2986
867.186	2941
867.317	2914
867.448	2845
867.579	2887
867.71	2883
867.841	2826
867.972	2922
868.103	2906
868.233	2891
868.364	2910
868.495	2918
868.625	3112
868.756	3192
868.886	3013
869.017	2967
869.147	3195
869.278	3188
869.408	3066
869.539	3058
869.669	3165
869.799	3074
869.929	3138
870.06	3104
870.19	3310
870.32	3317
870.45	3336
870.58	3370
870.71	3450
870.84	3462
870.97	3359
871.1	3283
871.23	3500
871.36	3466
871.489	3382
871.619	3412
871.749	3454
871.879	3466
872.008	3511
872.138	3351
872.267	3310
872.397	3165
872.526	3119
872.656	3020
872.785	3123
872.915	3283
873.044	3332
873.173	3241
873.303	3233
873.432	3272
873.561	3253
873.69	3176
873.819	3138
873.948	3241
874.077	3108
874.206	3085
874.335	3100
874.464	3211
874.593	3348
874.722	3253
874.851	3389
874.979	3370
875.108	3363
875.237	3211
875.365	3169
875.494	3154
875.623	3260
875.751	3108
875.88	3123
876.008	3214
876.136	3218
876.265	3382
876.393	3526
876.521	3428
876.65	3435
876.778	3348
876.906	3253
877.034	3211
877.162	3264
877.29	3207
877.418	3241
877.546	3275
877.674	3275
877.802	3256
877.93	3218
878.058	3116
878.185	3123
878.313	3192
878.441	3256
878.568	3085
878.696	3150
878.824	3268
878.951	3287
879.079	3466
879.206	3629
879.333	3428
879.461	3397
879.588	3386
879.715	3526
879.842	3561
879.97	3374
880.097	3161
880.224	3135
880.351	3218
880.478	3233
880.605	3199
880.732	3249
880.859	3466
880.986	3325
881.112	3310
881.239	3154
881.366	3070
881.493	3043
881.619	3028
881.746	3093
881.872	3085
881.999	3131
882.125	3173
882.252	3310
882.378	3336
882.505	3485
882.631	3325
882.757	3157
882.883	3230
883.01	3233
883.136	3214
883.262	3108
883.388	3085
883.514	3340
883.64	3287
883.766	3336
883.892	3199
884.018	3275
884.143	3439
884.269	3561
884.395	3230
884.52	3173
884.646	3226
884.772	3157
884.897	3089
885.023	3218
885.148	3317
885.274	3409
885.399	3351
885.524	3310
885.65	3272
885.775	3348
885.9	3298
886.025	3428
886.15	3370
886.275	3325
886.4	3253
886.525	3351
886.65	3306
886.775	3321
886.9	3519
887.025	3637
887.149	3405
887.274	3256
887.399	3173
887.523	3184
887.648	3192
887.773	3169
887.897	3420
888.021	3397
888.146	3310
888.27	3409
888.395	3507
888.519	3458
888.643	3454
888.767	3507
888.891	3325
889.015	3222
889.139	3325
889.263	3245
889.387	3462
889.511	3526
889.635	3447
889.759	3279
889.883	3321
890.006	3367
890.13	3428
890.254	3291
890.377	3329
890.501	3222
890.624	3211
890.748	3298
890.871	3138
890.995	3119
891.118	3062
891.241	3207
891.364	3218
891.488	3344
891.611	3188
891.734	3256
891.857	3294
891.98	3253
892.103	3351
892.226	3249
892.349	3249
892.471	3135
892.594	3199
892.717	3313
892.839	3283
892.962	3287
893.085	3367
893.207	3317
893.33	3157
893.452	3214
893.575	3370
893.697	3275
893.819	3504
893.941	3523
894.064	3466
894.186	3272
894.308	3226
894.43	3416
894.552	3530
894.674	3473
894.796	3256
894.918	3325
895.04	3325
895.161	3458
895.283	3409
895.405	3313
895.526	3355
895.648	3420
895.769	3431
895.891	3435
896.012	3511
896.134	3477
896.255	3416
896.376	3412
896.498	3363
896.619	3466
896.74	3389
896.861	3416
896.982	3660
897.103	3842
897.224	3599
897.345	3526
897.466	3424
897.587	3443
897.708	3644
897.828	3515
897.949	3397
898.07	3386
898.19	3424
898.311	3686
898.431	3447
898.552	3576
898.672	3622
898.792	3595
898.913	3507
899.033	3431
899.153	3279
899.273	3241
899.393	3306
899.513	3313
899.633	3310
899.753	3359
899.873	3317
899.993	3382
900.113	3332
900.232	3389
900.352	3359
900.472	3302
900.591	3226
900.711	3294
900.83	3230
900.95	3439
901.069	3504
901.189	3412
901.308	3165
901.427	3138
901.546	3203
901.665	3256
901.784	3329
901.904	3218
902.023	3161
902.141	3028
902.26	2975
902.379	3161
902.498	3051
902.617	3081
902.735	3211
902.854	3245
902.973	3161
903.091	3047
903.21	3085
903.328	3123
903.446	3127
903.565	3085
903.683	3188
903.801	3157
903.919	3222
904.038	3287
904.156	3180
904.274	3279
904.392	3241
904.51	3275
904.627	3332
904.745	3439
904.863	3481
904.981	3256
905.098	3214
905.216	3230
905.334	3294
905.451	3302
905.569	3310
905.686	3389
905.803	3412
905.921	3283
906.038	3393
906.155	3363
906.272	3268
906.389	3370
906.506	3214
906.623	3268
906.74	3287
906.857	3203
906.974	3249
907.091	3462
907.208	3538
907.324	3458
907.441	3393
907.557	3184
907.674	3226
907.79	3184
907.907	3287
908.023	3409
908.139	3382
908.256	3313
908.372	3367
908.488	3386
908.604	3287
908.72	3195
908.836	3294
908.952	3260
909.068	3344
909.184	3545
909.3	3397
909.415	3511
909.531	3492
909.647	3260
909.762	3306
909.878	3260
909.993	3378
910.108	3393
910.224	3359
910.339	3386
910.454	3382
910.57	3344
910.685	3237
910.8	3637
910.915	3511
911.03	3409
911.145	3253
911.259	3241
911.374	3291
911.489	3268
911.604	3222
911.718	3100
911.833	3138
911.947	3097
912.062	2979
912.176	3211
912.291	3195
912.405	3218
912.519	3405
912.633	3454
912.748	3359
912.862	3291
912.976	3188
913.09	3039
913.204	3176
913.318	3256
913.431	3325
913.545	3351
913.659	3409
913.772	3336
913.886	3199
914	3211
914.113	3340
914.226	3462
914.34	3374
914.453	3245
914.566	3355
914.68	3283
914.793	3306
914.906	3138
915.019	3123
915.132	3081
915.245	3157
915.358	3203
915.47	3222
915.583	3264
915.696	3283
915.809	3412
915.921	3412
916.034	3256
916.146	3245
916.259	3207
916.371	3389
916.483	3363
916.595	3283
916.708	3332
916.82	3363
916.932	3374
917.044	3325
917.156	3310
917.268	3249
917.38	3298
917.491	3291
917.603	3374
917.715	3454
917.826	3488
917.938	3348
918.049	3275
918.161	3431
918.272	3580
918.384	3587
918.495	3507
918.606	3336
918.717	3294
918.828	3367
918.939	3435
919.05	3317
919.161	3397
919.272	3188
919.383	3287
919.494	3500
919.604	3698
919.715	3488
919.826	3416
919.936	3431
920.047	3564
920.157	3553
920.267	3705
920.378	3648
920.488	3564
920.598	3740
920.708	3937
920.818	3831
920.928	3827
921.038	4021
921.148	4017
921.258	3724
921.368	3629
921.477	3564
921.587	3515
921.697	3454
921.806	3625
921.916	3534
922.025	3355
922.134	3332
922.244	3294
922.353	3367
922.462	3272
922.571	3233
922.68	3104
922.789	3093
922.898	3138
923.007	3081
923.116	3222
923.224	3184
923.333	3188
923.442	3119
923.55	3070
923.659	3154
923.767	3214
923.876	3119
923.984	3226
924.092	3070
924.201	3192
924.309	3211
924.417	3237
924.525	3222
924.633	3222
924.741	3964
924.849	3062
924.956	3245
925.064	3112
925.172	3043
925.279	3108
925.387	3211
925.494	3199
925.602	3351
925.709	3310
925.816	3203
925.924	3279
926.031	3382
926.138	3329
926.245	3351
926.352	3253
926.459	3401
926.566	3477
926.673	3344
926.779	3264
926.886	3226
926.993	3138
927.099	3135
927.206	3116
927.312	3100
927.419	3230
927.525	3195
927.631	3283
927.737	3146
927.843	3127
927.95	3032
928.056	3176
928.162	3195
928.267	3253
928.373	3789
928.479	3306
928.585	3039
928.69	3169
928.796	3294
928.901	3146
929.007	3043
929.112	3214
929.218	3165
929.323	3135
929.428	3142
929.533	3321
929.638	3135
929.743	3123
929.848	3279
929.953	3207
930.058	3157
930.163	2998
930.267	3039
930.372	3180
930.477	3036
930.581	3317
930.685	3146
930.79	3020
930.894	3104
930.998	3070
931.103	3245
931.207	2967
931.311	2971
931.415	2910
931.519	2807
931.623	2826
