Data from test_V78500241_1123.txt Node
Date: Fri Mar 25 16:22:58 CST 2022
User: usil
Spectrometer: V785-0024
Trigger mode: 0
Integration Time (sec): 4.000000E-1
Scans to average: 1
Nonlinearity correction enabled: false
Boxcar width: 0
Storing dark spectrum: false
XAxis mode: Wavelengths
Number of Pixels in Spectrum: 1024
>>>>>Begin Spectral Data<<<<<
801.071	2937
801.214	2952
801.356	2906
801.499	2918
801.641	2952
801.783	2933
801.926	3108
802.068	3020
802.211	3036
802.353	3066
802.496	2960
802.638	3039
802.78	3077
802.923	3127
803.065	3024
803.208	2952
803.35	2960
803.492	2975
803.635	2967
803.777	2762
803.919	2872
804.061	3203
804.204	2960
804.346	2895
804.488	2807
804.63	3020
804.773	2880
804.915	2937
805.057	3085
805.199	2933
805.341	3032
805.483	3066
805.626	3039
805.768	2956
805.91	3093
806.052	3116
806.194	3039
806.336	3253
806.478	3039
806.62	2990
806.762	2990
806.904	3085
807.046	3184
807.188	3024
807.33	2933
807.472	3001
807.614	2906
807.756	2979
807.898	2925
808.04	2887
808.182	2979
808.324	2963
808.465	2918
808.607	2922
808.749	2826
808.891	2880
809.033	2990
809.174	2960
809.316	2918
809.458	2906
809.6	2785
809.741	2777
809.883	2811
810.025	2845
810.166	2864
810.308	2830
810.45	2914
810.591	2811
810.733	2800
810.875	2842
811.016	2796
811.158	2788
811.299	2830
811.441	2944
811.582	2914
811.724	2830
811.865	2887
812.007	2925
812.148	2861
812.29	2861
812.431	2902
812.573	2967
812.714	3001
812.855	3051
812.997	3077
813.138	3104
813.279	3005
813.421	3032
813.562	2982
813.703	2899
813.845	2918
813.986	2811
814.127	2735
814.268	2853
814.41	2842
814.551	2834
814.692	2883
814.833	2842
814.974	2937
815.115	2963
815.256	2834
815.397	2838
815.539	2895
815.68	2762
815.821	2823
815.962	2975
816.103	2929
816.244	2891
816.385	2895
816.526	3001
816.666	2944
816.807	2743
816.948	2918
817.089	2933
817.23	2857
817.371	2807
817.512	2845
817.653	2857
817.793	2826
817.934	2922
818.075	2944
818.216	3024
818.356	2990
818.497	2891
818.638	2834
818.778	2864
818.919	2796
819.06	2750
819.2	2891
819.341	2826
819.481	2788
819.622	2937
819.762	3097
819.903	3024
820.043	2956
820.184	2891
820.324	2899
820.465	3017
820.605	3032
820.746	3066
820.886	2937
821.026	3127
821.167	3188
821.307	3279
821.447	3294
821.588	3260
821.728	3230
821.868	3199
822.008	3097
822.149	3173
822.289	3272
822.429	3089
822.569	3119
822.709	3211
822.849	3047
822.99	3108
823.13	3203
823.27	3230
823.41	3112
823.55	3146
823.69	3119
823.83	3211
823.97	3123
824.11	3009
824.25	3005
824.389	3074
824.529	3116
824.669	3055
824.809	3230
824.949	3260
825.089	3214
825.228	3180
825.368	3001
825.508	2929
825.648	2967
825.787	3013
825.927	3024
826.067	2967
826.206	3009
826.346	3017
826.485	3039
826.625	3123
826.765	3298
826.904	3180
827.044	3017
827.183	2956
827.323	2899
827.462	3005
827.601	2906
827.741	2933
827.88	2998
828.02	2880
828.159	3005
828.298	3055
828.437	3127
828.577	3047
828.716	3279
828.855	3108
828.994	2933
829.134	2880
829.273	2906
829.412	2845
829.551	2902
829.69	2906
829.829	3017
829.968	3161
830.107	3024
830.246	3009
830.385	2941
830.524	2891
830.663	2811
830.802	2682
830.941	2689
831.08	2629
831.219	2766
831.357	2754
831.496	2948
831.635	2727
831.774	2640
831.913	2667
832.051	2571
832.19	2587
832.329	2674
832.467	2556
832.606	2507
832.744	2590
832.883	2625
833.022	2598
833.16	2682
833.299	2659
833.437	2705
833.576	2682
833.714	2697
833.852	2746
833.991	2777
834.129	2838
834.267	2861
834.406	2792
834.544	2823
834.682	2864
834.821	2864
834.959	3074
835.097	2910
835.235	3055
835.373	3001
835.511	3001
835.65	2975
835.788	2960
835.926	2826
836.064	2804
836.202	2876
836.34	3108
836.478	3146
836.615	3055
836.753	3138
836.891	3253
837.029	3157
837.167	3089
837.305	3081
837.443	3066
837.58	2948
837.718	3176
837.856	3085
837.993	3039
838.131	3135
838.269	3093
838.406	3104
838.544	3097
838.681	2948
838.819	2937
838.956	2823
839.094	2853
839.231	2910
839.369	3047
839.506	3389
839.643	3218
839.781	3028
839.918	2994
840.055	3051
840.193	3085
840.33	3097
840.467	3123
840.604	3142
840.742	3367
840.879	3039
841.016	3066
841.153	3108
841.29	3336
841.427	3310
841.564	3222
841.701	3298
841.838	3222
841.975	3173
842.112	3230
842.249	3070
842.385	3032
842.522	3268
842.659	3104
842.796	3055
842.933	3127
843.069	3043
843.206	3074
843.343	3173
843.479	3119
843.616	3157
843.752	2899
843.889	2868
844.025	3070
844.162	2887
844.298	3081
844.435	2948
844.571	2918
844.708	3074
844.844	3157
844.98	3287
845.117	3207
845.253	3032
845.389	2990
845.525	3108
845.661	3119
845.798	3039
845.934	3100
846.07	3062
846.206	3230
846.342	3340
846.478	3203
846.614	3127
846.75	3017
846.886	3043
847.022	3260
847.158	3131
847.294	3192
847.429	3279
847.565	3222
847.701	3504
847.837	3020
847.972	2998
848.108	3154
848.244	3157
848.379	2971
848.515	2914
848.65	2941
848.786	2956
848.921	3032
849.057	3116
849.192	3127
849.328	3097
849.463	3150
849.598	3058
849.734	3047
849.869	3001
850.004	2929
850.14	2944
850.275	2891
850.41	2853
850.545	2895
850.68	2937
850.815	2960
850.95	2967
851.085	3214
851.22	3123
851.355	3020
851.49	2944
851.625	3013
851.76	3039
851.895	2967
852.03	2902
852.165	3066
852.299	3135
852.434	3226
852.569	3138
852.703	3184
852.838	3226
852.973	3348
853.107	3348
853.242	3138
853.376	3093
853.511	2944
853.645	3058
853.78	3237
853.914	3123
854.048	3108
854.183	3043
854.317	3176
854.451	3279
854.585	3165
854.72	3123
854.854	3169
854.988	3043
855.122	3108
855.256	2948
855.39	3135
855.524	3214
855.658	3203
855.792	3154
855.926	3192
856.06	3195
856.194	3279
856.327	3150
856.461	3043
856.595	3093
856.729	3055
856.862	3199
856.996	3169
857.13	3173
857.263	3233
857.397	3302
857.53	3146
857.664	3188
857.797	3230
857.931	3275
858.064	3161
858.197	3226
858.331	3093
858.464	3127
858.597	3009
858.731	3188
858.864	3142
858.997	3081
859.13	3169
859.263	3176
859.396	3195
859.529	3112
859.662	3119
859.795	3024
859.928	3142
860.061	3268
860.194	3249
860.327	3169
860.46	3081
860.592	3245
860.725	3260
860.858	3241
860.99	3116
861.123	3055
861.256	3093
861.388	3127
861.521	3762
861.653	2967
861.786	2975
861.918	3013
862.05	3066
862.183	3116
862.315	3157
862.447	3184
862.58	3108
862.712	2918
862.844	2853
862.976	3032
863.108	3001
863.24	3298
863.372	2880
863.504	2990
863.636	2929
863.768	3017
863.9	2979
864.032	2906
864.164	2963
864.296	3009
864.428	3100
864.559	3119
864.691	3074
864.823	3074
864.954	3032
865.086	3028
865.217	2971
865.349	2967
865.48	2982
865.612	3024
865.743	3154
865.875	2971
866.006	2914
866.137	2971
866.269	2929
866.4	2925
866.531	2918
866.662	2876
866.793	2895
866.924	2868
867.055	2990
867.186	2906
867.317	2895
867.448	2861
867.579	2861
867.71	2826
867.841	2800
867.972	2906
868.103	2906
868.233	2849
868.364	2891
868.495	2891
868.625	3066
868.756	3161
868.886	2979
869.017	3043
869.147	3176
869.278	3173
869.408	3081
869.539	3024
869.669	3108
869.799	3043
869.929	3169
870.06	3127
870.19	3329
870.32	3264
870.45	3313
870.58	3351
870.71	3431
870.84	3466
870.97	3291
871.1	3237
871.23	3515
871.36	3447
871.489	3382
871.619	3401
871.749	3428
871.879	3397
872.008	3492
872.138	3340
872.267	3268
872.397	3100
872.526	3100
872.656	2990
872.785	3097
872.915	3237
873.044	3310
873.173	3165
873.303	3245
873.432	3180
873.561	3241
873.69	3157
873.819	3150
873.948	3195
874.077	3093
874.206	3001
874.335	3093
874.464	3203
874.593	3359
874.722	3230
874.851	3389
874.979	3367
875.108	3351
875.237	3218
875.365	3104
875.494	3203
875.623	3211
875.751	3036
875.88	3066
876.008	3150
876.136	3264
876.265	3393
876.393	3538
876.521	3367
876.65	3393
876.778	3302
876.906	3230
877.034	3199
877.162	3222
877.29	3184
877.418	3207
877.546	3260
877.674	3268
877.802	3211
877.93	3226
878.058	3165
878.185	3104
878.313	3169
878.441	3173
878.568	3039
878.696	3127
878.824	3241
878.951	3291
879.079	3416
879.206	3629
879.333	3443
879.461	3321
879.588	3382
879.715	3545
879.842	3572
879.97	3378
880.097	3165
880.224	3135
880.351	3180
880.478	3184
880.605	3161
880.732	3192
880.859	3477
880.986	3310
881.112	3317
881.239	3214
881.366	3081
881.493	3043
881.619	3013
881.746	3077
881.872	3085
881.999	3112
882.125	3157
882.252	3241
882.378	3321
882.505	3424
882.631	3279
882.757	3123
882.883	3192
883.01	3214
883.136	3173
883.262	3108
883.388	3135
883.514	3370
883.64	3378
883.766	3325
883.892	3211
884.018	3245
884.143	3443
884.269	3496
884.395	3211
884.52	3123
884.646	3157
884.772	3142
884.897	3104
885.023	3180
885.148	3344
885.274	3431
885.399	3363
885.524	3245
885.65	3253
885.775	3329
885.9	3241
886.025	3386
886.15	3397
886.275	3283
886.4	3195
886.525	3249
886.65	3283
886.775	3272
886.9	3477
887.025	3648
887.149	3409
887.274	3226
887.399	3203
887.523	3180
887.648	3165
887.773	3199
887.897	3332
888.021	3420
888.146	3294
888.27	3405
888.395	3523
888.519	3481
888.643	3405
888.767	3424
888.891	3325
889.015	3249
889.139	3283
889.263	3230
889.387	3397
889.511	3481
889.635	3454
889.759	3275
889.883	3260
890.006	3363
890.13	3473
890.254	3260
890.377	3336
890.501	3222
890.624	3188
890.748	3279
890.871	3222
890.995	3085
891.118	3074
891.241	3199
891.364	3211
891.488	3317
891.611	3161
891.734	3214
891.857	3291
891.98	3245
892.103	3317
892.226	3279
892.349	3222
892.471	3108
892.594	3245
892.717	3241
892.839	3325
892.962	3279
893.085	3359
893.207	3275
893.33	3176
893.452	3226
893.575	3287
893.697	3226
893.819	3500
893.941	3500
894.064	3454
894.186	3256
894.308	3272
894.43	3416
894.552	3492
894.674	3462
894.796	3272
894.918	3302
895.04	3298
895.161	3428
895.283	3386
895.405	3340
895.526	3367
895.648	3424
895.769	3435
895.891	3431
896.012	3462
896.134	3469
896.255	3428
896.376	3439
896.498	3332
896.619	3454
896.74	3332
896.861	3382
896.982	3663
897.103	3816
897.224	3656
897.345	3504
897.466	3424
897.587	3477
897.708	3618
897.828	3553
897.949	3431
898.07	3336
898.19	3378
898.311	3614
898.431	3416
898.552	3488
898.672	3580
898.792	3557
898.913	3481
899.033	3386
899.153	3287
899.273	3222
899.393	3321
899.513	3351
899.633	3287
899.753	3401
899.873	3279
899.993	3367
900.113	3351
900.232	3336
900.352	3306
900.472	3272
900.591	3184
900.711	3298
900.83	3268
900.95	3450
901.069	3485
901.189	3329
901.308	3169
901.427	3127
901.546	3180
901.665	3256
901.784	3344
901.904	3211
902.023	3097
902.141	3024
902.26	2967
902.379	3127
902.498	3043
902.617	3074
902.735	3188
902.854	3260
902.973	3203
903.091	3070
903.21	3055
903.328	3116
903.446	3123
903.565	3077
903.683	3184
903.801	3135
903.919	3207
904.038	3283
904.156	3135
904.274	3321
904.392	3249
904.51	3329
904.627	3298
904.745	3428
904.863	3450
904.981	3260
905.098	3180
905.216	3233
905.334	3306
905.451	3294
905.569	3268
905.686	3409
905.803	3450
905.921	3249
906.038	3409
906.155	3355
906.272	3268
906.389	3325
906.506	3256
906.623	3233
906.74	3272
906.857	3192
906.974	3249
907.091	3462
907.208	3568
907.324	3466
907.441	3374
907.557	3230
907.674	3233
907.79	3214
907.907	3275
908.023	3382
908.139	3363
908.256	3313
908.372	3405
908.488	3336
908.604	3268
908.72	3211
908.836	3256
908.952	3275
909.068	3321
909.184	3488
909.3	3348
909.415	3485
909.531	3443
909.647	3249
909.762	3291
909.878	3283
909.993	3355
910.108	3340
910.224	3340
910.339	3397
910.454	3317
910.57	3264
910.685	3260
910.8	3599
910.915	3561
911.03	3447
911.145	3253
911.259	3233
911.374	3325
911.489	3245
911.604	3222
911.718	3104
911.833	3154
911.947	3085
912.062	2963
912.176	3150
912.291	3199
912.405	3214
912.519	3428
912.633	3435
912.748	3329
912.862	3291
912.976	3184
913.09	3020
913.204	3199
913.318	3226
913.431	3332
913.545	3344
913.659	3431
913.772	3306
913.886	3226
914	3203
914.113	3321
914.226	3401
914.34	3317
914.453	3233
914.566	3447
914.68	3283
914.793	3329
914.906	3131
915.019	3157
915.132	3058
915.245	3188
915.358	3207
915.47	3195
915.583	3275
915.696	3279
915.809	3428
915.921	3393
916.034	3237
916.146	3256
916.259	3226
916.371	3386
916.483	3367
916.595	3249
916.708	3351
916.82	3355
916.932	3355
917.044	3329
917.156	3332
917.268	3283
917.38	3302
917.491	3272
917.603	3367
917.715	3424
917.826	3488
917.938	3340
918.049	3230
918.161	3416
918.272	3568
918.384	3580
918.495	3511
918.606	3294
918.717	3268
918.828	3374
918.939	3401
919.05	3275
919.161	3359
919.272	3192
919.383	3256
919.494	3492
919.604	3686
919.715	3481
919.826	3424
919.936	3435
920.047	3568
920.157	3507
920.267	3785
920.378	3595
920.488	3534
920.598	3789
920.708	3949
920.818	3804
920.928	3823
921.038	4021
921.148	3979
921.258	3717
921.368	3606
921.477	3603
921.587	3564
921.697	3447
921.806	3580
921.916	3526
922.025	3363
922.134	3321
922.244	3298
922.353	3428
922.462	3256
922.571	3249
922.68	3104
922.789	3081
922.898	3104
923.007	3108
923.116	3214
923.224	3161
923.333	3180
923.442	3081
923.55	3074
923.659	3127
923.767	3188
923.876	3135
923.984	3260
924.092	3085
924.201	3195
924.309	3180
924.417	3222
924.525	3199
924.633	3188
924.741	3975
924.849	3039
924.956	3283
925.064	3047
925.172	3043
925.279	3070
925.387	3135
925.494	3184
925.602	3382
925.709	3310
925.816	3180
925.924	3294
926.031	3416
926.138	3310
926.245	3382
926.352	3272
926.459	3405
926.566	3458
926.673	3306
926.779	3241
926.886	3237
926.993	3150
927.099	3127
927.206	3146
927.312	3097
927.419	3233
927.525	3192
927.631	3249
927.737	3123
927.843	3161
927.95	3009
928.056	3116
928.162	3188
928.267	3211
928.373	3869
928.479	3291
928.585	3051
928.69	3230
928.796	3230
928.901	3165
929.007	3020
929.112	3214
929.218	3180
929.323	3127
929.428	3146
929.533	3306
929.638	3108
929.743	3195
929.848	3230
929.953	3214
930.058	3131
930.163	2982
930.267	3055
930.372	3214
930.477	3039
930.581	3336
930.685	3192
930.79	3036
930.894	3127
930.998	3089
931.103	3272
931.207	2990
931.311	2937
931.415	2918
931.519	2769
931.623	2823
