Data from test_V78500241_1314.txt Node
Date: Fri Mar 25 16:24:18 CST 2022
User: usil
Spectrometer: V785-0024
Trigger mode: 0
Integration Time (sec): 4.000000E-1
Scans to average: 1
Nonlinearity correction enabled: false
Boxcar width: 0
Storing dark spectrum: false
XAxis mode: Wavelengths
Number of Pixels in Spectrum: 1024
>>>>>Begin Spectral Data<<<<<
801.071	2902
801.214	2956
801.356	2868
801.499	2872
801.641	2868
801.783	2895
801.926	3058
802.068	2937
802.211	2956
802.353	3009
802.496	2906
802.638	3001
802.78	3036
802.923	3085
803.065	2963
803.208	2906
803.35	2868
803.492	2963
803.635	2922
803.777	2750
803.919	2826
804.061	3184
804.204	2937
804.346	2895
804.488	2857
804.63	2994
804.773	2857
804.915	2868
805.057	3058
805.199	2937
805.341	2941
805.483	3043
805.626	3017
805.768	2922
805.91	3039
806.052	3089
806.194	3028
806.336	3233
806.478	3028
806.62	2956
806.762	2944
806.904	3058
807.046	3127
807.188	2971
807.33	2941
807.472	2986
807.614	2910
807.756	2979
807.898	2914
808.04	2880
808.182	2971
808.324	2952
808.465	2868
808.607	2872
808.749	2811
808.891	2830
809.033	2952
809.174	2960
809.316	2880
809.458	2880
809.6	2769
809.741	2762
809.883	2746
810.025	2899
810.166	2849
810.308	2819
810.45	2845
810.591	2743
810.733	2686
810.875	2819
811.016	2769
811.158	2769
811.299	2823
811.441	2914
811.582	2895
811.724	2857
811.865	2819
812.007	2922
812.148	2880
812.29	2864
812.431	2872
812.573	2948
812.714	2918
812.855	3055
812.997	2998
813.138	3150
813.279	3028
813.421	2975
813.562	2944
813.703	2864
813.845	2891
813.986	2766
814.127	2716
814.268	2861
814.41	2807
814.551	2804
814.692	2861
814.833	2788
814.974	2902
815.115	2960
815.256	2815
815.397	2800
815.539	2853
815.68	2781
815.821	2754
815.962	2910
816.103	2963
816.244	2868
816.385	2868
816.526	2960
816.666	2925
816.807	2712
816.948	2857
817.089	2895
817.23	2857
817.371	2788
817.512	2800
817.653	2864
817.793	2815
817.934	2830
818.075	2963
818.216	2990
818.356	3062
818.497	2880
818.638	2804
818.778	2785
818.919	2800
819.06	2766
819.2	2906
819.341	2830
819.481	2800
819.622	2899
819.762	3093
819.903	3074
820.043	2876
820.184	2902
820.324	2914
820.465	3005
820.605	3001
820.746	3028
820.886	2891
821.026	3070
821.167	3112
821.307	3264
821.447	3253
821.588	3245
821.728	3211
821.868	3184
822.008	3051
822.149	3184
822.289	3207
822.429	3055
822.569	3058
822.709	3142
822.849	2998
822.99	3043
823.13	3146
823.27	3161
823.41	3108
823.55	3119
823.69	3138
823.83	3173
823.97	3081
824.11	2990
824.25	2971
824.389	3047
824.529	3108
824.669	3066
824.809	3203
824.949	3241
825.089	3237
825.228	3119
825.368	3005
825.508	2960
825.648	2963
825.787	3013
825.927	3051
826.067	2937
826.206	2975
826.346	3062
826.485	3047
826.625	3112
826.765	3253
826.904	3184
827.044	3001
827.183	2963
827.323	2830
827.462	3001
827.601	2918
827.741	2918
827.88	2982
828.02	2845
828.159	2952
828.298	3085
828.437	3119
828.577	3028
828.716	3237
828.855	3100
828.994	2937
829.134	2910
829.273	2887
829.412	2891
829.551	2845
829.69	2948
829.829	2998
829.968	3184
830.107	3062
830.246	3039
830.385	2956
830.524	2899
830.663	2853
830.802	2750
830.941	2667
831.08	2682
831.219	2804
831.357	2796
831.496	3005
831.635	2769
831.774	2670
831.913	2678
832.051	2579
832.19	2587
832.329	2731
832.467	2594
832.606	2549
832.744	2636
832.883	2594
833.022	2621
833.16	2716
833.299	2735
833.437	2739
833.576	2731
833.714	2743
833.852	2762
833.991	2800
834.129	2883
834.267	2849
834.406	2838
834.544	2895
834.682	2910
834.821	2906
834.959	3108
835.097	2929
835.235	3081
835.373	3032
835.511	3062
835.65	2963
835.788	3009
835.926	2845
836.064	2861
836.202	2895
836.34	3123
836.478	3157
836.615	3077
836.753	3188
836.891	3253
837.029	3184
837.167	3116
837.305	3112
837.443	3070
837.58	2986
837.718	3154
837.856	3112
837.993	3085
838.131	3142
838.269	3142
838.406	3116
838.544	3085
838.681	2986
838.819	2937
838.956	2819
839.094	2868
839.231	2941
839.369	3074
839.506	3401
839.643	3233
839.781	3039
839.918	3001
840.055	3085
840.193	3074
840.33	3119
840.467	3154
840.604	3184
840.742	3420
840.879	3093
841.016	3047
841.153	3135
841.29	3378
841.427	3317
841.564	3325
841.701	3370
841.838	3233
841.975	3207
842.112	3222
842.249	3154
842.385	3112
842.522	3268
842.659	3142
842.796	3119
842.933	3142
843.069	3081
843.206	3085
843.343	3218
843.479	3161
843.616	3150
843.752	2933
843.889	2895
844.025	3116
844.162	2902
844.298	3058
844.435	2979
844.571	2937
844.708	3093
844.844	3233
844.98	3275
845.117	3211
845.253	3058
845.389	3024
845.525	3203
845.661	3131
845.798	3043
845.934	3176
846.07	3074
846.206	3245
846.342	3348
846.478	3275
846.614	3135
846.75	3081
846.886	3058
847.022	3310
847.158	3131
847.294	3241
847.429	3279
847.565	3253
847.701	3526
847.837	3055
847.972	3043
848.108	3188
848.244	3161
848.379	3009
848.515	2948
848.65	2948
848.786	2986
848.921	3039
849.057	3093
849.192	3157
849.328	3062
849.463	3135
849.598	3131
849.734	3104
849.869	2994
850.004	2971
850.14	2967
850.275	2933
850.41	2864
850.545	2887
850.68	2971
850.815	3032
850.95	3024
851.085	3214
851.22	3131
851.355	3036
851.49	3005
851.625	3028
851.76	3051
851.895	2948
852.03	2956
852.165	3070
852.299	3142
852.434	3230
852.569	3176
852.703	3180
852.838	3287
852.973	3378
853.107	3374
853.242	3184
853.376	3104
853.511	3005
853.645	3077
853.78	3237
853.914	3157
854.048	3085
854.183	3150
854.317	3173
854.451	3279
854.585	3184
854.72	3127
854.854	3218
854.988	3104
855.122	3119
855.256	3009
855.39	3142
855.524	3260
855.658	3241
855.792	3169
855.926	3226
856.06	3192
856.194	3283
856.327	3176
856.461	3055
856.595	3100
856.729	3097
856.862	3237
856.996	3199
857.13	3222
857.263	3260
857.397	3268
857.53	3150
857.664	3207
857.797	3241
857.931	3268
858.064	3207
858.197	3226
858.331	3150
858.464	3112
858.597	3028
858.731	3138
858.864	3161
858.997	3093
859.13	3211
859.263	3222
859.396	3192
859.529	3112
859.662	3077
859.795	3081
859.928	3150
860.061	3302
860.194	3302
860.327	3157
860.46	3119
860.592	3313
860.725	3283
860.858	3279
860.99	3165
861.123	3066
861.256	3097
861.388	3161
861.521	3766
861.653	3043
861.786	3024
861.918	3032
862.05	3104
862.183	3150
862.315	3173
862.447	3211
862.58	3100
862.712	2929
862.844	2910
862.976	3020
863.108	3032
863.24	3344
863.372	2933
863.504	2967
863.636	2944
863.768	3039
863.9	3013
864.032	2899
864.164	2960
864.296	3055
864.428	3116
864.559	3138
864.691	3108
864.823	3089
864.954	3047
865.086	3043
865.217	3032
865.349	3001
865.48	3013
865.612	3047
865.743	3176
865.875	2986
866.006	2963
866.137	2990
866.269	2971
866.4	2986
866.531	2960
866.662	2922
866.793	2910
866.924	2948
867.055	2990
867.186	2979
867.317	2937
867.448	2853
867.579	2857
867.71	2891
867.841	2876
867.972	2948
868.103	2902
868.233	2895
868.364	2895
868.495	2918
868.625	3081
868.756	3218
868.886	3005
869.017	3047
869.147	3176
869.278	3165
869.408	3055
869.539	3055
869.669	3116
869.799	3047
869.929	3131
870.06	3112
870.19	3340
870.32	3310
870.45	3340
870.58	3401
870.71	3481
870.84	3447
870.97	3313
871.1	3268
871.23	3507
871.36	3428
871.489	3359
871.619	3420
871.749	3439
871.879	3431
872.008	3473
872.138	3382
872.267	3306
872.397	3169
872.526	3104
872.656	3017
872.785	3119
872.915	3256
873.044	3325
873.173	3188
873.303	3230
873.432	3256
873.561	3264
873.69	3150
873.819	3150
873.948	3211
874.077	3089
874.206	3047
874.335	3142
874.464	3230
874.593	3344
874.722	3275
874.851	3420
874.979	3359
875.108	3329
875.237	3237
875.365	3157
875.494	3169
875.623	3272
875.751	3116
875.88	3127
876.008	3211
876.136	3203
876.265	3409
876.393	3542
876.521	3450
876.65	3405
876.778	3416
876.906	3253
877.034	3203
877.162	3230
877.29	3192
877.418	3283
877.546	3233
877.674	3230
877.802	3233
877.93	3264
878.058	3192
878.185	3127
878.313	3230
878.441	3203
878.568	3108
878.696	3173
878.824	3264
878.951	3325
879.079	3443
879.206	3648
879.333	3424
879.461	3389
879.588	3367
879.715	3519
879.842	3587
879.97	3378
880.097	3154
880.224	3116
880.351	3222
880.478	3253
880.605	3184
880.732	3207
880.859	3500
880.986	3340
881.112	3321
881.239	3214
881.366	3112
881.493	3047
881.619	3066
881.746	3123
881.872	3097
881.999	3116
882.125	3131
882.252	3272
882.378	3325
882.505	3439
882.631	3306
882.757	3169
882.883	3218
883.01	3214
883.136	3154
883.262	3131
883.388	3138
883.514	3340
883.64	3378
883.766	3298
883.892	3214
884.018	3264
884.143	3393
884.269	3572
884.395	3192
884.52	3203
884.646	3230
884.772	3173
884.897	3131
885.023	3222
885.148	3363
885.274	3435
885.399	3374
885.524	3291
885.65	3302
885.775	3317
885.9	3287
886.025	3424
886.15	3363
886.275	3291
886.4	3222
886.525	3313
886.65	3291
886.775	3264
886.9	3496
887.025	3641
887.149	3454
887.274	3245
887.399	3203
887.523	3211
887.648	3203
887.773	3245
887.897	3363
888.021	3424
888.146	3268
888.27	3435
888.395	3538
888.519	3393
888.643	3481
888.767	3496
888.891	3370
889.015	3245
889.139	3287
889.263	3268
889.387	3435
889.511	3530
889.635	3466
889.759	3317
889.883	3321
890.006	3397
890.13	3492
890.254	3272
890.377	3355
890.501	3192
890.624	3222
890.748	3325
890.871	3169
890.995	3116
891.118	3093
891.241	3195
891.364	3211
891.488	3340
891.611	3207
891.734	3264
891.857	3325
891.98	3233
892.103	3393
892.226	3275
892.349	3226
892.471	3123
892.594	3237
892.717	3302
892.839	3272
892.962	3298
893.085	3363
893.207	3268
893.33	3142
893.452	3214
893.575	3344
893.697	3310
893.819	3458
893.941	3526
894.064	3458
894.186	3313
894.308	3275
894.43	3477
894.552	3580
894.674	3500
894.796	3332
894.918	3332
895.04	3260
895.161	3409
895.283	3393
895.405	3321
895.526	3409
895.648	3447
895.769	3405
895.891	3447
896.012	3477
896.134	3504
896.255	3485
896.376	3412
896.498	3378
896.619	3447
896.74	3412
896.861	3412
896.982	3705
897.103	3892
897.224	3629
897.345	3526
897.466	3469
897.587	3530
897.708	3652
897.828	3542
897.949	3447
898.07	3321
898.19	3431
898.311	3595
898.431	3500
898.552	3507
898.672	3595
898.792	3652
898.913	3542
899.033	3447
899.153	3325
899.273	3233
899.393	3310
899.513	3313
899.633	3332
899.753	3321
899.873	3317
899.993	3359
900.113	3367
900.232	3382
900.352	3336
900.472	3287
900.591	3249
900.711	3294
900.83	3275
900.95	3443
901.069	3492
901.189	3329
901.308	3180
901.427	3165
901.546	3199
901.665	3294
901.784	3325
901.904	3203
902.023	3138
902.141	3001
902.26	3013
902.379	3146
902.498	3089
902.617	3039
902.735	3226
902.854	3241
902.973	3169
903.091	3066
903.21	3058
903.328	3150
903.446	3138
903.565	3116
903.683	3245
903.801	3169
903.919	3230
904.038	3310
904.156	3154
904.274	3279
904.392	3253
904.51	3317
904.627	3370
904.745	3431
904.863	3519
904.981	3287
905.098	3188
905.216	3241
905.334	3321
905.451	3298
905.569	3329
905.686	3435
905.803	3431
905.921	3275
906.038	3428
906.155	3359
906.272	3287
906.389	3367
906.506	3241
906.623	3233
906.74	3291
906.857	3207
906.974	3226
907.091	3431
907.208	3618
907.324	3481
907.441	3367
907.557	3256
907.674	3249
907.79	3218
907.907	3310
908.023	3401
908.139	3401
908.256	3321
908.372	3412
908.488	3355
908.604	3260
908.72	3230
908.836	3329
908.952	3291
909.068	3336
909.184	3435
909.3	3412
909.415	3481
909.531	3454
909.647	3283
909.762	3294
909.878	3306
909.993	3386
910.108	3401
910.224	3370
910.339	3409
910.454	3298
910.57	3294
910.685	3249
910.8	3622
910.915	3523
911.03	3424
911.145	3268
911.259	3287
911.374	3294
911.489	3222
911.604	3230
911.718	3104
911.833	3199
911.947	3032
912.062	2967
912.176	3138
912.291	3226
912.405	3165
912.519	3443
912.633	3530
912.748	3332
912.862	3260
912.976	3173
913.09	3066
913.204	3161
913.318	3241
913.431	3359
913.545	3329
913.659	3393
913.772	3344
913.886	3272
914	3207
914.113	3367
914.226	3393
914.34	3401
914.453	3211
914.566	3378
914.68	3325
914.793	3325
914.906	3146
915.019	3119
915.132	3074
915.245	3188
915.358	3207
915.47	3222
915.583	3291
915.696	3317
915.809	3389
915.921	3405
916.034	3275
916.146	3241
916.259	3192
916.371	3389
916.483	3374
916.595	3268
916.708	3370
916.82	3355
916.932	3355
917.044	3359
917.156	3351
917.268	3287
917.38	3275
917.491	3279
917.603	3374
917.715	3469
917.826	3439
917.938	3382
918.049	3313
918.161	3450
918.272	3538
918.384	3591
918.495	3477
918.606	3359
918.717	3291
918.828	3374
918.939	3374
919.05	3287
919.161	3370
919.272	3161
919.383	3313
919.494	3504
919.604	3709
919.715	3473
919.826	3443
919.936	3443
920.047	3561
920.157	3595
920.267	3762
920.378	3595
920.488	3553
920.598	3747
920.708	3934
920.818	3827
920.928	3842
921.038	3994
921.148	3994
921.258	3720
921.368	3622
921.477	3587
921.587	3549
921.697	3443
921.806	3622
921.916	3511
922.025	3401
922.134	3340
922.244	3325
922.353	3462
922.462	3287
922.571	3207
922.68	3112
922.789	3074
922.898	3135
923.007	3108
923.116	3173
923.224	3142
923.333	3176
923.442	3112
923.55	3074
923.659	3142
923.767	3241
923.876	3112
923.984	3260
924.092	3116
924.201	3176
924.309	3195
924.417	3253
924.525	3180
924.633	3226
924.741	4002
924.849	3074
924.956	3264
925.064	3089
925.172	3047
925.279	3074
925.387	3173
925.494	3180
925.602	3367
925.709	3348
925.816	3176
925.924	3291
926.031	3340
926.138	3313
926.245	3332
926.352	3245
926.459	3351
926.566	3462
926.673	3329
926.779	3249
926.886	3249
926.993	3157
927.099	3138
927.206	3104
927.312	3100
927.419	3214
927.525	3226
927.631	3249
927.737	3176
927.843	3123
927.95	3032
928.056	3184
928.162	3199
928.267	3241
928.373	3865
928.479	3310
928.585	3047
928.69	3226
928.796	3249
928.901	3150
929.007	3051
929.112	3161
929.218	3184
929.323	3135
929.428	3127
929.533	3294
929.638	3135
929.743	3165
929.848	3245
929.953	3192
930.058	3173
930.163	3009
930.267	3039
930.372	3199
930.477	3005
930.581	3294
930.685	3173
930.79	3051
930.894	3093
930.998	3119
931.103	3317
931.207	2963
931.311	2994
931.415	2929
931.519	2788
931.623	2785
