Data from test_V78500241_193.txt Node
Date: Fri Mar 25 16:16:32 CST 2022
User: usil
Spectrometer: V785-0024
Trigger mode: 0
Integration Time (sec): 4.000000E-1
Scans to average: 1
Nonlinearity correction enabled: false
Boxcar width: 0
Storing dark spectrum: false
XAxis mode: Wavelengths
Number of Pixels in Spectrum: 1024
>>>>>Begin Spectral Data<<<<<
801.071	2906
801.214	2979
801.356	2895
801.499	2918
801.641	2864
801.783	2971
801.926	3066
802.068	2975
802.211	2979
802.353	3055
802.496	2971
802.638	3020
802.78	3070
802.923	3097
803.065	3009
803.208	2929
803.35	2902
803.492	2906
803.635	2971
803.777	2773
803.919	2842
804.061	3207
804.204	2971
804.346	2906
804.488	2838
804.63	3020
804.773	2891
804.915	2914
805.057	3066
805.199	2933
805.341	2948
805.483	3058
805.626	3005
805.768	2971
805.91	3074
806.052	3100
806.194	3058
806.336	3226
806.478	3055
806.62	2922
806.762	2944
806.904	3051
807.046	3188
807.188	2982
807.33	2906
807.472	3020
807.614	2937
807.756	2994
807.898	2914
808.04	2899
808.182	2971
808.324	3005
808.465	2880
808.607	2895
808.749	2804
808.891	2853
809.033	2967
809.174	2956
809.316	2910
809.458	2910
809.6	2785
809.741	2766
809.883	2788
810.025	2868
810.166	2861
810.308	2842
810.45	2895
810.591	2773
810.733	2788
810.875	2830
811.016	2804
811.158	2762
811.299	2804
811.441	2941
811.582	2910
811.724	2842
811.865	2842
812.007	2929
812.148	2895
812.29	2895
812.431	2887
812.573	2925
812.714	2963
812.855	3066
812.997	3043
813.138	3112
813.279	3028
813.421	3017
813.562	2956
813.703	2880
813.845	2883
813.986	2796
814.127	2739
814.268	2834
814.41	2826
814.551	2857
814.692	2891
814.833	2830
814.974	2861
815.115	2979
815.256	2849
815.397	2838
815.539	2902
815.68	2796
815.821	2788
815.962	2963
816.103	2933
816.244	2902
816.385	2906
816.526	2998
816.666	2986
816.807	2788
816.948	2914
817.089	2944
817.23	2872
817.371	2754
817.512	2804
817.653	2853
817.793	2834
817.934	2902
818.075	2960
818.216	2982
818.356	3020
818.497	2914
818.638	2807
818.778	2849
818.919	2777
819.06	2746
819.2	2861
819.341	2815
819.481	2804
819.622	2902
819.762	3108
819.903	3066
820.043	2925
820.184	2922
820.324	2910
820.465	3005
820.605	3024
820.746	3055
820.886	2922
821.026	3097
821.167	3135
821.307	3268
821.447	3310
821.588	3233
821.728	3222
821.868	3211
822.008	3093
822.149	3192
822.289	3241
822.429	3112
822.569	3112
822.709	3176
822.849	3058
822.99	3089
823.13	3169
823.27	3180
823.41	3100
823.55	3157
823.69	3169
823.83	3203
823.97	3150
824.11	3005
824.25	2998
824.389	3093
824.529	3150
824.669	3039
824.809	3222
824.949	3279
825.089	3222
825.228	3161
825.368	2998
825.508	2971
825.648	2963
825.787	2998
825.927	3043
826.067	3005
826.206	2982
826.346	3058
826.485	3089
826.625	3127
826.765	3268
826.904	3233
827.044	2986
827.183	2918
827.323	2872
827.462	2998
827.601	2929
827.741	2975
827.88	2979
828.02	2842
828.159	2998
828.298	3020
828.437	3131
828.577	3051
828.716	3245
828.855	3066
828.994	2963
829.134	2891
829.273	2910
829.412	2902
829.551	2842
829.69	2883
829.829	2994
829.968	3154
830.107	3039
830.246	3043
830.385	2948
830.524	2883
830.663	2815
830.802	2758
830.941	2678
831.08	2648
831.219	2766
831.357	2754
831.496	2941
831.635	2720
831.774	2670
831.913	2655
832.051	2571
832.19	2598
832.329	2674
832.467	2541
832.606	2518
832.744	2594
832.883	2583
833.022	2587
833.16	2678
833.299	2716
833.437	2716
833.576	2724
833.714	2716
833.852	2727
833.991	2746
834.129	2826
834.267	2826
834.406	2815
834.544	2872
834.682	2868
834.821	2842
834.959	3081
835.097	2944
835.235	3066
835.373	3051
835.511	3009
835.65	2990
835.788	3001
835.926	2834
836.064	2804
836.202	2853
836.34	3074
836.478	3131
836.615	3009
836.753	3142
836.891	3245
837.029	3195
837.167	3150
837.305	3062
837.443	3093
837.58	2952
837.718	3146
837.856	3100
837.993	3017
838.131	3146
838.269	3119
838.406	3100
838.544	3119
838.681	2944
838.819	2906
838.956	2842
839.094	2804
839.231	2941
839.369	3039
839.506	3382
839.643	3207
839.781	2998
839.918	2967
840.055	3009
840.193	3058
840.33	3074
840.467	3104
840.604	3138
840.742	3428
840.879	3085
841.016	3077
841.153	3108
841.29	3348
841.427	3329
841.564	3317
841.701	3336
841.838	3226
841.975	3207
842.112	3207
842.249	3089
842.385	3047
842.522	3260
842.659	3089
842.796	3066
842.933	3157
843.069	3058
843.206	3051
843.343	3207
843.479	3119
843.616	3146
843.752	2937
843.889	2887
844.025	3074
844.162	2876
844.298	3070
844.435	3013
844.571	2929
844.708	3062
844.844	3195
844.98	3218
845.117	3237
845.253	3058
845.389	3020
845.525	3100
845.661	3112
845.798	3032
845.934	3150
846.07	3070
846.206	3226
846.342	3348
846.478	3256
846.614	3108
846.75	3077
846.886	3032
847.022	3279
847.158	3138
847.294	3214
847.429	3275
847.565	3226
847.701	3515
847.837	3077
847.972	3017
848.108	3214
848.244	3142
848.379	3017
848.515	2933
848.65	2899
848.786	2956
848.921	3009
849.057	3119
849.192	3165
849.328	3081
849.463	3123
849.598	3108
849.734	3077
849.869	2944
850.004	2922
850.14	2986
850.275	2967
850.41	2826
850.545	2868
850.68	2933
850.815	2986
850.95	2933
851.085	3207
851.22	3116
851.355	3020
851.49	2971
851.625	3017
851.76	3001
851.895	2937
852.03	2941
852.165	3058
852.299	3104
852.434	3222
852.569	3135
852.703	3192
852.838	3256
852.973	3374
853.107	3374
853.242	3161
853.376	3119
853.511	3005
853.645	3032
853.78	3249
853.914	3112
854.048	3150
854.183	3089
854.317	3157
854.451	3287
854.585	3157
854.72	3093
854.854	3249
854.988	3070
855.122	3089
855.256	3005
855.39	3119
855.524	3249
855.658	3214
855.792	3226
855.926	3199
856.06	3268
856.194	3249
856.327	3154
856.461	3058
856.595	3119
856.729	3127
856.862	3203
856.996	3184
857.13	3214
857.263	3237
857.397	3283
857.53	3085
857.664	3195
857.797	3218
857.931	3222
858.064	3173
858.197	3222
858.331	3097
858.464	3097
858.597	3024
858.731	3165
858.864	3165
858.997	3135
859.13	3131
859.263	3161
859.396	3211
859.529	3127
859.662	3093
859.795	3074
859.928	3138
860.061	3260
860.194	3298
860.327	3161
860.46	3097
860.592	3268
860.725	3260
860.858	3287
860.99	3108
861.123	3100
861.256	3077
861.388	3161
861.521	3869
861.653	2990
861.786	3005
861.918	3017
862.05	3028
862.183	3100
862.315	3135
862.447	3230
862.58	3062
862.712	2971
862.844	2868
862.976	3028
863.108	2994
863.24	3298
863.372	2872
863.504	2971
863.636	2967
863.768	3036
863.9	2963
864.032	2891
864.164	2986
864.296	3009
864.428	3085
864.559	3093
864.691	3104
864.823	3062
864.954	3024
865.086	3051
865.217	3017
865.349	2971
865.48	2967
865.612	3028
865.743	3188
865.875	2994
866.006	2918
866.137	2967
866.269	2967
866.4	2933
866.531	2937
866.662	2899
866.793	2902
866.924	2895
867.055	2956
867.186	2906
867.317	2925
867.448	2845
867.579	2853
867.71	2876
867.841	2804
867.972	2910
868.103	2925
868.233	2937
868.364	2880
868.495	2937
868.625	3085
868.756	3165
868.886	2994
869.017	3028
869.147	3222
869.278	3161
869.408	3036
869.539	3043
869.669	3135
869.799	3028
869.929	3161
870.06	3135
870.19	3329
870.32	3317
870.45	3302
870.58	3370
870.71	3473
870.84	3428
870.97	3313
871.1	3233
871.23	3496
871.36	3500
871.489	3374
871.619	3450
871.749	3431
871.879	3428
872.008	3504
872.138	3367
872.267	3332
872.397	3180
872.526	3097
872.656	3009
872.785	3127
872.915	3245
873.044	3310
873.173	3214
873.303	3260
873.432	3230
873.561	3272
873.69	3203
873.819	3169
873.948	3188
874.077	3135
874.206	3074
874.335	3127
874.464	3260
874.593	3370
874.722	3233
874.851	3393
874.979	3374
875.108	3329
875.237	3222
875.365	3180
875.494	3161
875.623	3256
875.751	3089
875.88	3119
876.008	3241
876.136	3211
876.265	3363
876.393	3511
876.521	3428
876.65	3374
876.778	3321
876.906	3272
877.034	3211
877.162	3233
877.29	3195
877.418	3298
877.546	3241
877.674	3302
877.802	3222
877.93	3256
878.058	3203
878.185	3119
878.313	3207
878.441	3218
878.568	3100
878.696	3154
878.824	3272
878.951	3325
879.079	3450
879.206	3614
879.333	3428
879.461	3367
879.588	3370
879.715	3473
879.842	3622
879.97	3363
880.097	3184
880.224	3100
880.351	3211
880.478	3214
880.605	3184
880.732	3161
880.859	3507
880.986	3313
881.112	3317
881.239	3195
881.366	3093
881.493	3051
881.619	2998
881.746	3074
881.872	3093
881.999	3123
882.125	3119
882.252	3218
882.378	3306
882.505	3420
882.631	3294
882.757	3154
882.883	3230
883.01	3256
883.136	3138
883.262	3116
883.388	3157
883.514	3359
883.64	3401
883.766	3306
883.892	3207
884.018	3264
884.143	3416
884.269	3538
884.395	3245
884.52	3214
884.646	3195
884.772	3169
884.897	3123
885.023	3203
885.148	3348
885.274	3405
885.399	3401
885.524	3279
885.65	3306
885.775	3355
885.9	3306
886.025	3428
886.15	3389
886.275	3351
886.4	3222
886.525	3340
886.65	3249
886.775	3253
886.9	3530
887.025	3633
887.149	3416
887.274	3279
887.399	3241
887.523	3222
887.648	3154
887.773	3214
887.897	3363
888.021	3420
888.146	3321
888.27	3416
888.395	3580
888.519	3462
888.643	3435
888.767	3458
888.891	3294
889.015	3260
889.139	3302
889.263	3249
889.387	3401
889.511	3466
889.635	3443
889.759	3298
889.883	3268
890.006	3374
890.13	3496
890.254	3306
890.377	3302
890.501	3237
890.624	3150
890.748	3355
890.871	3184
890.995	3104
891.118	3070
891.241	3184
891.364	3211
891.488	3336
891.611	3180
891.734	3241
891.857	3302
891.98	3260
892.103	3329
892.226	3287
892.349	3203
892.471	3127
892.594	3272
892.717	3302
892.839	3272
892.962	3306
893.085	3386
893.207	3321
893.33	3180
893.452	3222
893.575	3313
893.697	3291
893.819	3469
893.941	3473
894.064	3466
894.186	3272
894.308	3317
894.43	3443
894.552	3519
894.674	3485
894.796	3272
894.918	3291
895.04	3283
895.161	3454
895.283	3359
895.405	3344
895.526	3374
895.648	3420
895.769	3435
895.891	3469
896.012	3504
896.134	3485
896.255	3428
896.376	3397
896.498	3370
896.619	3469
896.74	3363
896.861	3431
896.982	3701
897.103	3869
897.224	3576
897.345	3534
897.466	3428
897.587	3500
897.708	3633
897.828	3553
897.949	3454
898.07	3344
898.19	3420
898.311	3599
898.431	3450
898.552	3500
898.672	3652
898.792	3587
898.913	3545
899.033	3420
899.153	3287
899.273	3279
899.393	3329
899.513	3336
899.633	3340
899.753	3306
899.873	3298
899.993	3374
900.113	3336
900.232	3351
900.352	3325
900.472	3287
900.591	3237
900.711	3321
900.83	3272
900.95	3393
901.069	3542
901.189	3382
901.308	3173
901.427	3169
901.546	3211
901.665	3313
901.784	3359
901.904	3253
902.023	3146
902.141	2990
902.26	2998
902.379	3165
902.498	3100
902.617	3055
902.735	3211
902.854	3241
902.973	3199
903.091	3070
903.21	3062
903.328	3199
903.446	3077
903.565	3104
903.683	3222
903.801	3135
903.919	3237
904.038	3298
904.156	3203
904.274	3310
904.392	3241
904.51	3325
904.627	3321
904.745	3507
904.863	3515
904.981	3302
905.098	3180
905.216	3203
905.334	3287
905.451	3287
905.569	3317
905.686	3435
905.803	3439
905.921	3302
906.038	3428
906.155	3405
906.272	3287
906.389	3348
906.506	3203
906.623	3264
906.74	3268
906.857	3173
906.974	3264
907.091	3462
907.208	3553
907.324	3504
907.441	3363
907.557	3233
907.674	3211
907.79	3233
907.907	3298
908.023	3382
908.139	3359
908.256	3367
908.372	3367
908.488	3382
908.604	3264
908.72	3241
908.836	3302
908.952	3325
909.068	3344
909.184	3500
909.3	3393
909.415	3545
909.531	3534
909.647	3291
909.762	3340
909.878	3287
909.993	3348
910.108	3355
910.224	3340
910.339	3431
910.454	3332
910.57	3306
910.685	3260
910.8	3587
910.915	3549
911.03	3458
911.145	3340
911.259	3253
911.374	3302
911.489	3230
911.604	3222
911.718	3138
911.833	3188
911.947	3066
912.062	3009
912.176	3184
912.291	3203
912.405	3233
912.519	3428
912.633	3473
912.748	3389
912.862	3264
912.976	3150
913.09	3085
913.204	3135
913.318	3233
913.431	3397
913.545	3348
913.659	3420
913.772	3317
913.886	3237
914	3211
914.113	3382
914.226	3409
914.34	3386
914.453	3253
914.566	3397
914.68	3279
914.793	3344
914.906	3150
915.019	3154
915.132	3089
915.245	3226
915.358	3195
915.47	3245
915.583	3279
915.696	3310
915.809	3397
915.921	3412
916.034	3260
916.146	3256
916.259	3233
916.371	3431
916.483	3359
916.595	3256
916.708	3351
916.82	3374
916.932	3386
917.044	3355
917.156	3344
917.268	3279
917.38	3279
917.491	3313
917.603	3355
917.715	3481
917.826	3462
917.938	3416
918.049	3264
918.161	3462
918.272	3584
918.384	3557
918.495	3496
918.606	3329
918.717	3275
918.828	3374
918.939	3424
919.05	3306
919.161	3412
919.272	3199
919.383	3336
919.494	3515
919.604	3644
919.715	3504
919.826	3420
919.936	3481
920.047	3572
920.157	3557
920.267	3797
920.378	3644
920.488	3568
920.598	3819
920.708	3975
920.818	3835
920.928	3857
921.038	4040
921.148	4025
921.258	3724
921.368	3603
921.477	3603
921.587	3538
921.697	3477
921.806	3618
921.916	3523
922.025	3370
922.134	3370
922.244	3344
922.353	3420
922.462	3260
922.571	3222
922.68	3093
922.789	3112
922.898	3157
923.007	3100
923.116	3199
923.224	3199
923.333	3199
923.442	3081
923.55	3097
923.659	3146
923.767	3214
923.876	3176
923.984	3249
924.092	3138
924.201	3211
924.309	3222
924.417	3283
924.525	3207
924.633	3249
924.741	4215
924.849	3085
924.956	3279
925.064	3112
925.172	3085
925.279	3142
925.387	3188
925.494	3226
925.602	3367
925.709	3359
925.816	3226
925.924	3294
926.031	3370
926.138	3359
926.245	3382
926.352	3253
926.459	3420
926.566	3488
926.673	3325
926.779	3329
926.886	3275
926.993	3154
927.099	3138
927.206	3081
927.312	3157
927.419	3249
927.525	3214
927.631	3321
927.737	3157
927.843	3184
927.95	3062
928.056	3195
928.162	3218
928.267	3241
928.373	3896
928.479	3317
928.585	3055
928.69	3203
928.796	3272
928.901	3161
929.007	3070
929.112	3214
929.218	3173
929.323	3154
929.428	3169
929.533	3310
929.638	3127
929.743	3195
929.848	3264
929.953	3203
930.058	3138
930.163	3047
930.267	3062
930.372	3249
930.477	3055
930.581	3313
930.685	3142
930.79	3062
930.894	3169
930.998	3108
931.103	3298
931.207	2994
931.311	2952
931.415	2914
931.519	2777
931.623	2830
