Data from test_V78500241_130.txt Node
Date: Fri Mar 25 16:16:06 CST 2022
User: usil
Spectrometer: V785-0024
Trigger mode: 0
Integration Time (sec): 4.000000E-1
Scans to average: 1
Nonlinearity correction enabled: false
Boxcar width: 0
Storing dark spectrum: false
XAxis mode: Wavelengths
Number of Pixels in Spectrum: 1024
>>>>>Begin Spectral Data<<<<<
801.071	2883
801.214	2979
801.356	2891
801.499	2925
801.641	2838
801.783	2902
801.926	3066
802.068	2986
802.211	3005
802.353	3017
802.496	2944
802.638	2994
802.78	3028
802.923	3097
803.065	2982
803.208	2899
803.35	2925
803.492	2971
803.635	2925
803.777	2766
803.919	2857
804.061	3199
804.204	2952
804.346	2902
804.488	2864
804.63	2956
804.773	2864
804.915	2902
805.057	3093
805.199	2918
805.341	2956
805.483	3051
805.626	3009
805.768	2944
805.91	3066
806.052	3154
806.194	3024
806.336	3218
806.478	3020
806.62	2941
806.762	2982
806.904	3055
807.046	3135
807.188	2994
807.33	2899
807.472	2975
807.614	2891
807.756	2941
807.898	2922
808.04	2883
808.182	2971
808.324	2914
808.465	2895
808.607	2876
808.749	2777
808.891	2842
809.033	2948
809.174	2944
809.316	2902
809.458	2925
809.6	2758
809.741	2773
809.883	2762
810.025	2811
810.166	2876
810.308	2842
810.45	2872
810.591	2758
810.733	2758
810.875	2845
811.016	2743
811.158	2762
811.299	2849
811.441	2914
811.582	2906
811.724	2853
811.865	2807
812.007	2891
812.148	2880
812.29	2880
812.431	2895
812.573	2963
812.714	2956
812.855	3058
812.997	3062
813.138	3135
813.279	3055
813.421	3043
813.562	2998
813.703	2895
813.845	2922
813.986	2804
814.127	2720
814.268	2845
814.41	2880
814.551	2830
814.692	2963
814.833	2868
814.974	2937
815.115	2998
815.256	2857
815.397	2845
815.539	2899
815.68	2788
815.821	2880
815.962	2971
816.103	2944
816.244	2906
816.385	2895
816.526	2971
816.666	2990
816.807	2804
816.948	2937
817.089	2994
817.23	2880
817.371	2845
817.512	2815
817.653	2914
817.793	2895
817.934	2956
818.075	3032
818.216	3032
818.356	3070
818.497	2963
818.638	2845
818.778	2880
818.919	2876
819.06	2804
819.2	2922
819.341	2872
819.481	2872
819.622	2982
819.762	3135
819.903	3100
820.043	2971
820.184	2979
820.324	2963
820.465	3093
820.605	3066
820.746	3093
820.886	3005
821.026	3131
821.167	3230
821.307	3287
821.447	3329
821.588	3294
821.728	3264
821.868	3226
822.008	3138
822.149	3214
822.289	3256
822.429	3169
822.569	3165
822.709	3218
822.849	3081
822.99	3119
823.13	3237
823.27	3237
823.41	3157
823.55	3211
823.69	3173
823.83	3253
823.97	3146
824.11	3070
824.25	3081
824.389	3119
824.529	3180
824.669	3089
824.809	3207
824.949	3313
825.089	3264
825.228	3214
825.368	3066
825.508	3020
825.648	3066
825.787	3051
825.927	3123
826.067	3036
826.206	3028
826.346	3108
826.485	3108
826.625	3138
826.765	3321
826.904	3260
827.044	3020
827.183	3001
827.323	2910
827.462	3051
827.601	2975
827.741	2986
827.88	2994
828.02	2918
828.159	3017
828.298	3058
828.437	3146
828.577	3097
828.716	3264
828.855	3146
828.994	2975
829.134	2944
829.273	2994
829.412	2937
829.551	2925
829.69	2914
829.829	3047
829.968	3176
830.107	3043
830.246	3070
830.385	2975
830.524	2952
830.663	2819
830.802	2785
830.941	2705
831.08	2701
831.219	2842
831.357	2807
831.496	2982
831.635	2739
831.774	2678
831.913	2735
832.051	2568
832.19	2621
832.329	2758
832.467	2602
832.606	2530
832.744	2636
832.883	2625
833.022	2659
833.16	2674
833.299	2731
833.437	2731
833.576	2712
833.714	2762
833.852	2766
833.991	2785
834.129	2864
834.267	2868
834.406	2864
834.544	2914
834.682	2925
834.821	2910
834.959	3108
835.097	2948
835.235	3104
835.373	3074
835.511	3070
835.65	3036
835.788	2998
835.926	2872
836.064	2857
836.202	2883
836.34	3173
836.478	3192
836.615	3074
836.753	3199
836.891	3237
837.029	3230
837.167	3188
837.305	3112
837.443	3108
837.58	2994
837.718	3150
837.856	3150
837.993	3100
838.131	3150
838.269	3142
838.406	3138
838.544	3108
838.681	2990
838.819	2929
838.956	2857
839.094	2910
839.231	2960
839.369	3062
839.506	3447
839.643	3260
839.781	3055
839.918	3017
840.055	3108
840.193	3104
840.33	3142
840.467	3123
840.604	3135
840.742	3420
840.879	3116
841.016	3104
841.153	3169
841.29	3317
841.427	3306
841.564	3317
841.701	3355
841.838	3268
841.975	3253
842.112	3260
842.249	3116
842.385	3097
842.522	3287
842.659	3119
842.796	3131
842.933	3154
843.069	3077
843.206	3097
843.343	3241
843.479	3097
843.616	3157
843.752	2960
843.889	2853
844.025	3100
844.162	2952
844.298	3116
844.435	3001
844.571	2952
844.708	3127
844.844	3195
844.98	3310
845.117	3230
845.253	3062
845.389	3009
845.525	3150
845.661	3157
845.798	3047
845.934	3131
846.07	3116
846.206	3294
846.342	3340
846.478	3275
846.614	3093
846.75	3058
846.886	3032
847.022	3249
847.158	3199
847.294	3233
847.429	3275
847.565	3222
847.701	3553
847.837	3077
847.972	3047
848.108	3195
848.244	3188
848.379	3024
848.515	2967
848.65	3020
848.786	2960
848.921	3070
849.057	3150
849.192	3199
849.328	3100
849.463	3184
849.598	3142
849.734	3085
849.869	3017
850.004	2933
850.14	3013
850.275	2944
850.41	2864
850.545	2899
850.68	2982
850.815	2975
850.95	2998
851.085	3188
851.22	3146
851.355	3089
851.49	3020
851.625	3032
851.76	3028
851.895	2994
852.03	2948
852.165	3112
852.299	3146
852.434	3245
852.569	3180
852.703	3203
852.838	3321
852.973	3397
853.107	3363
853.242	3176
853.376	3135
853.511	3001
853.645	3058
853.78	3253
853.914	3123
854.048	3138
854.183	3127
854.317	3207
854.451	3321
854.585	3161
854.72	3116
854.854	3264
854.988	3081
855.122	3119
855.256	3047
855.39	3108
855.524	3275
855.658	3222
855.792	3157
855.926	3249
856.06	3268
856.194	3275
856.327	3184
856.461	3100
856.595	3112
856.729	3089
856.862	3241
856.996	3207
857.13	3268
857.263	3260
857.397	3329
857.53	3157
857.664	3249
857.797	3275
857.931	3260
858.064	3203
858.197	3237
858.331	3184
858.464	3123
858.597	3013
858.731	3131
858.864	3142
858.997	3142
859.13	3203
859.263	3214
859.396	3222
859.529	3089
859.662	3119
859.795	3085
859.928	3150
860.061	3340
860.194	3321
860.327	3131
860.46	3100
860.592	3279
860.725	3275
860.858	3348
860.99	3169
861.123	3074
861.256	3093
861.388	3195
861.521	3728
861.653	3028
861.786	3013
861.918	3066
862.05	3131
862.183	3131
862.315	3218
862.447	3253
862.58	3146
862.712	2971
862.844	2906
862.976	3085
863.108	3043
863.24	3492
863.372	2891
863.504	3020
863.636	2990
863.768	3089
863.9	2986
864.032	2933
864.164	2998
864.296	3058
864.428	3154
864.559	3104
864.691	3119
864.823	3081
864.954	3119
865.086	3070
865.217	3032
865.349	2994
865.48	3009
865.612	3020
865.743	3184
865.875	3017
866.006	2982
866.137	2998
866.269	2960
866.4	2971
866.531	2944
866.662	2918
866.793	2929
866.924	2956
867.055	2994
867.186	2982
867.317	2902
867.448	2872
867.579	2891
867.71	2872
867.841	2876
867.972	2960
868.103	2902
868.233	2960
868.364	2914
868.495	2952
868.625	3116
868.756	3199
868.886	2982
869.017	3047
869.147	3188
869.278	3184
869.408	3116
869.539	3066
869.669	3142
869.799	3036
869.929	3161
870.06	3142
870.19	3336
870.32	3336
870.45	3321
870.58	3424
870.71	3481
870.84	3488
870.97	3336
871.1	3253
871.23	3485
871.36	3477
871.489	3363
871.619	3443
871.749	3409
871.879	3469
872.008	3473
872.138	3386
872.267	3329
872.397	3173
872.526	3150
872.656	3055
872.785	3173
872.915	3294
873.044	3348
873.173	3241
873.303	3272
873.432	3291
873.561	3294
873.69	3165
873.819	3176
873.948	3222
874.077	3108
874.206	3077
874.335	3123
874.464	3268
874.593	3374
874.722	3268
874.851	3416
874.979	3367
875.108	3344
875.237	3260
875.365	3199
875.494	3195
875.623	3260
875.751	3112
875.88	3112
876.008	3256
876.136	3264
876.265	3374
876.393	3511
876.521	3485
876.65	3428
876.778	3351
876.906	3256
877.034	3195
877.162	3298
877.29	3214
877.418	3291
877.546	3291
877.674	3245
877.802	3256
877.93	3233
878.058	3192
878.185	3104
878.313	3275
878.441	3256
878.568	3070
878.696	3138
878.824	3283
878.951	3317
879.079	3473
879.206	3618
879.333	3473
879.461	3348
879.588	3351
879.715	3477
879.842	3622
879.97	3386
880.097	3230
880.224	3154
880.351	3241
880.478	3241
880.605	3226
880.732	3260
880.859	3561
880.986	3348
881.112	3351
881.239	3272
881.366	3119
881.493	3081
881.619	3051
881.746	3081
881.872	3097
881.999	3108
882.125	3218
882.252	3279
882.378	3329
882.505	3473
882.631	3283
882.757	3214
882.883	3283
883.01	3245
883.136	3184
883.262	3116
883.388	3169
883.514	3367
883.64	3389
883.766	3329
883.892	3195
884.018	3272
884.143	3443
884.269	3545
884.395	3233
884.52	3230
884.646	3211
884.772	3154
884.897	3131
885.023	3233
885.148	3336
885.274	3424
885.399	3416
885.524	3306
885.65	3336
885.775	3363
885.9	3298
886.025	3431
886.15	3386
886.275	3332
886.4	3264
886.525	3351
886.65	3279
886.775	3287
886.9	3500
887.025	3637
887.149	3409
887.274	3279
887.399	3222
887.523	3180
887.648	3211
887.773	3237
887.897	3370
888.021	3405
888.146	3294
888.27	3412
888.395	3618
888.519	3454
888.643	3473
888.767	3473
888.891	3367
889.015	3283
889.139	3329
889.263	3283
889.387	3420
889.511	3561
889.635	3462
889.759	3313
889.883	3325
890.006	3439
890.13	3496
890.254	3279
890.377	3359
890.501	3233
890.624	3173
890.748	3336
890.871	3203
890.995	3142
891.118	3070
891.241	3291
891.364	3249
891.488	3332
891.611	3157
891.734	3222
891.857	3313
891.98	3268
892.103	3351
892.226	3294
892.349	3214
892.471	3131
892.594	3302
892.717	3325
892.839	3313
892.962	3294
893.085	3351
893.207	3317
893.33	3188
893.452	3222
893.575	3348
893.697	3222
893.819	3492
893.941	3534
894.064	3462
894.186	3283
894.308	3313
894.43	3481
894.552	3580
894.674	3488
894.796	3310
894.918	3351
895.04	3302
895.161	3428
895.283	3443
895.405	3332
895.526	3382
895.648	3454
895.769	3469
895.891	3511
896.012	3523
896.134	3526
896.255	3420
896.376	3389
896.498	3416
896.619	3469
896.74	3367
896.861	3439
896.982	3701
897.103	3915
897.224	3637
897.345	3553
897.466	3428
897.587	3515
897.708	3641
897.828	3591
897.949	3481
898.07	3325
898.19	3412
898.311	3610
898.431	3500
898.552	3507
898.672	3622
898.792	3622
898.913	3576
899.033	3450
899.153	3313
899.273	3256
899.393	3287
899.513	3348
899.633	3359
899.753	3382
899.873	3348
899.993	3405
900.113	3348
900.232	3405
900.352	3367
900.472	3348
900.591	3226
900.711	3302
900.83	3291
900.95	3477
901.069	3488
901.189	3344
901.308	3180
901.427	3131
901.546	3256
901.665	3313
901.784	3378
901.904	3226
902.023	3146
902.141	3055
902.26	3036
902.379	3176
902.498	3116
902.617	3097
902.735	3203
902.854	3264
902.973	3188
903.091	3097
903.21	3097
903.328	3127
903.446	3150
903.565	3138
903.683	3245
903.801	3161
903.919	3294
904.038	3291
904.156	3203
904.274	3294
904.392	3260
904.51	3291
904.627	3367
904.745	3469
904.863	3515
904.981	3264
905.098	3180
905.216	3279
905.334	3283
905.451	3332
905.569	3317
905.686	3420
905.803	3500
905.921	3332
906.038	3458
906.155	3382
906.272	3287
906.389	3370
906.506	3279
906.623	3294
906.74	3313
906.857	3218
906.974	3298
907.091	3477
907.208	3618
907.324	3481
907.441	3447
907.557	3230
907.674	3279
907.79	3264
907.907	3310
908.023	3393
908.139	3359
908.256	3340
908.372	3367
908.488	3401
908.604	3256
908.72	3237
908.836	3344
908.952	3294
909.068	3382
909.184	3492
909.3	3469
909.415	3504
909.531	3504
909.647	3310
909.762	3340
909.878	3310
909.993	3374
910.108	3367
910.224	3378
910.339	3420
910.454	3355
910.57	3321
910.685	3249
910.8	3580
910.915	3618
911.03	3435
911.145	3279
911.259	3313
911.374	3393
911.489	3264
911.604	3260
911.718	3123
911.833	3184
911.947	3047
912.062	2982
912.176	3157
912.291	3192
912.405	3253
912.519	3447
912.633	3504
912.748	3348
912.862	3321
912.976	3165
913.09	3051
913.204	3169
913.318	3268
913.431	3313
913.545	3367
913.659	3454
913.772	3344
913.886	3222
914	3226
914.113	3359
914.226	3431
914.34	3405
914.453	3249
914.566	3397
914.68	3340
914.793	3340
914.906	3184
915.019	3135
915.132	3039
915.245	3214
915.358	3245
915.47	3207
915.583	3249
915.696	3325
915.809	3462
915.921	3435
916.034	3268
916.146	3275
916.259	3268
916.371	3401
916.483	3386
916.595	3291
916.708	3359
916.82	3367
916.932	3344
917.044	3367
917.156	3374
917.268	3283
917.38	3336
917.491	3325
917.603	3389
917.715	3496
917.826	3526
917.938	3374
918.049	3283
918.161	3443
918.272	3557
918.384	3603
918.495	3511
918.606	3355
918.717	3321
918.828	3409
918.939	3412
919.05	3336
919.161	3378
919.272	3218
919.383	3332
919.494	3568
919.604	3705
919.715	3511
919.826	3473
919.936	3477
920.047	3553
920.157	3553
920.267	3823
920.378	3652
920.488	3561
920.598	3819
920.708	3975
920.818	3823
920.928	3854
921.038	4036
921.148	4021
921.258	3686
921.368	3667
921.477	3603
921.587	3557
921.697	3515
921.806	3694
921.916	3591
922.025	3363
922.134	3351
922.244	3348
922.353	3401
922.462	3302
922.571	3241
922.68	3100
922.789	3119
922.898	3161
923.007	3157
923.116	3249
923.224	3184
923.333	3241
923.442	3154
923.55	3123
923.659	3165
923.767	3260
923.876	3165
923.984	3298
924.092	3123
924.201	3218
924.309	3245
924.417	3264
924.525	3249
924.633	3256
924.741	4223
924.849	3104
924.956	3313
925.064	3127
925.172	3066
925.279	3119
925.387	3237
925.494	3192
925.602	3367
925.709	3355
925.816	3195
925.924	3336
926.031	3416
926.138	3348
926.245	3367
926.352	3253
926.459	3435
926.566	3473
926.673	3344
926.779	3226
926.886	3237
926.993	3165
927.099	3138
927.206	3138
927.312	3093
927.419	3230
927.525	3272
927.631	3279
927.737	3142
927.843	3157
927.95	3047
928.056	3188
928.162	3192
928.267	3264
928.373	3774
928.479	3313
928.585	3062
928.69	3249
928.796	3317
928.901	3211
929.007	3085
929.112	3287
929.218	3211
929.323	3192
929.428	3176
929.533	3298
929.638	3161
929.743	3173
929.848	3310
929.953	3249
930.058	3173
930.163	3009
930.267	3055
930.372	3188
930.477	3043
930.581	3291
930.685	3161
930.79	3074
930.894	3127
930.998	3127
931.103	3291
931.207	2952
931.311	2944
931.415	2941
931.519	2800
931.623	2853
