Data from test_V78500241_340.txt Node
Date: Fri Mar 25 16:17:33 CST 2022
User: usil
Spectrometer: V785-0024
Trigger mode: 0
Integration Time (sec): 4.000000E-1
Scans to average: 1
Nonlinearity correction enabled: false
Boxcar width: 0
Storing dark spectrum: false
XAxis mode: Wavelengths
Number of Pixels in Spectrum: 1024
>>>>>Begin Spectral Data<<<<<
801.071	2880
801.214	2937
801.356	2861
801.499	2880
801.641	2887
801.783	2944
801.926	3013
802.068	2971
802.211	3028
802.353	3051
802.496	2990
802.638	2994
802.78	3043
802.923	3066
803.065	3024
803.208	2922
803.35	2899
803.492	2952
803.635	2929
803.777	2758
803.919	2868
804.061	3188
804.204	2925
804.346	2910
804.488	2838
804.63	2963
804.773	2853
804.915	2895
805.057	3055
805.199	2941
805.341	2975
805.483	3017
805.626	2979
805.768	2952
805.91	3112
806.052	3081
806.194	3085
806.336	3230
806.478	3020
806.62	2963
806.762	3005
806.904	3070
807.046	3157
807.188	2960
807.33	2929
807.472	3032
807.614	2925
807.756	3032
807.898	2895
808.04	2883
808.182	2941
808.324	2914
808.465	2857
808.607	2880
808.749	2804
808.891	2811
809.033	2963
809.174	2960
809.316	2876
809.458	2914
809.6	2777
809.741	2766
809.883	2746
810.025	2861
810.166	2823
810.308	2853
810.45	2853
810.591	2762
810.733	2762
810.875	2788
811.016	2754
811.158	2777
811.299	2819
811.441	2891
811.582	2857
811.724	2853
811.865	2845
812.007	2876
812.148	2853
812.29	2895
812.431	2899
812.573	2922
812.714	2956
812.855	3036
812.997	3039
813.138	3131
813.279	2998
813.421	2956
813.562	2967
813.703	2883
813.845	2891
813.986	2762
814.127	2735
814.268	2830
814.41	2845
814.551	2819
814.692	2887
814.833	2823
814.974	2895
815.115	2948
815.256	2838
815.397	2815
815.539	2864
815.68	2773
815.821	2781
815.962	2929
816.103	2895
816.244	2910
816.385	2891
816.526	2960
816.666	2914
816.807	2781
816.948	2887
817.089	2933
817.23	2823
817.371	2781
817.512	2815
817.653	2838
817.793	2842
817.934	2868
818.075	2948
818.216	2975
818.356	2998
818.497	2876
818.638	2788
818.778	2800
818.919	2785
819.06	2746
819.2	2891
819.341	2788
819.481	2815
819.622	2902
819.762	3085
819.903	3013
820.043	2952
820.184	2857
820.324	2918
820.465	3013
820.605	2986
820.746	2975
820.886	2922
821.026	3127
821.167	3138
821.307	3218
821.447	3253
821.588	3230
821.728	3180
821.868	3176
822.008	3085
822.149	3199
822.289	3245
822.429	3093
822.569	3112
822.709	3184
822.849	3001
822.99	3085
823.13	3135
823.27	3173
823.41	3112
823.55	3165
823.69	3138
823.83	3218
823.97	3100
824.11	2971
824.25	3017
824.389	3036
824.529	3104
824.669	3077
824.809	3192
824.949	3233
825.089	3199
825.228	3142
825.368	2979
825.508	2944
825.648	2933
825.787	3017
825.927	3028
826.067	2975
826.206	2975
826.346	2998
826.485	3089
826.625	3108
826.765	3237
826.904	3184
827.044	3005
827.183	2922
827.323	2876
827.462	2994
827.601	2910
827.741	2963
827.88	2963
828.02	2853
828.159	2960
828.298	3047
828.437	3116
828.577	3039
828.716	3192
828.855	3100
828.994	2876
829.134	2880
829.273	2914
829.412	2864
829.551	2864
829.69	2910
829.829	2960
829.968	3123
830.107	2986
830.246	3013
830.385	2910
830.524	2826
830.663	2845
830.802	2735
830.941	2629
831.08	2602
831.219	2743
831.357	2758
831.496	2952
831.635	2705
831.774	2659
831.913	2636
832.051	2571
832.19	2571
832.329	2697
832.467	2530
832.606	2442
832.744	2571
832.883	2564
833.022	2590
833.16	2659
833.299	2697
833.437	2659
833.576	2716
833.714	2739
833.852	2727
833.991	2766
834.129	2834
834.267	2777
834.406	2769
834.544	2845
834.682	2891
834.821	2861
834.959	3028
835.097	2899
835.235	3055
835.373	2967
835.511	2986
835.65	2937
835.788	2925
835.926	2819
836.064	2823
836.202	2804
836.34	3066
836.478	3142
836.615	3051
836.753	3154
836.891	3184
837.029	3157
837.167	3089
837.305	3058
837.443	3024
837.58	2937
837.718	3135
837.856	3051
837.993	3032
838.131	3104
838.269	3066
838.406	3058
838.544	3077
838.681	2944
838.819	2895
838.956	2857
839.094	2792
839.231	2857
839.369	3020
839.506	3374
839.643	3176
839.781	2986
839.918	2914
840.055	3055
840.193	3001
840.33	3062
840.467	3058
840.604	3097
840.742	3424
840.879	3024
841.016	3043
841.153	3112
841.29	3313
841.427	3272
841.564	3294
841.701	3313
841.838	3173
841.975	3165
842.112	3195
842.249	3074
842.385	3024
842.522	3245
842.659	3074
842.796	3066
842.933	3104
843.069	3024
843.206	2994
843.343	3150
843.479	3097
843.616	3127
843.752	2857
843.889	2815
844.025	3070
844.162	2876
844.298	3104
844.435	2933
844.571	2960
844.708	3043
844.844	3207
844.98	3268
845.117	3195
845.253	3066
845.389	2979
845.525	3119
845.661	3074
845.798	3043
845.934	3116
846.07	3055
846.206	3222
846.342	3336
846.478	3245
846.614	3135
846.75	3081
846.886	3051
847.022	3260
847.158	3169
847.294	3207
847.429	3245
847.565	3253
847.701	3530
847.837	3077
847.972	3039
848.108	3180
848.244	3161
848.379	3005
848.515	2967
848.65	2967
848.786	3005
848.921	3085
849.057	3100
849.192	3226
849.328	3081
849.463	3119
849.598	3116
849.734	3116
849.869	3036
850.004	2963
850.14	2998
850.275	2952
850.41	2944
850.545	2918
850.68	2979
850.815	3032
850.95	3009
851.085	3249
851.22	3131
851.355	3055
851.49	3009
851.625	3062
851.76	3066
851.895	2979
852.03	2948
852.165	3070
852.299	3169
852.434	3203
852.569	3211
852.703	3226
852.838	3291
852.973	3363
853.107	3348
853.242	3199
853.376	3157
853.511	3039
853.645	3051
853.78	3241
853.914	3154
854.048	3161
854.183	3142
854.317	3222
854.451	3336
854.585	3180
854.72	3150
854.854	3253
854.988	3081
855.122	3104
855.256	3020
855.39	3173
855.524	3287
855.658	3214
855.792	3184
855.926	3195
856.06	3245
856.194	3287
856.327	3203
856.461	3157
856.595	3154
856.729	3131
856.862	3256
856.996	3180
857.13	3241
857.263	3302
857.397	3336
857.53	3138
857.664	3211
857.797	3272
857.931	3268
858.064	3199
858.197	3272
858.331	3161
858.464	3150
858.597	3028
858.731	3138
858.864	3157
858.997	3146
859.13	3253
859.263	3218
859.396	3214
859.529	3146
859.662	3108
859.795	3104
859.928	3207
860.061	3249
860.194	3287
860.327	3150
860.46	3154
860.592	3245
860.725	3283
860.858	3306
860.99	3138
861.123	3062
861.256	3100
861.388	3150
861.521	3797
861.653	3047
861.786	3036
861.918	3043
862.05	3055
862.183	3119
862.315	3199
862.447	3199
862.58	3108
862.712	2979
862.844	2944
862.976	3089
863.108	3051
863.24	3332
863.372	2914
863.504	3020
863.636	2952
863.768	3020
863.9	3020
864.032	2906
864.164	2971
864.296	3074
864.428	3097
864.559	3104
864.691	3081
864.823	3116
864.954	3039
865.086	3070
865.217	3017
865.349	2963
865.48	2982
865.612	3032
865.743	3173
865.875	3001
866.006	3005
866.137	3009
866.269	2990
866.4	2979
866.531	2952
866.662	2933
866.793	2914
866.924	2925
867.055	3013
867.186	2956
867.317	2929
867.448	2876
867.579	2933
867.71	2906
867.841	2838
867.972	2963
868.103	2899
868.233	2910
868.364	2914
868.495	2952
868.625	3116
868.756	3214
868.886	3017
869.017	3074
869.147	3157
869.278	3188
869.408	3070
869.539	3077
869.669	3119
869.799	3108
869.929	3203
870.06	3116
870.19	3370
870.32	3378
870.45	3283
870.58	3393
870.71	3477
870.84	3454
870.97	3325
871.1	3218
871.23	3523
871.36	3507
871.489	3397
871.619	3447
871.749	3412
871.879	3462
872.008	3549
872.138	3393
872.267	3321
872.397	3176
872.526	3131
872.656	3055
872.785	3142
872.915	3260
873.044	3340
873.173	3256
873.303	3275
873.432	3241
873.561	3241
873.69	3146
873.819	3195
873.948	3241
874.077	3157
874.206	3055
874.335	3093
874.464	3256
874.593	3367
874.722	3264
874.851	3443
874.979	3355
875.108	3317
875.237	3279
875.365	3222
875.494	3180
875.623	3310
875.751	3062
875.88	3195
876.008	3207
876.136	3275
876.265	3401
876.393	3549
876.521	3450
876.65	3378
876.778	3405
876.906	3321
877.034	3260
877.162	3233
877.29	3176
877.418	3294
877.546	3230
877.674	3287
877.802	3264
877.93	3245
878.058	3195
878.185	3116
878.313	3237
878.441	3237
878.568	3100
878.696	3173
878.824	3329
878.951	3332
879.079	3469
879.206	3663
879.333	3458
879.461	3393
879.588	3393
879.715	3504
879.842	3644
879.97	3424
880.097	3169
880.224	3157
880.351	3157
880.478	3253
880.605	3249
880.732	3214
880.859	3500
880.986	3332
881.112	3310
881.239	3226
881.366	3123
881.493	3047
881.619	3013
881.746	3097
881.872	3104
881.999	3123
882.125	3157
882.252	3253
882.378	3332
882.505	3473
882.631	3291
882.757	3165
882.883	3222
883.01	3226
883.136	3207
883.262	3074
883.388	3157
883.514	3329
883.64	3378
883.766	3359
883.892	3188
884.018	3272
884.143	3439
884.269	3591
884.395	3233
884.52	3195
884.646	3233
884.772	3169
884.897	3142
885.023	3214
885.148	3344
885.274	3454
885.399	3378
885.524	3310
885.65	3260
885.775	3313
885.9	3272
886.025	3481
886.15	3321
886.275	3313
886.4	3203
886.525	3332
886.65	3264
886.775	3287
886.9	3500
887.025	3625
887.149	3450
887.274	3313
887.399	3241
887.523	3176
887.648	3173
887.773	3211
887.897	3382
888.021	3420
888.146	3310
888.27	3462
888.395	3564
888.519	3466
888.643	3488
888.767	3477
888.891	3344
889.015	3298
889.139	3268
889.263	3256
889.387	3416
889.511	3504
889.635	3447
889.759	3313
889.883	3355
890.006	3416
890.13	3545
890.254	3310
890.377	3351
890.501	3222
890.624	3203
890.748	3329
890.871	3203
890.995	3119
891.118	3066
891.241	3222
891.364	3264
891.488	3344
891.611	3218
891.734	3253
891.857	3329
891.98	3260
892.103	3336
892.226	3298
892.349	3230
892.471	3123
892.594	3268
892.717	3272
892.839	3298
892.962	3340
893.085	3370
893.207	3302
893.33	3173
893.452	3245
893.575	3344
893.697	3260
893.819	3469
893.941	3553
894.064	3481
894.186	3249
894.308	3310
894.43	3401
894.552	3561
894.674	3553
894.796	3279
894.918	3332
895.04	3310
895.161	3447
895.283	3428
895.405	3329
895.526	3363
895.648	3431
895.769	3405
895.891	3462
896.012	3492
896.134	3511
896.255	3416
896.376	3416
896.498	3416
896.619	3447
896.74	3370
896.861	3443
896.982	3701
897.103	3854
897.224	3622
897.345	3526
897.466	3443
897.587	3500
897.708	3652
897.828	3572
897.949	3481
898.07	3359
898.19	3393
898.311	3644
898.431	3447
898.552	3542
898.672	3606
898.792	3618
898.913	3545
899.033	3409
899.153	3306
899.273	3245
899.393	3310
899.513	3325
899.633	3340
899.753	3370
899.873	3317
899.993	3378
900.113	3363
900.232	3420
900.352	3348
900.472	3283
900.591	3230
900.711	3306
900.83	3222
900.95	3443
901.069	3530
901.189	3374
901.308	3199
901.427	3131
901.546	3237
901.665	3313
901.784	3321
901.904	3237
902.023	3207
902.141	3009
902.26	2990
902.379	3157
902.498	3058
902.617	3047
902.735	3260
902.854	3260
902.973	3199
903.091	3070
903.21	3074
903.328	3146
903.446	3138
903.565	3161
903.683	3207
903.801	3138
903.919	3275
904.038	3256
904.156	3165
904.274	3310
904.392	3291
904.51	3287
904.627	3317
904.745	3454
904.863	3481
904.981	3283
905.098	3188
905.216	3268
905.334	3283
905.451	3336
905.569	3329
905.686	3439
905.803	3492
905.921	3321
906.038	3424
906.155	3348
906.272	3306
906.389	3401
906.506	3226
906.623	3291
906.74	3264
906.857	3211
906.974	3268
907.091	3428
907.208	3557
907.324	3538
907.441	3412
907.557	3226
907.674	3230
907.79	3184
907.907	3306
908.023	3386
908.139	3397
908.256	3332
908.372	3367
908.488	3340
908.604	3291
908.72	3237
908.836	3313
908.952	3283
909.068	3340
909.184	3523
909.3	3424
909.415	3545
909.531	3507
909.647	3279
909.762	3275
909.878	3253
909.993	3367
910.108	3344
910.224	3363
910.339	3397
910.454	3344
910.57	3275
910.685	3233
910.8	3587
910.915	3549
911.03	3424
911.145	3275
911.259	3291
911.374	3332
911.489	3264
911.604	3241
911.718	3154
911.833	3116
911.947	3051
912.062	2979
912.176	3169
912.291	3192
912.405	3203
912.519	3477
912.633	3439
912.748	3283
912.862	3268
912.976	3150
913.09	3085
913.204	3142
913.318	3218
913.431	3332
913.545	3382
913.659	3462
913.772	3321
913.886	3283
914	3237
914.113	3344
914.226	3431
914.34	3370
914.453	3249
914.566	3450
914.68	3249
914.793	3348
914.906	3157
915.019	3154
915.132	3085
915.245	3195
915.358	3237
915.47	3253
915.583	3287
915.696	3294
915.809	3412
915.921	3469
916.034	3344
916.146	3287
916.259	3279
916.371	3447
916.483	3378
916.595	3329
916.708	3386
916.82	3405
916.932	3393
917.044	3393
917.156	3401
917.268	3275
917.38	3359
917.491	3332
917.603	3420
917.715	3485
917.826	3519
917.938	3443
918.049	3359
918.161	3462
918.272	3603
918.384	3614
918.495	3542
918.606	3416
918.717	3336
918.828	3431
918.939	3431
919.05	3340
919.161	3412
919.272	3226
919.383	3306
919.494	3549
919.604	3736
919.715	3553
919.826	3454
919.936	3466
920.047	3641
920.157	3595
920.267	3838
920.378	3656
920.488	3576
920.598	3816
920.708	4013
920.818	3846
920.928	3869
921.038	4029
921.148	4040
921.258	3755
921.368	3720
921.477	3610
921.587	3584
921.697	3507
921.806	3698
921.916	3595
922.025	3382
922.134	3370
922.244	3351
922.353	3469
922.462	3332
922.571	3233
922.68	3119
922.789	3108
922.898	3199
923.007	3176
923.116	3233
923.224	3211
923.333	3218
923.442	3161
923.55	3157
923.659	3176
923.767	3237
923.876	3199
923.984	3287
924.092	3169
924.201	3253
924.309	3253
924.417	3310
924.525	3260
924.633	3272
924.741	4188
924.849	3127
924.956	3279
925.064	3138
925.172	3074
925.279	3150
925.387	3211
925.494	3241
925.602	3367
925.709	3336
925.816	3237
925.924	3325
926.031	3405
926.138	3420
926.245	3439
926.352	3302
926.459	3450
926.566	3519
926.673	3355
926.779	3294
926.886	3310
926.993	3211
927.099	3169
927.206	3131
927.312	3138
927.419	3233
927.525	3230
927.631	3340
927.737	3188
927.843	3180
927.95	3089
928.056	3169
928.162	3207
928.267	3283
928.373	3922
928.479	3329
928.585	3089
928.69	3287
928.796	3325
928.901	3249
929.007	3058
929.112	3230
929.218	3203
929.323	3192
929.428	3161
929.533	3310
929.638	3138
929.743	3173
929.848	3279
929.953	3272
930.058	3188
930.163	3032
930.267	3074
930.372	3245
930.477	3058
930.581	3378
930.685	3241
930.79	3104
930.894	3157
930.998	3100
931.103	3306
931.207	2998
931.311	3005
931.415	2956
931.519	2819
931.623	2853
