Data from test_V78500241_305.txt Node
Date: Fri Mar 25 16:17:19 CST 2022
User: usil
Spectrometer: V785-0024
Trigger mode: 0
Integration Time (sec): 4.000000E-1
Scans to average: 1
Nonlinearity correction enabled: false
Boxcar width: 0
Storing dark spectrum: false
XAxis mode: Wavelengths
Number of Pixels in Spectrum: 1024
>>>>>Begin Spectral Data<<<<<
801.071	2906
801.214	2967
801.356	2880
801.499	2887
801.641	2922
801.783	2941
801.926	3066
802.068	2956
802.211	2986
802.353	3024
802.496	3009
802.638	3009
802.78	3009
802.923	3127
803.065	3001
803.208	2918
803.35	2914
803.492	2971
803.635	2941
803.777	2758
803.919	2906
804.061	3237
804.204	2982
804.346	2906
804.488	2895
804.63	3009
804.773	2925
804.915	2933
805.057	3127
805.199	2956
805.341	3032
805.483	3074
805.626	3085
805.768	2963
805.91	3116
806.052	3123
806.194	3058
806.336	3272
806.478	3043
806.62	2971
806.762	3047
806.904	3100
807.046	3241
807.188	3020
807.33	2933
807.472	3020
807.614	2944
807.756	3024
807.898	2998
808.04	2944
808.182	3036
808.324	2967
808.465	2914
808.607	2906
808.749	2811
808.891	2918
809.033	2990
809.174	3020
809.316	2918
809.458	2952
809.6	2826
809.741	2785
809.883	2800
810.025	2895
810.166	2880
810.308	2887
810.45	2899
810.591	2815
810.733	2815
810.875	2891
811.016	2777
811.158	2830
811.299	2861
811.441	2967
811.582	2933
811.724	2834
811.865	2899
812.007	2967
812.148	2922
812.29	2895
812.431	2937
812.573	2982
812.714	3032
812.855	3100
812.997	3089
813.138	3127
813.279	3036
813.421	3005
813.562	2979
813.703	2933
813.845	2937
813.986	2849
814.127	2804
814.268	2876
814.41	2887
814.551	2826
814.692	2979
814.833	2864
814.974	2944
815.115	2990
815.256	2842
815.397	2872
815.539	2929
815.68	2815
815.821	2819
815.962	3005
816.103	2956
816.244	2929
816.385	2925
816.526	3017
816.666	2895
816.807	2830
816.948	2967
817.089	2982
817.23	2899
817.371	2788
817.512	2819
817.653	2872
817.793	2868
817.934	2906
818.075	3001
818.216	3036
818.356	3047
818.497	2914
818.638	2823
818.778	2853
818.919	2838
819.06	2796
819.2	2899
819.341	2834
819.481	2849
819.622	2956
819.762	3142
819.903	3097
820.043	2963
820.184	2971
820.324	2929
820.465	3055
820.605	3032
820.746	3074
820.886	2979
821.026	3154
821.167	3195
821.307	3287
821.447	3344
821.588	3245
821.728	3245
821.868	3237
822.008	3127
822.149	3233
822.289	3268
822.429	3093
822.569	3138
822.709	3237
822.849	3077
822.99	3112
823.13	3176
823.27	3230
823.41	3165
823.55	3173
823.69	3188
823.83	3230
823.97	3131
824.11	3024
824.25	3036
824.389	3116
824.529	3119
824.669	3089
824.809	3237
824.949	3313
825.089	3245
825.228	3180
825.368	3043
825.508	3001
825.648	2986
825.787	3070
825.927	3028
826.067	2963
826.206	2990
826.346	3074
826.485	3119
826.625	3138
826.765	3279
826.904	3241
827.044	3024
827.183	2956
827.323	2922
827.462	2994
827.601	2925
827.741	2922
827.88	2986
828.02	2861
828.159	3001
828.298	3058
828.437	3146
828.577	3074
828.716	3241
828.855	3116
828.994	2937
829.134	2906
829.273	2925
829.412	2861
829.551	2922
829.69	2906
829.829	3009
829.968	3142
830.107	3039
830.246	3051
830.385	2952
830.524	2883
830.663	2845
830.802	2773
830.941	2701
831.08	2663
831.219	2796
831.357	2781
831.496	2994
831.635	2769
831.774	2697
831.913	2686
832.051	2560
832.19	2610
832.329	2697
832.467	2579
832.606	2537
832.744	2579
832.883	2602
833.022	2579
833.16	2716
833.299	2693
833.437	2701
833.576	2689
833.714	2743
833.852	2766
833.991	2800
834.129	2838
834.267	2891
834.406	2834
834.544	2880
834.682	2906
834.821	2906
834.959	3085
835.097	2971
835.235	3100
835.373	3051
835.511	3017
835.65	3020
835.788	2960
835.926	2849
836.064	2838
836.202	2853
836.34	3116
836.478	3188
836.615	3097
836.753	3135
836.891	3207
837.029	3214
837.167	3135
837.305	3108
837.443	3055
837.58	3017
837.718	3123
837.856	3100
837.993	3051
838.131	3154
838.269	3116
838.406	3104
838.544	3135
838.681	2944
838.819	2956
838.956	2834
839.094	2842
839.231	2941
839.369	3028
839.506	3405
839.643	3233
839.781	3074
839.918	2994
840.055	3081
840.193	3074
840.33	3085
840.467	3104
840.604	3176
840.742	3416
840.879	3112
841.016	3070
841.153	3150
841.29	3340
841.427	3329
841.564	3310
841.701	3329
841.838	3241
841.975	3192
842.112	3230
842.249	3135
842.385	3051
842.522	3287
842.659	3116
842.796	3093
842.933	3112
843.069	3108
843.206	3039
843.343	3214
843.479	3116
843.616	3135
843.752	2895
843.889	2880
844.025	3085
844.162	2948
844.298	3104
844.435	2960
844.571	2910
844.708	3081
844.844	3192
844.98	3268
845.117	3211
845.253	3058
845.389	3001
845.525	3119
845.661	3108
845.798	2994
845.934	3074
846.07	3112
846.206	3283
846.342	3367
846.478	3253
846.614	3119
846.75	3055
846.886	3077
847.022	3233
847.158	3157
847.294	3207
847.429	3203
847.565	3214
847.701	3473
847.837	3036
847.972	3032
848.108	3169
848.244	3226
848.379	3013
848.515	2960
848.65	2967
848.786	2967
848.921	2990
849.057	3119
849.192	3161
849.328	3066
849.463	3138
849.598	3051
849.734	3062
849.869	2979
850.004	2899
850.14	2982
850.275	2956
850.41	2861
850.545	2880
850.68	2971
850.815	2994
850.95	2982
851.085	3218
851.22	3066
851.355	3039
851.49	2990
851.625	3032
851.76	3032
851.895	2922
852.03	2906
852.165	3051
852.299	3138
852.434	3173
852.569	3180
852.703	3192
852.838	3253
852.973	3382
853.107	3389
853.242	3154
853.376	3108
853.511	2975
853.645	3039
853.78	3245
853.914	3093
854.048	3131
854.183	3112
854.317	3176
854.451	3279
854.585	3146
854.72	3123
854.854	3245
854.988	3032
855.122	3100
855.256	2986
855.39	3119
855.524	3268
855.658	3203
855.792	3180
855.926	3199
856.06	3253
856.194	3291
856.327	3161
856.461	3055
856.595	3100
856.729	3085
856.862	3241
856.996	3192
857.13	3176
857.263	3287
857.397	3237
857.53	3142
857.664	3199
857.797	3256
857.931	3287
858.064	3184
858.197	3226
858.331	3119
858.464	3108
858.597	3020
858.731	3165
858.864	3173
858.997	3081
859.13	3180
859.263	3150
859.396	3199
859.529	3131
859.662	3081
859.795	3100
859.928	3135
860.061	3283
860.194	3291
860.327	3192
860.46	3085
860.592	3302
860.725	3294
860.858	3264
860.99	3104
861.123	3066
861.256	3047
861.388	3195
861.521	3899
861.653	3051
861.786	2986
861.918	3009
862.05	3116
862.183	3100
862.315	3161
862.447	3169
862.58	3112
862.712	3013
862.844	2922
862.976	3020
863.108	3032
863.24	3317
863.372	2910
863.504	2979
863.636	2963
863.768	3055
863.9	3028
864.032	2944
864.164	2979
864.296	3013
864.428	3097
864.559	3138
864.691	3058
864.823	3108
864.954	3036
865.086	3058
865.217	3028
865.349	2933
865.48	2979
865.612	3058
865.743	3165
865.875	2975
866.006	2948
866.137	2994
866.269	2982
866.4	2933
866.531	2975
866.662	2880
866.793	2933
866.924	2918
867.055	2967
867.186	2937
867.317	2895
867.448	2845
867.579	2842
867.71	2849
867.841	2826
867.972	2933
868.103	2963
868.233	2899
868.364	2887
868.495	2899
868.625	3097
868.756	3146
868.886	2963
869.017	3020
869.147	3207
869.278	3184
869.408	3074
869.539	3051
869.669	3108
869.799	3051
869.929	3123
870.06	3127
870.19	3336
870.32	3287
870.45	3275
870.58	3370
870.71	3469
870.84	3458
870.97	3294
871.1	3245
871.23	3519
871.36	3454
871.489	3401
871.619	3386
871.749	3409
871.879	3435
872.008	3526
872.138	3348
872.267	3291
872.397	3154
872.526	3112
872.656	3001
872.785	3093
872.915	3294
873.044	3321
873.173	3222
873.303	3268
873.432	3233
873.561	3230
873.69	3173
873.819	3184
873.948	3176
874.077	3089
874.206	3077
874.335	3089
874.464	3237
874.593	3359
874.722	3222
874.851	3401
874.979	3287
875.108	3321
875.237	3218
875.365	3161
875.494	3218
875.623	3249
875.751	3116
875.88	3112
876.008	3150
876.136	3218
876.265	3374
876.393	3542
876.521	3443
876.65	3389
876.778	3325
876.906	3275
877.034	3233
877.162	3214
877.29	3176
877.418	3287
877.546	3264
877.674	3245
877.802	3233
877.93	3241
878.058	3188
878.185	3077
878.313	3214
878.441	3184
878.568	3085
878.696	3176
878.824	3249
878.951	3249
879.079	3481
879.206	3679
879.333	3447
879.461	3321
879.588	3389
879.715	3500
879.842	3587
879.97	3370
880.097	3195
880.224	3138
880.351	3203
880.478	3233
880.605	3176
880.732	3207
880.859	3496
880.986	3298
881.112	3370
881.239	3188
881.366	3146
881.493	3020
881.619	3009
881.746	3085
881.872	3157
881.999	3093
882.125	3165
882.252	3233
882.378	3306
882.505	3439
882.631	3253
882.757	3131
882.883	3226
883.01	3256
883.136	3192
883.262	3085
883.388	3127
883.514	3313
883.64	3378
883.766	3321
883.892	3203
884.018	3275
884.143	3401
884.269	3557
884.395	3176
884.52	3165
884.646	3188
884.772	3146
884.897	3150
885.023	3199
885.148	3325
885.274	3454
885.399	3370
885.524	3264
885.65	3279
885.775	3310
885.9	3264
886.025	3450
886.15	3355
886.275	3325
886.4	3264
886.525	3329
886.65	3268
886.775	3283
886.9	3515
887.025	3660
887.149	3424
887.274	3260
887.399	3184
887.523	3211
887.648	3203
887.773	3184
887.897	3359
888.021	3378
888.146	3279
888.27	3447
888.395	3553
888.519	3431
888.643	3485
888.767	3454
888.891	3351
889.015	3233
889.139	3325
889.263	3230
889.387	3397
889.511	3515
889.635	3469
889.759	3283
889.883	3329
890.006	3382
890.13	3485
890.254	3253
890.377	3329
890.501	3249
890.624	3180
890.748	3325
890.871	3176
890.995	3138
891.118	3074
891.241	3192
891.364	3218
891.488	3283
891.611	3161
891.734	3275
891.857	3298
891.98	3264
892.103	3374
892.226	3313
892.349	3203
892.471	3146
892.594	3249
892.717	3272
892.839	3275
892.962	3340
893.085	3344
893.207	3287
893.33	3142
893.452	3237
893.575	3348
893.697	3253
893.819	3469
893.941	3473
894.064	3447
894.186	3298
894.308	3298
894.43	3443
894.552	3534
894.674	3504
894.796	3283
894.918	3294
895.04	3272
895.161	3424
895.283	3382
895.405	3313
895.526	3382
895.648	3412
895.769	3420
895.891	3397
896.012	3492
896.134	3435
896.255	3405
896.376	3378
896.498	3370
896.619	3450
896.74	3363
896.861	3401
896.982	3633
897.103	3861
897.224	3591
897.345	3500
897.466	3431
897.587	3477
897.708	3606
897.828	3580
897.949	3450
898.07	3340
898.19	3386
898.311	3652
898.431	3466
898.552	3542
898.672	3568
898.792	3622
898.913	3542
899.033	3462
899.153	3283
899.273	3237
899.393	3291
899.513	3348
899.633	3294
899.753	3332
899.873	3291
899.993	3370
900.113	3344
900.232	3363
900.352	3348
900.472	3291
900.591	3230
900.711	3279
900.83	3275
900.95	3401
901.069	3534
901.189	3340
901.308	3195
901.427	3154
901.546	3176
901.665	3283
901.784	3332
901.904	3195
902.023	3150
902.141	3039
902.26	2986
902.379	3123
902.498	3058
902.617	3074
902.735	3195
902.854	3230
902.973	3184
903.091	3047
903.21	3112
903.328	3154
903.446	3108
903.565	3093
903.683	3188
903.801	3150
903.919	3245
904.038	3287
904.156	3161
904.274	3283
904.392	3260
904.51	3283
904.627	3340
904.745	3424
904.863	3526
904.981	3260
905.098	3180
905.216	3195
905.334	3306
905.451	3279
905.569	3344
905.686	3420
905.803	3416
905.921	3291
906.038	3409
906.155	3382
906.272	3298
906.389	3340
906.506	3218
906.623	3291
906.74	3283
906.857	3241
906.974	3268
907.091	3439
907.208	3591
907.324	3469
907.441	3386
907.557	3237
907.674	3249
907.79	3245
907.907	3306
908.023	3374
908.139	3359
908.256	3306
908.372	3355
908.488	3367
908.604	3283
908.72	3249
908.836	3310
908.952	3313
909.068	3348
909.184	3477
909.3	3416
909.415	3458
909.531	3454
909.647	3283
909.762	3256
909.878	3245
909.993	3359
910.108	3317
910.224	3359
910.339	3412
910.454	3336
910.57	3310
910.685	3241
910.8	3625
910.915	3557
911.03	3431
911.145	3294
911.259	3283
911.374	3329
911.489	3222
911.604	3222
911.718	3116
911.833	3131
911.947	3020
912.062	3009
912.176	3176
912.291	3230
912.405	3241
912.519	3424
912.633	3462
912.748	3317
912.862	3283
912.976	3112
913.09	3085
913.204	3097
913.318	3230
913.431	3310
913.545	3359
913.659	3409
913.772	3344
913.886	3249
914	3176
914.113	3378
914.226	3401
914.34	3431
914.453	3214
914.566	3431
914.68	3275
914.793	3306
914.906	3119
915.019	3135
915.132	3074
915.245	3176
915.358	3199
915.47	3268
915.583	3272
915.696	3310
915.809	3431
915.921	3401
916.034	3306
916.146	3268
916.259	3207
916.371	3412
916.483	3363
916.595	3291
916.708	3355
916.82	3344
916.932	3325
917.044	3325
917.156	3355
917.268	3256
917.38	3268
917.491	3310
917.603	3409
917.715	3477
917.826	3447
917.938	3389
918.049	3256
918.161	3420
918.272	3587
918.384	3564
918.495	3523
918.606	3351
918.717	3287
918.828	3348
918.939	3450
919.05	3294
919.161	3340
919.272	3203
919.383	3279
919.494	3500
919.604	3724
919.715	3473
919.826	3431
919.936	3481
920.047	3580
920.157	3553
920.267	3743
920.378	3580
920.488	3584
920.598	3793
920.708	3930
920.818	3827
920.928	3842
921.038	4071
921.148	4036
921.258	3709
921.368	3675
921.477	3576
921.587	3568
921.697	3496
921.806	3644
921.916	3523
922.025	3348
922.134	3359
922.244	3325
922.353	3466
922.462	3275
922.571	3233
922.68	3089
922.789	3066
922.898	3188
923.007	3089
923.116	3184
923.224	3176
923.333	3138
923.442	3070
923.55	3081
923.659	3184
923.767	3253
923.876	3146
923.984	3245
924.092	3089
924.201	3192
924.309	3275
924.417	3218
924.525	3199
924.633	3233
924.741	4185
924.849	3074
924.956	3268
925.064	3100
925.172	3066
925.279	3093
925.387	3199
925.494	3233
925.602	3370
925.709	3336
925.816	3211
925.924	3279
926.031	3389
926.138	3302
926.245	3336
926.352	3260
926.459	3401
926.566	3462
926.673	3313
926.779	3298
926.886	3272
926.993	3135
927.099	3154
927.206	3127
927.312	3116
927.419	3199
927.525	3195
927.631	3298
927.737	3161
927.843	3135
927.95	3036
928.056	3150
928.162	3211
928.267	3279
928.373	3911
928.479	3302
928.585	3058
928.69	3237
928.796	3253
928.901	3169
929.007	3028
929.112	3214
929.218	3146
929.323	3150
929.428	3150
929.533	3313
929.638	3161
929.743	3161
929.848	3260
929.953	3192
930.058	3138
930.163	2994
930.267	3032
930.372	3218
930.477	3043
930.581	3287
930.685	3184
930.79	3051
930.894	3100
930.998	3100
931.103	3283
931.207	2956
931.311	2941
931.415	2948
931.519	2750
931.623	2792
