Data from test_V78500241_1109.txt Node
Date: Fri Mar 25 16:22:53 CST 2022
User: usil
Spectrometer: V785-0024
Trigger mode: 0
Integration Time (sec): 4.000000E-1
Scans to average: 1
Nonlinearity correction enabled: false
Boxcar width: 0
Storing dark spectrum: false
XAxis mode: Wavelengths
Number of Pixels in Spectrum: 1024
>>>>>Begin Spectral Data<<<<<
801.071	2910
801.214	2956
801.356	2872
801.499	2883
801.641	2868
801.783	2925
801.926	3005
802.068	2963
802.211	3001
802.353	3032
802.496	2948
802.638	3028
802.78	3024
802.923	3093
803.065	3028
803.208	2902
803.35	2910
803.492	2937
803.635	2918
803.777	2743
803.919	2861
804.061	3161
804.204	2948
804.346	2918
804.488	2853
804.63	2979
804.773	2864
804.915	2902
805.057	3108
805.199	2922
805.341	2956
805.483	3017
805.626	3005
805.768	2963
805.91	3093
806.052	3093
806.194	3020
806.336	3214
806.478	2994
806.62	2937
806.762	2933
806.904	3058
807.046	3100
807.188	2941
807.33	2906
807.472	2971
807.614	2902
807.756	2975
807.898	2902
808.04	2887
808.182	2929
808.324	2941
808.465	2880
808.607	2845
808.749	2785
808.891	2861
809.033	2956
809.174	2986
809.316	2914
809.458	2864
809.6	2750
809.741	2788
809.883	2754
810.025	2857
810.166	2830
810.308	2838
810.45	2830
810.591	2769
810.733	2762
810.875	2823
811.016	2785
811.158	2746
811.299	2826
811.441	2963
811.582	2872
811.724	2819
811.865	2838
812.007	2902
812.148	2876
812.29	2834
812.431	2910
812.573	2941
812.714	2975
812.855	3036
812.997	3036
813.138	3108
813.279	2994
813.421	2944
813.562	2948
813.703	2868
813.845	2910
813.986	2823
814.127	2727
814.268	2861
814.41	2864
814.551	2823
814.692	2868
814.833	2811
814.974	2891
815.115	2960
815.256	2788
815.397	2769
815.539	2826
815.68	2781
815.821	2769
815.962	2941
816.103	2952
816.244	2861
816.385	2834
816.526	2971
816.666	2929
816.807	2766
816.948	2880
817.089	2918
817.23	2864
817.371	2769
817.512	2777
817.653	2838
817.793	2823
817.934	2842
818.075	2960
818.216	2967
818.356	3009
818.497	2861
818.638	2815
818.778	2804
818.919	2785
819.06	2739
819.2	2914
819.341	2785
819.481	2785
819.622	2922
819.762	3100
819.903	3036
820.043	2933
820.184	2906
820.324	2925
820.465	2998
820.605	2979
820.746	3020
820.886	2918
821.026	3104
821.167	3180
821.307	3253
821.447	3294
821.588	3237
821.728	3195
821.868	3192
822.008	3055
822.149	3180
822.289	3222
822.429	3074
822.569	3070
822.709	3157
822.849	2998
822.99	3085
823.13	3161
823.27	3211
823.41	3116
823.55	3142
823.69	3173
823.83	3203
823.97	3116
824.11	2967
824.25	2990
824.389	3036
824.529	3055
824.669	3093
824.809	3165
824.949	3230
825.089	3237
825.228	3154
825.368	3009
825.508	2952
825.648	2990
825.787	3017
825.927	3020
826.067	2990
826.206	2937
826.346	3039
826.485	2994
826.625	3112
826.765	3287
826.904	3180
827.044	2994
827.183	2906
827.323	2868
827.462	2944
827.601	2933
827.741	2910
827.88	2944
828.02	2853
828.159	2948
828.298	3009
828.437	3089
828.577	3051
828.716	3249
828.855	3070
828.994	2883
829.134	2872
829.273	2922
829.412	2864
829.551	2845
829.69	2891
829.829	2982
829.968	3119
830.107	3013
830.246	2982
830.385	2918
830.524	2842
830.663	2819
830.802	2716
830.941	2629
831.08	2644
831.219	2766
831.357	2735
831.496	2914
831.635	2731
831.774	2659
831.913	2640
832.051	2522
832.19	2598
832.329	2644
832.467	2518
832.606	2488
832.744	2571
832.883	2549
833.022	2560
833.16	2682
833.299	2670
833.437	2693
833.576	2712
833.714	2720
833.852	2720
833.991	2762
834.129	2826
834.267	2826
834.406	2773
834.544	2887
834.682	2864
834.821	2853
834.959	3043
835.097	2880
835.235	3047
835.373	3024
835.511	3020
835.65	2975
835.788	2956
835.926	2792
836.064	2819
836.202	2857
836.34	3062
836.478	3127
836.615	3020
836.753	3123
836.891	3199
837.029	3157
837.167	3150
837.305	3051
837.443	3024
837.58	2937
837.718	3108
837.856	3051
837.993	3039
838.131	3108
838.269	3104
838.406	3074
838.544	3077
838.681	2902
838.819	2922
838.956	2788
839.094	2823
839.231	2933
839.369	3001
839.506	3367
839.643	3241
839.781	3039
839.918	2937
840.055	3005
840.193	3024
840.33	3070
840.467	3081
840.604	3123
840.742	3405
840.879	3055
841.016	3032
841.153	3097
841.29	3291
841.427	3329
841.564	3287
841.701	3317
841.838	3241
841.975	3150
842.112	3192
842.249	3055
842.385	3024
842.522	3233
842.659	3100
842.796	3043
842.933	3108
843.069	3028
843.206	3047
843.343	3157
843.479	3074
843.616	3116
843.752	2880
843.889	2838
844.025	3058
844.162	2845
844.298	3043
844.435	2929
844.571	2925
844.708	3070
844.844	3192
844.98	3222
845.117	3176
845.253	3024
845.389	3028
845.525	3089
845.661	3085
845.798	3028
845.934	3146
846.07	3032
846.206	3180
846.342	3317
846.478	3222
846.614	3074
846.75	3047
846.886	3009
847.022	3245
847.158	3081
847.294	3195
847.429	3222
847.565	3169
847.701	3450
847.837	3009
847.972	2956
848.108	3161
848.244	3093
848.379	2963
848.515	2948
848.65	2937
848.786	2967
848.921	2979
849.057	3077
849.192	3138
849.328	3055
849.463	3127
849.598	3047
849.734	3017
849.869	2994
850.004	2918
850.14	2933
850.275	2918
850.41	2861
850.545	2891
850.68	2899
850.815	2944
850.95	2998
851.085	3165
851.22	3116
851.355	3047
851.49	2960
851.625	2979
851.76	2998
851.895	2933
852.03	2944
852.165	2994
852.299	3112
852.434	3188
852.569	3123
852.703	3116
852.838	3222
852.973	3321
853.107	3336
853.242	3131
853.376	3131
853.511	2979
853.645	3047
853.78	3195
853.914	3135
854.048	3112
854.183	3062
854.317	3112
854.451	3291
854.585	3093
854.72	3097
854.854	3195
854.988	3066
855.122	3051
855.256	2937
855.39	3097
855.524	3264
855.658	3173
855.792	3135
855.926	3192
856.06	3184
856.194	3218
856.327	3119
856.461	3085
856.595	3055
856.729	3081
856.862	3199
856.996	3173
857.13	3188
857.263	3180
857.397	3283
857.53	3077
857.664	3192
857.797	3226
857.931	3249
858.064	3142
858.197	3230
858.331	3135
858.464	3043
858.597	2967
858.731	3051
858.864	3119
858.997	3104
859.13	3127
859.263	3135
859.396	3180
859.529	3051
859.662	3047
859.795	3058
859.928	3176
860.061	3268
860.194	3313
860.327	3119
860.46	3131
860.592	3207
860.725	3218
860.858	3275
860.99	3123
861.123	3036
861.256	3009
861.388	3138
861.521	3698
861.653	3020
861.786	3009
861.918	2998
862.05	3081
862.183	3066
862.315	3150
862.447	3180
862.58	3055
862.712	2982
862.844	2883
862.976	3024
863.108	2979
863.24	3412
863.372	2880
863.504	2963
863.636	2925
863.768	2994
863.9	3001
864.032	2895
864.164	2933
864.296	3001
864.428	3089
864.559	3085
864.691	3066
864.823	3062
864.954	3028
865.086	3051
865.217	2990
865.349	2933
865.48	2952
865.612	3020
865.743	3135
865.875	2986
866.006	2925
866.137	2922
866.269	2963
866.4	2937
866.531	2914
866.662	2906
866.793	2891
866.924	2895
867.055	2994
867.186	2960
867.317	2883
867.448	2811
867.579	2834
867.71	2857
867.841	2811
867.972	2937
868.103	2876
868.233	2918
868.364	2842
868.495	2876
868.625	3097
868.756	3116
868.886	2994
869.017	3001
869.147	3157
869.278	3142
869.408	3062
869.539	3028
869.669	3097
869.799	3013
869.929	3146
870.06	3097
870.19	3332
870.32	3256
870.45	3294
870.58	3363
870.71	3424
870.84	3477
870.97	3283
871.1	3245
871.23	3473
871.36	3439
871.489	3348
871.619	3363
871.749	3397
871.879	3431
872.008	3454
872.138	3359
872.267	3287
872.397	3161
872.526	3093
872.656	2998
872.785	3116
872.915	3226
873.044	3302
873.173	3237
873.303	3203
873.432	3226
873.561	3203
873.69	3135
873.819	3157
873.948	3157
874.077	3089
874.206	3047
874.335	3116
874.464	3199
874.593	3298
874.722	3233
874.851	3348
874.979	3340
875.108	3283
875.237	3218
875.365	3157
875.494	3154
875.623	3207
875.751	3055
875.88	3100
876.008	3154
876.136	3195
876.265	3363
876.393	3507
876.521	3420
876.65	3355
876.778	3306
876.906	3237
877.034	3199
877.162	3245
877.29	3146
877.418	3313
877.546	3241
877.674	3249
877.802	3207
877.93	3241
878.058	3142
878.185	3112
878.313	3230
878.441	3199
878.568	3085
878.696	3142
878.824	3226
878.951	3291
879.079	3454
879.206	3637
879.333	3443
879.461	3291
879.588	3367
879.715	3473
879.842	3595
879.97	3382
880.097	3138
880.224	3123
880.351	3199
880.478	3207
880.605	3207
880.732	3165
880.859	3450
880.986	3279
881.112	3287
881.239	3199
881.366	3047
881.493	3043
881.619	2990
881.746	3089
881.872	3058
881.999	3123
882.125	3104
882.252	3249
882.378	3275
882.505	3405
882.631	3237
882.757	3127
882.883	3237
883.01	3245
883.136	3116
883.262	3097
883.388	3108
883.514	3287
883.64	3389
883.766	3283
883.892	3176
884.018	3260
884.143	3431
884.269	3507
884.395	3211
884.52	3169
884.646	3192
884.772	3116
884.897	3112
885.023	3173
885.148	3336
885.274	3401
885.399	3344
885.524	3287
885.65	3268
885.775	3275
885.9	3260
886.025	3393
886.15	3340
886.275	3306
886.4	3222
886.525	3329
886.65	3260
886.775	3268
886.9	3443
887.025	3606
887.149	3359
887.274	3264
887.399	3142
887.523	3214
887.648	3180
887.773	3192
887.897	3336
888.021	3386
888.146	3249
888.27	3397
888.395	3549
888.519	3439
888.643	3428
888.767	3458
888.891	3302
889.015	3245
889.139	3272
889.263	3192
889.387	3382
889.511	3496
889.635	3435
889.759	3237
889.883	3294
890.006	3431
890.13	3523
890.254	3260
890.377	3321
890.501	3173
890.624	3214
890.748	3253
890.871	3176
890.995	3097
891.118	3043
891.241	3211
891.364	3222
891.488	3336
891.611	3104
891.734	3195
891.857	3298
891.98	3222
892.103	3298
892.226	3237
892.349	3233
892.471	3085
892.594	3249
892.717	3298
892.839	3245
892.962	3291
893.085	3367
893.207	3302
893.33	3135
893.452	3184
893.575	3340
893.697	3237
893.819	3477
893.941	3511
894.064	3416
894.186	3268
894.308	3253
894.43	3462
894.552	3500
894.674	3458
894.796	3253
894.918	3306
895.04	3321
895.161	3435
895.283	3344
895.405	3283
895.526	3355
895.648	3393
895.769	3447
895.891	3424
896.012	3469
896.134	3462
896.255	3431
896.376	3340
896.498	3340
896.619	3405
896.74	3359
896.861	3428
896.982	3622
897.103	3846
897.224	3576
897.345	3534
897.466	3409
897.587	3504
897.708	3644
897.828	3519
897.949	3393
898.07	3378
898.19	3431
898.311	3610
898.431	3435
898.552	3500
898.672	3595
898.792	3564
898.913	3504
899.033	3386
899.153	3275
899.273	3237
899.393	3279
899.513	3321
899.633	3344
899.753	3344
899.873	3287
899.993	3344
900.113	3325
900.232	3401
900.352	3302
900.472	3275
900.591	3192
900.711	3283
900.83	3237
900.95	3397
901.069	3466
901.189	3363
901.308	3123
901.427	3131
901.546	3203
901.665	3275
901.784	3291
901.904	3214
902.023	3116
902.141	3024
902.26	2994
902.379	3112
902.498	3055
902.617	3043
902.735	3207
902.854	3203
902.973	3203
903.091	2982
903.21	3039
903.328	3135
903.446	3074
903.565	3100
903.683	3165
903.801	3116
903.919	3207
904.038	3233
904.156	3176
904.274	3226
904.392	3283
904.51	3287
904.627	3275
904.745	3397
904.863	3450
904.981	3268
905.098	3127
905.216	3214
905.334	3287
905.451	3287
905.569	3264
905.686	3450
905.803	3454
905.921	3294
906.038	3424
906.155	3374
906.272	3272
906.389	3340
906.506	3268
906.623	3253
906.74	3260
906.857	3192
906.974	3230
907.091	3447
907.208	3553
907.324	3473
907.441	3374
907.557	3237
907.674	3218
907.79	3173
907.907	3253
908.023	3359
908.139	3355
908.256	3340
908.372	3336
908.488	3317
908.604	3245
908.72	3184
908.836	3294
908.952	3237
909.068	3348
909.184	3454
909.3	3355
909.415	3488
909.531	3447
909.647	3218
909.762	3264
909.878	3230
909.993	3329
910.108	3329
910.224	3306
910.339	3370
910.454	3363
910.57	3298
910.685	3222
910.8	3568
910.915	3542
911.03	3409
911.145	3241
911.259	3226
911.374	3313
911.489	3233
911.604	3184
911.718	3089
911.833	3123
911.947	2986
912.062	2990
912.176	3138
912.291	3188
912.405	3211
912.519	3439
912.633	3447
912.748	3283
912.862	3211
912.976	3165
913.09	3051
913.204	3169
913.318	3199
913.431	3329
913.545	3302
913.659	3382
913.772	3313
913.886	3222
914	3207
914.113	3393
914.226	3431
914.34	3351
914.453	3222
914.566	3401
914.68	3313
914.793	3306
914.906	3146
915.019	3138
915.132	3100
915.245	3157
915.358	3218
915.47	3237
915.583	3287
915.696	3317
915.809	3412
915.921	3447
916.034	3264
916.146	3310
916.259	3264
916.371	3428
916.483	3359
916.595	3287
916.708	3370
916.82	3378
916.932	3378
917.044	3374
917.156	3370
917.268	3287
917.38	3340
917.491	3298
917.603	3389
917.715	3504
917.826	3534
917.938	3443
918.049	3313
918.161	3450
918.272	3614
918.384	3629
918.495	3572
918.606	3401
918.717	3317
918.828	3431
918.939	3435
919.05	3336
919.161	3420
919.272	3226
919.383	3306
919.494	3500
919.604	3717
919.715	3523
919.826	3462
919.936	3466
920.047	3606
920.157	3572
920.267	3804
920.378	3682
920.488	3618
920.598	3812
920.708	4010
920.818	3899
920.928	3873
921.038	4025
921.148	3987
921.258	3789
921.368	3679
921.477	3622
921.587	3603
921.697	3530
921.806	3728
921.916	3553
922.025	3378
922.134	3382
922.244	3386
922.353	3450
922.462	3302
922.571	3310
922.68	3142
922.789	3131
922.898	3146
923.007	3123
923.116	3222
923.224	3207
923.333	3237
923.442	3150
923.55	3150
923.659	3192
923.767	3272
923.876	3157
923.984	3279
924.092	3123
924.201	3218
924.309	3241
924.417	3260
924.525	3241
924.633	3253
924.741	4063
924.849	3093
924.956	3313
925.064	3138
925.172	3051
925.279	3131
925.387	3230
925.494	3253
925.602	3367
925.709	3374
925.816	3230
925.924	3302
926.031	3409
926.138	3325
926.245	3386
926.352	3279
926.459	3428
926.566	3492
926.673	3336
926.779	3310
926.886	3291
926.993	3199
927.099	3169
927.206	3146
927.312	3180
927.419	3237
927.525	3207
927.631	3287
927.737	3169
927.843	3169
927.95	3036
928.056	3165
928.162	3195
928.267	3256
928.373	3865
928.479	3359
928.585	3104
928.69	3237
928.796	3302
928.901	3214
929.007	3081
929.112	3188
929.218	3203
929.323	3199
929.428	3157
929.533	3332
929.638	3142
929.743	3218
929.848	3294
929.953	3226
930.058	3157
930.163	3032
930.267	3074
930.372	3253
930.477	3020
930.581	3378
930.685	3237
930.79	3089
930.894	3146
930.998	3142
931.103	3332
931.207	2948
931.311	2952
931.415	2933
931.519	2815
931.623	2842
