Data from test_V78500241_1163.txt Node
Date: Fri Mar 25 16:23:15 CST 2022
User: usil
Spectrometer: V785-0024
Trigger mode: 0
Integration Time (sec): 4.000000E-1
Scans to average: 1
Nonlinearity correction enabled: false
Boxcar width: 0
Storing dark spectrum: false
XAxis mode: Wavelengths
Number of Pixels in Spectrum: 1024
>>>>>Begin Spectral Data<<<<<
801.071	2910
801.214	2971
801.356	2826
801.499	2895
801.641	2864
801.783	2914
801.926	3043
802.068	2952
802.211	3005
802.353	3001
802.496	2956
802.638	3028
802.78	3081
802.923	3104
803.065	2979
803.208	2899
803.35	2937
803.492	2922
803.635	2929
803.777	2781
803.919	2834
804.061	3199
804.204	2933
804.346	2910
804.488	2845
804.63	2956
804.773	2883
804.915	2891
805.057	3089
805.199	2887
805.341	2948
805.483	3013
805.626	3009
805.768	2960
805.91	3097
806.052	3051
806.194	3028
806.336	3226
806.478	3024
806.62	2948
806.762	2967
806.904	3039
807.046	3173
807.188	2956
807.33	2914
807.472	2952
807.614	2929
807.756	2982
807.898	2918
808.04	2872
808.182	2967
808.324	2933
808.465	2887
808.607	2899
808.749	2811
808.891	2883
809.033	3001
809.174	3001
809.316	2868
809.458	2868
809.6	2781
809.741	2758
809.883	2712
810.025	2857
810.166	2830
810.308	2815
810.45	2849
810.591	2766
810.733	2766
810.875	2838
811.016	2800
811.158	2762
811.299	2838
811.441	2933
811.582	2872
811.724	2796
811.865	2807
812.007	2891
812.148	2838
812.29	2838
812.431	2868
812.573	2902
812.714	2971
812.855	3032
812.997	3036
813.138	3104
813.279	2994
813.421	3009
813.562	2956
813.703	2834
813.845	2857
813.986	2762
814.127	2739
814.268	2830
814.41	2819
814.551	2792
814.692	2853
814.833	2804
814.974	2891
815.115	2941
815.256	2826
815.397	2815
815.539	2842
815.68	2754
815.821	2781
815.962	2922
816.103	2914
816.244	2868
816.385	2887
816.526	2960
816.666	2914
816.807	2758
816.948	2861
817.089	2899
817.23	2849
817.371	2811
817.512	2773
817.653	2826
817.793	2830
817.934	2887
818.075	2941
818.216	3013
818.356	3005
818.497	2872
818.638	2796
818.778	2811
818.919	2769
819.06	2766
819.2	2883
819.341	2819
819.481	2804
819.622	2925
819.762	3097
819.903	3032
820.043	2910
820.184	2914
820.324	2891
820.465	3001
820.605	2986
820.746	3039
820.886	2922
821.026	3131
821.167	3123
821.307	3253
821.447	3306
821.588	3237
821.728	3199
821.868	3173
822.008	3051
822.149	3169
822.289	3249
822.429	3085
822.569	3085
822.709	3161
822.849	3024
822.99	3043
823.13	3150
823.27	3203
823.41	3100
823.55	3180
823.69	3135
823.83	3214
823.97	3070
824.11	3028
824.25	2986
824.389	3028
824.529	3131
824.669	3055
824.809	3218
824.949	3249
825.089	3207
825.228	3161
825.368	3001
825.508	2941
825.648	2967
825.787	2998
825.927	3028
826.067	2941
826.206	2948
826.346	3074
826.485	3081
826.625	3127
826.765	3294
826.904	3222
827.044	2967
827.183	2937
827.323	2857
827.462	2986
827.601	2876
827.741	2914
827.88	2910
828.02	2834
828.159	2918
828.298	2975
828.437	3123
828.577	3055
828.716	3214
828.855	3058
828.994	2933
829.134	2864
829.273	2906
829.412	2868
829.551	2826
829.69	2864
829.829	3009
829.968	3089
830.107	3009
830.246	3085
830.385	2902
830.524	2876
830.663	2815
830.802	2701
830.941	2629
831.08	2640
831.219	2746
831.357	2735
831.496	2975
831.635	2735
831.774	2644
831.913	2640
832.051	2530
832.19	2549
832.329	2682
832.467	2518
832.606	2488
832.744	2545
832.883	2587
833.022	2590
833.16	2640
833.299	2667
833.437	2674
833.576	2708
833.714	2754
833.852	2716
833.991	2746
834.129	2792
834.267	2834
834.406	2811
834.544	2864
834.682	2849
834.821	2876
834.959	3047
835.097	2895
835.235	3043
835.373	2986
835.511	3013
835.65	2963
835.788	2994
835.926	2815
836.064	2830
836.202	2819
836.34	3062
836.478	3138
836.615	3005
836.753	3138
836.891	3169
837.029	3169
837.167	3100
837.305	3062
837.443	3036
837.58	2944
837.718	3097
837.856	3055
837.993	2986
838.131	3077
838.269	3104
838.406	3108
838.544	3066
838.681	2910
838.819	2922
838.956	2849
839.094	2838
839.231	2933
839.369	3013
839.506	3367
839.643	3207
839.781	3066
839.918	2956
840.055	3070
840.193	3055
840.33	3070
840.467	3081
840.604	3112
840.742	3382
840.879	3032
841.016	3028
841.153	3135
841.29	3310
841.427	3268
841.564	3237
841.701	3321
841.838	3199
841.975	3154
842.112	3180
842.249	3043
842.385	3028
842.522	3207
842.659	3055
842.796	3028
842.933	3131
843.069	3074
843.206	3024
843.343	3169
843.479	3074
843.616	3135
843.752	2857
843.889	2834
844.025	3058
844.162	2895
844.298	3039
844.435	2963
844.571	2857
844.708	3081
844.844	3165
844.98	3173
845.117	3176
845.253	3051
845.389	3013
845.525	3127
845.661	3100
845.798	3043
845.934	3108
846.07	3020
846.206	3195
846.342	3306
846.478	3195
846.614	3100
846.75	3001
846.886	3017
847.022	3218
847.158	3131
847.294	3161
847.429	3211
847.565	3188
847.701	3447
847.837	3051
847.972	2986
848.108	3165
848.244	3116
848.379	2975
848.515	2952
848.65	2933
848.786	2952
848.921	2986
849.057	3097
849.192	3123
849.328	3074
849.463	3112
849.598	3074
849.734	3039
849.869	2967
850.004	2906
850.14	2941
850.275	2937
850.41	2815
850.545	2868
850.68	2918
850.815	2937
850.95	2982
851.085	3157
851.22	3074
851.355	3024
851.49	2986
851.625	2975
851.76	3036
851.895	2933
852.03	2929
852.165	2979
852.299	3093
852.434	3184
852.569	3123
852.703	3138
852.838	3260
852.973	3313
853.107	3325
853.242	3123
853.376	3074
853.511	2971
853.645	3020
853.78	3207
853.914	3146
854.048	3123
854.183	3058
854.317	3123
854.451	3272
854.585	3097
854.72	3070
854.854	3157
854.988	3020
855.122	3062
855.256	2941
855.39	3146
855.524	3195
855.658	3180
855.792	3157
855.926	3226
856.06	3203
856.194	3211
856.327	3138
856.461	3108
856.595	3070
856.729	3104
856.862	3195
856.996	3157
857.13	3184
857.263	3230
857.397	3233
857.53	3097
857.664	3203
857.797	3218
857.931	3256
858.064	3138
858.197	3192
858.331	3116
858.464	3104
858.597	2960
858.731	3089
858.864	3089
858.997	3081
859.13	3157
859.263	3199
859.396	3195
859.529	3081
859.662	3081
859.795	3043
859.928	3108
860.061	3256
860.194	3275
860.327	3127
860.46	3108
860.592	3211
860.725	3218
860.858	3264
860.99	3104
861.123	3047
861.256	3013
861.388	3123
861.521	3690
861.653	3001
861.786	2986
861.918	2986
862.05	3051
862.183	3055
862.315	3142
862.447	3195
862.58	3093
862.712	2952
862.844	2845
862.976	2979
863.108	2998
863.24	3294
863.372	2811
863.504	2948
863.636	2975
863.768	2960
863.9	2986
864.032	2880
864.164	2937
864.296	3001
864.428	3093
864.559	3100
864.691	3089
864.823	3085
864.954	3028
865.086	3058
865.217	2956
865.349	2929
865.48	2956
865.612	3013
865.743	3150
865.875	2971
866.006	2948
866.137	2918
866.269	2933
866.4	2933
866.531	2887
866.662	2895
866.793	2887
866.924	2902
867.055	2975
867.186	2891
867.317	2872
867.448	2823
867.579	2807
867.71	2838
867.841	2792
867.972	2883
868.103	2876
868.233	2880
868.364	2895
868.495	2914
868.625	3077
868.756	3176
868.886	2933
869.017	3020
869.147	3165
869.278	3169
869.408	3028
869.539	3009
869.669	3077
869.799	3028
869.929	3112
870.06	3085
870.19	3329
870.32	3245
870.45	3302
870.58	3382
870.71	3401
870.84	3454
870.97	3264
871.1	3233
871.23	3428
871.36	3462
871.489	3374
871.619	3359
871.749	3424
871.879	3466
872.008	3504
872.138	3378
872.267	3218
872.397	3169
872.526	3097
872.656	3058
872.785	3131
872.915	3222
873.044	3317
873.173	3211
873.303	3218
873.432	3233
873.561	3226
873.69	3146
873.819	3123
873.948	3222
874.077	3135
874.206	3047
874.335	3055
874.464	3195
874.593	3272
874.722	3256
874.851	3389
874.979	3310
875.108	3272
875.237	3173
875.365	3119
875.494	3173
875.623	3249
875.751	3074
875.88	3070
876.008	3230
876.136	3230
876.265	3378
876.393	3511
876.521	3412
876.65	3374
876.778	3344
876.906	3245
877.034	3180
877.162	3241
877.29	3195
877.418	3249
877.546	3268
877.674	3226
877.802	3249
877.93	3207
878.058	3135
878.185	3112
878.313	3192
878.441	3195
878.568	3062
878.696	3131
878.824	3253
878.951	3279
879.079	3439
879.206	3622
879.333	3450
879.461	3272
879.588	3294
879.715	3454
879.842	3553
879.97	3389
880.097	3161
880.224	3131
880.351	3165
880.478	3195
880.605	3195
880.732	3173
880.859	3492
880.986	3313
881.112	3325
881.239	3180
881.366	3100
881.493	3017
881.619	3005
881.746	3051
881.872	3108
881.999	3112
882.125	3131
882.252	3176
882.378	3306
882.505	3447
882.631	3249
882.757	3146
882.883	3195
883.01	3188
883.136	3131
883.262	3062
883.388	3116
883.514	3302
883.64	3355
883.766	3298
883.892	3176
884.018	3230
884.143	3386
884.269	3507
884.395	3207
884.52	3097
884.646	3157
884.772	3104
884.897	3093
885.023	3195
885.148	3321
885.274	3416
885.399	3348
885.524	3275
885.65	3283
885.775	3279
885.9	3226
886.025	3359
886.15	3325
886.275	3249
886.4	3222
886.525	3279
886.65	3249
886.775	3291
886.9	3466
887.025	3618
887.149	3393
887.274	3264
887.399	3146
887.523	3173
887.648	3211
887.773	3169
887.897	3397
888.021	3351
888.146	3298
888.27	3447
888.395	3519
888.519	3405
888.643	3443
888.767	3401
888.891	3306
889.015	3230
889.139	3294
889.263	3203
889.387	3378
889.511	3447
889.635	3443
889.759	3272
889.883	3256
890.006	3363
890.13	3473
890.254	3279
890.377	3401
890.501	3192
890.624	3146
890.748	3287
890.871	3150
890.995	3127
891.118	3032
891.241	3188
891.364	3214
891.488	3321
891.611	3173
891.734	3230
891.857	3298
891.98	3237
892.103	3291
892.226	3256
892.349	3222
892.471	3123
892.594	3233
892.717	3329
892.839	3226
892.962	3294
893.085	3386
893.207	3310
893.33	3142
893.452	3173
893.575	3344
893.697	3211
893.819	3454
893.941	3496
894.064	3435
894.186	3241
894.308	3279
894.43	3469
894.552	3538
894.674	3443
894.796	3256
894.918	3336
895.04	3287
895.161	3412
895.283	3370
895.405	3272
895.526	3348
895.648	3435
895.769	3412
895.891	3424
896.012	3439
896.134	3405
896.255	3416
896.376	3351
896.498	3382
896.619	3409
896.74	3359
896.861	3397
896.982	3610
897.103	3804
897.224	3629
897.345	3500
897.466	3439
897.587	3462
897.708	3610
897.828	3545
897.949	3420
898.07	3298
898.19	3378
898.311	3603
898.431	3447
898.552	3504
898.672	3564
898.792	3553
898.913	3511
899.033	3363
899.153	3321
899.273	3169
899.393	3241
899.513	3332
899.633	3302
899.753	3336
899.873	3256
899.993	3321
900.113	3310
900.232	3363
900.352	3321
900.472	3310
900.591	3176
900.711	3287
900.83	3211
900.95	3454
901.069	3504
901.189	3336
901.308	3161
901.427	3077
901.546	3165
901.665	3294
901.784	3302
901.904	3165
902.023	3146
902.141	2979
902.26	2967
902.379	3112
902.498	3051
902.617	3001
902.735	3161
902.854	3241
902.973	3157
903.091	3039
903.21	3066
903.328	3119
903.446	3123
903.565	3085
903.683	3180
903.801	3123
903.919	3226
904.038	3256
904.156	3112
904.274	3256
904.392	3249
904.51	3264
904.627	3310
904.745	3431
904.863	3488
904.981	3256
905.098	3123
905.216	3218
905.334	3329
905.451	3260
905.569	3291
905.686	3401
905.803	3439
905.921	3332
906.038	3435
906.155	3374
906.272	3275
906.389	3298
906.506	3214
906.623	3275
906.74	3306
906.857	3199
906.974	3218
907.091	3466
907.208	3564
907.324	3504
907.441	3389
907.557	3249
907.674	3230
907.79	3214
907.907	3287
908.023	3420
908.139	3393
908.256	3370
908.372	3428
908.488	3374
908.604	3294
908.72	3294
908.836	3359
908.952	3355
909.068	3412
909.184	3538
909.3	3393
909.415	3557
909.531	3469
909.647	3294
909.762	3336
909.878	3298
909.993	3401
910.108	3367
910.224	3378
910.339	3469
910.454	3355
910.57	3321
910.685	3306
910.8	3599
910.915	3572
911.03	3488
911.145	3294
911.259	3355
911.374	3348
911.489	3283
911.604	3253
911.718	3173
911.833	3207
911.947	3058
912.062	3047
912.176	3203
912.291	3207
912.405	3260
912.519	3473
912.633	3450
912.748	3409
912.862	3291
912.976	3176
913.09	3074
913.204	3184
913.318	3253
913.431	3336
913.545	3336
913.659	3447
913.772	3363
913.886	3298
914	3226
914.113	3386
914.226	3469
914.34	3401
914.453	3279
914.566	3431
914.68	3310
914.793	3344
914.906	3150
915.019	3135
915.132	3142
915.245	3203
915.358	3237
915.47	3291
915.583	3298
915.696	3321
915.809	3424
915.921	3477
916.034	3294
916.146	3260
916.259	3260
916.371	3450
916.483	3382
916.595	3310
916.708	3317
916.82	3359
916.932	3401
917.044	3382
917.156	3412
917.268	3329
917.38	3363
917.491	3321
917.603	3401
917.715	3500
917.826	3500
917.938	3401
918.049	3310
918.161	3435
918.272	3603
918.384	3610
918.495	3481
918.606	3378
918.717	3306
918.828	3424
918.939	3469
919.05	3332
919.161	3389
919.272	3184
919.383	3332
919.494	3545
919.604	3690
919.715	3511
919.826	3454
919.936	3507
920.047	3618
920.157	3580
920.267	3800
920.378	3622
920.488	3629
920.598	3827
920.708	3953
920.818	3831
920.928	3835
921.038	4044
921.148	4017
921.258	3679
921.368	3663
921.477	3603
921.587	3599
921.697	3473
921.806	3656
921.916	3553
922.025	3431
922.134	3393
922.244	3363
922.353	3454
922.462	3348
922.571	3226
922.68	3123
922.789	3108
922.898	3154
923.007	3108
923.116	3233
923.224	3203
923.333	3192
923.442	3138
923.55	3116
923.659	3138
923.767	3260
923.876	3192
923.984	3287
924.092	3157
924.201	3233
924.309	3237
924.417	3272
924.525	3249
924.633	3256
924.741	4048
924.849	3066
924.956	3310
925.064	3119
925.172	3047
925.279	3108
925.387	3249
925.494	3241
925.602	3355
925.709	3363
925.816	3203
925.924	3294
926.031	3416
926.138	3389
926.245	3370
926.352	3264
926.459	3443
926.566	3507
926.673	3321
926.779	3279
926.886	3264
926.993	3192
927.099	3169
927.206	3135
927.312	3161
927.419	3313
927.525	3245
927.631	3279
927.737	3188
927.843	3154
927.95	3108
928.056	3138
928.162	3192
928.267	3268
928.373	3873
928.479	3332
928.585	3081
928.69	3249
928.796	3275
928.901	3207
929.007	3077
929.112	3230
929.218	3230
929.323	3222
929.428	3188
929.533	3294
929.638	3150
929.743	3195
929.848	3291
929.953	3249
930.058	3180
930.163	3039
930.267	3089
930.372	3233
930.477	3074
930.581	3344
930.685	3222
930.79	3104
930.894	3154
930.998	3127
931.103	3302
931.207	2994
931.311	2952
931.415	2944
931.519	2788
931.623	2849
