Data from test_V78500241_1076.txt Node
Date: Fri Mar 25 16:22:39 CST 2022
User: usil
Spectrometer: V785-0024
Trigger mode: 0
Integration Time (sec): 4.000000E-1
Scans to average: 1
Nonlinearity correction enabled: false
Boxcar width: 0
Storing dark spectrum: false
XAxis mode: Wavelengths
Number of Pixels in Spectrum: 1024
>>>>>Begin Spectral Data<<<<<
801.071	2960
801.214	2963
801.356	2902
801.499	2925
801.641	2891
801.783	2910
801.926	3028
802.068	3013
802.211	3058
802.353	3043
802.496	2982
802.638	2986
802.78	3032
802.923	3074
803.065	3055
803.208	2914
803.35	2952
803.492	2933
803.635	2925
803.777	2781
803.919	2861
804.061	3173
804.204	2944
804.346	2887
804.488	2868
804.63	3005
804.773	2857
804.915	2906
805.057	3116
805.199	2910
805.341	2956
805.483	3074
805.626	2979
805.768	2986
805.91	3089
806.052	3100
806.194	3017
806.336	3260
806.478	3024
806.62	2967
806.762	3005
806.904	3070
807.046	3161
807.188	3001
807.33	2899
807.472	2994
807.614	2933
807.756	3013
807.898	2971
808.04	2910
808.182	3020
808.324	2971
808.465	2899
808.607	2902
808.749	2834
808.891	2857
809.033	2982
809.174	3001
809.316	2883
809.458	2872
809.6	2758
809.741	2777
809.883	2769
810.025	2845
810.166	2845
810.308	2853
810.45	2895
810.591	2807
810.733	2762
810.875	2845
811.016	2788
811.158	2781
811.299	2796
811.441	2937
811.582	2864
811.724	2838
811.865	2834
812.007	2918
812.148	2872
812.29	2872
812.431	2868
812.573	2929
812.714	2929
812.855	3077
812.997	3051
813.138	3131
813.279	2994
813.421	2948
813.562	2986
813.703	2906
813.845	2925
813.986	2804
814.127	2762
814.268	2876
814.41	2872
814.551	2796
814.692	2910
814.833	2826
814.974	2918
815.115	2956
815.256	2830
815.397	2819
815.539	2872
815.68	2773
815.821	2800
815.962	2937
816.103	2960
816.244	2857
816.385	2849
816.526	2963
816.666	2925
816.807	2762
816.948	2868
817.089	2914
817.23	2834
817.371	2785
817.512	2777
817.653	2826
817.793	2819
817.934	2857
818.075	2975
818.216	3009
818.356	3013
818.497	2914
818.638	2792
818.778	2826
818.919	2823
819.06	2750
819.2	2849
819.341	2815
819.481	2819
819.622	2933
819.762	3085
819.903	3043
820.043	2910
820.184	2906
820.324	2883
820.465	3062
820.605	3036
820.746	3009
820.886	2933
821.026	3089
821.167	3180
821.307	3264
821.447	3283
821.588	3283
821.728	3211
821.868	3184
822.008	3051
822.149	3176
822.289	3275
822.429	3097
822.569	3093
822.709	3218
822.849	3039
822.99	3097
823.13	3142
823.27	3222
823.41	3100
823.55	3176
823.69	3165
823.83	3192
823.97	3116
824.11	2986
824.25	2998
824.389	3039
824.529	3081
824.669	3043
824.809	3214
824.949	3272
825.089	3169
825.228	3131
825.368	3009
825.508	2963
825.648	3001
825.787	3005
825.927	2990
826.067	2975
826.206	2979
826.346	3039
826.485	3093
826.625	3123
826.765	3268
826.904	3195
827.044	2971
827.183	2944
827.323	2834
827.462	2994
827.601	2895
827.741	2929
827.88	2918
828.02	2868
828.159	2967
828.298	3055
828.437	3138
828.577	3024
828.716	3249
828.855	3070
828.994	2933
829.134	2883
829.273	2899
829.412	2883
829.551	2922
829.69	2899
829.829	2986
829.968	3150
830.107	3001
830.246	3009
830.385	2948
830.524	2853
830.663	2864
830.802	2743
830.941	2644
831.08	2636
831.219	2773
831.357	2777
831.496	2948
831.635	2708
831.774	2640
831.913	2651
832.051	2545
832.19	2606
832.329	2667
832.467	2560
832.606	2503
832.744	2613
832.883	2575
833.022	2587
833.16	2651
833.299	2701
833.437	2693
833.576	2663
833.714	2735
833.852	2712
833.991	2750
834.129	2830
834.267	2823
834.406	2788
834.544	2861
834.682	2891
834.821	2864
834.959	3043
835.097	2944
835.235	3108
835.373	3032
835.511	3028
835.65	2944
835.788	2929
835.926	2849
836.064	2781
836.202	2815
836.34	3089
836.478	3112
836.615	3036
836.753	3142
836.891	3207
837.029	3142
837.167	3104
837.305	3055
837.443	3017
837.58	2929
837.718	3138
837.856	3051
837.993	3039
838.131	3123
838.269	3100
838.406	3135
838.544	3074
838.681	2960
838.819	2910
838.956	2792
839.094	2845
839.231	2933
839.369	2982
839.506	3378
839.643	3192
839.781	3036
839.918	2956
840.055	3028
840.193	3017
840.33	3077
840.467	3104
840.604	3135
840.742	3424
840.879	3058
841.016	3062
841.153	3119
841.29	3336
841.427	3317
841.564	3272
841.701	3317
841.838	3230
841.975	3180
842.112	3199
842.249	3097
842.385	3051
842.522	3260
842.659	3100
842.796	3089
842.933	3081
843.069	3036
843.206	3047
843.343	3211
843.479	3104
843.616	3127
843.752	2895
843.889	2880
844.025	3055
844.162	2864
844.298	3066
844.435	2941
844.571	2857
844.708	3089
844.844	3207
844.98	3207
845.117	3195
845.253	3062
845.389	3005
845.525	3077
845.661	3100
845.798	2998
845.934	3161
846.07	3043
846.206	3211
846.342	3336
846.478	3249
846.614	3085
846.75	3047
846.886	2998
847.022	3237
847.158	3150
847.294	3214
847.429	3253
847.565	3195
847.701	3492
847.837	3009
847.972	2971
848.108	3157
848.244	3150
848.379	2967
848.515	2883
848.65	2956
848.786	2960
848.921	3005
849.057	3089
849.192	3112
849.328	3032
849.463	3146
849.598	3047
849.734	3013
849.869	2990
850.004	2887
850.14	3001
850.275	2906
850.41	2819
850.545	2872
850.68	2967
850.815	2918
850.95	2956
851.085	3203
851.22	3112
851.355	3009
851.49	2979
851.625	3020
851.76	3013
851.895	2967
852.03	2899
852.165	3028
852.299	3097
852.434	3180
852.569	3142
852.703	3169
852.838	3249
852.973	3359
853.107	3351
853.242	3123
853.376	3138
853.511	2944
853.645	3017
853.78	3214
853.914	3127
854.048	3097
854.183	3089
854.317	3161
854.451	3287
854.585	3135
854.72	3070
854.854	3214
854.988	3024
855.122	3085
855.256	2956
855.39	3097
855.524	3264
855.658	3188
855.792	3188
855.926	3173
856.06	3176
856.194	3264
856.327	3142
856.461	3074
856.595	3066
856.729	3066
856.862	3203
856.996	3146
857.13	3192
857.263	3230
857.397	3249
857.53	3123
857.664	3192
857.797	3203
857.931	3233
858.064	3127
858.197	3214
858.331	3131
858.464	3123
858.597	3028
858.731	3161
858.864	3135
858.997	3127
859.13	3176
859.263	3169
859.396	3211
859.529	3070
859.662	3104
859.795	3017
859.928	3104
860.061	3256
860.194	3268
860.327	3123
860.46	3070
860.592	3233
860.725	3260
860.858	3203
860.99	3138
861.123	3043
861.256	3062
861.388	3135
861.521	3762
861.653	3032
861.786	2979
861.918	2998
862.05	3093
862.183	3093
862.315	3165
862.447	3176
862.58	3093
862.712	2971
862.844	2857
862.976	2994
863.108	3013
863.24	3279
863.372	2876
863.504	2925
863.636	2956
863.768	3051
863.9	2948
864.032	2937
864.164	2948
864.296	2998
864.428	3039
864.559	3100
864.691	3055
864.823	3058
864.954	3051
865.086	3028
865.217	2971
865.349	2937
865.48	2986
865.612	3032
865.743	3127
865.875	2994
866.006	2948
866.137	2960
866.269	2899
866.4	2906
866.531	2918
866.662	2857
866.793	2861
866.924	2872
867.055	2933
867.186	2910
867.317	2838
867.448	2845
867.579	2842
867.71	2857
867.841	2815
867.972	2895
868.103	2922
868.233	2872
868.364	2872
868.495	2906
868.625	3039
868.756	3169
868.886	2986
869.017	3005
869.147	3169
869.278	3154
869.408	3036
869.539	3036
869.669	3116
869.799	3013
869.929	3108
870.06	3104
870.19	3313
870.32	3264
870.45	3275
870.58	3378
870.71	3424
870.84	3458
870.97	3306
871.1	3256
871.23	3481
871.36	3428
871.489	3340
871.619	3412
871.749	3401
871.879	3458
872.008	3496
872.138	3355
872.267	3264
872.397	3150
872.526	3135
872.656	3013
872.785	3089
872.915	3237
873.044	3310
873.173	3245
873.303	3192
873.432	3226
873.561	3249
873.69	3161
873.819	3157
873.948	3180
874.077	3097
874.206	3001
874.335	3070
874.464	3218
874.593	3336
874.722	3237
874.851	3401
874.979	3332
875.108	3332
875.237	3165
875.365	3142
875.494	3180
875.623	3241
875.751	3112
875.88	3127
876.008	3157
876.136	3230
876.265	3367
876.393	3526
876.521	3393
876.65	3386
876.778	3306
876.906	3222
877.034	3192
877.162	3226
877.29	3173
877.418	3241
877.546	3233
877.674	3291
877.802	3245
877.93	3195
878.058	3207
878.185	3116
878.313	3184
878.441	3199
878.568	3043
878.696	3116
878.824	3256
878.951	3260
879.079	3428
879.206	3629
879.333	3439
879.461	3317
879.588	3367
879.715	3458
879.842	3572
879.97	3344
880.097	3176
880.224	3127
880.351	3165
880.478	3207
880.605	3195
880.732	3188
880.859	3492
880.986	3291
881.112	3332
881.239	3173
881.366	3093
881.493	3055
881.619	3043
881.746	3062
881.872	3089
881.999	3077
882.125	3138
882.252	3222
882.378	3272
882.505	3466
882.631	3275
882.757	3138
882.883	3192
883.01	3161
883.136	3135
883.262	3081
883.388	3108
883.514	3302
883.64	3340
883.766	3275
883.892	3176
884.018	3264
884.143	3409
884.269	3534
884.395	3214
884.52	3150
884.646	3142
884.772	3127
884.897	3070
885.023	3195
885.148	3332
885.274	3420
885.399	3359
885.524	3294
885.65	3260
885.775	3336
885.9	3264
886.025	3409
886.15	3378
886.275	3298
886.4	3249
886.525	3344
886.65	3245
886.775	3260
886.9	3462
887.025	3671
887.149	3397
887.274	3218
887.399	3195
887.523	3180
887.648	3203
887.773	3180
887.897	3382
888.021	3374
888.146	3275
888.27	3420
888.395	3542
888.519	3439
888.643	3450
888.767	3481
888.891	3321
889.015	3226
889.139	3283
889.263	3272
889.387	3412
889.511	3507
889.635	3450
889.759	3294
889.883	3302
890.006	3409
890.13	3447
890.254	3268
890.377	3298
890.501	3176
890.624	3180
890.748	3287
890.871	3188
890.995	3112
891.118	3051
891.241	3157
891.364	3207
891.488	3298
891.611	3146
891.734	3230
891.857	3279
891.98	3283
892.103	3359
892.226	3218
892.349	3188
892.471	3089
892.594	3218
892.717	3260
892.839	3268
892.962	3298
893.085	3389
893.207	3294
893.33	3138
893.452	3207
893.575	3370
893.697	3230
893.819	3462
893.941	3462
894.064	3428
894.186	3241
894.308	3275
894.43	3420
894.552	3523
894.674	3469
894.796	3260
894.918	3291
895.04	3287
895.161	3431
895.283	3370
895.405	3298
895.526	3359
895.648	3431
895.769	3439
895.891	3481
896.012	3469
896.134	3473
896.255	3370
896.376	3401
896.498	3336
896.619	3401
896.74	3340
896.861	3416
896.982	3644
897.103	3854
897.224	3637
897.345	3496
897.466	3458
897.587	3488
897.708	3622
897.828	3572
897.949	3466
898.07	3340
898.19	3412
898.311	3584
898.431	3447
898.552	3496
898.672	3576
898.792	3595
898.913	3523
899.033	3397
899.153	3268
899.273	3207
899.393	3249
899.513	3294
899.633	3302
899.753	3329
899.873	3317
899.993	3344
900.113	3359
900.232	3397
900.352	3332
900.472	3279
900.591	3237
900.711	3279
900.83	3226
900.95	3401
901.069	3496
901.189	3370
901.308	3169
901.427	3135
901.546	3169
901.665	3264
901.784	3340
901.904	3161
902.023	3123
902.141	3028
902.26	2990
902.379	3173
902.498	3077
902.617	3070
902.735	3211
902.854	3214
902.973	3169
903.091	3062
903.21	3062
903.328	3188
903.446	3077
903.565	3104
903.683	3199
903.801	3119
903.919	3233
904.038	3283
904.156	3165
904.274	3306
904.392	3207
904.51	3287
904.627	3351
904.745	3469
904.863	3488
904.981	3226
905.098	3157
905.216	3222
905.334	3336
905.451	3283
905.569	3340
905.686	3382
905.803	3431
905.921	3226
906.038	3397
906.155	3336
906.272	3260
906.389	3325
906.506	3237
906.623	3253
906.74	3241
906.857	3195
906.974	3222
907.091	3447
907.208	3584
907.324	3462
907.441	3382
907.557	3214
907.674	3241
907.79	3214
907.907	3264
908.023	3386
908.139	3370
908.256	3336
908.372	3386
908.488	3348
908.604	3237
908.72	3207
908.836	3294
908.952	3268
909.068	3332
909.184	3507
909.3	3401
909.415	3447
909.531	3443
909.647	3287
909.762	3298
909.878	3249
909.993	3409
910.108	3348
910.224	3344
910.339	3439
910.454	3291
910.57	3283
910.685	3256
910.8	3595
910.915	3564
911.03	3447
911.145	3279
911.259	3279
911.374	3317
911.489	3237
911.604	3230
911.718	3112
911.833	3142
911.947	3009
912.062	3009
912.176	3157
912.291	3184
912.405	3226
912.519	3412
912.633	3466
912.748	3351
912.862	3272
912.976	3150
913.09	3051
913.204	3135
913.318	3226
913.431	3298
913.545	3306
913.659	3409
913.772	3336
913.886	3214
914	3203
914.113	3367
914.226	3447
914.34	3401
914.453	3203
914.566	3386
914.68	3291
914.793	3294
914.906	3142
915.019	3165
915.132	3074
915.245	3154
915.358	3199
915.47	3218
915.583	3241
915.696	3275
915.809	3420
915.921	3397
916.034	3264
916.146	3283
916.259	3230
916.371	3348
916.483	3351
916.595	3272
916.708	3310
916.82	3310
916.932	3355
917.044	3348
917.156	3378
917.268	3230
917.38	3291
917.491	3253
917.603	3397
917.715	3454
917.826	3458
917.938	3363
918.049	3279
918.161	3458
918.272	3568
918.384	3587
918.495	3488
918.606	3313
918.717	3279
918.828	3386
918.939	3405
919.05	3275
919.161	3351
919.272	3192
919.383	3272
919.494	3466
919.604	3690
919.715	3473
919.826	3355
919.936	3435
920.047	3545
920.157	3595
920.267	3690
920.378	3591
920.488	3500
920.598	3804
920.708	3968
920.818	3766
920.928	3835
921.038	3991
921.148	4013
921.258	3720
921.368	3606
921.477	3557
921.587	3519
921.697	3466
921.806	3637
921.916	3507
922.025	3344
922.134	3382
922.244	3275
922.353	3439
922.462	3253
922.571	3222
922.68	3127
922.789	3051
922.898	3085
923.007	3100
923.116	3157
923.224	3135
923.333	3157
923.442	3116
923.55	3108
923.659	3116
923.767	3237
923.876	3146
923.984	3214
924.092	3093
924.201	3165
924.309	3214
924.417	3283
924.525	3192
924.633	3256
924.741	4048
924.849	3077
924.956	3237
925.064	3066
925.172	3051
925.279	3104
925.387	3188
925.494	3180
925.602	3359
925.709	3382
925.816	3180
925.924	3272
926.031	3367
926.138	3332
926.245	3374
926.352	3256
926.459	3374
926.566	3492
926.673	3313
926.779	3218
926.886	3230
926.993	3119
927.099	3119
927.206	3085
927.312	3108
927.419	3237
927.525	3192
927.631	3298
927.737	3135
927.843	3104
927.95	3051
928.056	3123
928.162	3173
928.267	3260
928.373	3835
928.479	3310
928.585	3074
928.69	3222
928.796	3253
928.901	3135
929.007	3108
929.112	3169
929.218	3199
929.323	3157
929.428	3192
929.533	3283
929.638	3157
929.743	3142
929.848	3237
929.953	3207
930.058	3127
930.163	3005
930.267	3055
930.372	3195
930.477	3001
930.581	3279
930.685	3165
930.79	3043
930.894	3123
930.998	3085
931.103	3237
931.207	2971
931.311	2929
931.415	2922
931.519	2769
931.623	2823
