Data from test_V78500241_1468.txt Node
Date: Fri Mar 25 16:25:22 CST 2022
User: usil
Spectrometer: V785-0024
Trigger mode: 0
Integration Time (sec): 4.000000E-1
Scans to average: 1
Nonlinearity correction enabled: false
Boxcar width: 0
Storing dark spectrum: false
XAxis mode: Wavelengths
Number of Pixels in Spectrum: 1024
>>>>>Begin Spectral Data<<<<<
801.071	2960
801.214	2948
801.356	2880
801.499	2891
801.641	2891
801.783	2952
801.926	3070
802.068	3013
802.211	3009
802.353	3028
802.496	2998
802.638	3036
802.78	3036
802.923	3093
803.065	3043
803.208	2891
803.35	2971
803.492	2956
803.635	2994
803.777	2804
803.919	2872
804.061	3237
804.204	2960
804.346	2922
804.488	2823
804.63	3009
804.773	2910
804.915	2948
805.057	3119
805.199	2933
805.341	2967
805.483	3070
805.626	3024
805.768	2929
805.91	3116
806.052	3108
806.194	3039
806.336	3230
806.478	3043
806.62	2967
806.762	2998
806.904	3066
807.046	3176
807.188	3024
807.33	2902
807.472	3005
807.614	2937
807.756	2994
807.898	2914
808.04	2880
808.182	2975
808.324	2948
808.465	2880
808.607	2906
808.749	2815
808.891	2815
809.033	2979
809.174	2971
809.316	2887
809.458	2948
809.6	2781
809.741	2762
809.883	2792
810.025	2823
810.166	2842
810.308	2845
810.45	2887
810.591	2762
810.733	2796
810.875	2853
811.016	2826
811.158	2796
811.299	2834
811.441	2944
811.582	2902
811.724	2830
811.865	2861
812.007	2922
812.148	2895
812.29	2880
812.431	2895
812.573	2956
812.714	2971
812.855	3066
812.997	3051
813.138	3150
813.279	3005
813.421	2982
813.562	2979
813.703	2914
813.845	2902
813.986	2777
814.127	2724
814.268	2834
814.41	2853
814.551	2834
814.692	2872
814.833	2800
814.974	2906
815.115	2941
815.256	2826
815.397	2823
815.539	2880
815.68	2796
815.821	2777
815.962	2937
816.103	2925
816.244	2880
816.385	2925
816.526	2960
816.666	2922
816.807	2754
816.948	2883
817.089	2914
817.23	2899
817.371	2788
817.512	2785
817.653	2823
817.793	2826
817.934	2887
818.075	2967
818.216	3009
818.356	3039
818.497	2872
818.638	2815
818.778	2830
818.919	2811
819.06	2766
819.2	2864
819.341	2800
819.481	2777
819.622	2929
819.762	3093
819.903	3047
820.043	2918
820.184	2914
820.324	2872
820.465	3001
820.605	2998
820.746	3032
820.886	2937
821.026	3108
821.167	3176
821.307	3226
821.447	3253
821.588	3207
821.728	3230
821.868	3161
822.008	3089
822.149	3188
822.289	3233
822.429	3077
822.569	3100
822.709	3199
822.849	3043
822.99	3055
823.13	3146
823.27	3218
823.41	3116
823.55	3161
823.69	3142
823.83	3207
823.97	3108
824.11	3009
824.25	3020
824.389	3047
824.529	3123
824.669	3097
824.809	3165
824.949	3230
825.089	3218
825.228	3161
825.368	2990
825.508	2998
825.648	2963
825.787	3043
825.927	3024
826.067	2986
826.206	2990
826.346	3036
826.485	3104
826.625	3138
826.765	3256
826.904	3195
827.044	3009
827.183	2963
827.323	2876
827.462	2986
827.601	2910
827.741	2910
827.88	2986
828.02	2857
828.159	2952
828.298	3036
828.437	3127
828.577	3051
828.716	3237
828.855	3081
828.994	2895
829.134	2891
829.273	2929
829.412	2899
829.551	2876
829.69	2948
829.829	2967
829.968	3131
830.107	3051
830.246	2998
830.385	2914
830.524	2895
830.663	2842
830.802	2731
830.941	2625
831.08	2659
831.219	2800
831.357	2773
831.496	2948
831.635	2712
831.774	2659
831.913	2629
832.051	2537
832.19	2575
832.329	2689
832.467	2541
832.606	2495
832.744	2579
832.883	2598
833.022	2583
833.16	2636
833.299	2689
833.437	2697
833.576	2674
833.714	2724
833.852	2731
833.991	2769
834.129	2807
834.267	2819
834.406	2807
834.544	2902
834.682	2857
834.821	2864
834.959	3047
835.097	2895
835.235	3055
835.373	2990
835.511	3024
835.65	2975
835.788	2929
835.926	2857
836.064	2838
836.202	2830
836.34	3112
836.478	3165
836.615	3043
836.753	3108
836.891	3218
837.029	3165
837.167	3100
837.305	3020
837.443	3013
837.58	2990
837.718	3119
837.856	3043
837.993	3039
838.131	3108
838.269	3135
838.406	3112
838.544	3104
838.681	2929
838.819	2933
838.956	2811
839.094	2826
839.231	2914
839.369	3009
839.506	3374
839.643	3222
839.781	3024
839.918	2998
840.055	3024
840.193	3032
840.33	3085
840.467	3104
840.604	3161
840.742	3397
840.879	3036
841.016	3047
841.153	3108
841.29	3325
841.427	3268
841.564	3249
841.701	3321
841.838	3207
841.975	3222
842.112	3214
842.249	3116
842.385	3036
842.522	3264
842.659	3074
842.796	3043
842.933	3112
843.069	3020
843.206	3062
843.343	3199
843.479	3123
843.616	3146
843.752	2914
843.889	2876
844.025	3116
844.162	2830
844.298	3070
844.435	2922
844.571	2929
844.708	3081
844.844	3199
844.98	3218
845.117	3241
845.253	3062
845.389	3013
845.525	3100
845.661	3116
845.798	3047
845.934	3104
846.07	3077
846.206	3199
846.342	3317
846.478	3214
846.614	3085
846.75	3051
846.886	3020
847.022	3222
847.158	3119
847.294	3230
847.429	3249
847.565	3192
847.701	3462
847.837	3032
847.972	3017
848.108	3165
848.244	3146
848.379	2994
848.515	2963
848.65	2929
848.786	2952
848.921	3043
849.057	3108
849.192	3142
849.328	3055
849.463	3081
849.598	3051
849.734	3017
849.869	2956
850.004	2922
850.14	2941
850.275	2910
850.41	2834
850.545	2876
850.68	2925
850.815	2982
850.95	2975
851.085	3192
851.22	3100
851.355	3028
851.49	3001
851.625	2998
851.76	3013
851.895	2929
852.03	2960
852.165	3017
852.299	3104
852.434	3180
852.569	3100
852.703	3180
852.838	3237
852.973	3336
853.107	3351
853.242	3123
853.376	3104
853.511	2944
853.645	3047
853.78	3222
853.914	3070
854.048	3055
854.183	3097
854.317	3142
854.451	3268
854.585	3119
854.72	3047
854.854	3176
854.988	3001
855.122	3081
855.256	2975
855.39	3093
855.524	3264
855.658	3173
855.792	3123
855.926	3169
856.06	3214
856.194	3241
856.327	3150
856.461	3070
856.595	3100
856.729	3100
856.862	3192
856.996	3154
857.13	3169
857.263	3173
857.397	3222
857.53	3119
857.664	3176
857.797	3218
857.931	3260
858.064	3176
858.197	3218
858.331	3085
858.464	3081
858.597	2994
858.731	3112
858.864	3123
858.997	3070
859.13	3154
859.263	3154
859.396	3245
859.529	3043
859.662	3051
859.795	3066
859.928	3150
860.061	3268
860.194	3310
860.327	3116
860.46	3062
860.592	3230
860.725	3264
860.858	3214
860.99	3131
861.123	3058
861.256	3055
861.388	3154
861.521	3861
861.653	2975
861.786	2971
861.918	3005
862.05	3051
862.183	3081
862.315	3108
862.447	3161
862.58	3089
862.712	2937
862.844	2872
862.976	2994
863.108	3009
863.24	3321
863.372	2906
863.504	2941
863.636	2956
863.768	3066
863.9	2986
864.032	2891
864.164	2899
864.296	3024
864.428	3066
864.559	3062
864.691	3066
864.823	3066
864.954	3036
865.086	3070
865.217	2982
865.349	2906
865.48	2982
865.612	3024
865.743	3169
865.875	2994
866.006	2963
866.137	2944
866.269	2944
866.4	2910
866.531	2906
866.662	2914
866.793	2891
866.924	2887
867.055	2948
867.186	2910
867.317	2891
867.448	2857
867.579	2811
867.71	2868
867.841	2838
867.972	2868
868.103	2872
868.233	2891
868.364	2861
868.495	2880
868.625	3077
868.756	3127
868.886	2944
869.017	3001
869.147	3188
869.278	3138
869.408	3051
869.539	3039
869.669	3043
869.799	3028
869.929	3138
870.06	3066
870.19	3336
870.32	3294
870.45	3340
870.58	3374
870.71	3458
870.84	3462
870.97	3275
871.1	3237
871.23	3469
871.36	3454
871.489	3378
871.619	3389
871.749	3412
871.879	3447
872.008	3496
872.138	3370
872.267	3272
872.397	3116
872.526	3100
872.656	3009
872.785	3081
872.915	3233
873.044	3302
873.173	3218
873.303	3256
873.432	3211
873.561	3218
873.69	3135
873.819	3104
873.948	3173
874.077	3112
874.206	3047
874.335	3058
874.464	3195
874.593	3359
874.722	3256
874.851	3397
874.979	3405
875.108	3283
875.237	3176
875.365	3161
875.494	3173
875.623	3218
875.751	3055
875.88	3116
876.008	3222
876.136	3192
876.265	3351
876.393	3519
876.521	3389
876.65	3409
876.778	3355
876.906	3241
877.034	3188
877.162	3226
877.29	3180
877.418	3272
877.546	3211
877.674	3245
877.802	3237
877.93	3230
878.058	3131
878.185	3081
878.313	3207
878.441	3237
878.568	3097
878.696	3131
878.824	3249
878.951	3294
879.079	3412
879.206	3591
879.333	3435
879.461	3325
879.588	3351
879.715	3481
879.842	3591
879.97	3374
880.097	3180
880.224	3123
880.351	3203
880.478	3214
880.605	3165
880.732	3192
880.859	3500
880.986	3256
881.112	3359
881.239	3161
881.366	3108
881.493	2998
881.619	3001
881.746	3081
881.872	3108
881.999	3097
882.125	3142
882.252	3222
882.378	3287
882.505	3393
882.631	3272
882.757	3146
882.883	3218
883.01	3241
883.136	3165
883.262	3093
883.388	3119
883.514	3317
883.64	3359
883.766	3302
883.892	3154
884.018	3233
884.143	3454
884.269	3584
884.395	3207
884.52	3138
884.646	3192
884.772	3112
884.897	3070
885.023	3199
885.148	3325
885.274	3409
885.399	3344
885.524	3264
885.65	3264
885.775	3336
885.9	3287
886.025	3420
886.15	3367
886.275	3264
886.4	3233
886.525	3287
886.65	3253
886.775	3275
886.9	3511
887.025	3652
887.149	3374
887.274	3222
887.399	3188
887.523	3207
887.648	3192
887.773	3176
887.897	3367
888.021	3374
888.146	3302
888.27	3443
888.395	3568
888.519	3416
888.643	3435
888.767	3428
888.891	3294
889.015	3237
889.139	3302
889.263	3211
889.387	3389
889.511	3488
889.635	3431
889.759	3298
889.883	3355
890.006	3420
890.13	3481
890.254	3317
890.377	3325
890.501	3195
890.624	3192
890.748	3313
890.871	3138
890.995	3093
891.118	3070
891.241	3146
891.364	3222
891.488	3291
891.611	3214
891.734	3245
891.857	3275
891.98	3253
892.103	3321
892.226	3268
892.349	3195
892.471	3070
892.594	3253
892.717	3294
892.839	3222
892.962	3310
893.085	3332
893.207	3264
893.33	3135
893.452	3157
893.575	3325
893.697	3218
893.819	3469
893.941	3466
894.064	3439
894.186	3264
894.308	3268
894.43	3405
894.552	3526
894.674	3458
894.796	3310
894.918	3321
895.04	3291
895.161	3435
895.283	3355
895.405	3310
895.526	3359
895.648	3416
895.769	3363
895.891	3466
896.012	3469
896.134	3462
896.255	3420
896.376	3374
896.498	3401
896.619	3447
896.74	3351
896.861	3389
896.982	3652
897.103	3842
897.224	3591
897.345	3485
897.466	3420
897.587	3530
897.708	3587
897.828	3538
897.949	3416
898.07	3351
898.19	3374
898.311	3572
898.431	3466
898.552	3523
898.672	3610
898.792	3564
898.913	3538
899.033	3401
899.153	3325
899.273	3195
899.393	3291
899.513	3279
899.633	3294
899.753	3332
899.873	3348
899.993	3313
900.113	3298
900.232	3401
900.352	3302
900.472	3268
900.591	3218
900.711	3313
900.83	3222
900.95	3420
901.069	3477
901.189	3370
901.308	3199
901.427	3146
901.546	3161
901.665	3321
901.784	3329
901.904	3199
902.023	3135
902.141	3020
902.26	2994
902.379	3100
902.498	3066
902.617	3055
902.735	3188
902.854	3237
902.973	3188
903.091	3032
903.21	3097
903.328	3157
903.446	3135
903.565	3089
903.683	3184
903.801	3108
903.919	3264
904.038	3264
904.156	3123
904.274	3298
904.392	3245
904.51	3310
904.627	3302
904.745	3450
904.863	3488
904.981	3298
905.098	3157
905.216	3211
905.334	3279
905.451	3264
905.569	3317
905.686	3386
905.803	3416
905.921	3302
906.038	3454
906.155	3359
906.272	3256
906.389	3340
906.506	3241
906.623	3275
906.74	3275
906.857	3211
906.974	3207
907.091	3431
907.208	3568
907.324	3454
907.441	3367
907.557	3253
907.674	3253
907.79	3203
907.907	3272
908.023	3340
908.139	3344
908.256	3344
908.372	3344
908.488	3317
908.604	3260
908.72	3218
908.836	3310
908.952	3287
909.068	3321
909.184	3515
909.3	3382
909.415	3477
909.531	3428
909.647	3279
909.762	3287
909.878	3256
909.993	3359
910.108	3351
910.224	3317
910.339	3412
910.454	3298
910.57	3306
910.685	3245
910.8	3561
910.915	3580
911.03	3428
911.145	3272
911.259	3279
911.374	3302
911.489	3214
911.604	3241
911.718	3119
911.833	3138
911.947	3043
912.062	2948
912.176	3176
912.291	3195
912.405	3214
912.519	3401
912.633	3473
912.748	3355
912.862	3283
912.976	3150
913.09	3066
913.204	3123
913.318	3199
913.431	3313
913.545	3313
913.659	3412
913.772	3310
913.886	3207
914	3188
914.113	3313
914.226	3386
914.34	3359
914.453	3203
914.566	3393
914.68	3275
914.793	3256
914.906	3142
915.019	3074
915.132	3047
915.245	3154
915.358	3211
915.47	3203
915.583	3256
915.696	3279
915.809	3382
915.921	3409
916.034	3245
916.146	3272
916.259	3207
916.371	3378
916.483	3329
916.595	3279
916.708	3336
916.82	3332
916.932	3367
917.044	3363
917.156	3374
917.268	3249
917.38	3275
917.491	3310
917.603	3348
917.715	3462
917.826	3481
917.938	3351
918.049	3253
918.161	3409
918.272	3576
918.384	3538
918.495	3458
918.606	3310
918.717	3287
918.828	3355
918.939	3412
919.05	3287
919.161	3298
919.272	3184
919.383	3264
919.494	3481
919.604	3698
919.715	3469
919.826	3405
919.936	3469
920.047	3584
920.157	3561
920.267	3743
920.378	3622
920.488	3538
920.598	3793
920.708	3968
920.818	3857
920.928	3804
921.038	4010
921.148	4006
921.258	3682
921.368	3652
921.477	3587
921.587	3507
921.697	3454
921.806	3622
921.916	3519
922.025	3313
922.134	3370
922.244	3321
922.353	3439
922.462	3249
922.571	3253
922.68	3123
922.789	3070
922.898	3127
923.007	3119
923.116	3195
923.224	3188
923.333	3150
923.442	3058
923.55	3116
923.659	3127
923.767	3245
923.876	3135
923.984	3230
924.092	3123
924.201	3169
924.309	3226
924.417	3241
924.525	3199
924.633	3218
924.741	4147
924.849	3070
924.956	3260
925.064	3127
925.172	3036
925.279	3119
925.387	3180
925.494	3169
925.602	3363
925.709	3321
925.816	3180
925.924	3279
926.031	3363
926.138	3317
926.245	3340
926.352	3264
926.459	3382
926.566	3485
926.673	3355
926.779	3264
926.886	3294
926.993	3161
927.099	3108
927.206	3127
927.312	3131
927.419	3241
927.525	3211
927.631	3260
927.737	3142
927.843	3097
927.95	3047
928.056	3123
928.162	3188
928.267	3233
928.373	3816
928.479	3340
928.585	3062
928.69	3188
928.796	3253
928.901	3138
929.007	3036
929.112	3192
929.218	3142
929.323	3176
929.428	3157
929.533	3348
929.638	3150
929.743	3138
929.848	3272
929.953	3199
930.058	3123
930.163	3013
930.267	3070
930.372	3203
930.477	3009
930.581	3329
930.685	3169
930.79	3062
930.894	3112
930.998	3077
931.103	3260
931.207	2963
931.311	2891
931.415	2922
931.519	2773
931.623	2800
