Data from test_V78500241_971.txt Node
Date: Fri Mar 25 16:21:55 CST 2022
User: usil
Spectrometer: V785-0024
Trigger mode: 0
Integration Time (sec): 4.000000E-1
Scans to average: 1
Nonlinearity correction enabled: false
Boxcar width: 0
Storing dark spectrum: false
XAxis mode: Wavelengths
Number of Pixels in Spectrum: 1024
>>>>>Begin Spectral Data<<<<<
801.071	2975
801.214	2994
801.356	2914
801.499	2975
801.641	2899
801.783	2956
801.926	3112
802.068	2990
802.211	3047
802.353	3104
802.496	3005
802.638	3081
802.78	3108
802.923	3127
803.065	3020
803.208	2914
803.35	2963
803.492	2956
803.635	2941
803.777	2819
803.919	2872
804.061	3214
804.204	2986
804.346	2914
804.488	2845
804.63	3032
804.773	2895
804.915	2941
805.057	3085
805.199	2952
805.341	3005
805.483	3062
805.626	3013
805.768	2979
805.91	3104
806.052	3104
806.194	3066
806.336	3264
806.478	3043
806.62	2986
806.762	2990
806.904	3089
807.046	3195
807.188	2971
807.33	2944
807.472	3009
807.614	2918
807.756	3017
807.898	2967
808.04	2952
808.182	2971
808.324	2967
808.465	2868
808.607	2914
808.749	2792
808.891	2857
809.033	2986
809.174	2963
809.316	2937
809.458	2914
809.6	2800
809.741	2800
809.883	2804
810.025	2887
810.166	2883
810.308	2861
810.45	2872
810.591	2804
810.733	2769
810.875	2815
811.016	2811
811.158	2762
811.299	2815
811.441	2922
811.582	2902
811.724	2838
811.865	2857
812.007	2937
812.148	2880
812.29	2887
812.431	2868
812.573	2971
812.714	2967
812.855	3070
812.997	3058
813.138	3131
813.279	3047
813.421	2986
813.562	2963
813.703	2906
813.845	2906
813.986	2788
814.127	2735
814.268	2845
814.41	2864
814.551	2823
814.692	2876
814.833	2811
814.974	2899
815.115	2982
815.256	2842
815.397	2811
815.539	2883
815.68	2769
815.821	2788
815.962	2925
816.103	2963
816.244	2902
816.385	2872
816.526	3020
816.666	2914
816.807	2781
816.948	2910
817.089	2925
817.23	2864
817.371	2811
817.512	2845
817.653	2834
817.793	2872
817.934	2880
818.075	2963
818.216	3028
818.356	3013
818.497	2891
818.638	2785
818.778	2857
818.919	2811
819.06	2773
819.2	2914
819.341	2785
819.481	2834
819.622	2967
819.762	3123
819.903	3070
820.043	2925
820.184	2922
820.324	2944
820.465	3070
820.605	3020
820.746	3074
820.886	2956
821.026	3146
821.167	3180
821.307	3233
821.447	3310
821.588	3226
821.728	3203
821.868	3199
822.008	3093
822.149	3180
822.289	3272
822.429	3070
822.569	3123
822.709	3176
822.849	3013
822.99	3074
823.13	3173
823.27	3199
823.41	3116
823.55	3176
823.69	3135
823.83	3176
823.97	3135
824.11	2990
824.25	2986
824.389	3089
824.529	3100
824.669	3077
824.809	3188
824.949	3253
825.089	3245
825.228	3184
825.368	3009
825.508	2960
825.648	2986
825.787	3020
825.927	3047
826.067	2990
826.206	2998
826.346	3081
826.485	3097
826.625	3131
826.765	3275
826.904	3226
827.044	2975
827.183	2960
827.323	2853
827.462	2990
827.601	2933
827.741	2948
827.88	2994
828.02	2883
828.159	2929
828.298	3055
828.437	3138
828.577	3047
828.716	3249
828.855	3119
828.994	2963
829.134	2891
829.273	2967
829.412	2891
829.551	2845
829.69	2872
829.829	3005
829.968	3142
830.107	3058
830.246	3036
830.385	2925
830.524	2880
830.663	2826
830.802	2735
830.941	2640
831.08	2629
831.219	2754
831.357	2727
831.496	2967
831.635	2720
831.774	2651
831.913	2689
832.051	2545
832.19	2568
832.329	2727
832.467	2533
832.606	2465
832.744	2594
832.883	2621
833.022	2621
833.16	2674
833.299	2720
833.437	2720
833.576	2746
833.714	2766
833.852	2731
833.991	2766
834.129	2834
834.267	2823
834.406	2785
834.544	2895
834.682	2883
834.821	2876
834.959	3043
835.097	2906
835.235	3085
835.373	3009
835.511	3024
835.65	2944
835.788	2975
835.926	2830
836.064	2845
836.202	2849
836.34	3085
836.478	3131
836.615	3005
836.753	3131
836.891	3195
837.029	3176
837.167	3123
837.305	3093
837.443	3051
837.58	2998
837.718	3131
837.856	3112
837.993	3024
838.131	3116
838.269	3108
838.406	3104
838.544	3097
838.681	2956
838.819	2944
838.956	2807
839.094	2830
839.231	2922
839.369	3062
839.506	3370
839.643	3199
839.781	3032
839.918	2971
840.055	3024
840.193	3074
840.33	3058
840.467	3081
840.604	3123
840.742	3389
840.879	3074
841.016	3058
841.153	3154
841.29	3340
841.427	3302
841.564	3287
841.701	3306
841.838	3233
841.975	3173
842.112	3211
842.249	3039
842.385	3070
842.522	3256
842.659	3085
842.796	3089
842.933	3112
843.069	3062
843.206	3051
843.343	3180
843.479	3104
843.616	3169
843.752	2899
843.889	2868
844.025	3093
844.162	2872
844.298	3058
844.435	2952
844.571	2861
844.708	3066
844.844	3184
844.98	3302
845.117	3222
845.253	3039
845.389	3013
845.525	3093
845.661	3081
845.798	3009
845.934	3135
846.07	3066
846.206	3214
846.342	3275
846.478	3272
846.614	3127
846.75	3077
846.886	3032
847.022	3260
847.158	3123
847.294	3150
847.429	3253
847.565	3188
847.701	3469
847.837	3032
847.972	3009
848.108	3161
848.244	3112
848.379	3005
848.515	2948
848.65	2956
848.786	2986
848.921	3024
849.057	3108
849.192	3119
849.328	3085
849.463	3169
849.598	3058
849.734	3051
849.869	2982
850.004	2914
850.14	2982
850.275	2941
850.41	2880
850.545	2887
850.68	2910
850.815	2922
850.95	2975
851.085	3180
851.22	3100
851.355	3005
851.49	3001
851.625	3001
851.76	3001
851.895	2963
852.03	2883
852.165	3039
852.299	3104
852.434	3173
852.569	3146
852.703	3161
852.838	3256
852.973	3329
853.107	3340
853.242	3180
853.376	3100
853.511	2971
853.645	3055
853.78	3237
853.914	3138
854.048	3116
854.183	3100
854.317	3146
854.451	3294
854.585	3104
854.72	3062
854.854	3230
854.988	3043
855.122	3085
855.256	2994
855.39	3123
855.524	3195
855.658	3157
855.792	3150
855.926	3226
856.06	3264
856.194	3268
856.327	3138
856.461	3058
856.595	3062
856.729	3066
856.862	3241
856.996	3169
857.13	3176
857.263	3203
857.397	3287
857.53	3146
857.664	3192
857.797	3226
857.931	3249
858.064	3146
858.197	3203
858.331	3127
858.464	3074
858.597	2986
858.731	3135
858.864	3142
858.997	3097
859.13	3150
859.263	3199
859.396	3199
859.529	3074
859.662	3062
859.795	3066
859.928	3085
860.061	3233
860.194	3268
860.327	3123
860.46	3123
860.592	3245
860.725	3207
860.858	3253
860.99	3131
861.123	3032
861.256	3043
861.388	3154
861.521	3854
861.653	3017
861.786	2975
861.918	2982
862.05	3104
862.183	3074
862.315	3154
862.447	3154
862.58	3112
862.712	2963
862.844	2883
862.976	3009
863.108	2960
863.24	3431
863.372	2883
863.504	2960
863.636	2960
863.768	3020
863.9	2990
864.032	2925
864.164	2933
864.296	3032
864.428	3077
864.559	3104
864.691	3081
864.823	3036
864.954	3009
865.086	3036
865.217	2990
865.349	2956
865.48	2956
865.612	3017
865.743	3146
865.875	2963
866.006	2944
866.137	3017
866.269	2925
866.4	2918
866.531	2895
866.662	2880
866.793	2891
866.924	2872
867.055	2948
867.186	2922
867.317	2880
867.448	2849
867.579	2838
867.71	2876
867.841	2823
867.972	2918
868.103	2941
868.233	2883
868.364	2872
868.495	2880
868.625	3070
868.756	3165
868.886	2971
869.017	3047
869.147	3150
869.278	3173
869.408	3058
869.539	2994
869.669	3104
869.799	3036
869.929	3157
870.06	3089
870.19	3363
870.32	3264
870.45	3291
870.58	3351
870.71	3450
870.84	3454
870.97	3275
871.1	3272
871.23	3485
871.36	3458
871.489	3370
871.619	3370
871.749	3431
871.879	3428
872.008	3450
872.138	3359
872.267	3264
872.397	3146
872.526	3093
872.656	3009
872.785	3116
872.915	3241
873.044	3329
873.173	3218
873.303	3237
873.432	3237
873.561	3253
873.69	3123
873.819	3176
873.948	3199
874.077	3070
874.206	3039
874.335	3055
874.464	3218
874.593	3325
874.722	3211
874.851	3374
874.979	3359
875.108	3325
875.237	3199
875.365	3142
875.494	3157
875.623	3230
875.751	3051
875.88	3146
876.008	3176
876.136	3222
876.265	3367
876.393	3515
876.521	3431
876.65	3382
876.778	3272
876.906	3260
877.034	3192
877.162	3245
877.29	3169
877.418	3222
877.546	3230
877.674	3253
877.802	3207
877.93	3211
878.058	3135
878.185	3116
878.313	3157
878.441	3237
878.568	3070
878.696	3142
878.824	3214
878.951	3291
879.079	3450
879.206	3633
879.333	3420
879.461	3336
879.588	3367
879.715	3488
879.842	3641
879.97	3397
880.097	3195
880.224	3108
880.351	3195
880.478	3218
880.605	3199
880.732	3203
880.859	3473
880.986	3310
881.112	3325
881.239	3188
881.366	3119
881.493	3017
881.619	3020
881.746	3085
881.872	3074
881.999	3081
882.125	3142
882.252	3249
882.378	3294
882.505	3370
882.631	3256
882.757	3116
882.883	3199
883.01	3226
883.136	3157
883.262	3085
883.388	3131
883.514	3321
883.64	3378
883.766	3283
883.892	3173
884.018	3260
884.143	3431
884.269	3504
884.395	3184
884.52	3123
884.646	3188
884.772	3112
884.897	3081
885.023	3195
885.148	3367
885.274	3409
885.399	3367
885.524	3291
885.65	3249
885.775	3313
885.9	3249
886.025	3386
886.15	3348
886.275	3283
886.4	3245
886.525	3275
886.65	3249
886.775	3268
886.9	3485
887.025	3614
887.149	3374
887.274	3249
887.399	3192
887.523	3169
887.648	3173
887.773	3173
887.897	3344
888.021	3397
888.146	3306
888.27	3389
888.395	3538
888.519	3439
888.643	3443
888.767	3439
888.891	3279
889.015	3207
889.139	3294
889.263	3214
889.387	3412
889.511	3523
889.635	3424
889.759	3249
889.883	3272
890.006	3378
890.13	3507
890.254	3264
890.377	3355
890.501	3188
890.624	3150
890.748	3329
890.871	3195
890.995	3051
891.118	3013
891.241	3222
891.364	3199
891.488	3344
891.611	3161
891.734	3199
891.857	3275
891.98	3241
892.103	3363
892.226	3294
892.349	3222
892.471	3123
892.594	3222
892.717	3275
892.839	3291
892.962	3264
893.085	3363
893.207	3321
893.33	3112
893.452	3180
893.575	3355
893.697	3222
893.819	3439
893.941	3511
894.064	3454
894.186	3298
894.308	3291
894.43	3420
894.552	3526
894.674	3431
894.796	3272
894.918	3321
895.04	3283
895.161	3439
895.283	3386
895.405	3298
895.526	3393
895.648	3416
895.769	3367
895.891	3450
896.012	3458
896.134	3447
896.255	3405
896.376	3409
896.498	3378
896.619	3443
896.74	3332
896.861	3420
896.982	3667
897.103	3800
897.224	3580
897.345	3530
897.466	3412
897.587	3542
897.708	3591
897.828	3500
897.949	3405
898.07	3321
898.19	3378
898.311	3595
898.431	3469
898.552	3511
898.672	3561
898.792	3606
898.913	3538
899.033	3393
899.153	3302
899.273	3233
899.393	3294
899.513	3275
899.633	3325
899.753	3332
899.873	3283
899.993	3424
900.113	3325
900.232	3370
900.352	3344
900.472	3313
900.591	3211
900.711	3298
900.83	3272
900.95	3386
901.069	3462
901.189	3374
901.308	3180
901.427	3127
901.546	3199
901.665	3253
901.784	3317
901.904	3203
902.023	3169
902.141	3028
902.26	2982
902.379	3157
902.498	3039
902.617	3070
902.735	3180
902.854	3195
902.973	3199
903.091	3085
903.21	3077
903.328	3119
903.446	3085
903.565	3062
903.683	3169
903.801	3138
903.919	3241
904.038	3268
904.156	3211
904.274	3298
904.392	3241
904.51	3275
904.627	3306
904.745	3431
904.863	3507
904.981	3260
905.098	3146
905.216	3279
905.334	3283
905.451	3306
905.569	3348
905.686	3424
905.803	3405
905.921	3241
906.038	3428
906.155	3329
906.272	3291
906.389	3325
906.506	3260
906.623	3241
906.74	3272
906.857	3203
906.974	3260
907.091	3431
907.208	3542
907.324	3466
907.441	3416
907.557	3230
907.674	3249
907.79	3256
907.907	3294
908.023	3348
908.139	3382
908.256	3329
908.372	3378
908.488	3348
908.604	3249
908.72	3233
908.836	3279
908.952	3222
909.068	3325
909.184	3454
909.3	3367
909.415	3454
909.531	3488
909.647	3310
909.762	3275
909.878	3249
909.993	3355
910.108	3317
910.224	3336
910.339	3389
910.454	3329
910.57	3298
910.685	3268
910.8	3549
910.915	3561
911.03	3401
911.145	3268
911.259	3253
911.374	3287
911.489	3241
911.604	3218
911.718	3112
911.833	3180
911.947	3005
912.062	2998
912.176	3169
912.291	3161
912.405	3233
912.519	3428
912.633	3466
912.748	3325
912.862	3291
912.976	3188
913.09	3036
913.204	3116
913.318	3249
913.431	3287
913.545	3359
913.659	3412
913.772	3363
913.886	3237
914	3211
914.113	3340
914.226	3378
914.34	3370
914.453	3211
914.566	3443
914.68	3325
914.793	3272
914.906	3146
915.019	3104
915.132	3093
915.245	3142
915.358	3195
915.47	3241
915.583	3272
915.696	3313
915.809	3374
915.921	3462
916.034	3302
916.146	3237
916.259	3188
916.371	3389
916.483	3374
916.595	3260
916.708	3344
916.82	3340
916.932	3317
917.044	3313
917.156	3332
917.268	3233
917.38	3264
917.491	3291
917.603	3374
917.715	3416
917.826	3469
917.938	3393
918.049	3264
918.161	3420
918.272	3587
918.384	3557
918.495	3496
918.606	3344
918.717	3279
918.828	3374
918.939	3424
919.05	3313
919.161	3382
919.272	3146
919.383	3256
919.494	3515
919.604	3656
919.715	3504
919.826	3401
919.936	3462
920.047	3584
920.157	3584
920.267	3778
920.378	3622
920.488	3584
920.598	3728
920.708	3918
920.818	3831
920.928	3857
921.038	4032
921.148	3994
921.258	3717
921.368	3618
921.477	3587
921.587	3530
921.697	3439
921.806	3652
921.916	3492
922.025	3359
922.134	3374
922.244	3287
922.353	3420
922.462	3272
922.571	3188
922.68	3131
922.789	3062
922.898	3131
923.007	3112
923.116	3226
923.224	3169
923.333	3199
923.442	3123
923.55	3089
923.659	3154
923.767	3195
923.876	3077
923.984	3226
924.092	3100
924.201	3230
924.309	3222
924.417	3218
924.525	3176
924.633	3253
924.741	4181
924.849	3055
924.956	3249
925.064	3100
925.172	3074
925.279	3093
925.387	3165
925.494	3173
925.602	3321
925.709	3321
925.816	3188
925.924	3249
926.031	3397
926.138	3325
926.245	3370
926.352	3268
926.459	3393
926.566	3424
926.673	3287
926.779	3237
926.886	3233
926.993	3161
927.099	3119
927.206	3131
927.312	3104
927.419	3256
927.525	3165
927.631	3272
927.737	3169
927.843	3112
927.95	3001
928.056	3142
928.162	3169
928.267	3245
928.373	3827
928.479	3291
928.585	3070
928.69	3211
928.796	3256
928.901	3214
929.007	3009
929.112	3173
929.218	3192
929.323	3138
929.428	3146
929.533	3294
929.638	3123
929.743	3184
929.848	3218
929.953	3192
930.058	3119
930.163	2982
930.267	3062
930.372	3214
930.477	3039
930.581	3256
930.685	3203
930.79	3074
930.894	3093
930.998	3081
931.103	3279
931.207	2918
931.311	2952
931.415	2948
931.519	2766
931.623	2807
