Data from test_V78500241_177.txt Node
Date: Fri Mar 25 16:16:25 CST 2022
User: usil
Spectrometer: V785-0024
Trigger mode: 0
Integration Time (sec): 4.000000E-1
Scans to average: 1
Nonlinearity correction enabled: false
Boxcar width: 0
Storing dark spectrum: false
XAxis mode: Wavelengths
Number of Pixels in Spectrum: 1024
>>>>>Begin Spectral Data<<<<<
801.071	2956
801.214	2986
801.356	2902
801.499	2918
801.641	2922
801.783	2933
801.926	3100
802.068	3028
802.211	3051
802.353	3062
802.496	2990
802.638	3039
802.78	3093
802.923	3081
803.065	3066
803.208	2925
803.35	2902
803.492	2979
803.635	2982
803.777	2823
803.919	2880
804.061	3253
804.204	3047
804.346	2937
804.488	2880
804.63	2979
804.773	2925
804.915	2941
805.057	3093
805.199	2963
805.341	3005
805.483	3066
805.626	3058
805.768	2971
805.91	3127
806.052	3173
806.194	3066
806.336	3298
806.478	3017
806.62	2979
806.762	3001
806.904	3074
807.046	3169
807.188	3013
807.33	2933
807.472	2994
807.614	2956
807.756	3017
807.898	2944
808.04	2902
808.182	3032
808.324	2963
808.465	2944
808.607	2914
808.749	2842
808.891	2845
809.033	3005
809.174	3017
809.316	2922
809.458	2914
809.6	2785
809.741	2766
809.883	2804
810.025	2853
810.166	2876
810.308	2887
810.45	2864
810.591	2845
810.733	2769
810.875	2849
811.016	2830
811.158	2777
811.299	2845
811.441	2963
811.582	2956
811.724	2853
811.865	2861
812.007	2933
812.148	2899
812.29	2902
812.431	2925
812.573	2937
812.714	3013
812.855	3100
812.997	3093
813.138	3138
813.279	3047
813.421	3013
813.562	2979
813.703	2887
813.845	2967
813.986	2849
814.127	2769
814.268	2864
814.41	2880
814.551	2834
814.692	2887
814.833	2857
814.974	2933
815.115	3001
815.256	2861
815.397	2842
815.539	2868
815.68	2815
815.821	2811
815.962	2952
816.103	2963
816.244	2899
816.385	2876
816.526	2979
816.666	2941
816.807	2785
816.948	2906
817.089	2937
817.23	2887
817.371	2826
817.512	2826
817.653	2864
817.793	2883
817.934	2910
818.075	3039
818.216	2998
818.356	3036
818.497	2937
818.638	2826
818.778	2849
818.919	2811
819.06	2781
819.2	2891
819.341	2819
819.481	2819
819.622	2944
819.762	3146
819.903	3066
820.043	2937
820.184	2952
820.324	2918
820.465	3074
820.605	3055
820.746	3062
820.886	2960
821.026	3116
821.167	3176
821.307	3275
821.447	3317
821.588	3233
821.728	3214
821.868	3207
822.008	3112
822.149	3218
822.289	3253
822.429	3097
822.569	3112
822.709	3214
822.849	3062
822.99	3077
823.13	3157
823.27	3218
823.41	3127
823.55	3169
823.69	3184
823.83	3207
823.97	3161
824.11	3032
824.25	2994
824.389	3100
824.529	3165
824.669	3081
824.809	3222
824.949	3230
825.089	3275
825.228	3199
825.368	3020
825.508	2971
825.648	2990
825.787	3043
825.927	3047
826.067	2998
826.206	2952
826.346	3070
826.485	3100
826.625	3169
826.765	3279
826.904	3241
827.044	3017
827.183	2971
827.323	2895
827.462	3005
827.601	2941
827.741	2948
827.88	3028
828.02	2906
828.159	2982
828.298	3074
828.437	3112
828.577	3024
828.716	3233
828.855	3127
828.994	2914
829.134	2891
829.273	2960
829.412	2925
829.551	2819
829.69	2910
829.829	3013
829.968	3157
830.107	3043
830.246	3058
830.385	2960
830.524	2895
830.663	2826
830.802	2735
830.941	2678
831.08	2651
831.219	2804
831.357	2735
831.496	2990
831.635	2739
831.774	2693
831.913	2705
832.051	2606
832.19	2590
832.329	2705
832.467	2560
832.606	2492
832.744	2583
832.883	2606
833.022	2610
833.16	2667
833.299	2678
833.437	2727
833.576	2712
833.714	2724
833.852	2766
833.991	2762
834.129	2830
834.267	2864
834.406	2796
834.544	2861
834.682	2922
834.821	2872
834.959	3089
835.097	2899
835.235	3081
835.373	3009
835.511	3036
835.65	2963
835.788	2990
835.926	2826
836.064	2849
836.202	2864
836.34	3097
836.478	3165
836.615	3062
836.753	3176
836.891	3241
837.029	3195
837.167	3146
837.305	3074
837.443	3039
837.58	3005
837.718	3157
837.856	3135
837.993	3066
838.131	3146
838.269	3089
838.406	3066
838.544	3104
838.681	2994
838.819	2956
838.956	2842
839.094	2838
839.231	2929
839.369	3066
839.506	3401
839.643	3218
839.781	3020
839.918	2963
840.055	3043
840.193	3108
840.33	3119
840.467	3085
840.604	3184
840.742	3447
840.879	3074
841.016	3077
841.153	3127
841.29	3386
841.427	3313
841.564	3294
841.701	3329
841.838	3203
841.975	3218
842.112	3195
842.249	3112
842.385	3039
842.522	3279
842.659	3123
842.796	3051
842.933	3112
843.069	3070
843.206	3077
843.343	3199
843.479	3116
843.616	3161
843.752	2933
843.889	2899
844.025	3108
844.162	2887
844.298	3112
844.435	2956
844.571	2933
844.708	3093
844.844	3245
844.98	3241
845.117	3207
845.253	3077
845.389	3017
845.525	3081
845.661	3131
845.798	3043
845.934	3119
846.07	3074
846.206	3222
846.342	3310
846.478	3256
846.614	3093
846.75	3116
846.886	3005
847.022	3294
847.158	3142
847.294	3192
847.429	3249
847.565	3256
847.701	3462
847.837	3039
847.972	3024
848.108	3180
848.244	3161
848.379	2998
848.515	2944
848.65	2929
848.786	3001
848.921	3043
849.057	3108
849.192	3184
849.328	3093
849.463	3135
849.598	3077
849.734	3062
849.869	2990
850.004	2937
850.14	2990
850.275	2937
850.41	2868
850.545	2891
850.68	2960
850.815	2986
850.95	2990
851.085	3245
851.22	3131
851.355	3047
851.49	2986
851.625	3047
851.76	3047
851.895	2944
852.03	2925
852.165	3001
852.299	3119
852.434	3157
852.569	3154
852.703	3195
852.838	3260
852.973	3370
853.107	3294
853.242	3192
853.376	3100
853.511	2960
853.645	3070
853.78	3264
853.914	3108
854.048	3154
854.183	3138
854.317	3173
854.451	3336
854.585	3150
854.72	3093
854.854	3199
854.988	3058
855.122	3070
855.256	2963
855.39	3165
855.524	3268
855.658	3192
855.792	3188
855.926	3203
856.06	3203
856.194	3298
856.327	3154
856.461	3062
856.595	3093
856.729	3112
856.862	3226
856.996	3173
857.13	3226
857.263	3245
857.397	3287
857.53	3154
857.664	3233
857.797	3226
857.931	3287
858.064	3173
858.197	3245
858.331	3169
858.464	3077
858.597	3036
858.731	3154
858.864	3138
858.997	3093
859.13	3161
859.263	3211
859.396	3203
859.529	3112
859.662	3093
859.795	3093
859.928	3180
860.061	3294
860.194	3264
860.327	3157
860.46	3123
860.592	3249
860.725	3226
860.858	3253
860.99	3100
861.123	3074
861.256	3039
861.388	3150
861.521	3732
861.653	3020
861.786	2982
861.918	3020
862.05	3093
862.183	3089
862.315	3165
862.447	3245
862.58	3104
862.712	2960
862.844	2880
862.976	3017
863.108	3024
863.24	3321
863.372	2910
863.504	2994
863.636	2982
863.768	3058
863.9	3032
864.032	2922
864.164	3013
864.296	3051
864.428	3089
864.559	3097
864.691	3089
864.823	3093
864.954	2998
865.086	3085
865.217	3009
865.349	2971
865.48	3009
865.612	3017
865.743	3146
865.875	2990
866.006	2944
866.137	2982
866.269	2971
866.4	2986
866.531	2937
866.662	2891
866.793	2887
866.924	2883
867.055	2998
867.186	2933
867.317	2902
867.448	2823
867.579	2826
867.71	2868
867.841	2861
867.972	2922
868.103	2883
868.233	2868
868.364	2864
868.495	2925
868.625	3089
868.756	3207
868.886	2967
869.017	3013
869.147	3180
869.278	3176
869.408	3039
869.539	3066
869.669	3138
869.799	3066
869.929	3116
870.06	3127
870.19	3306
870.32	3321
870.45	3317
870.58	3412
870.71	3466
870.84	3443
870.97	3302
871.1	3264
871.23	3469
871.36	3477
871.489	3382
871.619	3416
871.749	3431
871.879	3439
872.008	3469
872.138	3355
872.267	3256
872.397	3138
872.526	3085
872.656	3028
872.785	3116
872.915	3260
873.044	3325
873.173	3245
873.303	3226
873.432	3222
873.561	3211
873.69	3150
873.819	3169
873.948	3195
874.077	3123
874.206	3043
874.335	3146
874.464	3237
874.593	3386
874.722	3264
874.851	3397
874.979	3412
875.108	3359
875.237	3233
875.365	3150
875.494	3188
875.623	3272
875.751	3074
875.88	3150
876.008	3230
876.136	3199
876.265	3389
876.393	3538
876.521	3481
876.65	3401
876.778	3340
876.906	3279
877.034	3218
877.162	3249
877.29	3127
877.418	3249
877.546	3298
877.674	3268
877.802	3226
877.93	3241
878.058	3173
878.185	3066
878.313	3180
878.441	3222
878.568	3058
878.696	3161
878.824	3245
878.951	3321
879.079	3447
879.206	3663
879.333	3454
879.461	3317
879.588	3382
879.715	3492
879.842	3599
879.97	3431
880.097	3180
880.224	3108
880.351	3180
880.478	3199
880.605	3233
880.732	3230
880.859	3492
880.986	3329
881.112	3336
881.239	3188
881.366	3085
881.493	3039
881.619	3047
881.746	3066
881.872	3127
881.999	3146
882.125	3165
882.252	3226
882.378	3283
882.505	3466
882.631	3279
882.757	3188
882.883	3188
883.01	3222
883.136	3161
883.262	3100
883.388	3142
883.514	3279
883.64	3397
883.766	3313
883.892	3233
884.018	3283
884.143	3416
884.269	3530
884.395	3199
884.52	3203
884.646	3180
884.772	3127
884.897	3127
885.023	3241
885.148	3313
885.274	3454
885.399	3329
885.524	3272
885.65	3287
885.775	3321
885.9	3256
886.025	3416
886.15	3374
886.275	3313
886.4	3230
886.525	3336
886.65	3256
886.775	3283
886.9	3511
887.025	3660
887.149	3439
887.274	3237
887.399	3192
887.523	3241
887.648	3184
887.773	3199
887.897	3351
888.021	3420
888.146	3321
888.27	3473
888.395	3545
888.519	3435
888.643	3473
888.767	3488
888.891	3317
889.015	3241
889.139	3310
889.263	3245
889.387	3420
889.511	3553
889.635	3450
889.759	3291
889.883	3332
890.006	3401
890.13	3500
890.254	3272
890.377	3321
890.501	3188
890.624	3226
890.748	3310
890.871	3207
890.995	3138
891.118	3039
891.241	3188
891.364	3214
891.488	3340
891.611	3169
891.734	3226
891.857	3256
891.98	3237
892.103	3363
892.226	3275
892.349	3195
892.471	3154
892.594	3249
892.717	3332
892.839	3268
892.962	3329
893.085	3332
893.207	3291
893.33	3138
893.452	3249
893.575	3344
893.697	3283
893.819	3492
893.941	3534
894.064	3477
894.186	3272
894.308	3249
894.43	3466
894.552	3553
894.674	3492
894.796	3291
894.918	3321
895.04	3283
895.161	3469
895.283	3405
895.405	3386
895.526	3367
895.648	3439
895.769	3466
895.891	3488
896.012	3519
896.134	3485
896.255	3458
896.376	3473
896.498	3363
896.619	3466
896.74	3382
896.861	3431
896.982	3686
897.103	3846
897.224	3606
897.345	3526
897.466	3477
897.587	3557
897.708	3686
897.828	3564
897.949	3477
898.07	3370
898.19	3405
898.311	3633
898.431	3443
898.552	3496
898.672	3576
898.792	3561
898.913	3519
899.033	3420
899.153	3291
899.273	3260
899.393	3317
899.513	3332
899.633	3313
899.753	3393
899.873	3329
899.993	3382
900.113	3321
900.232	3416
900.352	3306
900.472	3310
900.591	3214
900.711	3348
900.83	3241
900.95	3428
901.069	3485
901.189	3321
901.308	3230
901.427	3146
901.546	3226
901.665	3275
901.784	3336
901.904	3203
902.023	3161
902.141	3032
902.26	3028
902.379	3127
902.498	3093
902.617	3062
902.735	3233
902.854	3245
902.973	3207
903.091	3043
903.21	3112
903.328	3169
903.446	3123
903.565	3119
903.683	3195
903.801	3150
903.919	3241
904.038	3302
904.156	3218
904.274	3302
904.392	3249
904.51	3310
904.627	3325
904.745	3450
904.863	3504
904.981	3294
905.098	3195
905.216	3272
905.334	3294
905.451	3298
905.569	3310
905.686	3443
905.803	3485
905.921	3306
906.038	3443
906.155	3382
906.272	3306
906.389	3332
906.506	3237
906.623	3298
906.74	3291
906.857	3161
906.974	3260
907.091	3526
907.208	3656
907.324	3469
907.441	3428
907.557	3264
907.674	3245
907.79	3253
907.907	3306
908.023	3389
908.139	3389
908.256	3321
908.372	3412
908.488	3321
908.604	3272
908.72	3260
908.836	3317
908.952	3283
909.068	3332
909.184	3530
909.3	3424
909.415	3530
909.531	3500
909.647	3313
909.762	3275
909.878	3256
909.993	3367
910.108	3363
910.224	3363
910.339	3416
910.454	3359
910.57	3329
910.685	3272
910.8	3561
910.915	3584
911.03	3458
911.145	3287
911.259	3249
911.374	3298
911.489	3279
911.604	3241
911.718	3142
911.833	3157
911.947	3047
912.062	2963
912.176	3161
912.291	3222
912.405	3188
912.519	3439
912.633	3454
912.748	3367
912.862	3294
912.976	3203
913.09	3100
913.204	3169
913.318	3233
913.431	3370
913.545	3355
913.659	3382
913.772	3363
913.886	3203
914	3237
914.113	3329
914.226	3428
914.34	3367
914.453	3211
914.566	3409
914.68	3298
914.793	3317
914.906	3123
915.019	3146
915.132	3108
915.245	3169
915.358	3237
915.47	3233
915.583	3287
915.696	3325
915.809	3439
915.921	3401
916.034	3237
916.146	3272
916.259	3241
916.371	3378
916.483	3351
916.595	3302
916.708	3275
916.82	3351
916.932	3336
917.044	3374
917.156	3405
917.268	3245
917.38	3253
917.491	3313
917.603	3397
917.715	3443
917.826	3488
917.938	3367
918.049	3313
918.161	3504
918.272	3587
918.384	3584
918.495	3454
918.606	3332
918.717	3306
918.828	3386
918.939	3420
919.05	3325
919.161	3397
919.272	3184
919.383	3283
919.494	3515
919.604	3740
919.715	3477
919.826	3428
919.936	3466
920.047	3622
920.157	3534
920.267	3736
920.378	3641
920.488	3591
920.598	3793
920.708	3994
920.818	3880
920.928	3865
921.038	4021
921.148	4021
921.258	3690
921.368	3614
921.477	3584
921.587	3553
921.697	3458
921.806	3641
921.916	3515
922.025	3329
922.134	3370
922.244	3279
922.353	3458
922.462	3329
922.571	3230
922.68	3104
922.789	3070
922.898	3127
923.007	3085
923.116	3207
923.224	3207
923.333	3176
923.442	3142
923.55	3070
923.659	3169
923.767	3253
923.876	3104
923.984	3253
924.092	3127
924.201	3233
924.309	3233
924.417	3253
924.525	3180
924.633	3230
924.741	4227
924.849	3070
924.956	3310
925.064	3112
925.172	3047
925.279	3108
925.387	3180
925.494	3184
925.602	3386
925.709	3325
925.816	3218
925.924	3302
926.031	3374
926.138	3321
926.245	3367
926.352	3325
926.459	3447
926.566	3500
926.673	3302
926.779	3336
926.886	3222
926.993	3123
927.099	3142
927.206	3150
927.312	3142
927.419	3188
927.525	3230
927.631	3313
927.737	3188
927.843	3081
927.95	3055
928.056	3127
928.162	3214
928.267	3264
928.373	3896
928.479	3329
928.585	3108
928.69	3226
928.796	3294
928.901	3184
929.007	3036
929.112	3218
929.218	3192
929.323	3112
929.428	3150
929.533	3336
929.638	3131
929.743	3188
929.848	3291
929.953	3287
930.058	3165
930.163	3009
930.267	3093
930.372	3218
930.477	3089
930.581	3336
930.685	3154
930.79	3085
930.894	3161
930.998	3138
931.103	3279
931.207	2990
931.311	2971
931.415	2948
931.519	2754
931.623	2834
