Data from test_V78500241_1545.txt Node
Date: Fri Mar 25 16:25:54 CST 2022
User: usil
Spectrometer: V785-0024
Trigger mode: 0
Integration Time (sec): 4.000000E-1
Scans to average: 1
Nonlinearity correction enabled: false
Boxcar width: 0
Storing dark spectrum: false
XAxis mode: Wavelengths
Number of Pixels in Spectrum: 1024
>>>>>Begin Spectral Data<<<<<
801.071	2899
801.214	2967
801.356	2876
801.499	2906
801.641	2880
801.783	2937
801.926	3024
802.068	2979
802.211	3001
802.353	3013
802.496	2944
802.638	3051
802.78	3055
802.923	3100
803.065	3005
803.208	2887
803.35	2918
803.492	2944
803.635	2937
803.777	2762
803.919	2876
804.061	3218
804.204	2952
804.346	2895
804.488	2849
804.63	2979
804.773	2868
804.915	2902
805.057	3123
805.199	2944
805.341	2960
805.483	3051
805.626	3013
805.768	2986
805.91	3081
806.052	3100
806.194	3058
806.336	3253
806.478	3051
806.62	2956
806.762	2967
806.904	3104
807.046	3154
807.188	2979
807.33	2937
807.472	3005
807.614	2952
807.756	3005
807.898	2910
808.04	2895
808.182	2956
808.324	2944
808.465	2883
808.607	2872
808.749	2788
808.891	2861
809.033	2944
809.174	2979
809.316	2922
809.458	2918
809.6	2792
809.741	2826
809.883	2773
810.025	2853
810.166	2823
810.308	2880
810.45	2872
810.591	2781
810.733	2773
810.875	2830
811.016	2762
811.158	2743
811.299	2792
811.441	2929
811.582	2902
811.724	2830
811.865	2842
812.007	2910
812.148	2872
812.29	2876
812.431	2861
812.573	2933
812.714	2967
812.855	3051
812.997	3047
813.138	3104
813.279	3009
813.421	2967
813.562	2960
813.703	2853
813.845	2883
813.986	2762
814.127	2708
814.268	2845
814.41	2830
814.551	2804
814.692	2864
814.833	2815
814.974	2883
815.115	2941
815.256	2861
815.397	2800
815.539	2842
815.68	2758
815.821	2746
815.962	2967
816.103	2922
816.244	2876
816.385	2880
816.526	2963
816.666	2902
816.807	2785
816.948	2880
817.089	2922
817.23	2800
817.371	2788
817.512	2834
817.653	2861
817.793	2811
817.934	2891
818.075	2971
818.216	2975
818.356	3001
818.497	2914
818.638	2807
818.778	2883
818.919	2773
819.06	2769
819.2	2853
819.341	2781
819.481	2777
819.622	2956
819.762	3127
819.903	3058
820.043	2941
820.184	2963
820.324	2872
820.465	3005
820.605	3017
820.746	2990
820.886	2914
821.026	3123
821.167	3123
821.307	3279
821.447	3253
821.588	3214
821.728	3211
821.868	3195
822.008	3100
822.149	3142
822.289	3207
822.429	3077
822.569	3058
822.709	3226
822.849	3051
822.99	3070
823.13	3142
823.27	3230
823.41	3108
823.55	3157
823.69	3150
823.83	3184
823.97	3085
824.11	2971
824.25	3028
824.389	3081
824.529	3123
824.669	3043
824.809	3222
824.949	3222
825.089	3203
825.228	3146
825.368	2975
825.508	2979
825.648	2960
825.787	2979
825.927	3043
826.067	2937
826.206	2979
826.346	3043
826.485	3047
826.625	3093
826.765	3283
826.904	3214
827.044	2963
827.183	2929
827.323	2849
827.462	2963
827.601	2952
827.741	2929
827.88	2952
828.02	2826
828.159	2967
828.298	3051
828.437	3081
828.577	3009
828.716	3203
828.855	3127
828.994	2906
829.134	2872
829.273	2910
829.412	2861
829.551	2838
829.69	2887
829.829	2998
829.968	3138
830.107	2998
830.246	3024
830.385	2941
830.524	2895
830.663	2804
830.802	2766
830.941	2613
831.08	2644
831.219	2746
831.357	2766
831.496	2929
831.635	2712
831.774	2667
831.913	2629
832.051	2545
832.19	2579
832.329	2678
832.467	2552
832.606	2480
832.744	2594
832.883	2590
833.022	2594
833.16	2644
833.299	2708
833.437	2720
833.576	2697
833.714	2727
833.852	2746
833.991	2788
834.129	2815
834.267	2857
834.406	2788
834.544	2895
834.682	2872
834.821	2853
834.959	3074
835.097	2864
835.235	3055
835.373	3028
835.511	3009
835.65	2941
835.788	2956
835.926	2861
836.064	2819
836.202	2853
836.34	3070
836.478	3169
836.615	3039
836.753	3135
836.891	3207
837.029	3161
837.167	3131
837.305	3089
837.443	3043
837.58	2967
837.718	3127
837.856	3074
837.993	3013
838.131	3138
838.269	3119
838.406	3150
838.544	3081
838.681	2948
838.819	2933
838.956	2861
839.094	2838
839.231	2887
839.369	3001
839.506	3348
839.643	3241
839.781	2986
839.918	2956
840.055	3047
840.193	3032
840.33	3051
840.467	3093
840.604	3154
840.742	3409
840.879	3024
841.016	3036
841.153	3074
841.29	3344
841.427	3294
841.564	3218
841.701	3321
841.838	3211
841.975	3188
842.112	3253
842.249	3043
842.385	3043
842.522	3253
842.659	3104
842.796	3036
842.933	3108
843.069	3024
843.206	3062
843.343	3146
843.479	3157
843.616	3116
843.752	2902
843.889	2864
844.025	3062
844.162	2868
844.298	3077
844.435	2933
844.571	2941
844.708	3062
844.844	3150
844.98	3230
845.117	3188
845.253	3017
845.389	2967
845.525	3093
845.661	3108
845.798	3013
845.934	3146
846.07	3005
846.206	3226
846.342	3313
846.478	3233
846.614	3100
846.75	3051
846.886	3017
847.022	3226
847.158	3116
847.294	3195
847.429	3260
847.565	3192
847.701	3435
847.837	3001
847.972	3013
848.108	3165
848.244	3146
848.379	2994
848.515	2952
848.65	2933
848.786	2967
848.921	3009
849.057	3112
849.192	3104
849.328	3062
849.463	3085
849.598	3055
849.734	3051
849.869	3001
850.004	2902
850.14	2944
850.275	2895
850.41	2815
850.545	2868
850.68	2891
850.815	2982
850.95	2960
851.085	3176
851.22	3093
851.355	3036
851.49	2998
851.625	3017
851.76	2979
851.895	2948
852.03	2914
852.165	3009
852.299	3150
852.434	3176
852.569	3135
852.703	3142
852.838	3253
852.973	3359
853.107	3363
853.242	3165
853.376	3081
853.511	3005
853.645	3028
853.78	3211
853.914	3116
854.048	3093
854.183	3062
854.317	3131
854.451	3287
854.585	3142
854.72	3089
854.854	3218
854.988	3036
855.122	3062
855.256	2982
855.39	3108
855.524	3260
855.658	3180
855.792	3142
855.926	3195
856.06	3211
856.194	3253
856.327	3154
856.461	3074
856.595	3100
856.729	3081
856.862	3188
856.996	3135
857.13	3211
857.263	3245
857.397	3291
857.53	3089
857.664	3192
857.797	3245
857.931	3233
858.064	3123
858.197	3195
858.331	3150
858.464	3062
858.597	3020
858.731	3097
858.864	3127
858.997	3058
859.13	3161
859.263	3146
859.396	3214
859.529	3104
859.662	3100
859.795	3043
859.928	3116
860.061	3275
860.194	3291
860.327	3116
860.46	3097
860.592	3230
860.725	3211
860.858	3230
860.99	3119
861.123	3039
861.256	3066
861.388	3138
861.521	3945
861.653	3020
861.786	2944
861.918	3020
862.05	3097
862.183	3119
862.315	3150
862.447	3207
862.58	3081
862.712	2986
862.844	2868
862.976	2998
863.108	2986
863.24	3306
863.372	2876
863.504	2956
863.636	2933
863.768	3032
863.9	2986
864.032	2922
864.164	2922
864.296	3032
864.428	3074
864.559	3104
864.691	3085
864.823	3081
864.954	3058
865.086	3062
865.217	2971
865.349	2929
865.48	2990
865.612	3009
865.743	3199
865.875	2998
866.006	2933
866.137	2960
866.269	2952
866.4	2922
866.531	2895
866.662	2914
866.793	2872
866.924	2876
867.055	2952
867.186	2910
867.317	2883
867.448	2830
867.579	2834
867.71	2876
867.841	2773
867.972	2887
868.103	2868
868.233	2880
868.364	2876
868.495	2868
868.625	3085
868.756	3146
868.886	2941
869.017	3028
869.147	3146
869.278	3176
869.408	3024
869.539	3039
869.669	3089
869.799	3001
869.929	3116
870.06	3077
870.19	3317
870.32	3336
870.45	3298
870.58	3363
870.71	3450
870.84	3466
870.97	3291
871.1	3218
871.23	3443
871.36	3435
871.489	3351
871.619	3363
871.749	3382
871.879	3443
872.008	3450
872.138	3359
872.267	3237
872.397	3138
872.526	3108
872.656	3009
872.785	3085
872.915	3199
873.044	3302
873.173	3237
873.303	3237
873.432	3211
873.561	3237
873.69	3161
873.819	3165
873.948	3192
874.077	3146
874.206	3077
874.335	3093
874.464	3207
874.593	3321
874.722	3264
874.851	3374
874.979	3325
875.108	3302
875.237	3165
875.365	3127
875.494	3154
875.623	3218
875.751	3085
875.88	3066
876.008	3192
876.136	3211
876.265	3382
876.393	3477
876.521	3378
876.65	3409
876.778	3351
876.906	3222
877.034	3150
877.162	3291
877.29	3192
877.418	3222
877.546	3245
877.674	3253
877.802	3233
877.93	3211
878.058	3119
878.185	3093
878.313	3199
878.441	3188
878.568	3074
878.696	3146
878.824	3275
878.951	3329
879.079	3458
879.206	3656
879.333	3416
879.461	3332
879.588	3329
879.715	3488
879.842	3584
879.97	3348
880.097	3207
880.224	3116
880.351	3176
880.478	3199
880.605	3188
880.732	3184
880.859	3500
880.986	3283
881.112	3313
881.239	3195
881.366	3097
881.493	3032
881.619	3032
881.746	3074
881.872	3100
881.999	3100
882.125	3104
882.252	3275
882.378	3283
882.505	3405
882.631	3272
882.757	3135
882.883	3230
883.01	3264
883.136	3154
883.262	3093
883.388	3116
883.514	3336
883.64	3370
883.766	3321
883.892	3180
884.018	3222
884.143	3428
884.269	3515
884.395	3222
884.52	3161
884.646	3192
884.772	3081
884.897	3093
885.023	3188
885.148	3317
885.274	3428
885.399	3336
885.524	3279
885.65	3249
885.775	3291
885.9	3275
886.025	3416
886.15	3370
886.275	3291
886.4	3230
886.525	3298
886.65	3287
886.775	3256
886.9	3504
887.025	3652
887.149	3428
887.274	3245
887.399	3154
887.523	3199
887.648	3184
887.773	3199
887.897	3348
888.021	3393
888.146	3287
888.27	3488
888.395	3530
888.519	3443
888.643	3443
888.767	3462
888.891	3336
889.015	3260
889.139	3264
889.263	3180
889.387	3389
889.511	3511
889.635	3450
889.759	3325
889.883	3302
890.006	3363
890.13	3477
890.254	3283
890.377	3340
890.501	3192
890.624	3218
890.748	3306
890.871	3199
890.995	3131
891.118	3028
891.241	3192
891.364	3214
891.488	3298
891.611	3150
891.734	3233
891.857	3260
891.98	3199
892.103	3348
892.226	3237
892.349	3192
892.471	3108
892.594	3211
892.717	3237
892.839	3275
892.962	3287
893.085	3355
893.207	3317
893.33	3161
893.452	3226
893.575	3348
893.697	3237
893.819	3431
893.941	3492
894.064	3469
894.186	3272
894.308	3283
894.43	3431
894.552	3526
894.674	3496
894.796	3279
894.918	3348
895.04	3287
895.161	3435
895.283	3389
895.405	3291
895.526	3355
895.648	3405
895.769	3412
895.891	3443
896.012	3473
896.134	3462
896.255	3416
896.376	3389
896.498	3340
896.619	3443
896.74	3332
896.861	3393
896.982	3660
897.103	3804
897.224	3622
897.345	3473
897.466	3420
897.587	3485
897.708	3663
897.828	3549
897.949	3450
898.07	3340
898.19	3401
898.311	3641
898.431	3412
898.552	3523
898.672	3648
898.792	3561
898.913	3507
899.033	3443
899.153	3298
899.273	3230
899.393	3310
899.513	3298
899.633	3306
899.753	3302
899.873	3310
899.993	3397
900.113	3355
900.232	3351
900.352	3325
900.472	3249
900.591	3199
900.711	3264
900.83	3256
900.95	3348
901.069	3481
901.189	3370
901.308	3192
901.427	3119
901.546	3180
901.665	3275
901.784	3275
901.904	3222
902.023	3100
902.141	3036
902.26	3009
902.379	3188
902.498	3089
902.617	3039
902.735	3173
902.854	3233
902.973	3176
903.091	3020
903.21	3058
903.328	3157
903.446	3138
903.565	3108
903.683	3188
903.801	3157
903.919	3260
904.038	3279
904.156	3203
904.274	3275
904.392	3264
904.51	3294
904.627	3351
904.745	3462
904.863	3485
904.981	3275
905.098	3176
905.216	3211
905.334	3313
905.451	3317
905.569	3321
905.686	3439
905.803	3428
905.921	3294
906.038	3389
906.155	3370
906.272	3283
906.389	3332
906.506	3233
906.623	3237
906.74	3287
906.857	3214
906.974	3260
907.091	3458
907.208	3534
907.324	3435
907.441	3389
907.557	3230
907.674	3233
907.79	3214
907.907	3279
908.023	3382
908.139	3389
908.256	3340
908.372	3382
908.488	3348
908.604	3230
908.72	3245
908.836	3306
908.952	3279
909.068	3321
909.184	3447
909.3	3367
909.415	3507
909.531	3500
909.647	3275
909.762	3272
909.878	3272
909.993	3397
910.108	3332
910.224	3340
910.339	3401
910.454	3340
910.57	3283
910.685	3192
910.8	3625
910.915	3542
911.03	3447
911.145	3291
911.259	3275
911.374	3313
911.489	3241
911.604	3230
911.718	3112
911.833	3135
911.947	3036
912.062	3005
912.176	3188
912.291	3233
912.405	3211
912.519	3458
912.633	3431
912.748	3340
912.862	3279
912.976	3165
913.09	3070
913.204	3150
913.318	3207
913.431	3351
913.545	3329
913.659	3428
913.772	3340
913.886	3218
914	3192
914.113	3344
914.226	3439
914.34	3348
914.453	3207
914.566	3412
914.68	3253
914.793	3287
914.906	3142
915.019	3127
915.132	3081
915.245	3169
915.358	3211
915.47	3211
915.583	3245
915.696	3302
915.809	3420
915.921	3450
916.034	3275
916.146	3253
916.259	3207
916.371	3389
916.483	3378
916.595	3260
916.708	3340
916.82	3294
916.932	3325
917.044	3351
917.156	3332
917.268	3291
917.38	3260
917.491	3268
917.603	3355
917.715	3458
917.826	3454
917.938	3393
918.049	3264
918.161	3416
918.272	3542
918.384	3587
918.495	3504
918.606	3344
918.717	3310
918.828	3344
918.939	3412
919.05	3287
919.161	3359
919.272	3211
919.383	3298
919.494	3477
919.604	3656
919.715	3435
919.826	3382
919.936	3443
920.047	3599
920.157	3500
920.267	3774
920.378	3618
920.488	3553
920.598	3789
920.708	3960
920.818	3838
920.928	3770
921.038	4044
921.148	3994
921.258	3766
921.368	3690
921.477	3591
921.587	3553
921.697	3466
921.806	3648
921.916	3515
922.025	3370
922.134	3397
922.244	3306
922.353	3416
922.462	3294
922.571	3241
922.68	3135
922.789	3085
922.898	3116
923.007	3074
923.116	3192
923.224	3184
923.333	3199
923.442	3093
923.55	3127
923.659	3135
923.767	3211
923.876	3104
923.984	3253
924.092	3123
924.201	3211
924.309	3256
924.417	3256
924.525	3226
924.633	3245
924.741	4215
924.849	3020
924.956	3283
925.064	3081
925.172	3058
925.279	3097
925.387	3195
925.494	3203
925.602	3378
925.709	3363
925.816	3180
925.924	3313
926.031	3340
926.138	3325
926.245	3355
926.352	3256
926.459	3389
926.566	3473
926.673	3306
926.779	3260
926.886	3199
926.993	3154
927.099	3085
927.206	3100
927.312	3135
927.419	3249
927.525	3226
927.631	3287
927.737	3169
927.843	3100
927.95	3009
928.056	3161
928.162	3165
928.267	3214
928.373	3800
928.479	3256
928.585	3051
928.69	3218
928.796	3279
928.901	3123
929.007	3055
929.112	3188
929.218	3146
929.323	3142
929.428	3157
929.533	3317
929.638	3104
929.743	3180
929.848	3253
929.953	3195
930.058	3157
930.163	2990
930.267	3055
930.372	3199
930.477	3043
930.581	3306
930.685	3157
930.79	3043
930.894	3100
930.998	3077
931.103	3268
931.207	2990
931.311	2952
931.415	2956
931.519	2796
931.623	2807
