Data from test_V78500241_1488.txt Node
Date: Fri Mar 25 16:25:30 CST 2022
User: usil
Spectrometer: V785-0024
Trigger mode: 0
Integration Time (sec): 4.000000E-1
Scans to average: 1
Nonlinearity correction enabled: false
Boxcar width: 0
Storing dark spectrum: false
XAxis mode: Wavelengths
Number of Pixels in Spectrum: 1024
>>>>>Begin Spectral Data<<<<<
801.071	2922
801.214	2979
801.356	2906
801.499	2933
801.641	2883
801.783	2929
801.926	3058
802.068	3009
802.211	3005
802.353	3077
802.496	2986
802.638	3043
802.78	3036
802.923	3119
803.065	3005
803.208	2925
803.35	2941
803.492	2975
803.635	2960
803.777	2773
803.919	2891
804.061	3211
804.204	2952
804.346	2906
804.488	2914
804.63	2982
804.773	2891
804.915	2891
805.057	3066
805.199	2925
805.341	2994
805.483	3036
805.626	2990
805.768	2967
805.91	3070
806.052	3119
806.194	3055
806.336	3245
806.478	3032
806.62	2948
806.762	2960
806.904	3039
807.046	3173
807.188	2994
807.33	2933
807.472	2982
807.614	2922
807.756	2998
807.898	2895
808.04	2868
808.182	2948
808.324	2925
808.465	2899
808.607	2864
808.749	2819
808.891	2906
809.033	2971
809.174	3005
809.316	2929
809.458	2876
809.6	2815
809.741	2762
809.883	2785
810.025	2826
810.166	2845
810.308	2845
810.45	2861
810.591	2758
810.733	2796
810.875	2876
811.016	2769
811.158	2769
811.299	2834
811.441	2925
811.582	2887
811.724	2845
811.865	2826
812.007	2922
812.148	2891
812.29	2811
812.431	2906
812.573	2937
812.714	2975
812.855	3062
812.997	3043
813.138	3127
813.279	3020
813.421	3001
813.562	2979
813.703	2880
813.845	2944
813.986	2766
814.127	2739
814.268	2845
814.41	2853
814.551	2811
814.692	2902
814.833	2842
814.974	2902
815.115	2998
815.256	2864
815.397	2830
815.539	2895
815.68	2815
815.821	2807
815.962	2960
816.103	2922
816.244	2880
816.385	2929
816.526	2941
816.666	2937
816.807	2750
816.948	2895
817.089	2899
817.23	2880
817.371	2796
817.512	2826
817.653	2842
817.793	2883
817.934	2902
818.075	2994
818.216	2971
818.356	3024
818.497	2914
818.638	2777
818.778	2849
818.919	2834
819.06	2792
819.2	2887
819.341	2819
819.481	2872
819.622	2952
819.762	3104
819.903	3077
820.043	2929
820.184	2902
820.324	2895
820.465	3013
820.605	3020
820.746	3070
820.886	2918
821.026	3112
821.167	3131
821.307	3283
821.447	3302
821.588	3237
821.728	3195
821.868	3230
822.008	3062
822.149	3237
822.289	3226
822.429	3112
822.569	3104
822.709	3127
822.849	2956
822.99	3055
823.13	3146
823.27	3199
823.41	3058
823.55	3135
823.69	3161
823.83	3199
823.97	3089
824.11	3013
824.25	3017
824.389	3074
824.529	3062
824.669	3020
824.809	3180
824.949	3241
825.089	3192
825.228	3192
825.368	2982
825.508	2967
825.648	2979
825.787	2967
825.927	3020
826.067	2986
826.206	2986
826.346	3039
826.485	3074
826.625	3131
826.765	3245
826.904	3214
827.044	3005
827.183	2906
827.323	2864
827.462	3013
827.601	2914
827.741	2956
827.88	2971
828.02	2838
828.159	2971
828.298	3066
828.437	3116
828.577	3085
828.716	3222
828.855	3074
828.994	2925
829.134	2906
829.273	2925
829.412	2861
829.551	2853
829.69	2922
829.829	2986
829.968	3127
830.107	3036
830.246	3017
830.385	2925
830.524	2902
830.663	2830
830.802	2762
830.941	2659
831.08	2640
831.219	2731
831.357	2743
831.496	2937
831.635	2716
831.774	2648
831.913	2678
832.051	2556
832.19	2575
832.329	2689
832.467	2541
832.606	2469
832.744	2583
832.883	2636
833.022	2594
833.16	2640
833.299	2667
833.437	2693
833.576	2648
833.714	2731
833.852	2720
833.991	2781
834.129	2823
834.267	2815
834.406	2823
834.544	2880
834.682	2876
834.821	2895
834.959	3074
835.097	2872
835.235	3058
835.373	3043
835.511	3005
835.65	2941
835.788	2941
835.926	2842
836.064	2823
836.202	2842
836.34	3093
836.478	3157
836.615	3039
836.753	3146
836.891	3192
837.029	3154
837.167	3138
837.305	3051
837.443	3047
837.58	2979
837.718	3161
837.856	3070
837.993	3062
838.131	3108
838.269	3123
838.406	3108
838.544	3104
838.681	2948
838.819	2929
838.956	2845
839.094	2807
839.231	2914
839.369	3043
839.506	3367
839.643	3249
839.781	2990
839.918	2956
840.055	3062
840.193	3058
840.33	3032
840.467	3093
840.604	3135
840.742	3416
840.879	3028
841.016	3055
841.153	3104
841.29	3344
841.427	3272
841.564	3264
841.701	3340
841.838	3256
841.975	3199
842.112	3207
842.249	3062
842.385	3032
842.522	3279
842.659	3074
842.796	3009
842.933	3123
843.069	3051
843.206	3028
843.343	3169
843.479	3074
843.616	3123
843.752	2891
843.889	2842
844.025	3085
844.162	2868
844.298	3074
844.435	2922
844.571	2925
844.708	3062
844.844	3188
844.98	3203
845.117	3184
845.253	3062
845.389	2994
845.525	3070
845.661	3112
845.798	2986
845.934	3097
846.07	3089
846.206	3218
846.342	3340
846.478	3249
846.614	3085
846.75	3024
846.886	3036
847.022	3245
847.158	3112
847.294	3192
847.429	3211
847.565	3230
847.701	3500
847.837	3051
847.972	2986
848.108	3161
848.244	3119
848.379	2956
848.515	2925
848.65	2956
848.786	2960
848.921	3013
849.057	3062
849.192	3188
849.328	3081
849.463	3131
849.598	3104
849.734	3062
849.869	2967
850.004	2963
850.14	2986
850.275	2925
850.41	2861
850.545	2902
850.68	2944
850.815	3001
850.95	3013
851.085	3184
851.22	3119
851.355	3077
851.49	3001
851.625	3036
851.76	3066
851.895	2925
852.03	2982
852.165	3032
852.299	3142
852.434	3214
852.569	3161
852.703	3195
852.838	3294
852.973	3359
853.107	3348
853.242	3211
853.376	3161
853.511	3005
853.645	3070
853.78	3275
853.914	3188
854.048	3100
854.183	3119
854.317	3214
854.451	3321
854.585	3176
854.72	3112
854.854	3241
854.988	3097
855.122	3081
855.256	3039
855.39	3165
855.524	3230
855.658	3192
855.792	3165
855.926	3222
856.06	3249
856.194	3272
856.327	3184
856.461	3112
856.595	3112
856.729	3119
856.862	3233
856.996	3150
857.13	3241
857.263	3260
857.397	3287
857.53	3161
857.664	3256
857.797	3264
857.931	3291
858.064	3203
858.197	3230
858.331	3188
858.464	3150
858.597	3043
858.731	3176
858.864	3199
858.997	3157
859.13	3184
859.263	3218
859.396	3237
859.529	3093
859.662	3100
859.795	3089
859.928	3165
860.061	3344
860.194	3306
860.327	3165
860.46	3104
860.592	3272
860.725	3275
860.858	3298
860.99	3184
861.123	3058
861.256	3081
861.388	3195
861.521	3888
861.653	3036
861.786	2986
861.918	3009
862.05	3089
862.183	3085
862.315	3188
862.447	3283
862.58	3131
862.712	2956
862.844	2933
862.976	3055
863.108	3055
863.24	3332
863.372	2925
863.504	2971
863.636	2982
863.768	3074
863.9	3024
864.032	2960
864.164	2967
864.296	3081
864.428	3093
864.559	3116
864.691	3093
864.823	3089
864.954	3047
865.086	3047
865.217	3036
865.349	3005
865.48	3036
865.612	3039
865.743	3169
865.875	3001
866.006	2948
866.137	3020
866.269	2998
866.4	2918
866.531	2971
866.662	2971
866.793	2956
866.924	2929
867.055	3005
867.186	2948
867.317	2933
867.448	2876
867.579	2887
867.71	2883
867.841	2815
867.972	2937
868.103	2937
868.233	2929
868.364	2906
868.495	2937
868.625	3176
868.756	3199
868.886	3001
869.017	3066
869.147	3199
869.278	3199
869.408	3085
869.539	3062
869.669	3142
869.799	3055
869.929	3157
870.06	3146
870.19	3382
870.32	3306
870.45	3367
870.58	3443
870.71	3450
870.84	3473
870.97	3298
871.1	3264
871.23	3492
871.36	3488
871.489	3431
871.619	3393
871.749	3428
871.879	3428
872.008	3519
872.138	3378
872.267	3310
872.397	3169
872.526	3142
872.656	3062
872.785	3138
872.915	3313
873.044	3321
873.173	3241
873.303	3291
873.432	3268
873.561	3287
873.69	3195
873.819	3142
873.948	3203
874.077	3131
874.206	3070
874.335	3108
874.464	3222
874.593	3336
874.722	3325
874.851	3386
874.979	3348
875.108	3340
875.237	3226
875.365	3173
875.494	3123
875.623	3260
875.751	3085
875.88	3150
876.008	3233
876.136	3264
876.265	3431
876.393	3523
876.521	3420
876.65	3420
876.778	3378
876.906	3321
877.034	3188
877.162	3268
877.29	3176
877.418	3310
877.546	3275
877.674	3275
877.802	3272
877.93	3233
878.058	3150
878.185	3127
878.313	3264
878.441	3214
878.568	3104
878.696	3161
878.824	3294
878.951	3351
879.079	3481
879.206	3610
879.333	3477
879.461	3367
879.588	3386
879.715	3515
879.842	3622
879.97	3450
880.097	3207
880.224	3157
880.351	3214
880.478	3218
880.605	3176
880.732	3256
880.859	3500
880.986	3306
881.112	3351
881.239	3222
881.366	3089
881.493	3100
881.619	3066
881.746	3097
881.872	3142
881.999	3142
882.125	3173
882.252	3245
882.378	3355
882.505	3450
882.631	3302
882.757	3135
882.883	3245
883.01	3268
883.136	3176
883.262	3116
883.388	3146
883.514	3310
883.64	3409
883.766	3386
883.892	3233
884.018	3264
884.143	3374
884.269	3564
884.395	3249
884.52	3142
884.646	3165
884.772	3112
884.897	3100
885.023	3214
885.148	3359
885.274	3462
885.399	3420
885.524	3287
885.65	3291
885.775	3344
885.9	3325
886.025	3466
886.15	3374
886.275	3275
886.4	3283
886.525	3344
886.65	3302
886.775	3272
886.9	3530
887.025	3648
887.149	3473
887.274	3275
887.399	3184
887.523	3199
887.648	3226
887.773	3188
887.897	3374
888.021	3416
888.146	3329
888.27	3466
888.395	3549
888.519	3477
888.643	3462
888.767	3485
888.891	3336
889.015	3268
889.139	3291
889.263	3249
889.387	3405
889.511	3538
889.635	3481
889.759	3306
889.883	3317
890.006	3393
890.13	3496
890.254	3283
890.377	3332
890.501	3241
890.624	3192
890.748	3344
890.871	3169
890.995	3131
891.118	3051
891.241	3207
891.364	3245
891.488	3355
891.611	3173
891.734	3226
891.857	3321
891.98	3268
892.103	3344
892.226	3253
892.349	3237
892.471	3135
892.594	3275
892.717	3313
892.839	3294
892.962	3294
893.085	3317
893.207	3332
893.33	3176
893.452	3173
893.575	3355
893.697	3237
893.819	3462
893.941	3515
894.064	3500
894.186	3291
894.308	3294
894.43	3439
894.552	3534
894.674	3469
894.796	3275
894.918	3332
895.04	3332
895.161	3420
895.283	3370
895.405	3291
895.526	3370
895.648	3450
895.769	3469
895.891	3458
896.012	3507
896.134	3496
896.255	3458
896.376	3397
896.498	3393
896.619	3450
896.74	3405
896.861	3454
896.982	3705
897.103	3869
897.224	3584
897.345	3545
897.466	3435
897.587	3519
897.708	3610
897.828	3545
897.949	3492
898.07	3344
898.19	3401
898.311	3603
898.431	3439
898.552	3526
898.672	3614
898.792	3576
898.913	3568
899.033	3412
899.153	3344
899.273	3211
899.393	3291
899.513	3310
899.633	3313
899.753	3378
899.873	3336
899.993	3389
900.113	3370
900.232	3386
900.352	3363
900.472	3332
900.591	3203
900.711	3294
900.83	3253
900.95	3424
901.069	3481
901.189	3344
901.308	3218
901.427	3123
901.546	3253
901.665	3317
901.784	3329
901.904	3195
902.023	3169
902.141	3043
902.26	2982
902.379	3131
902.498	3081
902.617	3066
902.735	3230
902.854	3241
902.973	3237
903.091	3066
903.21	3081
903.328	3135
903.446	3112
903.565	3100
903.683	3230
903.801	3089
903.919	3253
904.038	3291
904.156	3192
904.274	3313
904.392	3249
904.51	3287
904.627	3355
904.745	3443
904.863	3492
904.981	3302
905.098	3184
905.216	3256
905.334	3272
905.451	3291
905.569	3306
905.686	3412
905.803	3454
905.921	3313
906.038	3488
906.155	3386
906.272	3310
906.389	3332
906.506	3207
906.623	3272
906.74	3245
906.857	3195
906.974	3256
907.091	3454
907.208	3587
907.324	3485
907.441	3367
907.557	3226
907.674	3222
907.79	3207
907.907	3310
908.023	3378
908.139	3401
908.256	3355
908.372	3401
908.488	3386
908.604	3272
908.72	3275
908.836	3253
908.952	3287
909.068	3348
909.184	3515
909.3	3393
909.415	3515
909.531	3485
909.647	3260
909.762	3287
909.878	3302
909.993	3348
910.108	3310
910.224	3351
910.339	3428
910.454	3336
910.57	3329
910.685	3241
910.8	3599
910.915	3568
911.03	3447
911.145	3279
911.259	3321
911.374	3310
911.489	3272
911.604	3264
911.718	3112
911.833	3184
911.947	3051
912.062	3017
912.176	3173
912.291	3176
912.405	3222
912.519	3428
912.633	3435
912.748	3367
912.862	3275
912.976	3165
913.09	3104
913.204	3150
913.318	3203
913.431	3363
913.545	3370
913.659	3420
913.772	3348
913.886	3245
914	3165
914.113	3348
914.226	3447
914.34	3397
914.453	3214
914.566	3435
914.68	3302
914.793	3332
914.906	3138
915.019	3138
915.132	3047
915.245	3188
915.358	3180
915.47	3275
915.583	3260
915.696	3306
915.809	3439
915.921	3420
916.034	3230
916.146	3272
916.259	3192
916.371	3359
916.483	3389
916.595	3275
916.708	3325
916.82	3291
916.932	3348
917.044	3306
917.156	3344
917.268	3268
917.38	3306
917.491	3317
917.603	3378
917.715	3469
917.826	3458
917.938	3389
918.049	3294
918.161	3462
918.272	3572
918.384	3564
918.495	3492
918.606	3329
918.717	3291
918.828	3382
918.939	3389
919.05	3332
919.161	3428
919.272	3192
919.383	3264
919.494	3523
919.604	3663
919.715	3485
919.826	3412
919.936	3466
920.047	3580
920.157	3568
920.267	3793
920.378	3591
920.488	3561
920.598	3732
920.708	3987
920.818	3854
920.928	3831
921.038	4025
921.148	3972
921.258	3671
921.368	3625
921.477	3584
921.587	3545
921.697	3507
921.806	3644
921.916	3534
922.025	3363
922.134	3401
922.244	3340
922.353	3435
922.462	3275
922.571	3260
922.68	3093
922.789	3062
922.898	3123
923.007	3119
923.116	3241
923.224	3173
923.333	3176
923.442	3123
923.55	3112
923.659	3169
923.767	3233
923.876	3146
923.984	3233
924.092	3165
924.201	3207
924.309	3264
924.417	3256
924.525	3173
924.633	3222
924.741	4238
924.849	3074
924.956	3253
925.064	3131
925.172	3047
925.279	3097
925.387	3184
925.494	3214
925.602	3340
925.709	3351
925.816	3192
925.924	3302
926.031	3367
926.138	3374
926.245	3351
926.352	3268
926.459	3424
926.566	3488
926.673	3382
926.779	3264
926.886	3253
926.993	3112
927.099	3165
927.206	3112
927.312	3131
927.419	3241
927.525	3192
927.631	3249
927.737	3142
927.843	3146
927.95	3013
928.056	3146
928.162	3161
928.267	3249
928.373	3759
928.479	3310
928.585	3089
928.69	3192
928.796	3294
928.901	3188
929.007	3058
929.112	3165
929.218	3169
929.323	3161
929.428	3173
929.533	3378
929.638	3142
929.743	3214
929.848	3294
929.953	3203
930.058	3154
930.163	2982
930.267	3055
930.372	3230
930.477	3070
930.581	3329
930.685	3203
930.79	3039
930.894	3142
930.998	3097
931.103	3298
931.207	2944
931.311	2948
931.415	2922
931.519	2773
931.623	2819
