Data from test_V78500241_1110.txt Node
Date: Fri Mar 25 16:22:53 CST 2022
User: usil
Spectrometer: V785-0024
Trigger mode: 0
Integration Time (sec): 4.000000E-1
Scans to average: 1
Nonlinearity correction enabled: false
Boxcar width: 0
Storing dark spectrum: false
XAxis mode: Wavelengths
Number of Pixels in Spectrum: 1024
>>>>>Begin Spectral Data<<<<<
801.071	2963
801.214	2956
801.356	2868
801.499	2887
801.641	2872
801.783	2944
801.926	3039
802.068	2967
802.211	2994
802.353	3058
802.496	2956
802.638	3039
802.78	3051
802.923	3077
803.065	3074
803.208	2933
803.35	2937
803.492	2956
803.635	2929
803.777	2781
803.919	2834
804.061	3207
804.204	2986
804.346	2941
804.488	2845
804.63	2990
804.773	2887
804.915	2925
805.057	3089
805.199	2918
805.341	2979
805.483	3020
805.626	3024
805.768	2975
805.91	3116
806.052	3123
806.194	3104
806.336	3264
806.478	3047
806.62	2937
806.762	3009
806.904	3058
807.046	3176
807.188	2956
807.33	2914
807.472	3032
807.614	2918
807.756	3001
807.898	2975
808.04	2876
808.182	2975
808.324	2960
808.465	2899
808.607	2876
808.749	2804
808.891	2826
809.033	2982
809.174	2998
809.316	2876
809.458	2880
809.6	2773
809.741	2777
809.883	2769
810.025	2864
810.166	2853
810.308	2826
810.45	2826
810.591	2762
810.733	2769
810.875	2830
811.016	2743
811.158	2750
811.299	2834
811.441	2899
811.582	2941
811.724	2853
811.865	2785
812.007	2899
812.148	2868
812.29	2853
812.431	2895
812.573	2952
812.714	2990
812.855	3047
812.997	3051
813.138	3127
813.279	3039
813.421	3009
813.562	2925
813.703	2864
813.845	2895
813.986	2777
814.127	2766
814.268	2845
814.41	2868
814.551	2823
814.692	2853
814.833	2785
814.974	2902
815.115	2960
815.256	2872
815.397	2834
815.539	2876
815.68	2777
815.821	2781
815.962	2922
816.103	2918
816.244	2845
816.385	2887
816.526	2929
816.666	2906
816.807	2720
816.948	2899
817.089	2887
817.23	2883
817.371	2754
817.512	2754
817.653	2838
817.793	2792
817.934	2906
818.075	2948
818.216	2990
818.356	3024
818.497	2849
818.638	2796
818.778	2834
818.919	2746
819.06	2750
819.2	2883
819.341	2819
819.481	2834
819.622	2929
819.762	3085
819.903	3077
820.043	2925
820.184	2891
820.324	2895
820.465	3020
820.605	3047
820.746	3009
820.886	2956
821.026	3081
821.167	3150
821.307	3302
821.447	3264
821.588	3268
821.728	3272
821.868	3199
822.008	3123
822.149	3211
822.289	3264
822.429	3131
822.569	3108
822.709	3195
822.849	3036
822.99	3089
823.13	3192
823.27	3253
823.41	3150
823.55	3176
823.69	3131
823.83	3226
823.97	3112
824.11	2994
824.25	3032
824.389	3058
824.529	3150
824.669	3157
824.809	3176
824.949	3317
825.089	3230
825.228	3165
825.368	3085
825.508	2960
825.648	3028
825.787	3043
825.927	3013
826.067	2998
826.206	2998
826.346	3032
826.485	3108
826.625	3154
826.765	3340
826.904	3275
827.044	3036
827.183	2979
827.323	2906
827.462	3043
827.601	2960
827.741	2956
827.88	3005
828.02	2880
828.159	2998
828.298	3081
828.437	3150
828.577	3070
828.716	3272
828.855	3119
828.994	2937
829.134	2929
829.273	3009
829.412	2929
829.551	2891
829.69	2933
829.829	3028
829.968	3161
830.107	3043
830.246	3093
830.385	2990
830.524	2899
830.663	2872
830.802	2766
830.941	2678
831.08	2674
831.219	2796
831.357	2800
831.496	2956
831.635	2762
831.774	2674
831.913	2716
832.051	2590
832.19	2590
832.329	2762
832.467	2583
832.606	2507
832.744	2625
832.883	2632
833.022	2613
833.16	2670
833.299	2720
833.437	2766
833.576	2735
833.714	2762
833.852	2743
833.991	2807
834.129	2845
834.267	2868
834.406	2868
834.544	2891
834.682	2937
834.821	2880
834.959	3089
835.097	2906
835.235	3123
835.373	3024
835.511	3047
835.65	3013
835.788	3005
835.926	2838
836.064	2864
836.202	2895
836.34	3131
836.478	3195
836.615	3062
836.753	3184
836.891	3241
837.029	3146
837.167	3173
837.305	3077
837.443	3081
837.58	2963
837.718	3165
837.856	3085
837.993	3070
838.131	3146
838.269	3108
838.406	3154
838.544	3100
838.681	2975
838.819	2948
838.956	2823
839.094	2902
839.231	2960
839.369	3020
839.506	3420
839.643	3245
839.781	3081
839.918	3017
840.055	3074
840.193	3055
840.33	3100
840.467	3131
840.604	3157
840.742	3428
840.879	3070
841.016	3081
841.153	3093
841.29	3329
841.427	3302
841.564	3313
841.701	3325
841.838	3211
841.975	3218
842.112	3203
842.249	3085
842.385	3047
842.522	3283
842.659	3127
842.796	3077
842.933	3131
843.069	3112
843.206	3093
843.343	3230
843.479	3116
843.616	3119
843.752	2929
843.889	2899
844.025	3081
844.162	2922
844.298	3131
844.435	2998
844.571	2906
844.708	3104
844.844	3207
844.98	3291
845.117	3245
845.253	3066
845.389	3055
845.525	3097
845.661	3146
845.798	3036
845.934	3146
846.07	3100
846.206	3237
846.342	3370
846.478	3268
846.614	3097
846.75	3077
846.886	3032
847.022	3245
847.158	3127
847.294	3218
847.429	3226
847.565	3230
847.701	3542
847.837	3085
847.972	3005
848.108	3222
848.244	3154
848.379	3001
848.515	2956
848.65	2956
848.786	3009
848.921	3009
849.057	3150
849.192	3165
849.328	3070
849.463	3157
849.598	3055
849.734	3058
849.869	3005
850.004	2941
850.14	2990
850.275	2971
850.41	2853
850.545	2891
850.68	2963
850.815	2971
850.95	3013
851.085	3241
851.22	3131
851.355	3074
851.49	3013
851.625	3028
851.76	3039
851.895	2956
852.03	2948
852.165	3070
852.299	3146
852.434	3173
852.569	3165
852.703	3214
852.838	3272
852.973	3389
853.107	3348
853.242	3199
853.376	3138
853.511	3028
853.645	3047
853.78	3264
853.914	3138
854.048	3157
854.183	3097
854.317	3173
854.451	3340
854.585	3123
854.72	3104
854.854	3214
854.988	3055
855.122	3062
855.256	3009
855.39	3157
855.524	3241
855.658	3214
855.792	3184
855.926	3214
856.06	3249
856.194	3310
856.327	3222
856.461	3077
856.595	3112
856.729	3100
856.862	3222
856.996	3188
857.13	3237
857.263	3241
857.397	3302
857.53	3169
857.664	3230
857.797	3249
857.931	3268
858.064	3199
858.197	3226
858.331	3119
858.464	3104
858.597	3028
858.731	3188
858.864	3135
858.997	3108
859.13	3188
859.263	3192
859.396	3226
859.529	3112
859.662	3097
859.795	3028
859.928	3165
860.061	3313
860.194	3264
860.327	3116
860.46	3135
860.592	3260
860.725	3283
860.858	3310
860.99	3135
861.123	3097
861.256	3074
861.388	3161
861.521	3686
861.653	3036
861.786	3005
861.918	3028
862.05	3070
862.183	3146
862.315	3142
862.447	3253
862.58	3089
862.712	2944
862.844	2914
862.976	3036
863.108	3028
863.24	3428
863.372	2906
863.504	2998
863.636	2979
863.768	3024
863.9	3009
864.032	2941
864.164	2975
864.296	3051
864.428	3081
864.559	3116
864.691	3112
864.823	3081
864.954	3077
865.086	3047
865.217	3032
865.349	2956
865.48	3020
865.612	3001
865.743	3138
865.875	2975
866.006	2967
866.137	2971
866.269	2944
866.4	2922
866.531	2933
866.662	2937
866.793	2918
866.924	2910
867.055	3005
867.186	2941
867.317	2914
867.448	2868
867.579	2902
867.71	2849
867.841	2864
867.972	2937
868.103	2948
868.233	2887
868.364	2868
868.495	2925
868.625	3112
868.756	3188
868.886	3009
869.017	3043
869.147	3188
869.278	3169
869.408	3066
869.539	3062
869.669	3150
869.799	3062
869.929	3123
870.06	3123
870.19	3351
870.32	3325
870.45	3348
870.58	3409
870.71	3466
870.84	3443
870.97	3329
871.1	3264
871.23	3477
871.36	3492
871.489	3370
871.619	3450
871.749	3458
871.879	3477
872.008	3481
872.138	3378
872.267	3313
872.397	3157
872.526	3100
872.656	2994
872.785	3138
872.915	3237
873.044	3348
873.173	3207
873.303	3253
873.432	3245
873.561	3256
873.69	3161
873.819	3154
873.948	3207
874.077	3085
874.206	3085
874.335	3097
874.464	3214
874.593	3389
874.722	3294
874.851	3378
874.979	3359
875.108	3321
875.237	3203
875.365	3176
875.494	3188
875.623	3237
875.751	3058
875.88	3150
876.008	3169
876.136	3233
876.265	3401
876.393	3538
876.521	3439
876.65	3401
876.778	3370
876.906	3268
877.034	3199
877.162	3222
877.29	3157
877.418	3268
877.546	3268
877.674	3226
877.802	3256
877.93	3260
878.058	3157
878.185	3123
878.313	3230
878.441	3230
878.568	3074
878.696	3188
878.824	3287
878.951	3310
879.079	3488
879.206	3656
879.333	3447
879.461	3348
879.588	3367
879.715	3466
879.842	3606
879.97	3420
880.097	3188
880.224	3157
880.351	3214
880.478	3199
880.605	3237
880.732	3207
880.859	3481
880.986	3351
881.112	3321
881.239	3237
881.366	3108
881.493	3070
881.619	3024
881.746	3081
881.872	3135
881.999	3116
882.125	3180
882.252	3287
882.378	3268
882.505	3424
882.631	3291
882.757	3169
882.883	3256
883.01	3218
883.136	3176
883.262	3108
883.388	3142
883.514	3310
883.64	3393
883.766	3359
883.892	3211
884.018	3253
884.143	3443
884.269	3587
884.395	3207
884.52	3192
884.646	3226
884.772	3138
884.897	3127
885.023	3218
885.148	3336
885.274	3420
885.399	3409
885.524	3336
885.65	3253
885.775	3294
885.9	3283
886.025	3481
886.15	3374
886.275	3359
886.4	3226
886.525	3275
886.65	3310
886.775	3313
886.9	3530
887.025	3599
887.149	3397
887.274	3245
887.399	3188
887.523	3199
887.648	3222
887.773	3241
887.897	3340
888.021	3435
888.146	3294
888.27	3435
888.395	3561
888.519	3412
888.643	3447
888.767	3496
888.891	3321
889.015	3264
889.139	3317
889.263	3207
889.387	3405
889.511	3523
889.635	3458
889.759	3294
889.883	3321
890.006	3389
890.13	3485
890.254	3287
890.377	3363
890.501	3199
890.624	3199
890.748	3298
890.871	3192
890.995	3100
891.118	3074
891.241	3211
891.364	3249
891.488	3348
891.611	3199
891.734	3230
891.857	3317
891.98	3264
892.103	3310
892.226	3268
892.349	3188
892.471	3119
892.594	3241
892.717	3298
892.839	3287
892.962	3287
893.085	3359
893.207	3294
893.33	3173
893.452	3222
893.575	3359
893.697	3237
893.819	3485
893.941	3469
894.064	3477
894.186	3279
894.308	3260
894.43	3424
894.552	3584
894.674	3473
894.796	3272
894.918	3302
895.04	3298
895.161	3443
895.283	3389
895.405	3321
895.526	3412
895.648	3393
895.769	3439
895.891	3458
896.012	3526
896.134	3469
896.255	3462
896.376	3393
896.498	3359
896.619	3435
896.74	3382
896.861	3382
896.982	3701
897.103	3873
897.224	3622
897.345	3542
897.466	3439
897.587	3477
897.708	3614
897.828	3568
897.949	3443
898.07	3332
898.19	3393
898.311	3584
898.431	3431
898.552	3545
898.672	3595
898.792	3629
898.913	3542
899.033	3428
899.153	3272
899.273	3233
899.393	3325
899.513	3363
899.633	3310
899.753	3325
899.873	3310
899.993	3386
900.113	3321
900.232	3389
900.352	3317
900.472	3298
900.591	3211
900.711	3310
900.83	3237
900.95	3431
901.069	3519
901.189	3359
901.308	3161
901.427	3135
901.546	3161
901.665	3321
901.784	3325
901.904	3169
902.023	3157
902.141	3032
902.26	3028
902.379	3165
902.498	3089
902.617	3093
902.735	3237
902.854	3268
902.973	3165
903.091	3097
903.21	3066
903.328	3173
903.446	3112
903.565	3127
903.683	3199
903.801	3127
903.919	3230
904.038	3272
904.156	3169
904.274	3317
904.392	3275
904.51	3283
904.627	3355
904.745	3462
904.863	3530
904.981	3283
905.098	3169
905.216	3249
905.334	3272
905.451	3367
905.569	3302
905.686	3420
905.803	3431
905.921	3306
906.038	3458
906.155	3355
906.272	3283
906.389	3340
906.506	3214
906.623	3253
906.74	3279
906.857	3192
906.974	3310
907.091	3454
907.208	3561
907.324	3496
907.441	3393
907.557	3233
907.674	3275
907.79	3230
907.907	3256
908.023	3393
908.139	3382
908.256	3310
908.372	3378
908.488	3359
908.604	3249
908.72	3245
908.836	3283
908.952	3302
909.068	3332
909.184	3496
909.3	3393
909.415	3561
909.531	3466
909.647	3302
909.762	3325
909.878	3264
909.993	3283
910.108	3363
910.224	3386
910.339	3405
910.454	3313
910.57	3294
910.685	3230
910.8	3603
910.915	3557
911.03	3439
911.145	3291
911.259	3264
911.374	3310
911.489	3253
911.604	3287
911.718	3131
911.833	3154
911.947	3062
912.062	3001
912.176	3142
912.291	3241
912.405	3233
912.519	3424
912.633	3447
912.748	3386
912.862	3275
912.976	3157
913.09	3062
913.204	3146
913.318	3226
913.431	3340
913.545	3351
913.659	3428
913.772	3321
913.886	3226
914	3176
914.113	3367
914.226	3397
914.34	3378
914.453	3237
914.566	3443
914.68	3275
914.793	3291
914.906	3176
915.019	3097
915.132	3047
915.245	3157
915.358	3192
915.47	3253
915.583	3310
915.696	3294
915.809	3389
915.921	3416
916.034	3275
916.146	3253
916.259	3272
916.371	3386
916.483	3363
916.595	3249
916.708	3370
916.82	3363
916.932	3340
917.044	3359
917.156	3336
917.268	3241
917.38	3260
917.491	3313
917.603	3389
917.715	3473
917.826	3439
917.938	3336
918.049	3264
918.161	3424
918.272	3561
918.384	3568
918.495	3485
918.606	3332
918.717	3279
918.828	3367
918.939	3424
919.05	3351
919.161	3382
919.272	3184
919.383	3279
919.494	3473
919.604	3675
919.715	3519
919.826	3412
919.936	3447
920.047	3618
920.157	3545
920.267	3797
920.378	3584
920.488	3580
920.598	3762
920.708	3960
920.818	3819
920.928	3819
921.038	3975
921.148	4017
921.258	3705
921.368	3641
921.477	3538
921.587	3542
921.697	3488
921.806	3599
921.916	3515
922.025	3363
922.134	3386
922.244	3321
922.353	3424
922.462	3272
922.571	3211
922.68	3116
922.789	3085
922.898	3150
923.007	3085
923.116	3230
923.224	3203
923.333	3188
923.442	3123
923.55	3055
923.659	3150
923.767	3256
923.876	3123
923.984	3249
924.092	3085
924.201	3192
924.309	3211
924.417	3279
924.525	3233
924.633	3184
924.741	4021
924.849	3039
924.956	3294
925.064	3074
925.172	3024
925.279	3085
925.387	3218
925.494	3207
925.602	3359
925.709	3321
925.816	3180
925.924	3268
926.031	3336
926.138	3367
926.245	3329
926.352	3230
926.459	3397
926.566	3450
926.673	3332
926.779	3272
926.886	3218
926.993	3135
927.099	3100
927.206	3104
927.312	3138
927.419	3237
927.525	3222
927.631	3268
927.737	3165
927.843	3104
927.95	3051
928.056	3112
928.162	3173
928.267	3260
928.373	3903
928.479	3302
928.585	3051
928.69	3260
928.796	3268
928.901	3150
929.007	3047
929.112	3218
929.218	3199
929.323	3138
929.428	3131
929.533	3313
929.638	3123
929.743	3146
929.848	3294
929.953	3207
930.058	3161
930.163	3020
930.267	3043
930.372	3195
930.477	3017
930.581	3370
930.685	3207
930.79	3028
930.894	3097
930.998	3138
931.103	3306
931.207	2963
931.311	2937
931.415	2910
931.519	2762
931.623	2800
