Data from test_V78500241_1776.txt Node
Date: Fri Mar 25 16:27:30 CST 2022
User: usil
Spectrometer: V785-0024
Trigger mode: 0
Integration Time (sec): 4.000000E-1
Scans to average: 1
Nonlinearity correction enabled: false
Boxcar width: 0
Storing dark spectrum: false
XAxis mode: Wavelengths
Number of Pixels in Spectrum: 1024
>>>>>Begin Spectral Data<<<<<
801.071	2895
801.214	2925
801.356	2842
801.499	2906
801.641	2853
801.783	2922
801.926	3085
802.068	2979
802.211	3024
802.353	3013
802.496	2941
802.638	3013
802.78	3051
802.923	3074
803.065	3017
803.208	2883
803.35	2929
803.492	2956
803.635	2937
803.777	2746
803.919	2891
804.061	3214
804.204	2971
804.346	2910
804.488	2864
804.63	2963
804.773	2887
804.915	2929
805.057	3112
805.199	2914
805.341	2960
805.483	3028
805.626	3066
805.768	2948
805.91	3119
806.052	3100
806.194	3047
806.336	3253
806.478	3032
806.62	2971
806.762	2975
806.904	3039
807.046	3199
807.188	2986
807.33	2922
807.472	2998
807.614	2910
807.756	2994
807.898	2956
808.04	2880
808.182	3020
808.324	2960
808.465	2887
808.607	2899
808.749	2815
808.891	2838
809.033	2967
809.174	2994
809.316	2891
809.458	2861
809.6	2758
809.741	2766
809.883	2769
810.025	2838
810.166	2861
810.308	2872
810.45	2845
810.591	2785
810.733	2777
810.875	2861
811.016	2804
811.158	2750
811.299	2769
811.441	2948
811.582	2910
811.724	2842
811.865	2815
812.007	2914
812.148	2902
812.29	2830
812.431	2880
812.573	2944
812.714	2967
812.855	3055
812.997	3058
813.138	3127
813.279	3039
813.421	2990
813.562	2975
813.703	2872
813.845	2887
813.986	2788
814.127	2701
814.268	2811
814.41	2842
814.551	2853
814.692	2857
814.833	2830
814.974	2902
815.115	2956
815.256	2845
815.397	2815
815.539	2864
815.68	2800
815.821	2788
815.962	2906
816.103	2941
816.244	2918
816.385	2826
816.526	2952
816.666	2925
816.807	2769
816.948	2872
817.089	2933
817.23	2826
817.371	2739
817.512	2819
817.653	2845
817.793	2834
817.934	2891
818.075	2971
818.216	2990
818.356	3028
818.497	2918
818.638	2792
818.778	2880
818.919	2800
819.06	2746
819.2	2887
819.341	2845
819.481	2796
819.622	2971
819.762	3112
819.903	3039
820.043	2929
820.184	2891
820.324	2891
820.465	3013
820.605	3013
820.746	3005
820.886	2937
821.026	3089
821.167	3150
821.307	3279
821.447	3325
821.588	3245
821.728	3199
821.868	3203
822.008	3043
822.149	3180
822.289	3237
822.429	3074
822.569	3097
822.709	3207
822.849	3001
822.99	3081
823.13	3176
823.27	3211
823.41	3089
823.55	3161
823.69	3192
823.83	3188
823.97	3123
824.11	3001
824.25	2967
824.389	3085
824.529	3127
824.669	3032
824.809	3180
824.949	3253
825.089	3211
825.228	3138
825.368	2979
825.508	2982
825.648	2990
825.787	3005
825.927	2998
826.067	3017
826.206	2956
826.346	3062
826.485	3055
826.625	3074
826.765	3264
826.904	3222
827.044	2990
827.183	2971
827.323	2826
827.462	2990
827.601	2952
827.741	2902
827.88	2948
828.02	2845
828.159	2986
828.298	3020
828.437	3100
828.577	3024
828.716	3272
828.855	3085
828.994	2929
829.134	2826
829.273	2937
829.412	2864
829.551	2861
829.69	2902
829.829	2998
829.968	3131
830.107	2990
830.246	3001
830.385	2929
830.524	2891
830.663	2777
830.802	2689
830.941	2625
831.08	2644
831.219	2781
831.357	2727
831.496	2937
831.635	2743
831.774	2648
831.913	2667
832.051	2575
832.19	2583
832.329	2667
832.467	2541
832.606	2461
832.744	2564
832.883	2579
833.022	2583
833.16	2655
833.299	2701
833.437	2686
833.576	2678
833.714	2720
833.852	2724
833.991	2746
834.129	2826
834.267	2830
834.406	2804
834.544	2880
834.682	2880
834.821	2887
834.959	3001
835.097	2880
835.235	3058
835.373	3013
835.511	2998
835.65	2952
835.788	2952
835.926	2853
836.064	2777
836.202	2834
836.34	3127
836.478	3119
836.615	3028
836.753	3104
836.891	3176
837.029	3173
837.167	3116
837.305	3062
837.443	3055
837.58	2963
837.718	3138
837.856	3058
837.993	3047
838.131	3131
838.269	3104
838.406	3104
838.544	3100
838.681	2933
838.819	2922
838.956	2815
839.094	2807
839.231	2918
839.369	2982
839.506	3378
839.643	3226
839.781	3017
839.918	2956
840.055	3058
840.193	3020
840.33	3032
840.467	3123
840.604	3154
840.742	3374
840.879	3074
841.016	3047
841.153	3085
841.29	3310
841.427	3302
841.564	3287
841.701	3310
841.838	3214
841.975	3184
842.112	3226
842.249	3093
842.385	3051
842.522	3249
842.659	3047
842.796	3066
842.933	3089
843.069	3055
843.206	3020
843.343	3150
843.479	3116
843.616	3150
843.752	2895
843.889	2842
844.025	3070
844.162	2918
844.298	3074
844.435	2906
844.571	2902
844.708	3077
844.844	3180
844.98	3245
845.117	3150
845.253	3062
845.389	3005
845.525	3142
845.661	3093
845.798	3028
845.934	3135
846.07	3062
846.206	3195
846.342	3302
846.478	3195
846.614	3108
846.75	3051
846.886	3017
847.022	3241
847.158	3100
847.294	3226
847.429	3222
847.565	3211
847.701	3447
847.837	3024
847.972	2986
848.108	3142
848.244	3161
848.379	2956
848.515	2933
848.65	2933
848.786	2963
848.921	3009
849.057	3089
849.192	3135
849.328	3100
849.463	3081
849.598	3036
849.734	3028
849.869	2994
850.004	2922
850.14	2971
850.275	2910
850.41	2826
850.545	2891
850.68	2956
850.815	2941
850.95	2998
851.085	3188
851.22	3043
851.355	3043
851.49	2979
851.625	3001
851.76	3024
851.895	2914
852.03	2910
852.165	3032
852.299	3074
852.434	3169
852.569	3119
852.703	3169
852.838	3253
852.973	3298
853.107	3325
853.242	3138
853.376	3085
853.511	2960
853.645	3039
853.78	3241
853.914	3116
854.048	3085
854.183	3070
854.317	3135
854.451	3325
854.585	3138
854.72	3077
854.854	3237
854.988	3066
855.122	3104
855.256	2960
855.39	3142
855.524	3233
855.658	3176
855.792	3157
855.926	3199
856.06	3226
856.194	3302
856.327	3165
856.461	3074
856.595	3055
856.729	3066
856.862	3199
856.996	3127
857.13	3203
857.263	3222
857.397	3283
857.53	3066
857.664	3195
857.797	3272
857.931	3222
858.064	3173
858.197	3214
858.331	3127
858.464	3085
858.597	2998
858.731	3077
858.864	3119
858.997	3074
859.13	3131
859.263	3157
859.396	3207
859.529	3108
859.662	3047
859.795	3047
859.928	3089
860.061	3256
860.194	3310
860.327	3112
860.46	3089
860.592	3233
860.725	3256
860.858	3241
860.99	3116
861.123	3058
861.256	3028
861.388	3154
861.521	3896
861.653	3013
861.786	2982
861.918	2990
862.05	3058
862.183	3104
862.315	3165
862.447	3184
862.58	3108
862.712	2944
862.844	2883
862.976	3020
863.108	2971
863.24	3302
863.372	2834
863.504	2922
863.636	2918
863.768	3036
863.9	3001
864.032	2864
864.164	2948
864.296	2998
864.428	3062
864.559	3093
864.691	3039
864.823	3051
864.954	3032
865.086	3009
865.217	2979
865.349	2910
865.48	2986
865.612	3024
865.743	3135
865.875	2967
866.006	2956
866.137	3020
866.269	2906
866.4	2902
866.531	2922
866.662	2887
866.793	2880
866.924	2902
867.055	2963
867.186	2899
867.317	2857
867.448	2785
867.579	2853
867.71	2838
867.841	2819
867.972	2887
868.103	2910
868.233	2868
868.364	2857
868.495	2883
868.625	3112
868.756	3138
868.886	2948
869.017	3001
869.147	3165
869.278	3195
869.408	3055
869.539	3036
869.669	3093
869.799	3047
869.929	3119
870.06	3104
870.19	3332
870.32	3275
870.45	3298
870.58	3344
870.71	3439
870.84	3428
870.97	3279
871.1	3233
871.23	3443
871.36	3458
871.489	3355
871.619	3370
871.749	3389
871.879	3439
872.008	3458
872.138	3363
872.267	3237
872.397	3138
872.526	3104
872.656	3020
872.785	3077
872.915	3253
873.044	3306
873.173	3188
873.303	3237
873.432	3214
873.561	3214
873.69	3169
873.819	3146
873.948	3180
874.077	3085
874.206	3066
874.335	3066
874.464	3230
874.593	3325
874.722	3272
874.851	3393
874.979	3298
875.108	3317
875.237	3211
875.365	3161
875.494	3127
875.623	3241
875.751	3028
875.88	3138
876.008	3161
876.136	3230
876.265	3336
876.393	3492
876.521	3416
876.65	3367
876.778	3294
876.906	3268
877.034	3184
877.162	3207
877.29	3180
877.418	3256
877.546	3253
877.674	3218
877.802	3230
877.93	3222
878.058	3123
878.185	3135
878.313	3161
878.441	3211
878.568	3100
878.696	3157
878.824	3275
878.951	3279
879.079	3405
879.206	3610
879.333	3435
879.461	3336
879.588	3386
879.715	3485
879.842	3610
879.97	3420
880.097	3150
880.224	3093
880.351	3173
880.478	3237
880.605	3188
880.732	3157
880.859	3492
880.986	3298
881.112	3317
881.239	3176
881.366	3070
881.493	3039
881.619	3020
881.746	3055
881.872	3043
881.999	3135
882.125	3150
882.252	3275
882.378	3279
882.505	3450
882.631	3272
882.757	3150
882.883	3222
883.01	3222
883.136	3138
883.262	3058
883.388	3085
883.514	3336
883.64	3386
883.766	3317
883.892	3207
884.018	3222
884.143	3405
884.269	3500
884.395	3230
884.52	3146
884.646	3154
884.772	3116
884.897	3093
885.023	3184
885.148	3298
885.274	3405
885.399	3374
885.524	3313
885.65	3256
885.775	3275
885.9	3256
886.025	3447
886.15	3336
886.275	3272
886.4	3214
886.525	3302
886.65	3249
886.775	3260
886.9	3507
887.025	3637
887.149	3431
887.274	3253
887.399	3184
887.523	3180
887.648	3237
887.773	3157
887.897	3370
888.021	3370
888.146	3283
888.27	3431
888.395	3564
888.519	3435
888.643	3469
888.767	3469
888.891	3287
889.015	3256
889.139	3268
889.263	3226
889.387	3405
889.511	3485
889.635	3420
889.759	3275
889.883	3287
890.006	3382
890.13	3473
890.254	3306
890.377	3317
890.501	3184
890.624	3165
890.748	3302
890.871	3173
890.995	3108
891.118	3085
891.241	3169
891.364	3230
891.488	3310
891.611	3176
891.734	3188
891.857	3287
891.98	3253
892.103	3336
892.226	3275
892.349	3222
892.471	3146
892.594	3253
892.717	3268
892.839	3264
892.962	3264
893.085	3355
893.207	3268
893.33	3146
893.452	3237
893.575	3329
893.697	3226
893.819	3447
893.941	3526
894.064	3450
894.186	3237
894.308	3249
894.43	3428
894.552	3526
894.674	3462
894.796	3268
894.918	3302
895.04	3313
895.161	3466
895.283	3370
895.405	3283
895.526	3386
895.648	3409
895.769	3401
895.891	3447
896.012	3473
896.134	3469
896.255	3386
896.376	3374
896.498	3344
896.619	3409
896.74	3359
896.861	3420
896.982	3652
897.103	3804
897.224	3595
897.345	3507
897.466	3367
897.587	3477
897.708	3660
897.828	3545
897.949	3428
898.07	3336
898.19	3416
898.311	3545
898.431	3473
898.552	3515
898.672	3606
898.792	3538
898.913	3511
899.033	3397
899.153	3256
899.273	3218
899.393	3275
899.513	3329
899.633	3332
899.753	3317
899.873	3302
899.993	3351
900.113	3344
900.232	3359
900.352	3321
900.472	3249
900.591	3207
900.711	3291
900.83	3253
900.95	3424
901.069	3511
901.189	3321
901.308	3104
901.427	3142
901.546	3207
901.665	3256
901.784	3363
901.904	3188
902.023	3150
902.141	3047
902.26	2982
902.379	3108
902.498	3089
902.617	3093
902.735	3211
902.854	3188
902.973	3214
903.091	3017
903.21	3074
903.328	3127
903.446	3116
903.565	3074
903.683	3207
903.801	3074
903.919	3237
904.038	3245
904.156	3154
904.274	3313
904.392	3256
904.51	3294
904.627	3363
904.745	3424
904.863	3530
904.981	3275
905.098	3169
905.216	3233
905.334	3279
905.451	3310
905.569	3287
905.686	3420
905.803	3435
905.921	3283
906.038	3420
906.155	3332
906.272	3249
906.389	3329
906.506	3222
906.623	3256
906.74	3279
906.857	3180
906.974	3211
907.091	3454
907.208	3549
907.324	3492
907.441	3378
907.557	3279
907.674	3233
907.79	3180
907.907	3291
908.023	3409
908.139	3355
908.256	3325
908.372	3374
908.488	3321
908.604	3260
908.72	3195
908.836	3306
908.952	3283
909.068	3355
909.184	3435
909.3	3374
909.415	3477
909.531	3443
909.647	3291
909.762	3302
909.878	3291
909.993	3359
910.108	3348
910.224	3313
910.339	3393
910.454	3306
910.57	3306
910.685	3222
910.8	3545
910.915	3500
911.03	3409
911.145	3237
911.259	3237
911.374	3321
911.489	3230
911.604	3199
911.718	3100
911.833	3157
911.947	3020
912.062	2990
912.176	3135
912.291	3192
912.405	3188
912.519	3428
912.633	3466
912.748	3310
912.862	3249
912.976	3131
913.09	3074
913.204	3161
913.318	3199
913.431	3329
913.545	3306
913.659	3397
913.772	3348
913.886	3188
914	3207
914.113	3348
914.226	3439
914.34	3329
914.453	3230
914.566	3405
914.68	3317
914.793	3294
914.906	3165
915.019	3100
915.132	3093
915.245	3135
915.358	3199
915.47	3154
915.583	3256
915.696	3264
915.809	3416
915.921	3382
916.034	3256
916.146	3264
916.259	3218
916.371	3397
916.483	3363
916.595	3268
916.708	3310
916.82	3355
916.932	3359
917.044	3313
917.156	3348
917.268	3249
917.38	3298
917.491	3275
917.603	3363
917.715	3477
917.826	3469
917.938	3405
918.049	3268
918.161	3462
918.272	3572
918.384	3542
918.495	3492
918.606	3325
918.717	3272
918.828	3409
918.939	3401
919.05	3260
919.161	3355
919.272	3188
919.383	3336
919.494	3507
919.604	3698
919.715	3496
919.826	3393
919.936	3435
920.047	3572
920.157	3549
920.267	3785
920.378	3584
920.488	3542
920.598	3759
920.708	3896
920.818	3838
920.928	3785
921.038	4051
921.148	3983
921.258	3705
921.368	3644
921.477	3595
921.587	3515
921.697	3416
921.806	3644
921.916	3534
922.025	3351
922.134	3332
922.244	3275
922.353	3431
922.462	3253
922.571	3249
922.68	3131
922.789	3108
922.898	3146
923.007	3058
923.116	3180
923.224	3195
923.333	3192
923.442	3070
923.55	3081
923.659	3127
923.767	3203
923.876	3097
923.984	3192
924.092	3089
924.201	3214
924.309	3188
924.417	3241
924.525	3195
924.633	3268
924.741	4025
924.849	3055
924.956	3233
925.064	3097
925.172	3039
925.279	3104
925.387	3203
925.494	3233
925.602	3359
925.709	3332
925.816	3222
925.924	3256
926.031	3382
926.138	3283
926.245	3351
926.352	3211
926.459	3397
926.566	3454
926.673	3313
926.779	3260
926.886	3230
926.993	3154
927.099	3127
927.206	3097
927.312	3116
927.419	3222
927.525	3211
927.631	3245
927.737	3154
927.843	3100
927.95	3005
928.056	3135
928.162	3195
928.267	3245
928.373	3857
928.479	3325
928.585	3066
928.69	3199
928.796	3264
928.901	3138
929.007	3051
929.112	3207
929.218	3138
929.323	3135
929.428	3127
929.533	3363
929.638	3108
929.743	3146
929.848	3237
929.953	3233
930.058	3169
930.163	2975
930.267	3058
930.372	3207
930.477	3036
930.581	3294
930.685	3184
930.79	3039
930.894	3123
930.998	3070
931.103	3298
931.207	2960
931.311	2944
931.415	2948
931.519	2777
931.623	2823
