Data from test_V78500241_1789.txt Node
Date: Fri Mar 25 16:27:35 CST 2022
User: usil
Spectrometer: V785-0024
Trigger mode: 0
Integration Time (sec): 4.000000E-1
Scans to average: 1
Nonlinearity correction enabled: false
Boxcar width: 0
Storing dark spectrum: false
XAxis mode: Wavelengths
Number of Pixels in Spectrum: 1024
>>>>>Begin Spectral Data<<<<<
801.071	2914
801.214	2963
801.356	2864
801.499	2922
801.641	2899
801.783	2937
801.926	3032
802.068	2967
802.211	3032
802.353	3077
802.496	2971
802.638	3032
802.78	3017
802.923	3097
803.065	2986
803.208	2914
803.35	2933
803.492	2914
803.635	2960
803.777	2750
803.919	2849
804.061	3214
804.204	2948
804.346	2922
804.488	2834
804.63	2975
804.773	2880
804.915	2918
805.057	3085
805.199	2963
805.341	2982
805.483	3043
805.626	3028
805.768	2975
805.91	3100
806.052	3127
806.194	3066
806.336	3256
806.478	2998
806.62	2998
806.762	2956
806.904	3047
807.046	3161
807.188	2998
807.33	2895
807.472	2994
807.614	2910
807.756	3005
807.898	2910
808.04	2872
808.182	2990
808.324	3001
808.465	2899
808.607	2902
808.749	2785
808.891	2891
809.033	3017
809.174	2967
809.316	2880
809.458	2887
809.6	2785
809.741	2788
809.883	2762
810.025	2845
810.166	2872
810.308	2853
810.45	2868
810.591	2766
810.733	2785
810.875	2815
811.016	2781
811.158	2773
811.299	2823
811.441	2899
811.582	2899
811.724	2823
811.865	2815
812.007	2906
812.148	2842
812.29	2838
812.431	2910
812.573	2941
812.714	2933
812.855	3051
812.997	3077
813.138	3142
813.279	3017
813.421	2975
813.562	2941
813.703	2880
813.845	2906
813.986	2754
814.127	2739
814.268	2785
814.41	2834
814.551	2800
814.692	2861
814.833	2788
814.974	2944
815.115	2956
815.256	2796
815.397	2819
815.539	2861
815.68	2769
815.821	2781
815.962	2929
816.103	2933
816.244	2876
816.385	2857
816.526	2971
816.666	2883
816.807	2750
816.948	2876
817.089	2906
817.23	2864
817.371	2777
817.512	2792
817.653	2823
817.793	2811
817.934	2857
818.075	2998
818.216	3005
818.356	3020
818.497	2887
818.638	2773
818.778	2830
818.919	2750
819.06	2746
819.2	2872
819.341	2815
819.481	2781
819.622	2933
819.762	3097
819.903	3032
820.043	2944
820.184	2906
820.324	2861
820.465	2998
820.605	3009
820.746	3032
820.886	2906
821.026	3116
821.167	3154
821.307	3245
821.447	3283
821.588	3241
821.728	3176
821.868	3230
822.008	3077
822.149	3180
822.289	3249
822.429	3100
822.569	3127
822.709	3195
822.849	3047
822.99	3058
823.13	3230
823.27	3188
823.41	3169
823.55	3157
823.69	3169
823.83	3218
823.97	3119
824.11	3020
824.25	3051
824.389	3127
824.529	3146
824.669	3119
824.809	3218
824.949	3260
825.089	3272
825.228	3157
825.368	3028
825.508	2967
825.648	3017
825.787	3051
825.927	3043
826.067	2986
826.206	2967
826.346	3100
826.485	3119
826.625	3165
826.765	3294
826.904	3306
827.044	3013
827.183	2979
827.323	2887
827.462	3039
827.601	2960
827.741	2975
827.88	2975
828.02	2895
828.159	3009
828.298	3055
828.437	3157
828.577	3089
828.716	3249
828.855	3097
828.994	2929
829.134	2956
829.273	2963
829.412	2876
829.551	2880
829.69	2933
829.829	3032
829.968	3180
830.107	3081
830.246	3039
830.385	2941
830.524	2956
830.663	2838
830.802	2807
830.941	2659
831.08	2708
831.219	2777
831.357	2766
831.496	2994
831.635	2785
831.774	2697
831.913	2686
832.051	2587
832.19	2617
832.329	2716
832.467	2590
832.606	2533
832.744	2632
832.883	2621
833.022	2571
833.16	2682
833.299	2701
833.437	2754
833.576	2739
833.714	2758
833.852	2746
833.991	2815
834.129	2864
834.267	2880
834.406	2857
834.544	2937
834.682	2918
834.821	2883
834.959	3138
835.097	2929
835.235	3112
835.373	3066
835.511	3074
835.65	2990
835.788	2971
835.926	2864
836.064	2864
836.202	2895
836.34	3127
836.478	3214
836.615	3058
836.753	3169
836.891	3241
837.029	3188
837.167	3150
837.305	3104
837.443	3051
837.58	2986
837.718	3180
837.856	3112
837.993	3043
838.131	3150
838.269	3119
838.406	3135
838.544	3074
838.681	2990
838.819	2937
838.956	2872
839.094	2842
839.231	2941
839.369	3024
839.506	3447
839.643	3249
839.781	3085
839.918	2971
840.055	3100
840.193	3062
840.33	3097
840.467	3119
840.604	3184
840.742	3416
840.879	3089
841.016	3089
841.153	3127
841.29	3344
841.427	3332
841.564	3310
841.701	3310
841.838	3226
841.975	3207
842.112	3249
842.249	3116
842.385	3036
842.522	3287
842.659	3154
842.796	3089
842.933	3119
843.069	3104
843.206	3081
843.343	3207
843.479	3138
843.616	3154
843.752	2929
843.889	2918
844.025	3081
844.162	2952
844.298	3070
844.435	2979
844.571	2948
844.708	3097
844.844	3176
844.98	3272
845.117	3237
845.253	3051
845.389	3058
845.525	3165
845.661	3131
845.798	3039
845.934	3173
846.07	3062
846.206	3226
846.342	3332
846.478	3275
846.614	3089
846.75	3097
846.886	3062
847.022	3245
847.158	3135
847.294	3222
847.429	3291
847.565	3226
847.701	3507
847.837	3051
847.972	3036
848.108	3154
848.244	3188
848.379	2994
848.515	2963
848.65	2967
848.786	2979
848.921	3013
849.057	3165
849.192	3165
849.328	3093
849.463	3131
849.598	3100
849.734	3066
849.869	2990
850.004	2952
850.14	2982
850.275	2960
850.41	2868
850.545	2918
850.68	2948
850.815	2967
850.95	2952
851.085	3245
851.22	3108
851.355	3024
851.49	3013
851.625	3001
851.76	2982
851.895	2963
852.03	2963
852.165	3051
852.299	3135
852.434	3199
852.569	3203
852.703	3218
852.838	3279
852.973	3363
853.107	3332
853.242	3165
853.376	3112
853.511	3020
853.645	3085
853.78	3241
853.914	3112
854.048	3135
854.183	3100
854.317	3176
854.451	3363
854.585	3154
854.72	3093
854.854	3237
854.988	3047
855.122	3116
855.256	2994
855.39	3169
855.524	3241
855.658	3226
855.792	3161
855.926	3207
856.06	3256
856.194	3245
856.327	3135
856.461	3176
856.595	3135
856.729	3081
856.862	3253
856.996	3169
857.13	3207
857.263	3249
857.397	3313
857.53	3150
857.664	3192
857.797	3226
857.931	3272
858.064	3180
858.197	3256
858.331	3108
858.464	3108
858.597	3001
858.731	3123
858.864	3146
858.997	3138
859.13	3146
859.263	3169
859.396	3211
859.529	3112
859.662	3081
859.795	3032
859.928	3169
860.061	3268
860.194	3287
860.327	3138
860.46	3058
860.592	3245
860.725	3264
860.858	3264
860.99	3108
861.123	3051
861.256	3055
861.388	3173
861.521	3903
861.653	3032
861.786	3020
861.918	2998
862.05	3100
862.183	3127
862.315	3154
862.447	3214
862.58	3131
862.712	2925
862.844	2918
862.976	3077
863.108	3043
863.24	3431
863.372	2918
863.504	3013
863.636	2986
863.768	3066
863.9	2998
864.032	2887
864.164	2960
864.296	3028
864.428	3138
864.559	3146
864.691	3077
864.823	3081
864.954	3070
865.086	3058
865.217	2990
865.349	2982
865.48	3047
865.612	3047
865.743	3192
865.875	3001
866.006	2975
866.137	2986
866.269	2998
866.4	2933
866.531	2918
866.662	2944
866.793	2937
866.924	2941
867.055	3001
867.186	2937
867.317	2902
867.448	2845
867.579	2845
867.71	2899
867.841	2826
867.972	2922
868.103	2902
868.233	2887
868.364	2910
868.495	2914
868.625	3123
868.756	3165
868.886	3020
869.017	3036
869.147	3203
869.278	3157
869.408	3066
869.539	3074
869.669	3127
869.799	3032
869.929	3150
870.06	3127
870.19	3351
870.32	3294
870.45	3294
870.58	3416
870.71	3466
870.84	3466
870.97	3325
871.1	3283
871.23	3523
871.36	3488
871.489	3378
871.619	3420
871.749	3397
871.879	3462
872.008	3519
872.138	3351
872.267	3287
872.397	3173
872.526	3142
872.656	3047
872.785	3108
872.915	3264
873.044	3325
873.173	3241
873.303	3272
873.432	3233
873.561	3256
873.69	3192
873.819	3195
873.948	3233
874.077	3119
874.206	3085
874.335	3074
874.464	3176
874.593	3329
874.722	3253
874.851	3393
874.979	3355
875.108	3332
875.237	3203
875.365	3154
875.494	3184
875.623	3245
875.751	3066
875.88	3123
876.008	3237
876.136	3199
876.265	3374
876.393	3538
876.521	3431
876.65	3386
876.778	3268
876.906	3264
877.034	3176
877.162	3230
877.29	3214
877.418	3237
877.546	3287
877.674	3241
877.802	3253
877.93	3199
878.058	3203
878.185	3123
878.313	3230
878.441	3241
878.568	3081
878.696	3142
878.824	3264
878.951	3317
879.079	3492
879.206	3656
879.333	3412
879.461	3336
879.588	3378
879.715	3492
879.842	3591
879.97	3412
880.097	3173
880.224	3119
880.351	3226
880.478	3253
880.605	3226
880.732	3180
880.859	3507
880.986	3336
881.112	3359
881.239	3188
881.366	3116
881.493	3074
881.619	3020
881.746	3074
881.872	3112
881.999	3146
882.125	3161
882.252	3253
882.378	3325
882.505	3431
882.631	3306
882.757	3188
882.883	3214
883.01	3222
883.136	3199
883.262	3131
883.388	3123
883.514	3344
883.64	3393
883.766	3298
883.892	3195
884.018	3256
884.143	3424
884.269	3549
884.395	3199
884.52	3195
884.646	3165
884.772	3127
884.897	3119
885.023	3268
885.148	3374
885.274	3397
885.399	3401
885.524	3264
885.65	3268
885.775	3363
885.9	3306
886.025	3416
886.15	3378
886.275	3325
886.4	3294
886.525	3325
886.65	3275
886.775	3325
886.9	3496
887.025	3698
887.149	3424
887.274	3283
887.399	3230
887.523	3207
887.648	3203
887.773	3241
887.897	3397
888.021	3412
888.146	3329
888.27	3435
888.395	3511
888.519	3450
888.643	3466
888.767	3416
888.891	3279
889.015	3256
889.139	3256
889.263	3256
889.387	3409
889.511	3519
889.635	3469
889.759	3294
889.883	3340
890.006	3389
890.13	3496
890.254	3294
890.377	3306
890.501	3218
890.624	3233
890.748	3313
890.871	3195
890.995	3097
891.118	3070
891.241	3176
891.364	3233
891.488	3332
891.611	3184
891.734	3211
891.857	3313
891.98	3226
892.103	3325
892.226	3298
892.349	3218
892.471	3127
892.594	3203
892.717	3340
892.839	3268
892.962	3279
893.085	3359
893.207	3279
893.33	3135
893.452	3207
893.575	3325
893.697	3275
893.819	3477
893.941	3477
894.064	3416
894.186	3294
894.308	3268
894.43	3488
894.552	3542
894.674	3515
894.796	3260
894.918	3332
895.04	3321
895.161	3469
895.283	3378
895.405	3302
895.526	3344
895.648	3397
895.769	3435
895.891	3431
896.012	3469
896.134	3431
896.255	3462
896.376	3401
896.498	3389
896.619	3454
896.74	3374
896.861	3428
896.982	3686
897.103	3869
897.224	3603
897.345	3492
897.466	3443
897.587	3542
897.708	3610
897.828	3584
897.949	3431
898.07	3332
898.19	3393
898.311	3572
898.431	3492
898.552	3511
898.672	3603
898.792	3568
898.913	3530
899.033	3447
899.153	3275
899.273	3199
899.393	3291
899.513	3302
899.633	3317
899.753	3344
899.873	3317
899.993	3370
900.113	3348
900.232	3409
900.352	3340
900.472	3287
900.591	3214
900.711	3332
900.83	3264
900.95	3447
901.069	3523
901.189	3321
901.308	3184
901.427	3112
901.546	3173
901.665	3294
901.784	3370
901.904	3195
902.023	3176
902.141	3032
902.26	3013
902.379	3135
902.498	3070
902.617	3066
902.735	3214
902.854	3226
902.973	3161
903.091	3047
903.21	3112
903.328	3131
903.446	3135
903.565	3085
903.683	3222
903.801	3104
903.919	3214
904.038	3298
904.156	3207
904.274	3287
904.392	3260
904.51	3298
904.627	3329
904.745	3431
904.863	3500
904.981	3253
905.098	3176
905.216	3192
905.334	3325
905.451	3287
905.569	3291
905.686	3466
905.803	3435
905.921	3302
906.038	3458
906.155	3382
906.272	3291
906.389	3336
906.506	3249
906.623	3283
906.74	3291
906.857	3211
906.974	3249
907.091	3424
907.208	3538
907.324	3481
907.441	3367
907.557	3253
907.674	3230
907.79	3188
907.907	3268
908.023	3378
908.139	3370
908.256	3325
908.372	3359
908.488	3348
908.604	3249
908.72	3272
908.836	3313
908.952	3340
909.068	3298
909.184	3504
909.3	3435
909.415	3504
909.531	3477
909.647	3233
909.762	3264
909.878	3283
909.993	3389
910.108	3370
910.224	3310
910.339	3397
910.454	3397
910.57	3306
910.685	3230
910.8	3576
910.915	3523
911.03	3428
911.145	3237
911.259	3249
911.374	3317
911.489	3253
911.604	3237
911.718	3146
911.833	3165
911.947	3066
912.062	2986
912.176	3157
912.291	3184
912.405	3260
912.519	3416
912.633	3492
912.748	3332
912.862	3264
912.976	3176
913.09	3077
913.204	3127
913.318	3203
913.431	3302
913.545	3351
913.659	3374
913.772	3321
913.886	3184
914	3214
914.113	3340
914.226	3397
914.34	3374
914.453	3195
914.566	3458
914.68	3294
914.793	3291
914.906	3123
915.019	3112
915.132	3097
915.245	3188
915.358	3195
915.47	3214
915.583	3260
915.696	3291
915.809	3412
915.921	3393
916.034	3264
916.146	3272
916.259	3176
916.371	3370
916.483	3363
916.595	3272
916.708	3306
916.82	3344
916.932	3321
917.044	3370
917.156	3351
917.268	3298
917.38	3313
917.491	3287
917.603	3412
917.715	3454
917.826	3469
917.938	3367
918.049	3279
918.161	3462
918.272	3538
918.384	3564
918.495	3481
918.606	3310
918.717	3291
918.828	3386
918.939	3454
919.05	3321
919.161	3370
919.272	3203
919.383	3256
919.494	3485
919.604	3667
919.715	3523
919.826	3393
919.936	3466
920.047	3576
920.157	3561
920.267	3785
920.378	3603
920.488	3545
920.598	3774
920.708	3960
920.818	3861
920.928	3816
921.038	3998
921.148	4006
921.258	3720
921.368	3599
921.477	3568
921.587	3542
921.697	3473
921.806	3595
921.916	3542
922.025	3348
922.134	3370
922.244	3317
922.353	3374
922.462	3237
922.571	3272
922.68	3100
922.789	3081
922.898	3119
923.007	3119
923.116	3253
923.224	3173
923.333	3146
923.442	3100
923.55	3116
923.659	3146
923.767	3226
923.876	3135
923.984	3264
924.092	3127
924.201	3226
924.309	3211
924.417	3268
924.525	3184
924.633	3222
924.741	4021
924.849	3051
924.956	3306
925.064	3066
925.172	3032
925.279	3108
925.387	3188
925.494	3211
925.602	3382
925.709	3336
925.816	3180
925.924	3260
926.031	3386
926.138	3344
926.245	3367
926.352	3291
926.459	3439
926.566	3485
926.673	3317
926.779	3233
926.886	3268
926.993	3135
927.099	3157
927.206	3077
927.312	3108
927.419	3241
927.525	3203
927.631	3287
927.737	3154
927.843	3154
927.95	3001
928.056	3165
928.162	3199
928.267	3237
928.373	3846
928.479	3302
928.585	3043
928.69	3207
928.796	3291
928.901	3138
929.007	3066
929.112	3161
929.218	3138
929.323	3154
929.428	3146
929.533	3336
929.638	3135
929.743	3184
929.848	3260
929.953	3203
930.058	3138
930.163	2982
930.267	3051
930.372	3192
930.477	3047
930.581	3306
930.685	3165
930.79	3020
930.894	3104
930.998	3077
931.103	3287
931.207	2990
931.311	2895
931.415	2910
931.519	2785
931.623	2796
