Data from test_V78500241_1769.txt Node
Date: Fri Mar 25 16:27:27 CST 2022
User: usil
Spectrometer: V785-0024
Trigger mode: 0
Integration Time (sec): 4.000000E-1
Scans to average: 1
Nonlinearity correction enabled: false
Boxcar width: 0
Storing dark spectrum: false
XAxis mode: Wavelengths
Number of Pixels in Spectrum: 1024
>>>>>Begin Spectral Data<<<<<
801.071	2910
801.214	2933
801.356	2887
801.499	2868
801.641	2910
801.783	2891
801.926	3032
802.068	2929
802.211	3001
802.353	3036
802.496	2963
802.638	3024
802.78	3020
802.923	3066
803.065	2994
803.208	2918
803.35	2868
803.492	2914
803.635	2929
803.777	2746
803.919	2872
804.061	3188
804.204	2941
804.346	2880
804.488	2872
804.63	2994
804.773	2891
804.915	2887
805.057	3074
805.199	2899
805.341	2952
805.483	3043
805.626	3005
805.768	2952
805.91	3070
806.052	3097
806.194	3032
806.336	3226
806.478	3028
806.62	2979
806.762	2971
806.904	3051
807.046	3146
807.188	2963
807.33	2899
807.472	3009
807.614	2906
807.756	2979
807.898	2941
808.04	2899
808.182	2960
808.324	2929
808.465	2876
808.607	2895
808.749	2819
808.891	2842
809.033	2952
809.174	2960
809.316	2895
809.458	2864
809.6	2792
809.741	2735
809.883	2750
810.025	2842
810.166	2868
810.308	2861
810.45	2864
810.591	2766
810.733	2785
810.875	2834
811.016	2777
811.158	2766
811.299	2796
811.441	2895
811.582	2864
811.724	2853
811.865	2853
812.007	2914
812.148	2872
812.29	2845
812.431	2880
812.573	2933
812.714	2933
812.855	3051
812.997	3062
813.138	3108
813.279	3013
813.421	2967
813.562	2956
813.703	2845
813.845	2880
813.986	2785
814.127	2727
814.268	2819
814.41	2842
814.551	2788
814.692	2845
814.833	2815
814.974	2914
815.115	2929
815.256	2853
815.397	2804
815.539	2845
815.68	2766
815.821	2792
815.962	2918
816.103	2937
816.244	2872
816.385	2864
816.526	2982
816.666	2922
816.807	2746
816.948	2887
817.089	2868
817.23	2857
817.371	2800
817.512	2811
817.653	2838
817.793	2815
817.934	2895
818.075	2967
818.216	2975
818.356	3017
818.497	2887
818.638	2769
818.778	2823
818.919	2773
819.06	2750
819.2	2891
819.341	2773
819.481	2796
819.622	2902
819.762	3112
819.903	3020
820.043	2929
820.184	2925
820.324	2895
820.465	2979
820.605	2982
820.746	3032
820.886	2937
821.026	3104
821.167	3154
821.307	3253
821.447	3317
821.588	3245
821.728	3173
821.868	3173
822.008	3100
822.149	3161
822.289	3237
822.429	3058
822.569	3085
822.709	3157
822.849	2998
822.99	3051
823.13	3150
823.27	3226
823.41	3131
823.55	3131
823.69	3165
823.83	3176
823.97	3081
824.11	2982
824.25	2990
824.389	3043
824.529	3135
824.669	3089
824.809	3253
824.949	3241
825.089	3230
825.228	3173
825.368	3009
825.508	2929
825.648	2941
825.787	3017
825.927	3028
826.067	2971
826.206	2941
826.346	2998
826.485	3062
826.625	3100
826.765	3226
826.904	3165
827.044	2998
827.183	2933
827.323	2845
827.462	2990
827.601	2883
827.741	2933
827.88	2952
828.02	2857
828.159	2956
828.298	3028
828.437	3089
828.577	3024
828.716	3233
828.855	3131
828.994	2914
829.134	2868
829.273	2891
829.412	2861
829.551	2857
829.69	2899
829.829	2975
829.968	3123
830.107	2998
830.246	3005
830.385	2918
830.524	2857
830.663	2796
830.802	2754
830.941	2651
831.08	2644
831.219	2781
831.357	2720
831.496	2933
831.635	2716
831.774	2640
831.913	2644
832.051	2526
832.19	2568
832.329	2682
832.467	2571
832.606	2442
832.744	2545
832.883	2594
833.022	2594
833.16	2663
833.299	2670
833.437	2670
833.576	2689
833.714	2735
833.852	2712
833.991	2766
834.129	2864
834.267	2830
834.406	2788
834.544	2880
834.682	2864
834.821	2883
834.959	3055
835.097	2880
835.235	3062
835.373	2982
835.511	2967
835.65	3009
835.788	2971
835.926	2864
836.064	2823
836.202	2823
836.34	3093
836.478	3146
836.615	3039
836.753	3154
836.891	3226
837.029	3184
837.167	3104
837.305	3077
837.443	3005
837.58	2967
837.718	3104
837.856	3051
837.993	3047
838.131	3157
838.269	3070
838.406	3070
838.544	3062
838.681	2899
838.819	2895
838.956	2788
839.094	2845
839.231	2902
839.369	3013
839.506	3332
839.643	3192
839.781	3017
839.918	2944
840.055	3028
840.193	3066
840.33	3104
840.467	3093
840.604	3173
840.742	3382
840.879	3036
841.016	3036
841.153	3119
841.29	3336
841.427	3317
841.564	3275
841.701	3310
841.838	3233
841.975	3199
842.112	3173
842.249	3074
842.385	3058
842.522	3275
842.659	3070
842.796	3005
842.933	3100
843.069	3039
843.206	3047
843.343	3138
843.479	3070
843.616	3112
843.752	2895
843.889	2883
844.025	3085
844.162	2872
844.298	3043
844.435	2925
844.571	2929
844.708	3047
844.844	3165
844.98	3214
845.117	3176
845.253	3024
845.389	3009
845.525	3089
845.661	3089
845.798	3024
845.934	3108
846.07	3020
846.206	3173
846.342	3291
846.478	3241
846.614	3119
846.75	3047
846.886	3047
847.022	3214
847.158	3062
847.294	3157
847.429	3211
847.565	3188
847.701	3507
847.837	3039
847.972	2998
848.108	3176
848.244	3123
848.379	3009
848.515	2922
848.65	2952
848.786	2975
848.921	2998
849.057	3112
849.192	3154
849.328	3062
849.463	3123
849.598	3062
849.734	2990
849.869	2963
850.004	2925
850.14	2960
850.275	2906
850.41	2838
850.545	2853
850.68	2868
850.815	2933
850.95	2929
851.085	3161
851.22	3062
851.355	2986
851.49	2960
851.625	3001
851.76	3009
851.895	2925
852.03	2925
852.165	3028
852.299	3119
852.434	3169
852.569	3135
852.703	3154
852.838	3249
852.973	3313
853.107	3325
853.242	3131
853.376	3097
853.511	2971
853.645	3043
853.78	3218
853.914	3123
854.048	3097
854.183	3032
854.317	3138
854.451	3287
854.585	3157
854.72	3047
854.854	3180
854.988	3074
855.122	3104
855.256	2979
855.39	3074
855.524	3192
855.658	3184
855.792	3169
855.926	3165
856.06	3214
856.194	3279
856.327	3135
856.461	3100
856.595	3097
856.729	3093
856.862	3203
856.996	3161
857.13	3199
857.263	3230
857.397	3256
857.53	3123
857.664	3184
857.797	3218
857.931	3222
858.064	3127
858.197	3214
858.331	3127
858.464	3077
858.597	3001
858.731	3097
858.864	3135
858.997	3062
859.13	3203
859.263	3173
859.396	3192
859.529	3097
859.662	3036
859.795	3051
859.928	3138
860.061	3268
860.194	3275
860.327	3154
860.46	3089
860.592	3268
860.725	3241
860.858	3256
860.99	3100
861.123	3047
861.256	3077
861.388	3119
861.521	3884
861.653	3039
861.786	3009
861.918	2994
862.05	3043
862.183	3074
862.315	3119
862.447	3180
862.58	3108
862.712	2944
862.844	2868
862.976	3024
863.108	3028
863.24	3291
863.372	2883
863.504	2948
863.636	2975
863.768	3024
863.9	2960
864.032	2868
864.164	2944
864.296	3009
864.428	3036
864.559	3093
864.691	3055
864.823	3051
864.954	3055
865.086	3039
865.217	2982
865.349	2967
865.48	3001
865.612	3020
865.743	3123
865.875	2948
866.006	2933
866.137	2952
866.269	2937
866.4	2914
866.531	2902
866.662	2887
866.793	2906
866.924	2891
867.055	2937
867.186	2891
867.317	2872
867.448	2807
867.579	2845
867.71	2845
867.841	2796
867.972	2899
868.103	2902
868.233	2853
868.364	2868
868.495	2910
868.625	3074
868.756	3169
868.886	2979
869.017	3001
869.147	3165
869.278	3154
869.408	3047
869.539	3043
869.669	3108
869.799	3058
869.929	3142
870.06	3104
870.19	3302
870.32	3275
870.45	3294
870.58	3332
870.71	3435
870.84	3466
870.97	3294
871.1	3253
871.23	3473
871.36	3469
871.489	3340
871.619	3409
871.749	3386
871.879	3420
872.008	3473
872.138	3401
872.267	3237
872.397	3116
872.526	3097
872.656	2986
872.785	3104
872.915	3241
873.044	3329
873.173	3260
873.303	3230
873.432	3260
873.561	3264
873.69	3157
873.819	3097
873.948	3222
874.077	3097
874.206	3055
874.335	3055
874.464	3203
874.593	3317
874.722	3230
874.851	3401
874.979	3351
875.108	3336
875.237	3154
875.365	3165
875.494	3203
875.623	3222
875.751	3085
875.88	3108
876.008	3169
876.136	3192
876.265	3393
876.393	3511
876.521	3420
876.65	3367
876.778	3306
876.906	3260
877.034	3230
877.162	3222
877.29	3199
877.418	3233
877.546	3230
877.674	3237
877.802	3211
877.93	3226
878.058	3150
878.185	3112
878.313	3233
878.441	3207
878.568	3062
878.696	3131
878.824	3253
878.951	3306
879.079	3412
879.206	3614
879.333	3424
879.461	3348
879.588	3313
879.715	3462
879.842	3572
879.97	3370
880.097	3173
880.224	3104
880.351	3207
880.478	3211
880.605	3214
880.732	3203
880.859	3473
880.986	3317
881.112	3355
881.239	3222
881.366	3089
881.493	3020
881.619	2986
881.746	3119
881.872	3097
881.999	3093
882.125	3161
882.252	3249
882.378	3275
882.505	3420
882.631	3253
882.757	3161
882.883	3203
883.01	3211
883.136	3097
883.262	3062
883.388	3093
883.514	3294
883.64	3397
883.766	3291
883.892	3199
884.018	3203
884.143	3409
884.269	3511
884.395	3157
884.52	3150
884.646	3116
884.772	3119
884.897	3138
885.023	3226
885.148	3336
885.274	3443
885.399	3393
885.524	3233
885.65	3272
885.775	3294
885.9	3241
886.025	3409
886.15	3332
886.275	3279
886.4	3226
886.525	3302
886.65	3260
886.775	3272
886.9	3507
887.025	3625
887.149	3424
887.274	3287
887.399	3146
887.523	3192
887.648	3203
887.773	3180
887.897	3355
888.021	3370
888.146	3272
888.27	3447
888.395	3538
888.519	3454
888.643	3481
888.767	3428
888.891	3310
889.015	3233
889.139	3264
889.263	3226
889.387	3435
889.511	3496
889.635	3443
889.759	3310
889.883	3310
890.006	3386
890.13	3469
890.254	3279
890.377	3313
890.501	3226
890.624	3169
890.748	3283
890.871	3188
890.995	3131
891.118	3066
891.241	3207
891.364	3214
891.488	3283
891.611	3188
891.734	3222
891.857	3249
891.98	3230
892.103	3340
892.226	3275
892.349	3218
892.471	3100
892.594	3253
892.717	3294
892.839	3237
892.962	3294
893.085	3382
893.207	3294
893.33	3146
893.452	3222
893.575	3302
893.697	3237
893.819	3500
893.941	3504
894.064	3466
894.186	3241
894.308	3249
894.43	3424
894.552	3515
894.674	3439
894.796	3294
894.918	3291
895.04	3249
895.161	3389
895.283	3393
895.405	3325
895.526	3359
895.648	3431
895.769	3431
895.891	3485
896.012	3454
896.134	3424
896.255	3370
896.376	3374
896.498	3359
896.619	3454
896.74	3351
896.861	3389
896.982	3667
897.103	3869
897.224	3576
897.345	3515
897.466	3431
897.587	3454
897.708	3587
897.828	3523
897.949	3488
898.07	3340
898.19	3386
898.311	3576
898.431	3458
898.552	3500
898.672	3580
898.792	3587
898.913	3511
899.033	3386
899.153	3268
899.273	3222
899.393	3287
899.513	3275
899.633	3298
899.753	3310
899.873	3302
899.993	3367
900.113	3291
900.232	3374
900.352	3348
900.472	3275
900.591	3218
900.711	3306
900.83	3230
900.95	3405
901.069	3431
901.189	3325
901.308	3138
901.427	3119
901.546	3169
901.665	3306
901.784	3325
901.904	3218
902.023	3138
902.141	3009
902.26	3001
902.379	3116
902.498	3066
902.617	3062
902.735	3226
902.854	3233
902.973	3237
903.091	3047
903.21	3036
903.328	3138
903.446	3089
903.565	3116
903.683	3180
903.801	3100
903.919	3226
904.038	3291
904.156	3195
904.274	3291
904.392	3237
904.51	3268
904.627	3329
904.745	3458
904.863	3481
904.981	3275
905.098	3173
905.216	3256
905.334	3291
905.451	3313
905.569	3283
905.686	3401
905.803	3431
905.921	3287
906.038	3435
906.155	3348
906.272	3245
906.389	3336
906.506	3230
906.623	3249
906.74	3291
906.857	3184
906.974	3203
907.091	3428
907.208	3545
907.324	3488
907.441	3401
907.557	3237
907.674	3245
907.79	3218
907.907	3241
908.023	3336
908.139	3378
908.256	3313
908.372	3363
908.488	3344
908.604	3241
908.72	3195
908.836	3272
908.952	3253
909.068	3374
909.184	3492
909.3	3412
909.415	3511
909.531	3424
909.647	3245
909.762	3298
909.878	3272
909.993	3374
910.108	3317
910.224	3325
910.339	3405
910.454	3283
910.57	3302
910.685	3306
910.8	3584
910.915	3526
911.03	3428
911.145	3245
911.259	3306
911.374	3332
911.489	3249
911.604	3222
911.718	3119
911.833	3165
911.947	3070
912.062	2960
912.176	3146
912.291	3199
912.405	3226
912.519	3454
912.633	3466
912.748	3329
912.862	3283
912.976	3169
913.09	3055
913.204	3142
913.318	3180
913.431	3321
913.545	3359
913.659	3409
913.772	3298
913.886	3192
914	3176
914.113	3344
914.226	3397
914.34	3374
914.453	3188
914.566	3393
914.68	3302
914.793	3306
914.906	3116
915.019	3146
915.132	3043
915.245	3154
915.358	3180
915.47	3237
915.583	3253
915.696	3294
915.809	3363
915.921	3416
916.034	3226
916.146	3294
916.259	3253
916.371	3378
916.483	3370
916.595	3268
916.708	3344
916.82	3351
916.932	3306
917.044	3336
917.156	3302
917.268	3241
917.38	3287
917.491	3302
917.603	3355
917.715	3431
917.826	3458
917.938	3370
918.049	3272
918.161	3416
918.272	3564
918.384	3576
918.495	3477
918.606	3317
918.717	3241
918.828	3393
918.939	3378
919.05	3302
919.161	3344
919.272	3192
919.383	3310
919.494	3477
919.604	3652
919.715	3496
919.826	3393
919.936	3450
920.047	3603
920.157	3564
920.267	3740
920.378	3580
920.488	3587
920.598	3770
920.708	3937
920.818	3823
920.928	3850
921.038	4036
921.148	3994
921.258	3682
921.368	3622
921.477	3553
921.587	3511
921.697	3428
921.806	3591
921.916	3469
922.025	3367
922.134	3397
922.244	3302
922.353	3435
922.462	3226
922.571	3249
922.68	3135
922.789	3066
922.898	3097
923.007	3097
923.116	3195
923.224	3180
923.333	3180
923.442	3108
923.55	3077
923.659	3135
923.767	3203
923.876	3112
923.984	3222
924.092	3089
924.201	3188
924.309	3226
924.417	3260
924.525	3188
924.633	3233
924.741	3956
924.849	3066
924.956	3279
925.064	3135
925.172	3024
925.279	3062
925.387	3214
925.494	3169
925.602	3359
925.709	3348
925.816	3199
925.924	3249
926.031	3348
926.138	3348
926.245	3359
926.352	3230
926.459	3359
926.566	3492
926.673	3291
926.779	3237
926.886	3214
926.993	3142
927.099	3104
927.206	3077
927.312	3074
927.419	3256
927.525	3180
927.631	3222
927.737	3150
927.843	3116
927.95	3009
928.056	3135
928.162	3211
928.267	3253
928.373	3850
928.479	3298
928.585	3039
928.69	3211
928.796	3272
928.901	3176
929.007	3058
929.112	3226
929.218	3154
929.323	3157
929.428	3150
929.533	3302
929.638	3138
929.743	3154
929.848	3256
929.953	3226
930.058	3154
930.163	2994
930.267	3043
930.372	3203
930.477	3036
930.581	3279
930.685	3176
930.79	3051
930.894	3108
930.998	3108
931.103	3241
931.207	2944
931.311	2948
931.415	2891
931.519	2743
931.623	2819
