Data from test_V78500241_1302.txt Node
Date: Fri Mar 25 16:24:13 CST 2022
User: usil
Spectrometer: V785-0024
Trigger mode: 0
Integration Time (sec): 4.000000E-1
Scans to average: 1
Nonlinearity correction enabled: false
Boxcar width: 0
Storing dark spectrum: false
XAxis mode: Wavelengths
Number of Pixels in Spectrum: 1024
>>>>>Begin Spectral Data<<<<<
801.071	2944
801.214	2948
801.356	2876
801.499	2925
801.641	2902
801.783	2952
801.926	3135
802.068	3001
802.211	3001
802.353	3028
802.496	2986
802.638	3032
802.78	3058
802.923	3058
803.065	3055
803.208	2906
803.35	2922
803.492	2982
803.635	2967
803.777	2769
803.919	2872
804.061	3218
804.204	2960
804.346	2933
804.488	2823
804.63	2982
804.773	2902
804.915	2948
805.057	3081
805.199	2925
805.341	2998
805.483	3043
805.626	2975
805.768	2941
805.91	3039
806.052	3089
806.194	3051
806.336	3275
806.478	3001
806.62	2941
806.762	2986
806.904	3077
807.046	3131
807.188	3005
807.33	2899
807.472	2986
807.614	2944
807.756	3032
807.898	2967
808.04	2899
808.182	2998
808.324	3009
808.465	2891
808.607	2864
808.749	2800
808.891	2872
809.033	2990
809.174	2994
809.316	2899
809.458	2906
809.6	2781
809.741	2762
809.883	2777
810.025	2857
810.166	2845
810.308	2826
810.45	2899
810.591	2796
810.733	2788
810.875	2857
811.016	2800
811.158	2739
811.299	2800
811.441	2956
811.582	2914
811.724	2819
811.865	2842
812.007	2883
812.148	2864
812.29	2857
812.431	2925
812.573	2937
812.714	2937
812.855	3085
812.997	3058
813.138	3157
813.279	3032
813.421	3005
813.562	2967
813.703	2872
813.845	2922
813.986	2792
814.127	2743
814.268	2880
814.41	2807
814.551	2857
814.692	2864
814.833	2842
814.974	2914
815.115	2960
815.256	2853
815.397	2807
815.539	2861
815.68	2769
815.821	2785
815.962	2937
816.103	2956
816.244	2891
816.385	2895
816.526	2941
816.666	2933
816.807	2746
816.948	2872
817.089	2925
817.23	2880
817.371	2800
817.512	2800
817.653	2834
817.793	2819
817.934	2887
818.075	2990
818.216	3001
818.356	3070
818.497	2853
818.638	2804
818.778	2826
818.919	2788
819.06	2766
819.2	2872
819.341	2800
819.481	2788
819.622	2967
819.762	3097
819.903	3036
820.043	2963
820.184	2925
820.324	2910
820.465	3020
820.605	3051
820.746	3005
820.886	2914
821.026	3070
821.167	3180
821.307	3272
821.447	3283
821.588	3218
821.728	3184
821.868	3176
822.008	3131
822.149	3180
822.289	3260
822.429	3108
822.569	3093
822.709	3195
822.849	3062
822.99	3085
823.13	3150
823.27	3203
823.41	3100
823.55	3161
823.69	3123
823.83	3199
823.97	3146
824.11	3024
824.25	3024
824.389	3058
824.529	3135
824.669	3104
824.809	3207
824.949	3279
825.089	3264
825.228	3142
825.368	3001
825.508	2952
825.648	3001
825.787	3005
825.927	3032
826.067	2952
826.206	2967
826.346	3058
826.485	3097
826.625	3112
826.765	3279
826.904	3222
827.044	2998
827.183	2952
827.323	2872
827.462	3001
827.601	2914
827.741	2963
827.88	2963
828.02	2887
828.159	2979
828.298	3047
828.437	3100
828.577	3036
828.716	3302
828.855	3112
828.994	2918
829.134	2876
829.273	2925
829.412	2868
829.551	2864
829.69	2876
829.829	2967
829.968	3135
830.107	3013
830.246	3017
830.385	2929
830.524	2864
830.663	2815
830.802	2724
830.941	2667
831.08	2651
831.219	2773
831.357	2735
831.496	2929
831.635	2746
831.774	2648
831.913	2632
832.051	2530
832.19	2549
832.329	2682
832.467	2522
832.606	2488
832.744	2617
832.883	2602
833.022	2587
833.16	2625
833.299	2701
833.437	2701
833.576	2663
833.714	2758
833.852	2712
833.991	2769
834.129	2807
834.267	2819
834.406	2773
834.544	2887
834.682	2864
834.821	2819
834.959	3077
835.097	2895
835.235	3058
835.373	2986
835.511	3017
835.65	2971
835.788	2971
835.926	2781
836.064	2804
836.202	2864
836.34	3089
836.478	3157
836.615	3017
836.753	3127
836.891	3203
837.029	3176
837.167	3066
837.305	3039
837.443	3043
837.58	2975
837.718	3108
837.856	3043
837.993	3024
838.131	3081
838.269	3104
838.406	3123
838.544	3074
838.681	2960
838.819	2937
838.956	2834
839.094	2796
839.231	2899
839.369	3028
839.506	3370
839.643	3241
839.781	3009
839.918	2994
840.055	3077
840.193	3036
840.33	3093
840.467	3131
840.604	3127
840.742	3401
840.879	3077
841.016	3066
841.153	3077
841.29	3332
841.427	3313
841.564	3264
841.701	3264
841.838	3237
841.975	3188
842.112	3211
842.249	3093
842.385	3051
842.522	3272
842.659	3085
842.796	3085
842.933	3097
843.069	3028
843.206	3043
843.343	3180
843.479	3116
843.616	3100
843.752	2895
843.889	2872
844.025	3119
844.162	2906
844.298	3097
844.435	2933
844.571	2929
844.708	3047
844.844	3184
844.98	3203
845.117	3203
845.253	3043
845.389	3024
845.525	3138
845.661	3104
845.798	3013
845.934	3150
846.07	3043
846.206	3268
846.342	3321
846.478	3230
846.614	3062
846.75	3047
846.886	3009
847.022	3268
847.158	3154
847.294	3211
847.429	3287
847.565	3237
847.701	3469
847.837	3028
847.972	2986
848.108	3154
848.244	3116
848.379	2990
848.515	2960
848.65	2944
848.786	2998
848.921	3024
849.057	3097
849.192	3142
849.328	3051
849.463	3089
849.598	3058
849.734	3051
849.869	2960
850.004	2952
850.14	2971
850.275	2914
850.41	2857
850.545	2868
850.68	2933
850.815	2952
850.95	2982
851.085	3169
851.22	3131
851.355	3024
851.49	2967
851.625	3020
851.76	3009
851.895	2937
852.03	2918
852.165	3020
852.299	3116
852.434	3207
852.569	3157
852.703	3138
852.838	3249
852.973	3351
853.107	3355
853.242	3146
853.376	3100
853.511	2960
853.645	3070
853.78	3241
853.914	3127
854.048	3085
854.183	3047
854.317	3131
854.451	3310
854.585	3081
854.72	3097
854.854	3245
854.988	3066
855.122	3100
855.256	2960
855.39	3119
855.524	3222
855.658	3169
855.792	3150
855.926	3180
856.06	3203
856.194	3260
856.327	3119
856.461	3077
856.595	3055
856.729	3081
856.862	3233
856.996	3188
857.13	3237
857.263	3233
857.397	3306
857.53	3146
857.664	3165
857.797	3218
857.931	3264
858.064	3131
858.197	3241
858.331	3123
858.464	3127
858.597	3017
858.731	3146
858.864	3142
858.997	3077
859.13	3138
859.263	3146
859.396	3180
859.529	3070
859.662	3036
859.795	3051
859.928	3123
860.061	3302
860.194	3275
860.327	3112
860.46	3108
860.592	3233
860.725	3237
860.858	3260
860.99	3112
861.123	3077
861.256	3005
861.388	3199
861.521	3648
861.653	3024
861.786	2975
861.918	2994
862.05	3020
862.183	3100
862.315	3127
862.447	3188
862.58	3077
862.712	2941
862.844	2876
862.976	3062
863.108	3013
863.24	3306
863.372	2853
863.504	2967
863.636	2929
863.768	3028
863.9	2971
864.032	2899
864.164	2906
864.296	3017
864.428	3089
864.559	3116
864.691	3077
864.823	3070
864.954	3039
865.086	3039
865.217	2971
865.349	2963
865.48	2971
865.612	3017
865.743	3180
865.875	3005
866.006	2937
866.137	2971
866.269	2956
866.4	2933
866.531	2952
866.662	2883
866.793	2864
866.924	2910
867.055	2975
867.186	2948
867.317	2876
867.448	2823
867.579	2830
867.71	2845
867.841	2823
867.972	2902
868.103	2906
868.233	2891
868.364	2891
868.495	2883
868.625	3062
868.756	3138
868.886	2944
869.017	3005
869.147	3150
869.278	3104
869.408	3039
869.539	3024
869.669	3100
869.799	3032
869.929	3116
870.06	3116
870.19	3321
870.32	3283
870.45	3279
870.58	3378
870.71	3443
870.84	3477
870.97	3321
871.1	3241
871.23	3473
871.36	3439
871.489	3378
871.619	3386
871.749	3389
871.879	3431
872.008	3420
872.138	3359
872.267	3253
872.397	3138
872.526	3066
872.656	3020
872.785	3100
872.915	3230
873.044	3321
873.173	3203
873.303	3245
873.432	3249
873.561	3211
873.69	3142
873.819	3089
873.948	3184
874.077	3104
874.206	3055
874.335	3062
874.464	3222
874.593	3340
874.722	3264
874.851	3397
874.979	3313
875.108	3313
875.237	3203
875.365	3127
875.494	3173
875.623	3222
875.751	3074
875.88	3112
876.008	3184
876.136	3237
876.265	3397
876.393	3485
876.521	3397
876.65	3382
876.778	3287
876.906	3241
877.034	3195
877.162	3241
877.29	3188
877.418	3192
877.546	3218
877.674	3275
877.802	3226
877.93	3203
878.058	3188
878.185	3112
878.313	3173
878.441	3192
878.568	3055
878.696	3150
878.824	3237
878.951	3325
879.079	3431
879.206	3633
879.333	3439
879.461	3344
879.588	3382
879.715	3428
879.842	3599
879.97	3401
880.097	3169
880.224	3123
880.351	3188
880.478	3188
880.605	3207
880.732	3218
880.859	3500
880.986	3310
881.112	3310
881.239	3180
881.366	3074
881.493	3005
881.619	3024
881.746	3093
881.872	3119
881.999	3104
882.125	3161
882.252	3233
882.378	3310
882.505	3439
882.631	3253
882.757	3150
882.883	3222
883.01	3199
883.136	3146
883.262	3089
883.388	3123
883.514	3302
883.64	3374
883.766	3275
883.892	3192
884.018	3249
884.143	3397
884.269	3526
884.395	3233
884.52	3154
884.646	3214
884.772	3123
884.897	3085
885.023	3188
885.148	3325
885.274	3435
885.399	3374
885.524	3264
885.65	3237
885.775	3294
885.9	3268
886.025	3428
886.15	3336
886.275	3291
886.4	3272
886.525	3298
886.65	3245
886.775	3260
886.9	3534
887.025	3656
887.149	3401
887.274	3249
887.399	3146
887.523	3199
887.648	3135
887.773	3222
887.897	3340
888.021	3363
888.146	3283
888.27	3378
888.395	3534
888.519	3439
888.643	3424
888.767	3431
888.891	3298
889.015	3260
889.139	3253
889.263	3230
889.387	3370
889.511	3507
889.635	3454
889.759	3283
889.883	3287
890.006	3344
890.13	3477
890.254	3283
890.377	3336
890.501	3184
890.624	3203
890.748	3325
890.871	3157
890.995	3100
891.118	3039
891.241	3203
891.364	3256
891.488	3317
891.611	3165
891.734	3233
891.857	3298
891.98	3268
892.103	3332
892.226	3283
892.349	3176
892.471	3135
892.594	3237
892.717	3272
892.839	3222
892.962	3294
893.085	3340
893.207	3272
893.33	3135
893.452	3241
893.575	3325
893.697	3211
893.819	3458
893.941	3538
894.064	3412
894.186	3256
894.308	3268
894.43	3416
894.552	3553
894.674	3454
894.796	3275
894.918	3291
895.04	3268
895.161	3439
895.283	3386
895.405	3310
895.526	3351
895.648	3420
895.769	3443
895.891	3454
896.012	3469
896.134	3431
896.255	3409
896.376	3359
896.498	3393
896.619	3405
896.74	3367
896.861	3367
896.982	3656
897.103	3808
897.224	3606
897.345	3507
897.466	3450
897.587	3428
897.708	3599
897.828	3534
897.949	3428
898.07	3310
898.19	3397
898.311	3591
898.431	3439
898.552	3526
898.672	3564
898.792	3561
898.913	3500
899.033	3401
899.153	3310
899.273	3237
899.393	3264
899.513	3306
899.633	3317
899.753	3344
899.873	3294
899.993	3374
900.113	3332
900.232	3370
900.352	3329
900.472	3268
900.591	3192
900.711	3291
900.83	3249
900.95	3428
901.069	3469
901.189	3351
901.308	3184
901.427	3157
901.546	3203
901.665	3272
901.784	3306
901.904	3218
902.023	3154
902.141	3028
902.26	2956
902.379	3116
902.498	3066
902.617	3047
902.735	3214
902.854	3222
902.973	3157
903.091	3005
903.21	3032
903.328	3142
903.446	3131
903.565	3077
903.683	3173
903.801	3135
903.919	3264
904.038	3279
904.156	3161
904.274	3279
904.392	3245
904.51	3275
904.627	3321
904.745	3473
904.863	3488
904.981	3214
905.098	3135
905.216	3237
905.334	3321
905.451	3260
905.569	3291
905.686	3450
905.803	3462
905.921	3268
906.038	3454
906.155	3359
906.272	3302
906.389	3355
906.506	3184
906.623	3253
906.74	3294
906.857	3241
906.974	3233
907.091	3412
907.208	3584
907.324	3477
907.441	3348
907.557	3260
907.674	3249
907.79	3188
907.907	3272
908.023	3367
908.139	3336
908.256	3325
908.372	3367
908.488	3351
908.604	3230
908.72	3226
908.836	3287
908.952	3298
909.068	3340
909.184	3504
909.3	3416
909.415	3496
909.531	3469
909.647	3279
909.762	3287
909.878	3218
909.993	3355
910.108	3317
910.224	3329
910.339	3435
910.454	3351
910.57	3245
910.685	3226
910.8	3595
910.915	3542
911.03	3439
911.145	3245
911.259	3222
911.374	3272
911.489	3230
911.604	3176
911.718	3097
911.833	3119
911.947	3005
912.062	2994
912.176	3169
912.291	3165
912.405	3203
912.519	3412
912.633	3473
912.748	3317
912.862	3241
912.976	3135
913.09	3077
913.204	3135
913.318	3188
913.431	3340
913.545	3298
913.659	3393
913.772	3321
913.886	3226
914	3127
914.113	3378
914.226	3405
914.34	3355
914.453	3233
914.566	3420
914.68	3233
914.793	3272
914.906	3108
915.019	3074
915.132	3062
915.245	3157
915.358	3184
915.47	3207
915.583	3237
915.696	3283
915.809	3393
915.921	3416
916.034	3264
916.146	3241
916.259	3226
916.371	3386
916.483	3363
916.595	3283
916.708	3325
916.82	3336
916.932	3348
917.044	3321
917.156	3370
917.268	3260
917.38	3287
917.491	3294
917.603	3397
917.715	3428
917.826	3416
917.938	3351
918.049	3310
918.161	3435
918.272	3599
918.384	3549
918.495	3458
918.606	3310
918.717	3294
918.828	3378
918.939	3435
919.05	3279
919.161	3401
919.272	3169
919.383	3241
919.494	3443
919.604	3656
919.715	3485
919.826	3401
919.936	3462
920.047	3595
920.157	3534
920.267	3774
920.378	3641
920.488	3542
920.598	3762
920.708	3937
920.818	3804
920.928	3842
921.038	4044
921.148	3991
921.258	3694
921.368	3610
921.477	3572
921.587	3549
921.697	3443
921.806	3606
921.916	3439
922.025	3340
922.134	3321
922.244	3321
922.353	3420
922.462	3268
922.571	3222
922.68	3100
922.789	3055
922.898	3119
923.007	3070
923.116	3195
923.224	3180
923.333	3180
923.442	3097
923.55	3085
923.659	3123
923.767	3226
923.876	3146
923.984	3272
924.092	3100
924.201	3218
924.309	3233
924.417	3249
924.525	3199
924.633	3230
924.741	4017
924.849	3043
924.956	3245
925.064	3066
925.172	3058
925.279	3127
925.387	3161
925.494	3192
925.602	3344
925.709	3317
925.816	3192
925.924	3272
926.031	3378
926.138	3367
926.245	3378
926.352	3233
926.459	3363
926.566	3431
926.673	3313
926.779	3291
926.886	3222
926.993	3108
927.099	3116
927.206	3131
927.312	3135
927.419	3226
927.525	3199
927.631	3294
927.737	3150
927.843	3104
927.95	3013
928.056	3119
928.162	3169
928.267	3275
928.373	3861
928.479	3298
928.585	3039
928.69	3218
928.796	3245
928.901	3154
929.007	3024
929.112	3195
929.218	3161
929.323	3157
929.428	3123
929.533	3298
929.638	3116
929.743	3192
929.848	3253
929.953	3214
930.058	3142
930.163	2990
930.267	3055
930.372	3207
930.477	3047
930.581	3253
930.685	3161
930.79	3066
930.894	3138
930.998	3104
931.103	3321
931.207	2963
931.311	2979
931.415	2887
931.519	2785
931.623	2823
