Data from test_V78500241_1520.txt Node
Date: Fri Mar 25 16:25:44 CST 2022
User: usil
Spectrometer: V785-0024
Trigger mode: 0
Integration Time (sec): 4.000000E-1
Scans to average: 1
Nonlinearity correction enabled: false
Boxcar width: 0
Storing dark spectrum: false
XAxis mode: Wavelengths
Number of Pixels in Spectrum: 1024
>>>>>Begin Spectral Data<<<<<
801.071	2963
801.214	2998
801.356	2944
801.499	2986
801.641	2922
801.783	2948
801.926	3077
802.068	3001
802.211	3001
802.353	3085
802.496	2994
802.638	3093
802.78	3058
802.923	3116
803.065	3032
803.208	2929
803.35	2937
803.492	2941
803.635	2956
803.777	2815
803.919	2880
804.061	3237
804.204	3001
804.346	2963
804.488	2929
804.63	3039
804.773	2895
804.915	2975
805.057	3104
805.199	2990
805.341	3009
805.483	3039
805.626	3066
805.768	2979
805.91	3142
806.052	3104
806.194	3085
806.336	3287
806.478	3062
806.62	2998
806.762	3032
806.904	3051
807.046	3188
807.188	2998
807.33	2975
807.472	2998
807.614	2963
807.756	2986
807.898	2956
808.04	2929
808.182	2979
808.324	2982
808.465	2925
808.607	2891
808.749	2838
808.891	2895
809.033	3013
809.174	3028
809.316	2929
809.458	2906
809.6	2807
809.741	2758
809.883	2792
810.025	2918
810.166	2887
810.308	2880
810.45	2914
810.591	2807
810.733	2807
810.875	2864
811.016	2804
811.158	2785
811.299	2823
811.441	2948
811.582	2902
811.724	2887
811.865	2880
812.007	2948
812.148	2880
812.29	2883
812.431	2899
812.573	2941
812.714	2975
812.855	3066
812.997	3066
813.138	3161
813.279	3005
813.421	3036
813.562	2998
813.703	2895
813.845	2902
813.986	2785
814.127	2758
814.268	2800
814.41	2880
814.551	2830
814.692	2910
814.833	2811
814.974	2922
815.115	2982
815.256	2849
815.397	2823
815.539	2902
815.68	2804
815.821	2819
815.962	3013
816.103	2979
816.244	2864
816.385	2899
816.526	2990
816.666	2925
816.807	2739
816.948	2914
817.089	2944
817.23	2880
817.371	2819
817.512	2861
817.653	2868
817.793	2823
817.934	2887
818.075	2982
818.216	3013
818.356	3055
818.497	2899
818.638	2815
818.778	2861
818.919	2815
819.06	2785
819.2	2876
819.341	2815
819.481	2804
819.622	2963
819.762	3150
819.903	3051
820.043	2960
820.184	2906
820.324	2880
820.465	3039
820.605	3024
820.746	3055
820.886	2944
821.026	3142
821.167	3157
821.307	3302
821.447	3298
821.588	3272
821.728	3222
821.868	3203
822.008	3085
822.149	3195
822.289	3287
822.429	3108
822.569	3138
822.709	3150
822.849	3062
822.99	3055
823.13	3195
823.27	3264
823.41	3123
823.55	3165
823.69	3207
823.83	3184
823.97	3142
824.11	3020
824.25	3017
824.389	3112
824.529	3123
824.669	3116
824.809	3195
824.949	3275
825.089	3214
825.228	3169
825.368	3066
825.508	2990
825.648	3020
825.787	3043
825.927	3066
826.067	3001
826.206	2994
826.346	3058
826.485	3123
826.625	3131
826.765	3283
826.904	3214
827.044	3020
827.183	2971
827.323	2899
827.462	3032
827.601	2914
827.741	2952
827.88	2948
828.02	2853
828.159	2963
828.298	3066
828.437	3142
828.577	3077
828.716	3253
828.855	3085
828.994	2990
829.134	2891
829.273	2948
829.412	2910
829.551	2868
829.69	2902
829.829	3032
829.968	3165
830.107	3070
830.246	3074
830.385	2922
830.524	2857
830.663	2830
830.802	2773
830.941	2659
831.08	2663
831.219	2785
831.357	2781
831.496	2967
831.635	2735
831.774	2678
831.913	2716
832.051	2530
832.19	2617
832.329	2708
832.467	2537
832.606	2492
832.744	2594
832.883	2613
833.022	2644
833.16	2682
833.299	2739
833.437	2724
833.576	2746
833.714	2724
833.852	2712
833.991	2743
834.129	2864
834.267	2857
834.406	2830
834.544	2891
834.682	2902
834.821	2876
834.959	3093
835.097	2952
835.235	3077
835.373	3032
835.511	3051
835.65	2952
835.788	2967
835.926	2853
836.064	2819
836.202	2838
836.34	3100
836.478	3176
836.615	3081
836.753	3150
836.891	3222
837.029	3154
837.167	3112
837.305	3085
837.443	3066
837.58	2994
837.718	3138
837.856	3074
837.993	3017
838.131	3112
838.269	3127
838.406	3097
838.544	3089
838.681	2956
838.819	2948
838.956	2823
839.094	2887
839.231	2918
839.369	3051
839.506	3378
839.643	3241
839.781	3039
839.918	2960
840.055	3085
840.193	3055
840.33	3100
840.467	3108
840.604	3195
840.742	3424
840.879	3070
841.016	3055
841.153	3135
841.29	3367
841.427	3329
841.564	3230
841.701	3321
841.838	3222
841.975	3192
842.112	3188
842.249	3093
842.385	3066
842.522	3272
842.659	3112
842.796	3089
842.933	3074
843.069	3093
843.206	3055
843.343	3184
843.479	3100
843.616	3123
843.752	2952
843.889	2910
844.025	3089
844.162	2933
844.298	3135
844.435	2963
844.571	2906
844.708	3070
844.844	3222
844.98	3233
845.117	3195
845.253	3077
845.389	3017
845.525	3119
845.661	3116
845.798	3074
845.934	3135
846.07	3077
846.206	3199
846.342	3332
846.478	3184
846.614	3100
846.75	3108
846.886	3039
847.022	3256
847.158	3146
847.294	3176
847.429	3264
847.565	3218
847.701	3481
847.837	3039
847.972	3013
848.108	3161
848.244	3146
848.379	3001
848.515	2971
848.65	2933
848.786	2986
848.921	3024
849.057	3142
849.192	3157
849.328	3085
849.463	3112
849.598	3039
849.734	3055
849.869	2967
850.004	2941
850.14	2994
850.275	2910
850.41	2876
850.545	2883
850.68	2925
850.815	2952
850.95	3013
851.085	3211
851.22	3119
851.355	3032
851.49	2994
851.625	3024
851.76	3036
851.895	2979
852.03	2899
852.165	2998
852.299	3123
852.434	3199
852.569	3157
852.703	3154
852.838	3260
852.973	3348
853.107	3310
853.242	3161
853.376	3108
853.511	2971
853.645	3009
853.78	3241
853.914	3116
854.048	3131
854.183	3081
854.317	3142
854.451	3298
854.585	3081
854.72	3100
854.854	3195
854.988	3093
855.122	3066
855.256	2998
855.39	3119
855.524	3222
855.658	3192
855.792	3173
855.926	3203
856.06	3222
856.194	3275
856.327	3150
856.461	3089
856.595	3100
856.729	3070
856.862	3211
856.996	3142
857.13	3207
857.263	3222
857.397	3268
857.53	3138
857.664	3211
857.797	3256
857.931	3272
858.064	3154
858.197	3222
858.331	3138
858.464	3108
858.597	3039
858.731	3123
858.864	3169
858.997	3108
859.13	3161
859.263	3253
859.396	3176
859.529	3123
859.662	3058
859.795	3047
859.928	3138
860.061	3302
860.194	3256
860.327	3142
860.46	3108
860.592	3222
860.725	3233
860.858	3294
860.99	3104
861.123	3070
861.256	3039
861.388	3169
861.521	3915
861.653	2982
861.786	2967
861.918	2994
862.05	3051
862.183	3066
862.315	3146
862.447	3195
862.58	3077
862.712	2902
862.844	2895
862.976	3005
863.108	3013
863.24	3332
863.372	2902
863.504	2944
863.636	2963
863.768	3039
863.9	2967
864.032	2891
864.164	2922
864.296	3020
864.428	3055
864.559	3142
864.691	3062
864.823	3070
864.954	3058
865.086	3017
865.217	2975
865.349	2956
865.48	2971
865.612	3028
865.743	3157
865.875	2986
866.006	2929
866.137	2956
866.269	2933
866.4	2941
866.531	2941
866.662	2922
866.793	2910
866.924	2880
867.055	2948
867.186	2925
867.317	2876
867.448	2838
867.579	2853
867.71	2842
867.841	2804
867.972	2925
868.103	2902
868.233	2887
868.364	2830
868.495	2910
868.625	3039
868.756	3135
868.886	2994
869.017	3013
869.147	3203
869.278	3203
869.408	3043
869.539	3009
869.669	3146
869.799	3001
869.929	3154
870.06	3119
870.19	3325
870.32	3260
870.45	3291
870.58	3363
870.71	3454
870.84	3420
870.97	3313
871.1	3226
871.23	3454
871.36	3447
871.489	3313
871.619	3378
871.749	3393
871.879	3466
872.008	3492
872.138	3351
872.267	3298
872.397	3176
872.526	3104
872.656	3001
872.785	3112
872.915	3279
873.044	3348
873.173	3256
873.303	3283
873.432	3245
873.561	3253
873.69	3161
873.819	3135
873.948	3226
874.077	3127
874.206	3036
874.335	3104
874.464	3195
874.593	3321
874.722	3222
874.851	3409
874.979	3351
875.108	3329
875.237	3188
875.365	3176
875.494	3146
875.623	3291
875.751	3062
875.88	3142
876.008	3218
876.136	3245
876.265	3378
876.393	3526
876.521	3439
876.65	3382
876.778	3363
876.906	3256
877.034	3184
877.162	3195
877.29	3192
877.418	3253
877.546	3253
877.674	3272
877.802	3241
877.93	3230
878.058	3112
878.185	3116
878.313	3199
878.441	3226
878.568	3074
878.696	3138
878.824	3249
878.951	3302
879.079	3443
879.206	3637
879.333	3447
879.461	3313
879.588	3363
879.715	3462
879.842	3572
879.97	3397
880.097	3173
880.224	3123
880.351	3226
880.478	3249
880.605	3173
880.732	3180
880.859	3526
880.986	3264
881.112	3302
881.239	3165
881.366	3097
881.493	3020
881.619	3039
881.746	3085
881.872	3116
881.999	3116
882.125	3131
882.252	3237
882.378	3275
882.505	3412
882.631	3283
882.757	3108
882.883	3211
883.01	3233
883.136	3138
883.262	3108
883.388	3108
883.514	3367
883.64	3355
883.766	3317
883.892	3214
884.018	3222
884.143	3412
884.269	3553
884.395	3218
884.52	3169
884.646	3161
884.772	3119
884.897	3081
885.023	3211
885.148	3302
885.274	3374
885.399	3370
885.524	3279
885.65	3279
885.775	3291
885.9	3283
886.025	3412
886.15	3401
886.275	3298
886.4	3268
886.525	3340
886.65	3291
886.775	3325
886.9	3481
887.025	3656
887.149	3405
887.274	3245
887.399	3188
887.523	3203
887.648	3188
887.773	3214
887.897	3389
888.021	3405
888.146	3283
888.27	3428
888.395	3526
888.519	3397
888.643	3450
888.767	3477
888.891	3332
889.015	3249
889.139	3287
889.263	3283
889.387	3409
889.511	3500
889.635	3469
889.759	3298
889.883	3283
890.006	3431
890.13	3507
890.254	3241
890.377	3287
890.501	3184
890.624	3176
890.748	3264
890.871	3173
890.995	3104
891.118	3062
891.241	3214
891.364	3214
891.488	3306
891.611	3165
891.734	3249
891.857	3310
891.98	3226
892.103	3363
892.226	3256
892.349	3230
892.471	3131
892.594	3237
892.717	3279
892.839	3260
892.962	3272
893.085	3310
893.207	3302
893.33	3169
893.452	3192
893.575	3351
893.697	3272
893.819	3450
893.941	3504
894.064	3469
894.186	3275
894.308	3256
894.43	3428
894.552	3519
894.674	3477
894.796	3287
894.918	3313
895.04	3294
895.161	3454
895.283	3378
895.405	3287
895.526	3367
895.648	3473
895.769	3431
895.891	3412
896.012	3428
896.134	3443
896.255	3435
896.376	3401
896.498	3378
896.619	3439
896.74	3367
896.861	3397
896.982	3660
897.103	3823
897.224	3572
897.345	3492
897.466	3412
897.587	3473
897.708	3603
897.828	3515
897.949	3454
898.07	3336
898.19	3416
898.311	3606
898.431	3435
898.552	3523
898.672	3561
898.792	3557
898.913	3504
899.033	3416
899.153	3332
899.273	3146
899.393	3245
899.513	3313
899.633	3294
899.753	3348
899.873	3332
899.993	3329
900.113	3340
900.232	3389
900.352	3298
900.472	3272
900.591	3207
900.711	3283
900.83	3283
900.95	3409
901.069	3492
901.189	3313
901.308	3169
901.427	3093
901.546	3199
901.665	3249
901.784	3355
901.904	3218
902.023	3138
902.141	3017
902.26	2986
902.379	3142
902.498	3085
902.617	3051
902.735	3207
902.854	3222
902.973	3169
903.091	3058
903.21	3070
903.328	3135
903.446	3112
903.565	3097
903.683	3165
903.801	3119
903.919	3241
904.038	3275
904.156	3135
904.274	3237
904.392	3253
904.51	3336
904.627	3291
904.745	3409
904.863	3485
904.981	3260
905.098	3188
905.216	3226
905.334	3264
905.451	3302
905.569	3329
905.686	3431
905.803	3412
905.921	3283
906.038	3447
906.155	3298
906.272	3306
906.389	3332
906.506	3230
906.623	3253
906.74	3291
906.857	3195
906.974	3207
907.091	3458
907.208	3568
907.324	3473
907.441	3374
907.557	3207
907.674	3214
907.79	3180
907.907	3256
908.023	3321
908.139	3363
908.256	3313
908.372	3386
908.488	3367
908.604	3253
908.72	3184
908.836	3287
908.952	3268
909.068	3325
909.184	3443
909.3	3401
909.415	3496
909.531	3477
909.647	3275
909.762	3264
909.878	3256
909.993	3367
910.108	3283
910.224	3351
910.339	3386
910.454	3302
910.57	3253
910.685	3272
910.8	3561
910.915	3587
911.03	3393
911.145	3291
911.259	3264
911.374	3283
911.489	3237
911.604	3226
911.718	3138
911.833	3176
911.947	3024
912.062	2963
912.176	3157
912.291	3169
912.405	3256
912.519	3443
912.633	3443
912.748	3351
912.862	3241
912.976	3165
913.09	3070
913.204	3142
913.318	3192
913.431	3291
913.545	3294
913.659	3370
913.772	3332
913.886	3203
914	3207
914.113	3378
914.226	3405
914.34	3340
914.453	3203
914.566	3401
914.68	3302
914.793	3313
914.906	3138
915.019	3100
915.132	3043
915.245	3184
915.358	3173
915.47	3287
915.583	3249
915.696	3287
915.809	3393
915.921	3424
916.034	3233
916.146	3287
916.259	3218
916.371	3378
916.483	3367
916.595	3256
916.708	3367
916.82	3321
916.932	3329
917.044	3336
917.156	3306
917.268	3264
917.38	3260
917.491	3291
917.603	3351
917.715	3462
917.826	3458
917.938	3374
918.049	3264
918.161	3450
918.272	3599
918.384	3542
918.495	3447
918.606	3313
918.717	3275
918.828	3363
918.939	3389
919.05	3313
919.161	3306
919.272	3157
919.383	3302
919.494	3473
919.604	3656
919.715	3458
919.826	3340
919.936	3458
920.047	3557
920.157	3523
920.267	3728
920.378	3603
920.488	3553
920.598	3747
920.708	3937
920.818	3842
920.928	3793
921.038	3998
921.148	3968
921.258	3705
921.368	3637
921.477	3549
921.587	3530
921.697	3477
921.806	3576
921.916	3515
922.025	3412
922.134	3344
922.244	3310
922.353	3424
922.462	3233
922.571	3226
922.68	3127
922.789	3058
922.898	3116
923.007	3093
923.116	3184
923.224	3165
923.333	3203
923.442	3089
923.55	3066
923.659	3123
923.767	3222
923.876	3135
923.984	3283
924.092	3074
924.201	3211
924.309	3218
924.417	3230
924.525	3199
924.633	3275
924.741	4128
924.849	3062
924.956	3283
925.064	3070
925.172	3047
925.279	3108
925.387	3180
925.494	3207
925.602	3336
925.709	3355
925.816	3199
925.924	3272
926.031	3340
926.138	3283
926.245	3344
926.352	3241
926.459	3412
926.566	3431
926.673	3329
926.779	3272
926.886	3260
926.993	3116
927.099	3138
927.206	3074
927.312	3100
927.419	3241
927.525	3207
927.631	3237
927.737	3093
927.843	3131
927.95	3001
928.056	3116
928.162	3154
928.267	3192
928.373	3717
928.479	3279
928.585	3047
928.69	3233
928.796	3302
928.901	3138
929.007	3039
929.112	3199
929.218	3173
929.323	3154
929.428	3135
929.533	3275
929.638	3119
929.743	3173
929.848	3256
929.953	3222
930.058	3112
930.163	2971
930.267	3070
930.372	3211
930.477	3032
930.581	3287
930.685	3176
930.79	3028
930.894	3097
930.998	3066
931.103	3237
931.207	2937
931.311	2899
931.415	2922
931.519	2769
931.623	2834
