Data from test_V78500241_765.txt Node
Date: Fri Mar 25 16:20:30 CST 2022
User: usil
Spectrometer: V785-0024
Trigger mode: 0
Integration Time (sec): 4.000000E-1
Scans to average: 1
Nonlinearity correction enabled: false
Boxcar width: 0
Storing dark spectrum: false
XAxis mode: Wavelengths
Number of Pixels in Spectrum: 1024
>>>>>Begin Spectral Data<<<<<
801.071	2944
801.214	2971
801.356	2842
801.499	2891
801.641	2891
801.783	2944
801.926	3066
802.068	2956
802.211	3001
802.353	3005
802.496	2941
802.638	3036
802.78	3055
802.923	3104
803.065	2967
803.208	2895
803.35	2967
803.492	2925
803.635	2967
803.777	2750
803.919	2876
804.061	3192
804.204	2948
804.346	2925
804.488	2876
804.63	3005
804.773	2899
804.915	2887
805.057	3093
805.199	2925
805.341	2986
805.483	3017
805.626	2975
805.768	2971
805.91	3138
806.052	3142
806.194	3043
806.336	3294
806.478	3047
806.62	2918
806.762	2982
806.904	3024
807.046	3150
807.188	2994
807.33	2952
807.472	3028
807.614	2941
807.756	2990
807.898	2933
808.04	2933
808.182	2979
808.324	2944
808.465	2853
808.607	2895
808.749	2819
808.891	2819
809.033	3024
809.174	2971
809.316	2944
809.458	2868
809.6	2777
809.741	2785
809.883	2773
810.025	2864
810.166	2838
810.308	2902
810.45	2868
810.591	2811
810.733	2823
810.875	2830
811.016	2781
811.158	2735
811.299	2838
811.441	2944
811.582	2891
811.724	2849
811.865	2868
812.007	2910
812.148	2914
812.29	2842
812.431	2880
812.573	2944
812.714	2979
812.855	3089
812.997	3062
813.138	3154
813.279	2975
813.421	2990
813.562	2971
813.703	2902
813.845	2910
813.986	2781
814.127	2739
814.268	2838
814.41	2823
814.551	2811
814.692	2857
814.833	2796
814.974	2906
815.115	2971
815.256	2834
815.397	2815
815.539	2899
815.68	2766
815.821	2781
815.962	2963
816.103	2975
816.244	2872
816.385	2842
816.526	2975
816.666	2922
816.807	2758
816.948	2922
817.089	2922
817.23	2880
817.371	2800
817.512	2823
817.653	2842
817.793	2796
817.934	2880
818.075	2990
818.216	2979
818.356	2986
818.497	2922
818.638	2762
818.778	2796
818.919	2811
819.06	2792
819.2	2910
819.341	2788
819.481	2815
819.622	2891
819.762	3108
819.903	3032
820.043	2887
820.184	2914
820.324	2925
820.465	2998
820.605	3001
820.746	3024
820.886	2944
821.026	3097
821.167	3142
821.307	3291
821.447	3260
821.588	3226
821.728	3195
821.868	3222
822.008	3047
822.149	3233
822.289	3207
822.429	3123
822.569	3070
822.709	3138
822.849	3043
822.99	3104
823.13	3150
823.27	3154
823.41	3097
823.55	3146
823.69	3123
823.83	3203
823.97	3062
824.11	3036
824.25	3013
824.389	3062
824.529	3123
824.669	3066
824.809	3180
824.949	3260
825.089	3199
825.228	3169
825.368	2994
825.508	2994
825.648	2948
825.787	3020
825.927	3024
826.067	2998
826.206	2979
826.346	3032
826.485	3093
826.625	3131
826.765	3302
826.904	3199
827.044	3020
827.183	2937
827.323	2864
827.462	2982
827.601	2910
827.741	2948
827.88	2941
828.02	2853
828.159	3013
828.298	3032
828.437	3066
828.577	3058
828.716	3245
828.855	3062
828.994	2941
829.134	2876
829.273	2899
829.412	2906
829.551	2876
829.69	2868
829.829	2986
829.968	3142
830.107	2998
830.246	3032
830.385	2914
830.524	2895
830.663	2845
830.802	2712
830.941	2644
831.08	2648
831.219	2777
831.357	2758
831.496	2941
831.635	2735
831.774	2636
831.913	2648
832.051	2526
832.19	2590
832.329	2693
832.467	2530
832.606	2514
832.744	2602
832.883	2598
833.022	2587
833.16	2689
833.299	2686
833.437	2693
833.576	2693
833.714	2716
833.852	2693
833.991	2754
834.129	2830
834.267	2830
834.406	2807
834.544	2883
834.682	2880
834.821	2861
834.959	3047
835.097	2902
835.235	3070
835.373	3001
835.511	3005
835.65	2952
835.788	2933
835.926	2845
836.064	2792
836.202	2853
836.34	3070
836.478	3142
836.615	3024
836.753	3119
836.891	3150
837.029	3165
837.167	3100
837.305	3051
837.443	3051
837.58	2971
837.718	3142
837.856	3081
837.993	3005
838.131	3104
838.269	3104
838.406	3097
838.544	3074
838.681	2891
838.819	2944
838.956	2800
839.094	2815
839.231	2906
839.369	3005
839.506	3386
839.643	3184
839.781	3024
839.918	2975
840.055	3032
840.193	3074
840.33	3089
840.467	3085
840.604	3142
840.742	3416
840.879	3043
841.016	3058
841.153	3142
841.29	3313
841.427	3298
841.564	3218
841.701	3302
841.838	3218
841.975	3146
842.112	3154
842.249	3104
842.385	3039
842.522	3245
842.659	3093
842.796	3058
842.933	3104
843.069	3032
843.206	3058
843.343	3230
843.479	3066
843.616	3138
843.752	2853
843.889	2868
844.025	3097
844.162	2887
844.298	3051
844.435	2918
844.571	2918
844.708	3051
844.844	3211
844.98	3233
845.117	3195
845.253	3005
845.389	3017
845.525	3100
845.661	3066
845.798	3024
845.934	3116
846.07	3039
846.206	3233
846.342	3310
846.478	3241
846.614	3081
846.75	3017
846.886	3043
847.022	3253
847.158	3116
847.294	3237
847.429	3214
847.565	3199
847.701	3473
847.837	2998
847.972	2998
848.108	3150
848.244	3161
848.379	3001
848.515	2952
848.65	2914
848.786	2952
848.921	3024
849.057	3127
849.192	3146
849.328	3077
849.463	3074
849.598	3051
849.734	3039
849.869	2933
850.004	2899
850.14	2967
850.275	2929
850.41	2823
850.545	2914
850.68	2914
850.815	2952
850.95	2971
851.085	3176
851.22	3100
851.355	3017
851.49	2982
851.625	2982
851.76	3013
851.895	2944
852.03	2925
852.165	3020
852.299	3093
852.434	3176
852.569	3108
852.703	3138
852.838	3275
852.973	3321
853.107	3310
853.242	3169
853.376	3093
853.511	2967
853.645	3024
853.78	3245
853.914	3104
854.048	3108
854.183	3100
854.317	3161
854.451	3256
854.585	3154
854.72	3036
854.854	3192
854.988	3097
855.122	3085
855.256	2982
855.39	3066
855.524	3245
855.658	3192
855.792	3112
855.926	3192
856.06	3211
856.194	3253
856.327	3150
856.461	3036
856.595	3058
856.729	3070
856.862	3260
856.996	3161
857.13	3199
857.263	3214
857.397	3268
857.53	3112
857.664	3199
857.797	3241
857.931	3256
858.064	3161
858.197	3222
858.331	3142
858.464	3085
858.597	3024
858.731	3104
858.864	3108
858.997	3093
859.13	3112
859.263	3176
859.396	3211
859.529	3070
859.662	3070
859.795	3043
859.928	3112
860.061	3256
860.194	3310
860.327	3135
860.46	3058
860.592	3199
860.725	3264
860.858	3233
860.99	3093
861.123	3043
861.256	3032
861.388	3127
861.521	3896
861.653	3005
861.786	2971
861.918	2986
862.05	3043
862.183	3135
862.315	3165
862.447	3173
862.58	3085
862.712	2975
862.844	2891
862.976	3013
863.108	2990
863.24	3370
863.372	2887
863.504	2963
863.636	2914
863.768	3020
863.9	2944
864.032	2910
864.164	2960
864.296	3013
864.428	3066
864.559	3146
864.691	3043
864.823	3062
864.954	3020
865.086	3051
865.217	2960
865.349	2941
865.48	2952
865.612	3017
865.743	3097
865.875	3005
866.006	2952
866.137	2971
866.269	2929
866.4	2960
866.531	2933
866.662	2883
866.793	2887
866.924	2876
867.055	2960
867.186	2918
867.317	2864
867.448	2834
867.579	2815
867.71	2823
867.841	2807
867.972	2914
868.103	2948
868.233	2876
868.364	2864
868.495	2899
868.625	3097
868.756	3195
868.886	2979
869.017	3009
869.147	3169
869.278	3131
869.408	3051
869.539	3055
869.669	3085
869.799	3058
869.929	3116
870.06	3077
870.19	3291
870.32	3287
870.45	3294
870.58	3359
870.71	3431
870.84	3473
870.97	3268
871.1	3218
871.23	3431
871.36	3458
871.489	3325
871.619	3401
871.749	3389
871.879	3443
872.008	3450
872.138	3363
872.267	3264
872.397	3127
872.526	3093
872.656	3047
872.785	3108
872.915	3233
873.044	3332
873.173	3207
873.303	3260
873.432	3230
873.561	3203
873.69	3173
873.819	3161
873.948	3218
874.077	3123
874.206	3001
874.335	3089
874.464	3199
874.593	3340
874.722	3279
874.851	3367
874.979	3344
875.108	3317
875.237	3203
875.365	3127
875.494	3165
875.623	3226
875.751	3104
875.88	3112
876.008	3161
876.136	3237
876.265	3348
876.393	3481
876.521	3416
876.65	3397
876.778	3302
876.906	3237
877.034	3180
877.162	3199
877.29	3176
877.418	3275
877.546	3253
877.674	3275
877.802	3222
877.93	3237
878.058	3150
878.185	3119
878.313	3184
878.441	3195
878.568	3089
878.696	3112
878.824	3203
878.951	3279
879.079	3431
879.206	3595
879.333	3469
879.461	3336
879.588	3351
879.715	3523
879.842	3580
879.97	3435
880.097	3180
880.224	3112
880.351	3184
880.478	3207
880.605	3192
880.732	3165
880.859	3462
880.986	3287
881.112	3348
881.239	3199
881.366	3077
881.493	3013
881.619	3017
881.746	3047
881.872	3066
881.999	3108
882.125	3104
882.252	3241
882.378	3268
882.505	3439
882.631	3268
882.757	3100
882.883	3233
883.01	3214
883.136	3119
883.262	3146
883.388	3123
883.514	3317
883.64	3351
883.766	3348
883.892	3180
884.018	3207
884.143	3386
884.269	3553
884.395	3203
884.52	3154
884.646	3211
884.772	3104
884.897	3104
885.023	3180
885.148	3313
885.274	3416
885.399	3359
885.524	3275
885.65	3241
885.775	3283
885.9	3237
886.025	3424
886.15	3386
886.275	3279
886.4	3222
886.525	3329
886.65	3256
886.775	3256
886.9	3523
887.025	3580
887.149	3401
887.274	3260
887.399	3173
887.523	3169
887.648	3184
887.773	3180
887.897	3367
888.021	3416
888.146	3241
888.27	3428
888.395	3580
888.519	3435
888.643	3447
888.767	3462
888.891	3310
889.015	3241
889.139	3279
889.263	3272
889.387	3378
889.511	3485
889.635	3412
889.759	3302
889.883	3291
890.006	3428
890.13	3469
890.254	3260
890.377	3321
890.501	3184
890.624	3165
890.748	3287
890.871	3165
890.995	3108
891.118	3062
891.241	3161
891.364	3211
891.488	3317
891.611	3173
891.734	3214
891.857	3283
891.98	3233
892.103	3329
892.226	3298
892.349	3199
892.471	3138
892.594	3237
892.717	3287
892.839	3272
892.962	3249
893.085	3332
893.207	3302
893.33	3116
893.452	3199
893.575	3340
893.697	3218
893.819	3450
893.941	3523
894.064	3397
894.186	3226
894.308	3222
894.43	3435
894.552	3557
894.674	3450
894.796	3222
894.918	3340
895.04	3272
895.161	3389
895.283	3405
895.405	3268
895.526	3405
895.648	3412
895.769	3492
895.891	3473
896.012	3492
896.134	3458
896.255	3397
896.376	3370
896.498	3359
896.619	3454
896.74	3336
896.861	3386
896.982	3622
897.103	3789
897.224	3625
897.345	3500
897.466	3447
897.587	3507
897.708	3606
897.828	3523
897.949	3416
898.07	3306
898.19	3401
898.311	3599
898.431	3462
898.552	3511
898.672	3587
898.792	3561
898.913	3496
899.033	3412
899.153	3283
899.273	3241
899.393	3298
899.513	3336
899.633	3329
899.753	3355
899.873	3264
899.993	3363
900.113	3332
900.232	3367
900.352	3336
900.472	3302
900.591	3207
900.711	3291
900.83	3214
900.95	3416
901.069	3488
901.189	3389
901.308	3176
901.427	3119
901.546	3180
901.665	3237
901.784	3321
901.904	3188
902.023	3165
902.141	3013
902.26	3009
902.379	3142
902.498	3077
902.617	3070
902.735	3192
902.854	3233
902.973	3203
903.091	3017
903.21	3047
903.328	3104
903.446	3112
903.565	3119
903.683	3188
903.801	3116
903.919	3253
904.038	3253
904.156	3214
904.274	3310
904.392	3237
904.51	3298
904.627	3260
904.745	3469
904.863	3477
904.981	3279
905.098	3176
905.216	3241
905.334	3291
905.451	3310
905.569	3321
905.686	3462
905.803	3439
905.921	3275
906.038	3443
906.155	3344
906.272	3253
906.389	3294
906.506	3256
906.623	3245
906.74	3283
906.857	3184
906.974	3241
907.091	3454
907.208	3572
907.324	3523
907.441	3397
907.557	3249
907.674	3249
907.79	3192
907.907	3268
908.023	3386
908.139	3340
908.256	3325
908.372	3336
908.488	3336
908.604	3275
908.72	3264
908.836	3260
908.952	3287
909.068	3325
909.184	3462
909.3	3393
909.415	3507
909.531	3473
909.647	3272
909.762	3283
909.878	3249
909.993	3336
910.108	3321
910.224	3355
910.339	3393
910.454	3332
910.57	3287
910.685	3287
910.8	3595
910.915	3504
911.03	3466
911.145	3279
911.259	3272
911.374	3302
911.489	3241
911.604	3233
911.718	3108
911.833	3184
911.947	3028
912.062	2986
912.176	3161
912.291	3184
912.405	3199
912.519	3405
912.633	3443
912.748	3298
912.862	3260
912.976	3211
913.09	3051
913.204	3142
913.318	3203
913.431	3348
913.545	3317
913.659	3393
913.772	3317
913.886	3192
914	3195
914.113	3363
914.226	3389
914.34	3340
914.453	3180
914.566	3420
914.68	3313
914.793	3283
914.906	3127
915.019	3116
915.132	3070
915.245	3154
915.358	3203
915.47	3214
915.583	3291
915.696	3291
915.809	3367
915.921	3439
916.034	3222
916.146	3249
916.259	3245
916.371	3370
916.483	3393
916.595	3279
916.708	3348
916.82	3321
916.932	3355
917.044	3370
917.156	3359
917.268	3272
917.38	3291
917.491	3275
917.603	3359
917.715	3389
917.826	3466
917.938	3378
918.049	3256
918.161	3397
918.272	3606
918.384	3580
918.495	3496
918.606	3317
918.717	3245
918.828	3348
918.939	3393
919.05	3260
919.161	3370
919.272	3169
919.383	3291
919.494	3481
919.604	3686
919.715	3519
919.826	3389
919.936	3435
920.047	3618
920.157	3526
920.267	3728
920.378	3580
920.488	3557
920.598	3762
920.708	3972
920.818	3816
920.928	3861
921.038	4029
921.148	4010
921.258	3694
921.368	3603
921.477	3568
921.587	3542
921.697	3481
921.806	3614
921.916	3477
922.025	3336
922.134	3329
922.244	3302
922.353	3428
922.462	3287
922.571	3218
922.68	3123
922.789	3074
922.898	3165
923.007	3104
923.116	3188
923.224	3173
923.333	3157
923.442	3093
923.55	3100
923.659	3131
923.767	3222
923.876	3123
923.984	3260
924.092	3131
924.201	3188
924.309	3218
924.417	3253
924.525	3154
924.633	3222
924.741	4169
924.849	3009
924.956	3256
925.064	3085
925.172	3013
925.279	3070
925.387	3169
925.494	3173
925.602	3363
925.709	3344
925.816	3157
925.924	3283
926.031	3355
926.138	3344
926.245	3363
926.352	3245
926.459	3420
926.566	3416
926.673	3321
926.779	3256
926.886	3249
926.993	3165
927.099	3157
927.206	3112
927.312	3093
927.419	3214
927.525	3184
927.631	3264
927.737	3165
927.843	3138
927.95	3036
928.056	3150
928.162	3157
928.267	3245
928.373	3766
928.479	3313
928.585	3066
928.69	3237
928.796	3294
928.901	3165
929.007	3051
929.112	3199
929.218	3142
929.323	3097
929.428	3146
929.533	3287
929.638	3093
929.743	3176
929.848	3275
929.953	3226
930.058	3173
930.163	3009
930.267	3051
930.372	3207
930.477	3039
930.581	3306
930.685	3195
930.79	3081
930.894	3131
930.998	3104
931.103	3272
931.207	2933
931.311	2910
931.415	2933
931.519	2746
931.623	2826
