Data from test_V78500241_325.txt Node
Date: Fri Mar 25 16:17:27 CST 2022
User: usil
Spectrometer: V785-0024
Trigger mode: 0
Integration Time (sec): 4.000000E-1
Scans to average: 1
Nonlinearity correction enabled: false
Boxcar width: 0
Storing dark spectrum: false
XAxis mode: Wavelengths
Number of Pixels in Spectrum: 1024
>>>>>Begin Spectral Data<<<<<
801.071	2914
801.214	2899
801.356	2880
801.499	2910
801.641	2872
801.783	2937
801.926	3039
802.068	2963
802.211	2986
802.353	3036
802.496	2960
802.638	2986
802.78	3036
802.923	3039
803.065	2963
803.208	2880
803.35	2910
803.492	2948
803.635	2933
803.777	2743
803.919	2876
804.061	3203
804.204	2956
804.346	2887
804.488	2823
804.63	3001
804.773	2853
804.915	2868
805.057	3077
805.199	2914
805.341	2979
805.483	3032
805.626	3032
805.768	2960
805.91	3043
806.052	3108
806.194	3058
806.336	3260
806.478	3039
806.62	2933
806.762	2998
806.904	3047
807.046	3173
807.188	2933
807.33	2933
807.472	3005
807.614	2910
807.756	3001
807.898	2918
808.04	2910
808.182	2956
808.324	2918
808.465	2899
808.607	2899
808.749	2750
808.891	2853
809.033	2990
809.174	2994
809.316	2910
809.458	2891
809.6	2815
809.741	2773
809.883	2746
810.025	2849
810.166	2868
810.308	2830
810.45	2868
810.591	2769
810.733	2788
810.875	2861
811.016	2769
811.158	2735
811.299	2796
811.441	2929
811.582	2876
811.724	2838
811.865	2845
812.007	2914
812.148	2864
812.29	2826
812.431	2895
812.573	2902
812.714	2994
812.855	3070
812.997	3077
813.138	3131
813.279	3039
813.421	2963
813.562	2990
813.703	2887
813.845	2914
813.986	2773
814.127	2758
814.268	2826
814.41	2826
814.551	2815
814.692	2910
814.833	2823
814.974	2861
815.115	2948
815.256	2804
815.397	2838
815.539	2872
815.68	2769
815.821	2781
815.962	2922
816.103	2883
816.244	2880
816.385	2849
816.526	2956
816.666	2914
816.807	2746
816.948	2887
817.089	2891
817.23	2842
817.371	2773
817.512	2754
817.653	2815
817.793	2826
817.934	2838
818.075	2956
818.216	2963
818.356	3039
818.497	2883
818.638	2766
818.778	2823
818.919	2804
819.06	2739
819.2	2887
819.341	2792
819.481	2849
819.622	2929
819.762	3081
819.903	3055
820.043	2941
820.184	2861
820.324	2891
820.465	2982
820.605	2975
820.746	2982
820.886	2906
821.026	3108
821.167	3199
821.307	3249
821.447	3260
821.588	3207
821.728	3192
821.868	3180
822.008	3055
822.149	3192
822.289	3214
822.429	3116
822.569	3097
822.709	3188
822.849	3017
822.99	3077
823.13	3157
823.27	3165
823.41	3097
823.55	3127
823.69	3146
823.83	3146
823.97	3097
824.11	3024
824.25	2998
824.389	3081
824.529	3104
824.669	3062
824.809	3180
824.949	3260
825.089	3184
825.228	3146
825.368	2998
825.508	2937
825.648	2963
825.787	3009
825.927	3001
826.067	2975
826.206	2979
826.346	3043
826.485	3066
826.625	3150
826.765	3222
826.904	3184
827.044	3001
827.183	2914
827.323	2849
827.462	3001
827.601	2922
827.741	2941
827.88	2960
828.02	2845
828.159	2967
828.298	3024
828.437	3108
828.577	3032
828.716	3253
828.855	3097
828.994	2883
829.134	2868
829.273	2895
829.412	2849
829.551	2842
829.69	2906
829.829	3020
829.968	3097
830.107	2998
830.246	3024
830.385	2918
830.524	2891
830.663	2785
830.802	2708
830.941	2659
831.08	2659
831.219	2743
831.357	2758
831.496	2941
831.635	2705
831.774	2606
831.913	2689
832.051	2537
832.19	2598
832.329	2682
832.467	2560
832.606	2476
832.744	2568
832.883	2568
833.022	2598
833.16	2621
833.299	2678
833.437	2697
833.576	2648
833.714	2724
833.852	2712
833.991	2750
834.129	2880
834.267	2788
834.406	2788
834.544	2872
834.682	2838
834.821	2876
834.959	3051
835.097	2925
835.235	3066
835.373	2990
835.511	3017
835.65	2956
835.788	2944
835.926	2842
836.064	2819
836.202	2845
836.34	3085
836.478	3176
836.615	3043
836.753	3131
836.891	3214
837.029	3176
837.167	3100
837.305	3055
837.443	3066
837.58	2982
837.718	3131
837.856	3039
837.993	3005
838.131	3146
838.269	3097
838.406	3097
838.544	3097
838.681	2929
838.819	2922
838.956	2807
839.094	2834
839.231	2906
839.369	3032
839.506	3416
839.643	3211
839.781	3017
839.918	2956
840.055	3062
840.193	3055
840.33	3039
840.467	3066
840.604	3108
840.742	3340
840.879	3070
841.016	3070
841.153	3123
841.29	3321
841.427	3268
841.564	3272
841.701	3321
841.838	3207
841.975	3192
842.112	3211
842.249	3077
842.385	3043
842.522	3268
842.659	3089
842.796	3051
842.933	3104
843.069	3074
843.206	3013
843.343	3169
843.479	3116
843.616	3127
843.752	2914
843.889	2883
844.025	3108
844.162	2861
844.298	3074
844.435	2944
844.571	2910
844.708	3043
844.844	3180
844.98	3195
845.117	3195
845.253	3058
845.389	3001
845.525	3093
845.661	3066
845.798	2994
845.934	3119
846.07	3043
846.206	3207
846.342	3332
846.478	3211
846.614	3085
846.75	3051
846.886	3047
847.022	3222
847.158	3127
847.294	3192
847.429	3230
847.565	3188
847.701	3462
847.837	3032
847.972	3020
848.108	3150
848.244	3142
848.379	2990
848.515	2990
848.65	2952
848.786	2986
848.921	2990
849.057	3089
849.192	3165
849.328	3093
849.463	3119
849.598	3104
849.734	3013
849.869	2933
850.004	2872
850.14	2963
850.275	2899
850.41	2842
850.545	2902
850.68	2937
850.815	2956
850.95	2975
851.085	3150
851.22	3081
851.355	3005
851.49	2956
851.625	2971
851.76	3028
851.895	2956
852.03	2918
852.165	3024
852.299	3100
852.434	3157
852.569	3142
852.703	3169
852.838	3222
852.973	3283
853.107	3325
853.242	3146
853.376	3104
853.511	2956
853.645	3066
853.78	3253
853.914	3108
854.048	3104
854.183	3074
854.317	3150
854.451	3306
854.585	3112
854.72	3062
854.854	3211
854.988	3047
855.122	3104
855.256	2941
855.39	3108
855.524	3264
855.658	3199
855.792	3154
855.926	3161
856.06	3199
856.194	3207
856.327	3142
856.461	3077
856.595	3104
856.729	3093
856.862	3241
856.996	3173
857.13	3214
857.263	3218
857.397	3241
857.53	3104
857.664	3180
857.797	3245
857.931	3233
858.064	3188
858.197	3192
858.331	3127
858.464	3108
858.597	3005
858.731	3100
858.864	3116
858.997	3070
859.13	3150
859.263	3157
859.396	3195
859.529	3051
859.662	3093
859.795	3028
859.928	3142
860.061	3294
860.194	3294
860.327	3165
860.46	3112
860.592	3256
860.725	3230
860.858	3218
860.99	3116
861.123	3085
861.256	3051
861.388	3119
861.521	3842
861.653	3009
861.786	2994
861.918	2967
862.05	3058
862.183	3104
862.315	3123
862.447	3199
862.58	3074
862.712	2971
862.844	2872
862.976	3039
863.108	3020
863.24	3363
863.372	2883
863.504	2975
863.636	2933
863.768	3039
863.9	3017
864.032	2845
864.164	2914
864.296	3032
864.428	3039
864.559	3097
864.691	3093
864.823	3058
864.954	3066
865.086	3047
865.217	3017
865.349	2948
865.48	2986
865.612	3013
865.743	3169
865.875	2963
866.006	2960
866.137	2948
866.269	2960
866.4	2914
866.531	2883
866.662	2902
866.793	2910
866.924	2872
867.055	2998
867.186	2910
867.317	2891
867.448	2815
867.579	2849
867.71	2815
867.841	2834
867.972	2899
868.103	2891
868.233	2857
868.364	2868
868.495	2883
868.625	3036
868.756	3173
868.886	2967
869.017	3028
869.147	3165
869.278	3150
869.408	3051
869.539	3001
869.669	3146
869.799	3081
869.929	3142
870.06	3119
870.19	3325
870.32	3253
870.45	3313
870.58	3370
870.71	3469
870.84	3431
870.97	3317
871.1	3253
871.23	3469
871.36	3462
871.489	3340
871.619	3378
871.749	3397
871.879	3450
872.008	3469
872.138	3329
872.267	3275
872.397	3127
872.526	3097
872.656	2975
872.785	3097
872.915	3230
873.044	3310
873.173	3233
873.303	3195
873.432	3256
873.561	3249
873.69	3188
873.819	3138
873.948	3207
874.077	3089
874.206	3032
874.335	3070
874.464	3233
874.593	3336
874.722	3283
874.851	3389
874.979	3363
875.108	3348
875.237	3180
875.365	3165
875.494	3203
875.623	3260
875.751	3089
875.88	3112
876.008	3207
876.136	3222
876.265	3370
876.393	3511
876.521	3409
876.65	3393
876.778	3359
876.906	3214
877.034	3230
877.162	3245
877.29	3165
877.418	3283
877.546	3230
877.674	3192
877.802	3180
877.93	3203
878.058	3146
878.185	3112
878.313	3218
878.441	3253
878.568	3047
878.696	3138
878.824	3283
878.951	3268
879.079	3416
879.206	3599
879.333	3454
879.461	3313
879.588	3370
879.715	3447
879.842	3580
879.97	3359
880.097	3131
880.224	3146
880.351	3169
880.478	3207
880.605	3195
880.732	3203
880.859	3435
880.986	3306
881.112	3340
881.239	3192
881.366	3077
881.493	3036
881.619	3032
881.746	3051
881.872	3043
881.999	3097
882.125	3142
882.252	3233
882.378	3302
882.505	3435
882.631	3260
882.757	3104
882.883	3214
883.01	3192
883.136	3116
883.262	3127
883.388	3093
883.514	3317
883.64	3367
883.766	3302
883.892	3184
884.018	3241
884.143	3393
884.269	3504
884.395	3199
884.52	3131
884.646	3157
884.772	3104
884.897	3119
885.023	3233
885.148	3321
885.274	3435
885.399	3332
885.524	3260
885.65	3253
885.775	3287
885.9	3253
886.025	3420
886.15	3344
886.275	3310
886.4	3241
886.525	3287
886.65	3245
886.775	3268
886.9	3530
887.025	3603
887.149	3370
887.274	3256
887.399	3211
887.523	3173
887.648	3233
887.773	3195
887.897	3348
888.021	3416
888.146	3310
888.27	3420
888.395	3523
888.519	3420
888.643	3435
888.767	3450
888.891	3291
889.015	3245
889.139	3283
889.263	3245
889.387	3389
889.511	3523
889.635	3462
889.759	3310
889.883	3310
890.006	3382
890.13	3519
890.254	3279
890.377	3348
890.501	3211
890.624	3142
890.748	3275
890.871	3157
890.995	3085
891.118	3055
891.241	3195
891.364	3184
891.488	3275
891.611	3195
891.734	3233
891.857	3298
891.98	3226
892.103	3359
892.226	3310
892.349	3207
892.471	3123
892.594	3264
892.717	3325
892.839	3275
892.962	3230
893.085	3397
893.207	3283
893.33	3150
893.452	3245
893.575	3370
893.697	3245
893.819	3454
893.941	3496
894.064	3416
894.186	3233
894.308	3260
894.43	3420
894.552	3549
894.674	3511
894.796	3287
894.918	3291
895.04	3306
895.161	3412
895.283	3374
895.405	3306
895.526	3355
895.648	3450
895.769	3401
895.891	3481
896.012	3485
896.134	3500
896.255	3420
896.376	3378
896.498	3329
896.619	3416
896.74	3367
896.861	3401
896.982	3625
897.103	3846
897.224	3557
897.345	3519
897.466	3443
897.587	3473
897.708	3625
897.828	3549
897.949	3450
898.07	3348
898.19	3370
898.311	3584
898.431	3420
898.552	3557
898.672	3580
898.792	3580
898.913	3542
899.033	3424
899.153	3279
899.273	3211
899.393	3306
899.513	3317
899.633	3310
899.753	3313
899.873	3325
899.993	3382
900.113	3329
900.232	3424
900.352	3363
900.472	3298
900.591	3214
900.711	3291
900.83	3264
900.95	3355
901.069	3485
901.189	3329
901.308	3188
901.427	3119
901.546	3184
901.665	3260
901.784	3321
901.904	3249
902.023	3142
902.141	2982
902.26	2990
902.379	3131
902.498	3104
902.617	3043
902.735	3188
902.854	3218
902.973	3192
903.091	3024
903.21	3066
903.328	3131
903.446	3119
903.565	3070
903.683	3184
903.801	3142
903.919	3233
904.038	3253
904.156	3150
904.274	3310
904.392	3237
904.51	3313
904.627	3355
904.745	3416
904.863	3492
904.981	3249
905.098	3154
905.216	3214
905.334	3329
905.451	3298
905.569	3344
905.686	3424
905.803	3443
905.921	3279
906.038	3389
906.155	3336
906.272	3310
906.389	3336
906.506	3199
906.623	3249
906.74	3253
906.857	3207
906.974	3214
907.091	3439
907.208	3580
907.324	3515
907.441	3386
907.557	3233
907.674	3195
907.79	3195
907.907	3275
908.023	3424
908.139	3382
908.256	3321
908.372	3416
908.488	3370
908.604	3275
908.72	3184
908.836	3264
908.952	3321
909.068	3325
909.184	3477
909.3	3382
909.415	3534
909.531	3424
909.647	3291
909.762	3279
909.878	3291
909.993	3351
910.108	3321
910.224	3370
910.339	3431
910.454	3313
910.57	3279
910.685	3233
910.8	3625
910.915	3549
911.03	3450
911.145	3268
911.259	3283
911.374	3344
911.489	3203
911.604	3222
911.718	3100
911.833	3146
911.947	3043
912.062	2994
912.176	3218
912.291	3222
912.405	3211
912.519	3447
912.633	3450
912.748	3348
912.862	3294
912.976	3165
913.09	3066
913.204	3131
913.318	3237
913.431	3340
913.545	3325
913.659	3409
913.772	3321
913.886	3211
914	3116
914.113	3397
914.226	3435
914.34	3332
914.453	3192
914.566	3454
914.68	3264
914.793	3317
914.906	3138
915.019	3116
915.132	3077
915.245	3154
915.358	3192
915.47	3207
915.583	3287
915.696	3298
915.809	3386
915.921	3469
916.034	3211
916.146	3207
916.259	3169
916.371	3336
916.483	3355
916.595	3294
916.708	3306
916.82	3340
916.932	3332
917.044	3321
917.156	3359
917.268	3245
917.38	3279
917.491	3302
917.603	3344
917.715	3443
917.826	3488
917.938	3359
918.049	3253
918.161	3439
918.272	3519
918.384	3530
918.495	3526
918.606	3325
918.717	3272
918.828	3351
918.939	3382
919.05	3283
919.161	3367
919.272	3154
919.383	3272
919.494	3515
919.604	3682
919.715	3515
919.826	3428
919.936	3454
920.047	3580
920.157	3530
920.267	3762
920.378	3648
920.488	3549
920.598	3766
920.708	3911
920.818	3812
920.928	3800
921.038	4002
921.148	3987
921.258	3698
921.368	3648
921.477	3545
921.587	3538
921.697	3416
921.806	3671
921.916	3519
922.025	3355
922.134	3405
922.244	3359
922.353	3473
922.462	3222
922.571	3230
922.68	3123
922.789	3081
922.898	3150
923.007	3081
923.116	3245
923.224	3192
923.333	3180
923.442	3089
923.55	3123
923.659	3135
923.767	3241
923.876	3146
923.984	3230
924.092	3097
924.201	3180
924.309	3218
924.417	3253
924.525	3260
924.633	3268
924.741	4219
924.849	3081
924.956	3275
925.064	3131
925.172	3081
925.279	3123
925.387	3249
925.494	3249
925.602	3389
925.709	3329
925.816	3207
925.924	3302
926.031	3428
926.138	3393
926.245	3397
926.352	3291
926.459	3488
926.566	3488
926.673	3336
926.779	3268
926.886	3279
926.993	3199
927.099	3184
927.206	3154
927.312	3173
927.419	3294
927.525	3275
927.631	3359
927.737	3173
927.843	3154
927.95	3047
928.056	3157
928.162	3214
928.267	3310
928.373	3876
928.479	3367
928.585	3123
928.69	3245
928.796	3332
928.901	3214
929.007	3077
929.112	3253
929.218	3226
929.323	3203
929.428	3211
929.533	3359
929.638	3176
929.743	3226
929.848	3332
929.953	3237
930.058	3165
930.163	3058
930.267	3100
930.372	3226
930.477	3081
930.581	3329
930.685	3218
930.79	3112
930.894	3146
930.998	3131
931.103	3332
931.207	2990
931.311	2967
931.415	2979
931.519	2826
931.623	2849
