Data from test_V78500241_1699.txt Node
Date: Fri Mar 25 16:26:58 CST 2022
User: usil
Spectrometer: V785-0024
Trigger mode: 0
Integration Time (sec): 4.000000E-1
Scans to average: 1
Nonlinearity correction enabled: false
Boxcar width: 0
Storing dark spectrum: false
XAxis mode: Wavelengths
Number of Pixels in Spectrum: 1024
>>>>>Begin Spectral Data<<<<<
801.071	2906
801.214	2929
801.356	2819
801.499	2899
801.641	2861
801.783	2922
801.926	3051
802.068	2933
802.211	3005
802.353	3005
802.496	2979
802.638	3024
802.78	3055
802.923	3036
803.065	3001
803.208	2925
803.35	2918
803.492	2937
803.635	2880
803.777	2769
803.919	2880
804.061	3184
804.204	2952
804.346	2982
804.488	2804
804.63	3009
804.773	2899
804.915	2906
805.057	3089
805.199	2944
805.341	2986
805.483	3017
805.626	3009
805.768	2963
805.91	3123
806.052	3093
806.194	3058
806.336	3245
806.478	3024
806.62	2925
806.762	2986
806.904	3066
807.046	3127
807.188	2975
807.33	2910
807.472	2956
807.614	2895
807.756	3001
807.898	2952
808.04	2902
808.182	2979
808.324	2937
808.465	2883
808.607	2902
808.749	2800
808.891	2861
809.033	2937
809.174	2956
809.316	2906
809.458	2883
809.6	2781
809.741	2804
809.883	2781
810.025	2834
810.166	2819
810.308	2845
810.45	2861
810.591	2796
810.733	2785
810.875	2838
811.016	2785
811.158	2754
811.299	2800
811.441	2956
811.582	2914
811.724	2823
811.865	2857
812.007	2933
812.148	2883
812.29	2842
812.431	2887
812.573	2887
812.714	2979
812.855	3058
812.997	3028
813.138	3127
813.279	3032
813.421	2971
813.562	2922
813.703	2880
813.845	2899
813.986	2788
814.127	2758
814.268	2823
814.41	2819
814.551	2830
814.692	2887
814.833	2796
814.974	2868
815.115	2948
815.256	2845
815.397	2811
815.539	2845
815.68	2788
815.821	2807
815.962	2944
816.103	2914
816.244	2868
816.385	2864
816.526	2948
816.666	2910
816.807	2762
816.948	2902
817.089	2902
817.23	2826
817.371	2754
817.512	2804
817.653	2830
817.793	2807
817.934	2853
818.075	2960
818.216	2975
818.356	3017
818.497	2868
818.638	2788
818.778	2804
818.919	2788
819.06	2743
819.2	2910
819.341	2804
819.481	2804
819.622	2933
819.762	3104
819.903	3024
820.043	2925
820.184	2895
820.324	2891
820.465	3070
820.605	2998
820.746	3047
820.886	2933
821.026	3112
821.167	3173
821.307	3279
821.447	3268
821.588	3230
821.728	3207
821.868	3192
822.008	3043
822.149	3157
822.289	3233
822.429	3066
822.569	3058
822.709	3180
822.849	3028
822.99	3085
823.13	3169
823.27	3203
823.41	3104
823.55	3142
823.69	3138
823.83	3184
823.97	3089
824.11	2971
824.25	2990
824.389	3051
824.529	3074
824.669	3074
824.809	3203
824.949	3256
825.089	3249
825.228	3165
825.368	2982
825.508	2944
825.648	2937
825.787	3032
825.927	3005
826.067	2967
826.206	2963
826.346	3039
826.485	3077
826.625	3138
826.765	3249
826.904	3214
827.044	2952
827.183	2944
827.323	2842
827.462	3020
827.601	2910
827.741	2948
827.88	2929
828.02	2849
828.159	2990
828.298	3062
828.437	3077
828.577	3028
828.716	3230
828.855	3097
828.994	2918
829.134	2876
829.273	2971
829.412	2864
829.551	2883
829.69	2849
829.829	2975
829.968	3104
830.107	2971
830.246	3017
830.385	2883
830.524	2853
830.663	2811
830.802	2743
830.941	2678
831.08	2651
831.219	2743
831.357	2781
831.496	2914
831.635	2727
831.774	2621
831.913	2670
832.051	2499
832.19	2511
832.329	2663
832.467	2522
832.606	2488
832.744	2560
832.883	2575
833.022	2560
833.16	2621
833.299	2686
833.437	2712
833.576	2693
833.714	2689
833.852	2701
833.991	2777
834.129	2800
834.267	2842
834.406	2773
834.544	2872
834.682	2876
834.821	2857
834.959	3047
835.097	2853
835.235	3070
835.373	3032
835.511	3020
835.65	2937
835.788	2971
835.926	2804
836.064	2792
836.202	2857
836.34	3062
836.478	3127
836.615	3036
836.753	3089
836.891	3180
837.029	3135
837.167	3108
837.305	3085
837.443	3020
837.58	2971
837.718	3119
837.856	3077
837.993	3028
838.131	3119
838.269	3097
838.406	3070
838.544	3077
838.681	2918
838.819	2933
838.956	2796
839.094	2785
839.231	2914
839.369	2982
839.506	3397
839.643	3207
839.781	3017
839.918	2967
840.055	3047
840.193	3028
840.33	3047
840.467	3085
840.604	3100
840.742	3370
840.879	3058
841.016	3058
841.153	3112
841.29	3302
841.427	3287
841.564	3272
841.701	3313
841.838	3211
841.975	3157
842.112	3218
842.249	3112
842.385	2994
842.522	3253
842.659	3074
842.796	3051
842.933	3127
843.069	3047
843.206	3024
843.343	3154
843.479	3077
843.616	3127
843.752	2895
843.889	2834
844.025	3112
844.162	2857
844.298	3055
844.435	2948
844.571	2941
844.708	3039
844.844	3161
844.98	3233
845.117	3142
845.253	3013
845.389	2971
845.525	3112
845.661	3081
845.798	3013
845.934	3142
846.07	3066
846.206	3214
846.342	3336
846.478	3188
846.614	3074
846.75	3013
846.886	3001
847.022	3226
847.158	3146
847.294	3161
847.429	3237
847.565	3180
847.701	3443
847.837	3066
847.972	3009
848.108	3165
848.244	3150
848.379	2960
848.515	2937
848.65	2937
848.786	2963
848.921	2967
849.057	3100
849.192	3112
849.328	3024
849.463	3085
849.598	3100
849.734	3055
849.869	2956
850.004	2895
850.14	2975
850.275	2906
850.41	2807
850.545	2868
850.68	2922
850.815	2944
850.95	2937
851.085	3195
851.22	3093
851.355	3077
851.49	2944
851.625	3005
851.76	3032
851.895	2929
852.03	2899
852.165	3028
852.299	3116
852.434	3203
852.569	3123
852.703	3157
852.838	3253
852.973	3283
853.107	3332
853.242	3142
853.376	3062
853.511	2952
853.645	3039
853.78	3245
853.914	3131
854.048	3131
854.183	3108
854.317	3169
854.451	3272
854.585	3112
854.72	3047
854.854	3211
854.988	3032
855.122	3100
855.256	2990
855.39	3138
855.524	3211
855.658	3157
855.792	3192
855.926	3192
856.06	3214
856.194	3272
856.327	3165
856.461	3097
856.595	3081
856.729	3058
856.862	3233
856.996	3161
857.13	3180
857.263	3222
857.397	3233
857.53	3097
857.664	3188
857.797	3218
857.931	3245
858.064	3131
858.197	3237
858.331	3119
858.464	3085
858.597	3020
858.731	3123
858.864	3127
858.997	3074
859.13	3173
859.263	3157
859.396	3199
859.529	3100
859.662	3036
859.795	3013
859.928	3119
860.061	3264
860.194	3256
860.327	3135
860.46	3058
860.592	3226
860.725	3233
860.858	3268
860.99	3097
861.123	3020
861.256	3024
861.388	3123
861.521	3899
861.653	3036
861.786	2971
861.918	2998
862.05	3097
862.183	3058
862.315	3154
862.447	3199
862.58	3081
862.712	2952
862.844	2861
862.976	2990
863.108	2971
863.24	3431
863.372	2864
863.504	2967
863.636	2941
863.768	2994
863.9	2971
864.032	2864
864.164	2929
864.296	3017
864.428	3077
864.559	3062
864.691	3108
864.823	3051
864.954	3009
865.086	3020
865.217	2986
865.349	2944
865.48	2922
865.612	2994
865.743	3176
865.875	3013
866.006	2933
866.137	2975
866.269	2929
866.4	2918
866.531	2899
866.662	2906
866.793	2887
866.924	2948
867.055	2971
867.186	2941
867.317	2895
867.448	2838
867.579	2842
867.71	2838
867.841	2792
867.972	2887
868.103	2864
868.233	2868
868.364	2872
868.495	2891
868.625	3074
868.756	3154
868.886	2963
869.017	3024
869.147	3135
869.278	3142
869.408	3017
869.539	2994
869.669	3089
869.799	3058
869.929	3085
870.06	3093
870.19	3313
870.32	3279
870.45	3294
870.58	3370
870.71	3466
870.84	3412
870.97	3329
871.1	3237
871.23	3492
871.36	3439
871.489	3363
871.619	3412
871.749	3412
871.879	3412
872.008	3450
872.138	3329
872.267	3249
872.397	3150
872.526	3100
872.656	3017
872.785	3089
872.915	3249
873.044	3359
873.173	3233
873.303	3241
873.432	3237
873.561	3230
873.69	3184
873.819	3142
873.948	3176
874.077	3097
874.206	3028
874.335	3051
874.464	3211
874.593	3351
874.722	3199
874.851	3378
874.979	3359
875.108	3294
875.237	3188
875.365	3150
875.494	3157
875.623	3222
875.751	3108
875.88	3093
876.008	3161
876.136	3222
876.265	3332
876.393	3500
876.521	3416
876.65	3382
876.778	3336
876.906	3241
877.034	3165
877.162	3214
877.29	3192
877.418	3245
877.546	3226
877.674	3256
877.802	3214
877.93	3218
878.058	3146
878.185	3070
878.313	3192
878.441	3173
878.568	3032
878.696	3119
878.824	3230
878.951	3310
879.079	3405
879.206	3606
879.333	3443
879.461	3344
879.588	3389
879.715	3450
879.842	3580
879.97	3382
880.097	3184
880.224	3123
880.351	3169
880.478	3230
880.605	3188
880.732	3192
880.859	3485
880.986	3249
881.112	3321
881.239	3195
881.366	3093
881.493	3081
881.619	2998
881.746	3058
881.872	3077
881.999	3112
882.125	3161
882.252	3226
882.378	3294
882.505	3458
882.631	3264
882.757	3142
882.883	3188
883.01	3245
883.136	3180
883.262	3108
883.388	3104
883.514	3321
883.64	3329
883.766	3275
883.892	3203
884.018	3222
884.143	3374
884.269	3523
884.395	3214
884.52	3173
884.646	3157
884.772	3100
884.897	3123
885.023	3253
885.148	3306
885.274	3378
885.399	3359
885.524	3264
885.65	3264
885.775	3321
885.9	3348
886.025	3424
886.15	3401
886.275	3264
886.4	3237
886.525	3298
886.65	3294
886.775	3298
886.9	3504
887.025	3667
887.149	3378
887.274	3237
887.399	3157
887.523	3211
887.648	3195
887.773	3214
887.897	3351
888.021	3420
888.146	3336
888.27	3443
888.395	3572
888.519	3443
888.643	3431
888.767	3420
888.891	3272
889.015	3222
889.139	3253
889.263	3226
889.387	3370
889.511	3473
889.635	3447
889.759	3294
889.883	3298
890.006	3397
890.13	3511
890.254	3256
890.377	3329
890.501	3230
890.624	3180
890.748	3325
890.871	3176
890.995	3066
891.118	3055
891.241	3218
891.364	3226
891.488	3306
891.611	3203
891.734	3211
891.857	3264
891.98	3233
892.103	3332
892.226	3260
892.349	3195
892.471	3097
892.594	3245
892.717	3264
892.839	3253
892.962	3283
893.085	3310
893.207	3287
893.33	3146
893.452	3203
893.575	3332
893.697	3249
893.819	3454
893.941	3526
894.064	3462
894.186	3241
894.308	3253
894.43	3428
894.552	3488
894.674	3485
894.796	3287
894.918	3298
895.04	3302
895.161	3393
895.283	3374
895.405	3306
895.526	3344
895.648	3370
895.769	3454
895.891	3481
896.012	3485
896.134	3481
896.255	3378
896.376	3302
896.498	3370
896.619	3431
896.74	3370
896.861	3431
896.982	3675
897.103	3835
897.224	3580
897.345	3511
897.466	3431
897.587	3485
897.708	3633
897.828	3538
897.949	3447
898.07	3306
898.19	3393
898.311	3576
898.431	3492
898.552	3492
898.672	3580
898.792	3580
898.913	3530
899.033	3405
899.153	3260
899.273	3237
899.393	3325
899.513	3317
899.633	3325
899.753	3306
899.873	3291
899.993	3370
900.113	3374
900.232	3348
900.352	3370
900.472	3298
900.591	3192
900.711	3329
900.83	3211
900.95	3416
901.069	3485
901.189	3393
901.308	3138
901.427	3150
901.546	3150
901.665	3302
901.784	3321
901.904	3222
902.023	3157
902.141	2975
902.26	3028
902.379	3123
902.498	3047
902.617	3036
902.735	3192
902.854	3245
902.973	3214
903.091	3043
903.21	3070
903.328	3154
903.446	3112
903.565	3085
903.683	3176
903.801	3100
903.919	3211
904.038	3272
904.156	3146
904.274	3272
904.392	3256
904.51	3302
904.627	3325
904.745	3420
904.863	3481
904.981	3260
905.098	3161
905.216	3230
905.334	3313
905.451	3291
905.569	3306
905.686	3386
905.803	3450
905.921	3275
906.038	3412
906.155	3340
906.272	3279
906.389	3321
906.506	3226
906.623	3268
906.74	3264
906.857	3180
906.974	3203
907.091	3462
907.208	3561
907.324	3481
907.441	3378
907.557	3237
907.674	3214
907.79	3226
907.907	3256
908.023	3370
908.139	3367
908.256	3313
908.372	3393
908.488	3378
908.604	3272
908.72	3260
908.836	3291
908.952	3268
909.068	3351
909.184	3511
909.3	3401
909.415	3485
909.531	3485
909.647	3291
909.762	3283
909.878	3253
909.993	3340
910.108	3325
910.224	3340
910.339	3409
910.454	3332
910.57	3272
910.685	3268
910.8	3606
910.915	3576
911.03	3473
911.145	3279
911.259	3253
911.374	3313
911.489	3268
911.604	3241
911.718	3077
911.833	3142
911.947	3077
912.062	2971
912.176	3169
912.291	3180
912.405	3180
912.519	3447
912.633	3447
912.748	3317
912.862	3272
912.976	3138
913.09	3043
913.204	3165
913.318	3192
913.431	3363
913.545	3321
913.659	3374
913.772	3313
913.886	3203
914	3218
914.113	3317
914.226	3378
914.34	3382
914.453	3218
914.566	3382
914.68	3245
914.793	3298
914.906	3119
915.019	3108
915.132	3081
915.245	3165
915.358	3199
915.47	3226
915.583	3253
915.696	3287
915.809	3378
915.921	3428
916.034	3249
916.146	3237
916.259	3184
916.371	3397
916.483	3370
916.595	3275
916.708	3348
916.82	3321
916.932	3359
917.044	3332
917.156	3325
917.268	3245
917.38	3268
917.491	3275
917.603	3363
917.715	3450
917.826	3462
917.938	3420
918.049	3253
918.161	3397
918.272	3549
918.384	3580
918.495	3454
918.606	3329
918.717	3256
918.828	3355
918.939	3397
919.05	3272
919.161	3367
919.272	3165
919.383	3294
919.494	3507
919.604	3717
919.715	3466
919.826	3416
919.936	3462
920.047	3538
920.157	3530
920.267	3732
920.378	3580
920.488	3549
920.598	3736
920.708	3953
920.818	3831
920.928	3831
921.038	4013
921.148	3956
921.258	3709
921.368	3644
921.477	3595
921.587	3530
921.697	3469
921.806	3614
921.916	3519
922.025	3355
922.134	3409
922.244	3321
922.353	3405
922.462	3279
922.571	3245
922.68	3119
922.789	3047
922.898	3108
923.007	3108
923.116	3169
923.224	3165
923.333	3173
923.442	3127
923.55	3116
923.659	3142
923.767	3195
923.876	3100
923.984	3211
924.092	3123
924.201	3180
924.309	3279
924.417	3249
924.525	3169
924.633	3222
924.741	4029
924.849	3028
924.956	3230
925.064	3077
925.172	3039
925.279	3097
925.387	3192
925.494	3188
925.602	3321
925.709	3344
925.816	3173
925.924	3313
926.031	3348
926.138	3321
926.245	3386
926.352	3253
926.459	3409
926.566	3450
926.673	3325
926.779	3279
926.886	3268
926.993	3123
927.099	3123
927.206	3127
927.312	3146
927.419	3253
927.525	3207
927.631	3256
927.737	3123
927.843	3100
927.95	2998
928.056	3108
928.162	3180
928.267	3260
928.373	3869
928.479	3279
928.585	3081
928.69	3214
928.796	3237
928.901	3154
929.007	3043
929.112	3211
929.218	3135
929.323	3116
929.428	3169
929.533	3340
929.638	3100
929.743	3188
929.848	3233
929.953	3199
930.058	3127
930.163	2990
930.267	3062
930.372	3222
930.477	2990
930.581	3340
930.685	3214
930.79	3043
930.894	3116
930.998	3119
931.103	3275
931.207	2952
931.311	2933
931.415	2944
931.519	2754
931.623	2788
