Data from test_V78500241_760.txt Node
Date: Fri Mar 25 16:20:28 CST 2022
User: usil
Spectrometer: V785-0024
Trigger mode: 0
Integration Time (sec): 4.000000E-1
Scans to average: 1
Nonlinearity correction enabled: false
Boxcar width: 0
Storing dark spectrum: false
XAxis mode: Wavelengths
Number of Pixels in Spectrum: 1024
>>>>>Begin Spectral Data<<<<<
801.071	2861
801.214	2937
801.356	2861
801.499	2868
801.641	2861
801.783	2944
801.926	3032
802.068	2986
802.211	2960
802.353	3013
802.496	2960
802.638	2998
802.78	3043
802.923	3032
803.065	2967
803.208	2883
803.35	2944
803.492	2956
803.635	2906
803.777	2708
803.919	2864
804.061	3207
804.204	2876
804.346	2864
804.488	2826
804.63	2952
804.773	2880
804.915	2906
805.057	3047
805.199	2887
805.341	2967
805.483	3009
805.626	3036
805.768	2975
805.91	3089
806.052	3093
806.194	3020
806.336	3237
806.478	2998
806.62	2918
806.762	2979
806.904	3028
807.046	3135
807.188	2982
807.33	2918
807.472	2986
807.614	2906
807.756	2994
807.898	2910
808.04	2872
808.182	2979
808.324	2941
808.465	2876
808.607	2868
808.749	2788
808.891	2849
809.033	2994
809.174	2975
809.316	2872
809.458	2845
809.6	2788
809.741	2785
809.883	2773
810.025	2845
810.166	2883
810.308	2849
810.45	2872
810.591	2758
810.733	2781
810.875	2800
811.016	2781
811.158	2750
811.299	2811
811.441	2906
811.582	2895
811.724	2815
811.865	2830
812.007	2925
812.148	2906
812.29	2845
812.431	2914
812.573	2971
812.714	2975
812.855	3058
812.997	3032
813.138	3142
813.279	3013
813.421	2952
813.562	2979
813.703	2883
813.845	2861
813.986	2807
814.127	2720
814.268	2800
814.41	2842
814.551	2800
814.692	2883
814.833	2815
814.974	2872
815.115	2952
815.256	2842
815.397	2788
815.539	2864
815.68	2743
815.821	2781
815.962	2948
816.103	2880
816.244	2830
816.385	2883
816.526	2937
816.666	2883
816.807	2743
816.948	2864
817.089	2895
817.23	2838
817.371	2754
817.512	2792
817.653	2845
817.793	2834
817.934	2895
818.075	2960
818.216	2960
818.356	3032
818.497	2872
818.638	2769
818.778	2792
818.919	2823
819.06	2750
819.2	2876
819.341	2788
819.481	2773
819.622	2937
819.762	3074
819.903	3039
820.043	2929
820.184	2857
820.324	2849
820.465	3013
820.605	3013
820.746	3005
820.886	2910
821.026	3074
821.167	3131
821.307	3199
821.447	3272
821.588	3207
821.728	3173
821.868	3165
822.008	3074
822.149	3180
822.289	3222
822.429	3081
822.569	3077
822.709	3165
822.849	2990
822.99	3043
823.13	3146
823.27	3180
823.41	3089
823.55	3169
823.69	3157
823.83	3180
823.97	3085
824.11	2967
824.25	2986
824.389	3055
824.529	3074
824.669	3036
824.809	3173
824.949	3233
825.089	3192
825.228	3173
825.368	2998
825.508	2918
825.648	2963
825.787	2994
825.927	3020
826.067	2922
826.206	2929
826.346	3055
826.485	3036
826.625	3100
826.765	3230
826.904	3207
827.044	2994
827.183	2918
827.323	2853
827.462	2994
827.601	2899
827.741	2944
827.88	2979
828.02	2830
828.159	2918
828.298	2994
828.437	3081
828.577	3047
828.716	3218
828.855	3024
828.994	2902
829.134	2872
829.273	2891
829.412	2876
829.551	2864
829.69	2883
829.829	2975
829.968	3119
830.107	2971
830.246	3009
830.385	2906
830.524	2880
830.663	2842
830.802	2708
830.941	2602
831.08	2640
831.219	2777
831.357	2735
831.496	2960
831.635	2705
831.774	2625
831.913	2648
832.051	2533
832.19	2564
832.329	2686
832.467	2556
832.606	2461
832.744	2575
832.883	2537
833.022	2587
833.16	2621
833.299	2701
833.437	2636
833.576	2674
833.714	2727
833.852	2739
833.991	2769
834.129	2800
834.267	2819
834.406	2754
834.544	2842
834.682	2895
834.821	2857
834.959	3036
835.097	2872
835.235	3077
835.373	3020
835.511	2975
835.65	2986
835.788	2944
835.926	2819
836.064	2819
836.202	2834
836.34	3081
836.478	3112
836.615	3066
836.753	3119
836.891	3176
837.029	3146
837.167	3085
837.305	3085
837.443	3032
837.58	2941
837.718	3100
837.856	3047
837.993	3020
838.131	3074
838.269	3097
838.406	3066
838.544	3058
838.681	2925
838.819	2891
838.956	2788
839.094	2834
839.231	2880
839.369	3001
839.506	3344
839.643	3203
839.781	3009
839.918	2956
840.055	3055
840.193	3036
840.33	3077
840.467	3116
840.604	3077
840.742	3409
840.879	3028
841.016	3039
841.153	3066
841.29	3294
841.427	3287
841.564	3287
841.701	3294
841.838	3207
841.975	3138
842.112	3154
842.249	3066
842.385	3024
842.522	3245
842.659	3112
842.796	3009
842.933	3100
843.069	3024
843.206	3043
843.343	3154
843.479	3077
843.616	3085
843.752	2880
843.889	2857
844.025	3039
844.162	2883
844.298	3017
844.435	2925
844.571	2910
844.708	3043
844.844	3150
844.98	3207
845.117	3169
845.253	3070
845.389	2956
845.525	3123
845.661	3074
845.798	2975
845.934	3074
846.07	3024
846.206	3218
846.342	3310
846.478	3199
846.614	3077
846.75	3036
846.886	2990
847.022	3218
847.158	3093
847.294	3195
847.429	3237
847.565	3184
847.701	3462
847.837	3020
847.972	2967
848.108	3157
848.244	3089
848.379	2994
848.515	2929
848.65	2944
848.786	2975
848.921	2982
849.057	3108
849.192	3131
849.328	3051
849.463	3131
849.598	3085
849.734	3043
849.869	2986
850.004	2918
850.14	2979
850.275	2925
850.41	2834
850.545	2906
850.68	2944
850.815	2975
850.95	2994
851.085	3207
851.22	3112
851.355	3039
851.49	3020
851.625	3051
851.76	3032
851.895	2944
852.03	2963
852.165	3047
852.299	3157
852.434	3222
852.569	3169
852.703	3218
852.838	3294
852.973	3382
853.107	3332
853.242	3192
853.376	3108
853.511	3001
853.645	3100
853.78	3298
853.914	3154
854.048	3150
854.183	3112
854.317	3199
854.451	3329
854.585	3135
854.72	3138
854.854	3256
854.988	3039
855.122	3138
855.256	3036
855.39	3150
855.524	3264
855.658	3203
855.792	3214
855.926	3230
856.06	3291
856.194	3306
856.327	3192
856.461	3138
856.595	3112
856.729	3150
856.862	3214
856.996	3188
857.13	3188
857.263	3237
857.397	3325
857.53	3173
857.664	3245
857.797	3249
857.931	3268
858.064	3203
858.197	3195
858.331	3146
858.464	3157
858.597	3028
858.731	3165
858.864	3169
858.997	3097
859.13	3211
859.263	3207
859.396	3256
859.529	3116
859.662	3108
859.795	3039
859.928	3127
860.061	3291
860.194	3317
860.327	3169
860.46	3135
860.592	3287
860.725	3287
860.858	3287
860.99	3123
861.123	3123
861.256	3058
861.388	3195
861.521	3937
861.653	3036
861.786	2975
861.918	3024
862.05	3085
862.183	3131
862.315	3188
862.447	3214
862.58	3116
862.712	2952
862.844	2906
862.976	3028
863.108	3043
863.24	3443
863.372	2944
863.504	2994
863.636	2975
863.768	3039
863.9	2998
864.032	2941
864.164	2975
864.296	3047
864.428	3112
864.559	3131
864.691	3123
864.823	3077
864.954	3077
865.086	3081
865.217	2998
865.349	2994
865.48	2990
865.612	3009
865.743	3154
865.875	2998
866.006	2971
866.137	2971
866.269	2967
866.4	2979
866.531	2967
866.662	2895
866.793	2910
866.924	2899
867.055	3005
867.186	2956
867.317	2922
867.448	2842
867.579	2842
867.71	2899
867.841	2830
867.972	2922
868.103	2933
868.233	2941
868.364	2918
868.495	2910
868.625	3097
868.756	3203
868.886	2986
869.017	3062
869.147	3192
869.278	3165
869.408	3081
869.539	3020
869.669	3093
869.799	3100
869.929	3154
870.06	3116
870.19	3378
870.32	3275
870.45	3298
870.58	3393
870.71	3488
870.84	3492
870.97	3310
871.1	3260
871.23	3534
871.36	3507
871.489	3382
871.619	3401
871.749	3458
871.879	3443
872.008	3492
872.138	3344
872.267	3351
872.397	3150
872.526	3154
872.656	3070
872.785	3138
872.915	3241
873.044	3287
873.173	3260
873.303	3294
873.432	3260
873.561	3226
873.69	3211
873.819	3169
873.948	3241
874.077	3131
874.206	3085
874.335	3146
874.464	3245
874.593	3401
874.722	3222
874.851	3397
874.979	3351
875.108	3348
875.237	3214
875.365	3199
875.494	3218
875.623	3344
875.751	3081
875.88	3131
876.008	3256
876.136	3291
876.265	3416
876.393	3530
876.521	3450
876.65	3393
876.778	3367
876.906	3294
877.034	3214
877.162	3256
877.29	3203
877.418	3279
877.546	3298
877.674	3241
877.802	3294
877.93	3249
878.058	3165
878.185	3146
878.313	3249
878.441	3230
878.568	3142
878.696	3173
878.824	3249
878.951	3310
879.079	3496
879.206	3637
879.333	3488
879.461	3313
879.588	3378
879.715	3500
879.842	3603
879.97	3382
880.097	3188
880.224	3146
880.351	3230
880.478	3241
880.605	3249
880.732	3199
880.859	3511
880.986	3344
881.112	3359
881.239	3249
881.366	3173
881.493	3070
881.619	3089
881.746	3089
881.872	3119
881.999	3150
882.125	3180
882.252	3268
882.378	3287
882.505	3435
882.631	3344
882.757	3173
882.883	3211
883.01	3245
883.136	3203
883.262	3135
883.388	3138
883.514	3329
883.64	3401
883.766	3332
883.892	3195
884.018	3253
884.143	3431
884.269	3557
884.395	3237
884.52	3176
884.646	3203
884.772	3108
884.897	3138
885.023	3233
885.148	3363
885.274	3412
885.399	3409
885.524	3287
885.65	3291
885.775	3355
885.9	3260
886.025	3485
886.15	3374
886.275	3321
886.4	3264
886.525	3317
886.65	3275
886.775	3264
886.9	3530
887.025	3568
887.149	3447
887.274	3256
887.399	3211
887.523	3211
887.648	3195
887.773	3211
887.897	3370
888.021	3397
888.146	3336
888.27	3466
888.395	3587
888.519	3447
888.643	3450
888.767	3530
888.891	3359
889.015	3230
889.139	3268
889.263	3249
889.387	3443
889.511	3580
889.635	3511
889.759	3359
889.883	3329
890.006	3401
890.13	3488
890.254	3272
890.377	3321
890.501	3207
890.624	3226
890.748	3344
890.871	3233
890.995	3131
891.118	3089
891.241	3245
891.364	3230
891.488	3359
891.611	3184
891.734	3268
891.857	3291
891.98	3214
892.103	3367
892.226	3298
892.349	3218
892.471	3165
892.594	3264
892.717	3329
892.839	3294
892.962	3310
893.085	3378
893.207	3294
893.33	3157
893.452	3233
893.575	3374
893.697	3249
893.819	3473
893.941	3500
894.064	3492
894.186	3298
894.308	3268
894.43	3443
894.552	3526
894.674	3466
894.796	3298
894.918	3306
895.04	3279
895.161	3481
895.283	3431
895.405	3325
895.526	3351
895.648	3409
895.769	3428
895.891	3519
896.012	3469
896.134	3530
896.255	3412
896.376	3409
896.498	3405
896.619	3473
896.74	3367
896.861	3374
896.982	3660
897.103	3865
897.224	3599
897.345	3526
897.466	3454
897.587	3538
897.708	3637
897.828	3557
897.949	3447
898.07	3348
898.19	3420
898.311	3637
898.431	3485
898.552	3534
898.672	3622
898.792	3587
898.913	3561
899.033	3458
899.153	3306
899.273	3249
899.393	3275
899.513	3336
899.633	3317
899.753	3363
899.873	3332
899.993	3412
900.113	3351
900.232	3420
900.352	3294
900.472	3310
900.591	3218
900.711	3302
900.83	3233
900.95	3462
901.069	3504
901.189	3363
901.308	3207
901.427	3142
901.546	3207
901.665	3275
901.784	3355
901.904	3214
902.023	3195
902.141	3017
902.26	3036
902.379	3127
902.498	3104
902.617	3104
902.735	3264
902.854	3253
902.973	3214
903.091	3089
903.21	3108
903.328	3180
903.446	3119
903.565	3104
903.683	3214
903.801	3150
903.919	3283
904.038	3306
904.156	3180
904.274	3302
904.392	3275
904.51	3348
904.627	3363
904.745	3492
904.863	3507
904.981	3294
905.098	3195
905.216	3241
905.334	3306
905.451	3302
905.569	3321
905.686	3447
905.803	3424
905.921	3283
906.038	3428
906.155	3382
906.272	3302
906.389	3298
906.506	3249
906.623	3287
906.74	3294
906.857	3222
906.974	3306
907.091	3469
907.208	3580
907.324	3462
907.441	3405
907.557	3249
907.674	3226
907.79	3226
907.907	3294
908.023	3401
908.139	3374
908.256	3329
908.372	3355
908.488	3359
908.604	3317
908.72	3237
908.836	3268
908.952	3302
909.068	3401
909.184	3469
909.3	3409
909.415	3485
909.531	3485
909.647	3302
909.762	3283
909.878	3279
909.993	3340
910.108	3348
910.224	3329
910.339	3435
910.454	3310
910.57	3283
910.685	3256
910.8	3595
910.915	3515
911.03	3458
911.145	3260
911.259	3275
911.374	3332
911.489	3264
911.604	3268
911.718	3165
911.833	3169
911.947	3043
912.062	3013
912.176	3146
912.291	3207
912.405	3214
912.519	3412
912.633	3481
912.748	3344
912.862	3260
912.976	3154
913.09	3085
913.204	3157
913.318	3199
913.431	3351
913.545	3317
913.659	3428
913.772	3374
913.886	3233
914	3173
914.113	3359
914.226	3420
914.34	3401
914.453	3207
914.566	3424
914.68	3287
914.793	3298
914.906	3146
915.019	3127
915.132	3077
915.245	3184
915.358	3218
915.47	3245
915.583	3272
915.696	3272
915.809	3401
915.921	3412
916.034	3237
916.146	3237
916.259	3256
916.371	3363
916.483	3378
916.595	3310
916.708	3340
916.82	3359
916.932	3367
917.044	3355
917.156	3363
917.268	3287
917.38	3291
917.491	3306
917.603	3382
917.715	3504
917.826	3488
917.938	3412
918.049	3329
918.161	3454
918.272	3641
918.384	3606
918.495	3523
918.606	3389
918.717	3340
918.828	3409
918.939	3431
919.05	3382
919.161	3420
919.272	3195
919.383	3355
919.494	3504
919.604	3694
919.715	3485
919.826	3477
919.936	3496
920.047	3587
920.157	3584
920.267	3797
920.378	3667
920.488	3580
920.598	3819
920.708	3937
920.818	3892
920.928	3850
921.038	4055
921.148	4093
921.258	3762
921.368	3644
921.477	3641
921.587	3591
921.697	3519
921.806	3720
921.916	3549
922.025	3428
922.134	3428
922.244	3374
922.353	3485
922.462	3287
922.571	3313
922.68	3154
922.789	3112
922.898	3230
923.007	3146
923.116	3260
923.224	3195
923.333	3249
923.442	3188
923.55	3146
923.659	3195
923.767	3253
923.876	3138
923.984	3283
924.092	3135
924.201	3245
924.309	3230
924.417	3310
924.525	3203
924.633	3283
924.741	4249
924.849	3081
924.956	3313
925.064	3127
925.172	3112
925.279	3138
925.387	3245
925.494	3245
925.602	3428
925.709	3370
925.816	3233
925.924	3302
926.031	3409
926.138	3363
926.245	3386
926.352	3268
926.459	3450
926.566	3500
926.673	3367
926.779	3302
926.886	3302
926.993	3203
927.099	3169
927.206	3176
927.312	3150
927.419	3264
927.525	3218
927.631	3298
927.737	3169
927.843	3154
927.95	3062
928.056	3150
928.162	3237
928.267	3291
928.373	3804
928.479	3382
928.585	3085
928.69	3207
928.796	3283
928.901	3184
929.007	3089
929.112	3291
929.218	3203
929.323	3192
929.428	3150
929.533	3329
929.638	3184
929.743	3169
929.848	3306
929.953	3268
930.058	3211
930.163	3032
930.267	3074
930.372	3184
930.477	3127
930.581	3332
930.685	3222
930.79	3093
930.894	3184
930.998	3108
931.103	3302
931.207	2998
931.311	2960
931.415	2948
931.519	2838
931.623	2845
