Data from test_V78500241_990.txt Node
Date: Fri Mar 25 16:22:03 CST 2022
User: usil
Spectrometer: V785-0024
Trigger mode: 0
Integration Time (sec): 4.000000E-1
Scans to average: 1
Nonlinearity correction enabled: false
Boxcar width: 0
Storing dark spectrum: false
XAxis mode: Wavelengths
Number of Pixels in Spectrum: 1024
>>>>>Begin Spectral Data<<<<<
801.071	2929
801.214	2941
801.356	2883
801.499	2895
801.641	2872
801.783	2956
801.926	3009
802.068	2967
802.211	2971
802.353	3039
802.496	2979
802.638	3039
802.78	3039
802.923	3123
803.065	2963
803.208	2925
803.35	2944
803.492	2963
803.635	2910
803.777	2792
803.919	2842
804.061	3188
804.204	2963
804.346	2922
804.488	2876
804.63	2994
804.773	2891
804.915	2971
805.057	3100
805.199	2902
805.341	2982
805.483	3017
805.626	3013
805.768	2956
805.91	3097
806.052	3089
806.194	3039
806.336	3230
806.478	3070
806.62	2967
806.762	2948
806.904	3085
807.046	3192
807.188	3009
807.33	2933
807.472	2982
807.614	2910
807.756	2971
807.898	2902
808.04	2906
808.182	2975
808.324	2979
808.465	2899
808.607	2906
808.749	2819
808.891	2872
809.033	3013
809.174	2960
809.316	2861
809.458	2902
809.6	2804
809.741	2804
809.883	2785
810.025	2902
810.166	2830
810.308	2902
810.45	2849
810.591	2762
810.733	2796
810.875	2826
811.016	2811
811.158	2727
811.299	2819
811.441	2937
811.582	2929
811.724	2815
811.865	2853
812.007	2929
812.148	2883
812.29	2868
812.431	2876
812.573	2952
812.714	2963
812.855	3077
812.997	3028
813.138	3138
813.279	3024
813.421	2967
813.562	2956
813.703	2914
813.845	2868
813.986	2796
814.127	2762
814.268	2819
814.41	2842
814.551	2781
814.692	2910
814.833	2834
814.974	2899
815.115	2982
815.256	2842
815.397	2811
815.539	2868
815.68	2758
815.821	2792
815.962	2956
816.103	2929
816.244	2864
816.385	2861
816.526	2963
816.666	2948
816.807	2785
816.948	2872
817.089	2883
817.23	2864
817.371	2807
817.512	2815
817.653	2838
817.793	2804
817.934	2883
818.075	2979
818.216	2998
818.356	3017
818.497	2895
818.638	2800
818.778	2834
818.919	2796
819.06	2746
819.2	2868
819.341	2804
819.481	2796
819.622	2933
819.762	3066
819.903	3066
820.043	2902
820.184	2906
820.324	2899
820.465	3039
820.605	3001
820.746	3020
820.886	2929
821.026	3100
821.167	3192
821.307	3203
821.447	3302
821.588	3264
821.728	3211
821.868	3192
822.008	3055
822.149	3157
822.289	3222
822.429	3097
822.569	3077
822.709	3211
822.849	3066
822.99	3074
823.13	3173
823.27	3203
823.41	3089
823.55	3119
823.69	3154
823.83	3199
823.97	3089
824.11	3001
824.25	2986
824.389	3100
824.529	3138
824.669	3074
824.809	3207
824.949	3241
825.089	3203
825.228	3180
825.368	2986
825.508	2963
825.648	2979
825.787	3024
825.927	2986
826.067	2994
826.206	2971
826.346	3032
826.485	3089
826.625	3116
826.765	3291
826.904	3237
827.044	2994
827.183	2952
827.323	2845
827.462	2986
827.601	2914
827.741	2944
827.88	2971
828.02	2800
828.159	2990
828.298	3039
828.437	3108
828.577	3058
828.716	3214
828.855	3066
828.994	2910
829.134	2864
829.273	2929
829.412	2861
829.551	2838
829.69	2918
829.829	2967
829.968	3150
830.107	3017
830.246	3020
830.385	2929
830.524	2880
830.663	2868
830.802	2735
830.941	2659
831.08	2644
831.219	2758
831.357	2804
831.496	2963
831.635	2701
831.774	2663
831.913	2640
832.051	2549
832.19	2564
832.329	2682
832.467	2514
832.606	2507
832.744	2625
832.883	2598
833.022	2602
833.16	2644
833.299	2689
833.437	2712
833.576	2716
833.714	2735
833.852	2758
833.991	2773
834.129	2823
834.267	2842
834.406	2773
834.544	2853
834.682	2876
834.821	2853
834.959	3055
835.097	2910
835.235	3036
835.373	3013
835.511	3024
835.65	2975
835.788	2982
835.926	2883
836.064	2788
836.202	2853
836.34	3081
836.478	3146
836.615	3066
836.753	3150
836.891	3203
837.029	3169
837.167	3108
837.305	3028
837.443	3055
837.58	2941
837.718	3154
837.856	3039
837.993	3028
838.131	3070
838.269	3127
838.406	3047
838.544	3104
838.681	2933
838.819	2941
838.956	2815
839.094	2823
839.231	2918
839.369	3047
839.506	3344
839.643	3226
839.781	3017
839.918	2933
840.055	3028
840.193	3051
840.33	3081
840.467	3093
840.604	3169
840.742	3435
840.879	3013
841.016	3043
841.153	3116
841.29	3344
841.427	3264
841.564	3268
841.701	3291
841.838	3207
841.975	3214
842.112	3188
842.249	3085
842.385	3039
842.522	3249
842.659	3062
842.796	3062
842.933	3097
843.069	3058
843.206	3013
843.343	3169
843.479	3131
843.616	3116
843.752	2895
843.889	2876
844.025	3085
844.162	2899
844.298	3062
844.435	2975
844.571	2937
844.708	3097
844.844	3180
844.98	3275
845.117	3199
845.253	3047
845.389	3024
845.525	3116
845.661	3074
845.798	3036
845.934	3150
846.07	3058
846.206	3211
846.342	3325
846.478	3253
846.614	3058
846.75	3055
846.886	3024
847.022	3214
847.158	3112
847.294	3169
847.429	3237
847.565	3195
847.701	3485
847.837	3032
847.972	3005
848.108	3142
848.244	3135
848.379	2941
848.515	2944
848.65	2952
848.786	2986
848.921	3001
849.057	3112
849.192	3135
849.328	3043
849.463	3123
849.598	3024
849.734	2986
849.869	2963
850.004	2941
850.14	2960
850.275	2914
850.41	2845
850.545	2883
850.68	2979
850.815	2929
850.95	2956
851.085	3203
851.22	3123
851.355	3085
851.49	2975
851.625	3009
851.76	3013
851.895	2914
852.03	2899
852.165	3009
852.299	3070
852.434	3150
852.569	3127
852.703	3176
852.838	3260
852.973	3321
853.107	3306
853.242	3142
853.376	3077
853.511	3009
853.645	3047
853.78	3249
853.914	3150
854.048	3112
854.183	3100
854.317	3165
854.451	3287
854.585	3112
854.72	3112
854.854	3157
854.988	3058
855.122	3077
855.256	2975
855.39	3108
855.524	3226
855.658	3161
855.792	3161
855.926	3195
856.06	3184
856.194	3268
856.327	3150
856.461	3108
856.595	3108
856.729	3070
856.862	3241
856.996	3188
857.13	3214
857.263	3233
857.397	3291
857.53	3108
857.664	3199
857.797	3241
857.931	3260
858.064	3188
858.197	3211
858.331	3119
858.464	3089
858.597	3017
858.731	3112
858.864	3070
858.997	3081
859.13	3131
859.263	3127
859.396	3214
859.529	3077
859.662	3093
859.795	3055
859.928	3150
860.061	3275
860.194	3298
860.327	3127
860.46	3112
860.592	3230
860.725	3241
860.858	3283
860.99	3081
861.123	3055
861.256	3055
861.388	3108
861.521	3838
861.653	3020
861.786	3013
861.918	2998
862.05	3024
862.183	3104
862.315	3138
862.447	3188
862.58	3055
862.712	2937
862.844	2864
862.976	2994
863.108	3009
863.24	3428
863.372	2849
863.504	2925
863.636	2944
863.768	3032
863.9	2956
864.032	2895
864.164	2952
864.296	2986
864.428	3062
864.559	3108
864.691	3058
864.823	3047
864.954	3013
865.086	3081
865.217	2986
865.349	2937
865.48	2986
865.612	3001
865.743	3161
865.875	2994
866.006	2918
866.137	3017
866.269	2960
866.4	2925
866.531	2941
866.662	2918
866.793	2887
866.924	2887
867.055	2994
867.186	2902
867.317	2899
867.448	2853
867.579	2830
867.71	2887
867.841	2811
867.972	2891
868.103	2880
868.233	2845
868.364	2872
868.495	2872
868.625	3123
868.756	3169
868.886	2944
869.017	3017
869.147	3150
869.278	3184
869.408	3036
869.539	2990
869.669	3077
869.799	3043
869.929	3135
870.06	3131
870.19	3325
870.32	3279
870.45	3291
870.58	3355
870.71	3420
870.84	3431
870.97	3275
871.1	3249
871.23	3492
871.36	3454
871.489	3382
871.619	3439
871.749	3367
871.879	3443
872.008	3500
872.138	3374
872.267	3268
872.397	3112
872.526	3119
872.656	3001
872.785	3066
872.915	3226
873.044	3329
873.173	3241
873.303	3233
873.432	3241
873.561	3218
873.69	3176
873.819	3154
873.948	3195
874.077	3108
874.206	3013
874.335	3047
874.464	3245
874.593	3329
874.722	3226
874.851	3393
874.979	3344
875.108	3272
875.237	3222
875.365	3135
875.494	3180
875.623	3230
875.751	3066
875.88	3116
876.008	3176
876.136	3218
876.265	3317
876.393	3488
876.521	3393
876.65	3397
876.778	3332
876.906	3245
877.034	3214
877.162	3237
877.29	3176
877.418	3241
877.546	3241
877.674	3226
877.802	3222
877.93	3199
878.058	3138
878.185	3108
878.313	3169
878.441	3214
878.568	3051
878.696	3169
878.824	3256
878.951	3298
879.079	3435
879.206	3644
879.333	3458
879.461	3306
879.588	3340
879.715	3462
879.842	3603
879.97	3313
880.097	3127
880.224	3100
880.351	3192
880.478	3218
880.605	3207
880.732	3222
880.859	3477
880.986	3298
881.112	3336
881.239	3211
881.366	3093
881.493	3009
881.619	2979
881.746	3051
881.872	3077
881.999	3077
882.125	3123
882.252	3233
882.378	3283
882.505	3416
882.631	3268
882.757	3157
882.883	3241
883.01	3241
883.136	3146
883.262	3093
883.388	3123
883.514	3279
883.64	3351
883.766	3302
883.892	3218
884.018	3226
884.143	3389
884.269	3545
884.395	3169
884.52	3161
884.646	3154
884.772	3135
884.897	3138
885.023	3211
885.148	3363
885.274	3378
885.399	3325
885.524	3317
885.65	3260
885.775	3329
885.9	3291
886.025	3420
886.15	3348
886.275	3272
886.4	3207
886.525	3313
886.65	3291
886.775	3283
886.9	3462
887.025	3599
887.149	3431
887.274	3249
887.399	3157
887.523	3195
887.648	3176
887.773	3207
887.897	3367
888.021	3386
888.146	3291
888.27	3401
888.395	3545
888.519	3412
888.643	3435
888.767	3454
888.891	3310
889.015	3218
889.139	3268
889.263	3268
889.387	3428
889.511	3519
889.635	3458
889.759	3241
889.883	3291
890.006	3393
890.13	3488
890.254	3260
890.377	3359
890.501	3195
890.624	3184
890.748	3298
890.871	3188
890.995	3119
891.118	3066
891.241	3188
891.364	3157
891.488	3340
891.611	3165
891.734	3230
891.857	3294
891.98	3218
892.103	3325
892.226	3245
892.349	3203
892.471	3138
892.594	3230
892.717	3249
892.839	3249
892.962	3283
893.085	3359
893.207	3321
893.33	3161
893.452	3226
893.575	3317
893.697	3249
893.819	3496
893.941	3469
894.064	3416
894.186	3298
894.308	3237
894.43	3393
894.552	3519
894.674	3504
894.796	3298
894.918	3306
895.04	3256
895.161	3412
895.283	3431
895.405	3329
895.526	3378
895.648	3393
895.769	3370
895.891	3416
896.012	3504
896.134	3447
896.255	3435
896.376	3363
896.498	3351
896.619	3450
896.74	3378
896.861	3405
896.982	3694
897.103	3869
897.224	3595
897.345	3526
897.466	3485
897.587	3450
897.708	3603
897.828	3545
897.949	3466
898.07	3336
898.19	3416
898.311	3595
898.431	3462
898.552	3485
898.672	3584
898.792	3564
898.913	3549
899.033	3374
899.153	3264
899.273	3245
899.393	3249
899.513	3351
899.633	3310
899.753	3321
899.873	3302
899.993	3359
900.113	3351
900.232	3382
900.352	3344
900.472	3272
900.591	3180
900.711	3302
900.83	3218
900.95	3401
901.069	3500
901.189	3351
901.308	3154
901.427	3127
901.546	3180
901.665	3298
901.784	3336
901.904	3199
902.023	3169
902.141	3032
902.26	3005
902.379	3150
902.498	3058
902.617	3055
902.735	3214
902.854	3264
902.973	3161
903.091	3055
903.21	3081
903.328	3104
903.446	3104
903.565	3077
903.683	3161
903.801	3127
903.919	3211
904.038	3287
904.156	3138
904.274	3264
904.392	3233
904.51	3279
904.627	3340
904.745	3431
904.863	3481
904.981	3264
905.098	3146
905.216	3226
905.334	3287
905.451	3272
905.569	3294
905.686	3389
905.803	3447
905.921	3287
906.038	3431
906.155	3336
906.272	3294
906.389	3310
906.506	3253
906.623	3256
906.74	3233
906.857	3184
906.974	3272
907.091	3428
907.208	3568
907.324	3481
907.441	3389
907.557	3233
907.674	3245
907.79	3195
907.907	3291
908.023	3386
908.139	3386
908.256	3332
908.372	3363
908.488	3351
908.604	3283
908.72	3195
908.836	3279
908.952	3306
909.068	3317
909.184	3466
909.3	3374
909.415	3462
909.531	3485
909.647	3302
909.762	3313
909.878	3222
909.993	3409
910.108	3313
910.224	3348
910.339	3397
910.454	3363
910.57	3283
910.685	3233
910.8	3553
910.915	3557
911.03	3401
911.145	3268
911.259	3245
911.374	3310
911.489	3260
911.604	3264
911.718	3077
911.833	3138
911.947	3039
912.062	3005
912.176	3138
912.291	3218
912.405	3203
912.519	3397
912.633	3431
912.748	3359
912.862	3256
912.976	3135
913.09	3047
913.204	3127
913.318	3218
913.431	3329
913.545	3313
913.659	3405
913.772	3336
913.886	3241
914	3180
914.113	3344
914.226	3389
914.34	3370
914.453	3195
914.566	3420
914.68	3294
914.793	3317
914.906	3119
915.019	3119
915.132	3085
915.245	3211
915.358	3180
915.47	3230
915.583	3272
915.696	3272
915.809	3405
915.921	3397
916.034	3260
916.146	3260
916.259	3241
916.371	3389
916.483	3386
916.595	3253
916.708	3374
916.82	3332
916.932	3348
917.044	3386
917.156	3340
917.268	3256
917.38	3291
917.491	3313
917.603	3348
917.715	3393
917.826	3477
917.938	3355
918.049	3264
918.161	3439
918.272	3515
918.384	3568
918.495	3477
918.606	3325
918.717	3310
918.828	3401
918.939	3431
919.05	3279
919.161	3336
919.272	3154
919.383	3264
919.494	3507
919.604	3679
919.715	3496
919.826	3401
919.936	3443
920.047	3564
920.157	3549
920.267	3766
920.378	3584
920.488	3572
920.598	3759
920.708	3953
920.818	3797
920.928	3846
921.038	3991
921.148	3975
921.258	3705
921.368	3614
921.477	3538
921.587	3530
921.697	3485
921.806	3606
921.916	3526
922.025	3386
922.134	3344
922.244	3325
922.353	3416
922.462	3279
922.571	3279
922.68	3070
922.789	3077
922.898	3161
923.007	3062
923.116	3192
923.224	3165
923.333	3188
923.442	3097
923.55	3089
923.659	3157
923.767	3203
923.876	3104
923.984	3218
924.092	3131
924.201	3203
924.309	3214
924.417	3253
924.525	3180
924.633	3256
924.741	4162
924.849	3051
924.956	3260
925.064	3116
925.172	3032
925.279	3116
925.387	3188
925.494	3256
925.602	3340
925.709	3325
925.816	3173
925.924	3260
926.031	3355
926.138	3340
926.245	3363
926.352	3230
926.459	3443
926.566	3458
926.673	3302
926.779	3279
926.886	3226
926.993	3138
927.099	3176
927.206	3085
927.312	3085
927.419	3214
927.525	3199
927.631	3283
927.737	3112
927.843	3104
927.95	3032
928.056	3135
928.162	3146
928.267	3233
928.373	3812
928.479	3325
928.585	3058
928.69	3199
928.796	3253
928.901	3165
929.007	3036
929.112	3199
929.218	3173
929.323	3161
929.428	3135
929.533	3313
929.638	3116
929.743	3165
929.848	3272
929.953	3207
930.058	3154
930.163	2994
930.267	3028
930.372	3214
930.477	3055
930.581	3321
930.685	3192
930.79	3058
930.894	3154
930.998	3093
931.103	3283
931.207	2944
931.311	2914
931.415	2899
931.519	2796
931.623	2826
