Data from test_V78500241_396.txt Node
Date: Fri Mar 25 16:17:56 CST 2022
User: usil
Spectrometer: V785-0024
Trigger mode: 0
Integration Time (sec): 4.000000E-1
Scans to average: 1
Nonlinearity correction enabled: false
Boxcar width: 0
Storing dark spectrum: false
XAxis mode: Wavelengths
Number of Pixels in Spectrum: 1024
>>>>>Begin Spectral Data<<<<<
801.071	2895
801.214	2944
801.356	2838
801.499	2880
801.641	2868
801.783	2910
801.926	3070
802.068	2975
802.211	2975
802.353	3047
802.496	2906
802.638	2998
802.78	3036
802.923	3066
803.065	3020
803.208	2849
803.35	2899
803.492	2922
803.635	2922
803.777	2746
803.919	2815
804.061	3207
804.204	2937
804.346	2868
804.488	2849
804.63	2948
804.773	2883
804.915	2910
805.057	3112
805.199	2918
805.341	2975
805.483	3024
805.626	2967
805.768	2944
805.91	3081
806.052	3135
806.194	3043
806.336	3199
806.478	3036
806.62	2925
806.762	2956
806.904	3036
807.046	3146
807.188	2944
807.33	2914
807.472	2960
807.614	2902
807.756	3001
807.898	2929
808.04	2883
808.182	2979
808.324	2937
808.465	2868
808.607	2834
808.749	2750
808.891	2849
809.033	2948
809.174	2975
809.316	2906
809.458	2857
809.6	2750
809.741	2777
809.883	2743
810.025	2826
810.166	2815
810.308	2815
810.45	2819
810.591	2754
810.733	2720
810.875	2807
811.016	2735
811.158	2731
811.299	2830
811.441	2937
811.582	2902
811.724	2819
811.865	2838
812.007	2876
812.148	2899
812.29	2830
812.431	2872
812.573	2971
812.714	2941
812.855	3036
812.997	3028
813.138	3131
813.279	2994
813.421	2952
813.562	2922
813.703	2838
813.845	2902
813.986	2777
814.127	2701
814.268	2811
814.41	2796
814.551	2804
814.692	2853
814.833	2815
814.974	2902
815.115	2982
815.256	2819
815.397	2830
815.539	2849
815.68	2773
815.821	2769
815.962	2922
816.103	2899
816.244	2868
816.385	2838
816.526	2922
816.666	2876
816.807	2766
816.948	2864
817.089	2872
817.23	2823
817.371	2766
817.512	2792
817.653	2842
817.793	2769
817.934	2849
818.075	2906
818.216	2971
818.356	2990
818.497	2864
818.638	2777
818.778	2823
818.919	2758
819.06	2735
819.2	2849
819.341	2788
819.481	2743
819.622	2899
819.762	3043
819.903	3001
820.043	2902
820.184	2883
820.324	2902
820.465	3047
820.605	2971
820.746	3028
820.886	2883
821.026	3097
821.167	3222
821.307	3245
821.447	3260
821.588	3192
821.728	3203
821.868	3203
822.008	3051
822.149	3157
822.289	3230
822.429	3077
822.569	3108
822.709	3169
822.849	2990
822.99	3104
823.13	3104
823.27	3195
823.41	3123
823.55	3135
823.69	3161
823.83	3222
823.97	3108
824.11	2960
824.25	3001
824.389	3097
824.529	3100
824.669	3089
824.809	3226
824.949	3268
825.089	3207
825.228	3161
825.368	3032
825.508	2979
825.648	2967
825.787	3005
825.927	3043
826.067	3009
826.206	3009
826.346	3043
826.485	3081
826.625	3085
826.765	3260
826.904	3249
827.044	3009
827.183	2990
827.323	2922
827.462	3032
827.601	2963
827.741	2956
827.88	2967
828.02	2883
828.159	2994
828.298	3062
828.437	3161
828.577	3032
828.716	3275
828.855	3070
828.994	2948
829.134	2956
829.273	2944
829.412	2880
829.551	2910
829.69	2937
829.829	3043
829.968	3161
830.107	3058
830.246	3051
830.385	2941
830.524	2899
830.663	2864
830.802	2781
830.941	2674
831.08	2686
831.219	2796
831.357	2796
831.496	2952
831.635	2785
831.774	2674
831.913	2663
832.051	2579
832.19	2598
832.329	2701
832.467	2560
832.606	2507
832.744	2648
832.883	2644
833.022	2632
833.16	2682
833.299	2731
833.437	2758
833.576	2712
833.714	2777
833.852	2788
833.991	2807
834.129	2853
834.267	2861
834.406	2842
834.544	2937
834.682	2906
834.821	2937
834.959	3112
835.097	2895
835.235	3093
835.373	3043
835.511	3039
835.65	3005
835.788	2990
835.926	2838
836.064	2830
836.202	2864
836.34	3161
836.478	3135
836.615	3043
836.753	3150
836.891	3218
837.029	3192
837.167	3150
837.305	3093
837.443	3100
837.58	3020
837.718	3131
837.856	3066
837.993	3070
838.131	3165
838.269	3150
838.406	3135
838.544	3138
838.681	2971
838.819	2899
838.956	2842
839.094	2857
839.231	2960
839.369	3070
839.506	3382
839.643	3241
839.781	3058
839.918	2956
840.055	3066
840.193	3055
840.33	3097
840.467	3100
840.604	3154
840.742	3397
840.879	3104
841.016	3108
841.153	3112
841.29	3370
841.427	3310
841.564	3256
841.701	3386
841.838	3245
841.975	3207
842.112	3241
842.249	3062
842.385	3089
842.522	3287
842.659	3097
842.796	3089
842.933	3131
843.069	3043
843.206	3074
843.343	3207
843.479	3157
843.616	3173
843.752	2918
843.889	2902
844.025	3100
844.162	2891
844.298	3070
844.435	2948
844.571	2944
844.708	3097
844.844	3218
844.98	3275
845.117	3226
845.253	3097
845.389	3017
845.525	3104
845.661	3135
845.798	3028
845.934	3150
846.07	3146
846.206	3268
846.342	3313
846.478	3279
846.614	3097
846.75	3058
846.886	3047
847.022	3279
847.158	3150
847.294	3207
847.429	3302
847.565	3199
847.701	3492
847.837	3093
847.972	3005
848.108	3165
848.244	3192
848.379	3055
848.515	2982
848.65	2906
848.786	2998
848.921	2998
849.057	3104
849.192	3173
849.328	3085
849.463	3135
849.598	3093
849.734	3077
849.869	3013
850.004	2952
850.14	3024
850.275	2933
850.41	2895
850.545	2956
850.68	2960
850.815	3013
850.95	3024
851.085	3222
851.22	3112
851.355	3051
851.49	3001
851.625	3009
851.76	3013
851.895	2986
852.03	2922
852.165	3055
852.299	3154
852.434	3222
852.569	3184
852.703	3195
852.838	3253
852.973	3370
853.107	3355
853.242	3157
853.376	3116
853.511	2998
853.645	3074
853.78	3237
853.914	3135
854.048	3123
854.183	3123
854.317	3188
854.451	3363
854.585	3161
854.72	3123
854.854	3211
854.988	3074
855.122	3142
855.256	3039
855.39	3138
855.524	3298
855.658	3203
855.792	3176
855.926	3268
856.06	3241
856.194	3302
856.327	3180
856.461	3119
856.595	3077
856.729	3089
856.862	3245
856.996	3173
857.13	3211
857.263	3249
857.397	3302
857.53	3112
857.664	3245
857.797	3272
857.931	3310
858.064	3195
858.197	3279
858.331	3161
858.464	3104
858.597	3055
858.731	3142
858.864	3157
858.997	3119
859.13	3195
859.263	3180
859.396	3230
859.529	3119
859.662	3070
859.795	3089
859.928	3150
860.061	3310
860.194	3348
860.327	3176
860.46	3127
860.592	3230
860.725	3287
860.858	3279
860.99	3116
861.123	3051
861.256	3058
861.388	3161
861.521	3812
861.653	3077
861.786	3009
861.918	3009
862.05	3108
862.183	3093
862.315	3157
862.447	3222
862.58	3119
862.712	2994
862.844	2937
862.976	3047
863.108	3070
863.24	3428
863.372	2910
863.504	3001
863.636	2994
863.768	3017
863.9	2971
864.032	2929
864.164	2944
864.296	3051
864.428	3123
864.559	3131
864.691	3085
864.823	3093
864.954	3032
865.086	3039
865.217	3001
865.349	2979
865.48	3017
865.612	3032
865.743	3176
865.875	2998
866.006	2960
866.137	2990
866.269	2948
866.4	2963
866.531	2971
866.662	2910
866.793	2918
866.924	2922
867.055	3005
867.186	2963
867.317	2902
867.448	2876
867.579	2872
867.71	2876
867.841	2887
867.972	2929
868.103	2922
868.233	2895
868.364	2918
868.495	2910
868.625	3077
868.756	3161
868.886	3005
869.017	3058
869.147	3180
869.278	3211
869.408	3062
869.539	3051
869.669	3173
869.799	3066
869.929	3146
870.06	3100
870.19	3367
870.32	3325
870.45	3313
870.58	3416
870.71	3458
870.84	3481
870.97	3298
871.1	3279
871.23	3485
871.36	3435
871.489	3378
871.619	3424
871.749	3447
871.879	3507
872.008	3519
872.138	3397
872.267	3325
872.397	3173
872.526	3135
872.656	3020
872.785	3157
872.915	3222
873.044	3317
873.173	3226
873.303	3245
873.432	3245
873.561	3241
873.69	3195
873.819	3199
873.948	3245
874.077	3104
874.206	3039
874.335	3116
874.464	3230
874.593	3420
874.722	3275
874.851	3416
874.979	3397
875.108	3321
875.237	3222
875.365	3184
875.494	3195
875.623	3268
875.751	3100
875.88	3142
876.008	3214
876.136	3245
876.265	3378
876.393	3523
876.521	3481
876.65	3397
876.778	3355
876.906	3279
877.034	3199
877.162	3264
877.29	3214
877.418	3264
877.546	3275
877.674	3218
877.802	3249
877.93	3302
878.058	3169
878.185	3112
878.313	3207
878.441	3283
878.568	3116
878.696	3180
878.824	3241
878.951	3321
879.079	3469
879.206	3652
879.333	3431
879.461	3367
879.588	3386
879.715	3488
879.842	3629
879.97	3393
880.097	3214
880.224	3150
880.351	3199
880.478	3237
880.605	3218
880.732	3222
880.859	3507
880.986	3317
881.112	3332
881.239	3207
881.366	3108
881.493	3047
881.619	3058
881.746	3146
881.872	3093
881.999	3116
882.125	3161
882.252	3298
882.378	3298
882.505	3454
882.631	3256
882.757	3184
882.883	3199
883.01	3241
883.136	3173
883.262	3089
883.388	3142
883.514	3367
883.64	3367
883.766	3302
883.892	3203
884.018	3226
884.143	3424
884.269	3576
884.395	3218
884.52	3169
884.646	3241
884.772	3138
884.897	3112
885.023	3195
885.148	3332
885.274	3473
885.399	3370
885.524	3310
885.65	3268
885.775	3329
885.9	3313
886.025	3416
886.15	3351
886.275	3348
886.4	3230
886.525	3310
886.65	3260
886.775	3268
886.9	3530
887.025	3644
887.149	3386
887.274	3283
887.399	3203
887.523	3222
887.648	3176
887.773	3237
887.897	3393
888.021	3386
888.146	3340
888.27	3458
888.395	3549
888.519	3416
888.643	3469
888.767	3462
888.891	3359
889.015	3264
889.139	3291
889.263	3260
889.387	3389
889.511	3473
889.635	3447
889.759	3272
889.883	3268
890.006	3367
890.13	3473
890.254	3310
890.377	3367
890.501	3233
890.624	3192
890.748	3336
890.871	3135
890.995	3112
891.118	3055
891.241	3188
891.364	3226
891.488	3348
891.611	3249
891.734	3279
891.857	3329
891.98	3230
892.103	3382
892.226	3287
892.349	3199
892.471	3119
892.594	3237
892.717	3313
892.839	3279
892.962	3275
893.085	3405
893.207	3306
893.33	3146
893.452	3241
893.575	3363
893.697	3256
893.819	3492
893.941	3466
894.064	3447
894.186	3283
894.308	3298
894.43	3496
894.552	3538
894.674	3496
894.796	3275
894.918	3348
895.04	3287
895.161	3504
895.283	3386
895.405	3363
895.526	3344
895.648	3477
895.769	3435
895.891	3496
896.012	3450
896.134	3469
896.255	3420
896.376	3397
896.498	3397
896.619	3424
896.74	3370
896.861	3412
896.982	3724
897.103	3861
897.224	3606
897.345	3557
897.466	3435
897.587	3496
897.708	3622
897.828	3553
897.949	3443
898.07	3370
898.19	3348
898.311	3606
898.431	3450
898.552	3561
898.672	3584
898.792	3595
898.913	3488
899.033	3435
899.153	3306
899.273	3279
899.393	3321
899.513	3291
899.633	3340
899.753	3363
899.873	3348
899.993	3409
900.113	3332
900.232	3412
900.352	3344
900.472	3272
900.591	3203
900.711	3302
900.83	3253
900.95	3382
901.069	3526
901.189	3405
901.308	3150
901.427	3135
901.546	3192
901.665	3302
901.784	3340
901.904	3211
902.023	3165
902.141	3032
902.26	3013
902.379	3150
902.498	3097
902.617	3047
902.735	3184
902.854	3218
902.973	3199
903.091	3032
903.21	3055
903.328	3150
903.446	3123
903.565	3108
903.683	3195
903.801	3104
903.919	3230
904.038	3321
904.156	3195
904.274	3283
904.392	3275
904.51	3325
904.627	3336
904.745	3481
904.863	3477
904.981	3245
905.098	3203
905.216	3237
905.334	3317
905.451	3298
905.569	3317
905.686	3435
905.803	3409
905.921	3294
906.038	3447
906.155	3367
906.272	3294
906.389	3306
906.506	3253
906.623	3298
906.74	3298
906.857	3180
906.974	3272
907.091	3458
907.208	3568
907.324	3454
907.441	3370
907.557	3245
907.674	3230
907.79	3214
907.907	3260
908.023	3378
908.139	3393
908.256	3291
908.372	3340
908.488	3389
908.604	3211
908.72	3222
908.836	3279
908.952	3321
909.068	3382
909.184	3462
909.3	3443
909.415	3485
909.531	3504
909.647	3287
909.762	3332
909.878	3249
909.993	3344
910.108	3351
910.224	3329
910.339	3393
910.454	3344
910.57	3294
910.685	3268
910.8	3591
910.915	3519
911.03	3416
911.145	3256
911.259	3291
911.374	3268
911.489	3245
911.604	3241
911.718	3100
911.833	3165
911.947	3020
912.062	2990
912.176	3169
912.291	3241
912.405	3207
912.519	3409
912.633	3447
912.748	3336
912.862	3249
912.976	3150
913.09	3017
913.204	3142
913.318	3211
913.431	3348
913.545	3313
913.659	3374
913.772	3340
913.886	3218
914	3237
914.113	3393
914.226	3397
914.34	3374
914.453	3233
914.566	3435
914.68	3291
914.793	3332
914.906	3093
915.019	3081
915.132	3066
915.245	3100
915.358	3203
915.47	3283
915.583	3325
915.696	3291
915.809	3409
915.921	3443
916.034	3256
916.146	3264
916.259	3214
916.371	3386
916.483	3348
916.595	3268
916.708	3359
916.82	3340
916.932	3321
917.044	3317
917.156	3367
917.268	3230
917.38	3321
917.491	3256
917.603	3344
917.715	3507
917.826	3492
917.938	3405
918.049	3291
918.161	3424
918.272	3568
918.384	3595
918.495	3473
918.606	3298
918.717	3291
918.828	3389
918.939	3412
919.05	3298
919.161	3378
919.272	3195
919.383	3291
919.494	3534
919.604	3682
919.715	3473
919.826	3378
919.936	3462
920.047	3584
920.157	3561
920.267	3762
920.378	3580
920.488	3561
920.598	3766
920.708	3960
920.818	3823
920.928	3831
921.038	4017
921.148	3979
921.258	3682
921.368	3633
921.477	3584
921.587	3557
921.697	3431
921.806	3606
921.916	3488
922.025	3344
922.134	3405
922.244	3329
922.353	3435
922.462	3272
922.571	3211
922.68	3051
922.789	3070
922.898	3119
923.007	3116
923.116	3230
923.224	3138
923.333	3207
923.442	3131
923.55	3093
923.659	3150
923.767	3188
923.876	3108
923.984	3260
924.092	3108
924.201	3192
924.309	3207
924.417	3249
924.525	3195
924.633	3275
924.741	4211
924.849	3058
924.956	3294
925.064	3074
925.172	3051
925.279	3066
925.387	3207
925.494	3211
925.602	3313
925.709	3363
925.816	3180
925.924	3264
926.031	3382
926.138	3306
926.245	3363
926.352	3298
926.459	3370
926.566	3431
926.673	3313
926.779	3272
926.886	3253
926.993	3192
927.099	3135
927.206	3131
927.312	3142
927.419	3218
927.525	3207
927.631	3264
927.737	3165
927.843	3123
927.95	3028
928.056	3150
928.162	3188
928.267	3283
928.373	3842
928.479	3317
928.585	3081
928.69	3237
928.796	3310
928.901	3150
929.007	3017
929.112	3203
929.218	3176
929.323	3142
929.428	3138
929.533	3298
929.638	3097
929.743	3192
929.848	3268
929.953	3218
930.058	3112
930.163	3013
930.267	3043
930.372	3169
930.477	3047
930.581	3321
930.685	3165
930.79	3001
930.894	3138
930.998	3127
931.103	3287
931.207	2975
931.311	2937
931.415	2941
931.519	2762
931.623	2811
