Data from test_V78500241_1826.txt Node
Date: Fri Mar 25 16:27:51 CST 2022
User: usil
Spectrometer: V785-0024
Trigger mode: 0
Integration Time (sec): 4.000000E-1
Scans to average: 1
Nonlinearity correction enabled: false
Boxcar width: 0
Storing dark spectrum: false
XAxis mode: Wavelengths
Number of Pixels in Spectrum: 1024
>>>>>Begin Spectral Data<<<<<
801.071	2895
801.214	2914
801.356	2838
801.499	2857
801.641	2861
801.783	2906
801.926	3028
802.068	2937
802.211	2982
802.353	3028
802.496	2948
802.638	3017
802.78	3024
802.923	3085
803.065	2975
803.208	2845
803.35	2887
803.492	2944
803.635	2925
803.777	2731
803.919	2845
804.061	3165
804.204	2918
804.346	2902
804.488	2815
804.63	2990
804.773	2853
804.915	2906
805.057	3062
805.199	2914
805.341	2948
805.483	3047
805.626	3009
805.768	2918
805.91	3070
806.052	3138
806.194	3013
806.336	3218
806.478	2967
806.62	2956
806.762	2982
806.904	3047
807.046	3203
807.188	3024
807.33	2937
807.472	3036
807.614	2929
807.756	3005
807.898	2952
808.04	2857
808.182	2979
808.324	2948
808.465	2925
808.607	2891
808.749	2792
808.891	2883
809.033	2967
809.174	2990
809.316	2895
809.458	2902
809.6	2758
809.741	2788
809.883	2781
810.025	2883
810.166	2887
810.308	2857
810.45	2861
810.591	2800
810.733	2807
810.875	2842
811.016	2788
811.158	2792
811.299	2857
811.441	2948
811.582	2944
811.724	2845
811.865	2857
812.007	2952
812.148	2887
812.29	2891
812.431	2933
812.573	2975
812.714	3005
812.855	3066
812.997	3089
813.138	3142
813.279	3020
813.421	3005
813.562	2975
813.703	2880
813.845	2933
813.986	2766
814.127	2781
814.268	2834
814.41	2918
814.551	2815
814.692	2899
814.833	2849
814.974	2883
815.115	2960
815.256	2842
815.397	2823
815.539	2880
815.68	2815
815.821	2830
815.962	2990
816.103	2956
816.244	2902
816.385	2880
816.526	2971
816.666	2914
816.807	2823
816.948	2891
817.089	2880
817.23	2849
817.371	2750
817.512	2807
817.653	2849
817.793	2883
817.934	2925
818.075	2990
818.216	3013
818.356	3093
818.497	2925
818.638	2792
818.778	2819
818.919	2845
819.06	2785
819.2	2876
819.341	2823
819.481	2834
819.622	2922
819.762	3085
819.903	3089
820.043	2948
820.184	2922
820.324	2925
820.465	3036
820.605	3024
820.746	3024
820.886	2925
821.026	3138
821.167	3207
821.307	3302
821.447	3294
821.588	3275
821.728	3214
821.868	3233
822.008	3097
822.149	3184
822.289	3256
822.429	3116
822.569	3119
822.709	3165
822.849	3070
822.99	3066
823.13	3203
823.27	3207
823.41	3131
823.55	3142
823.69	3169
823.83	3230
823.97	3135
824.11	3028
824.25	3017
824.389	3058
824.529	3123
824.669	3108
824.809	3203
824.949	3272
825.089	3230
825.228	3188
825.368	3028
825.508	3005
825.648	2979
825.787	3013
825.927	3005
826.067	2979
826.206	2979
826.346	3043
826.485	3089
826.625	3070
826.765	3275
826.904	3195
827.044	2990
827.183	2986
827.323	2864
827.462	2975
827.601	2906
827.741	2967
827.88	2979
828.02	2872
828.159	3013
828.298	3066
828.437	3135
828.577	2986
828.716	3264
828.855	3081
828.994	2948
829.134	2880
829.273	2925
829.412	2899
829.551	2861
829.69	2906
829.829	2994
829.968	3154
830.107	3077
830.246	3028
830.385	2941
830.524	2914
830.663	2834
830.802	2743
830.941	2693
831.08	2644
831.219	2773
831.357	2811
831.496	2998
831.635	2731
831.774	2651
831.913	2693
832.051	2583
832.19	2613
832.329	2705
832.467	2587
832.606	2499
832.744	2617
832.883	2606
833.022	2602
833.16	2682
833.299	2712
833.437	2708
833.576	2716
833.714	2777
833.852	2766
833.991	2781
834.129	2849
834.267	2864
834.406	2792
834.544	2918
834.682	2895
834.821	2868
834.959	3104
835.097	2902
835.235	3093
835.373	3024
835.511	3036
835.65	2986
835.788	2929
835.926	2872
836.064	2842
836.202	2895
836.34	3131
836.478	3195
836.615	3093
836.753	3173
836.891	3180
837.029	3203
837.167	3131
837.305	3085
837.443	3070
837.58	2986
837.718	3127
837.856	3051
837.993	3013
838.131	3123
838.269	3100
838.406	3138
838.544	3116
838.681	2967
838.819	2902
838.956	2842
839.094	2819
839.231	2929
839.369	3017
839.506	3416
839.643	3260
839.781	3051
839.918	2971
840.055	3097
840.193	3089
840.33	3085
840.467	3108
840.604	3188
840.742	3409
840.879	3047
841.016	3051
841.153	3146
841.29	3325
841.427	3321
841.564	3256
841.701	3367
841.838	3222
841.975	3233
842.112	3211
842.249	3112
842.385	2994
842.522	3279
842.659	3112
842.796	3093
842.933	3100
843.069	3100
843.206	3085
843.343	3184
843.479	3100
843.616	3119
843.752	2914
843.889	2891
844.025	3081
844.162	2902
844.298	3058
844.435	2982
844.571	2925
844.708	3123
844.844	3214
844.98	3241
845.117	3180
845.253	3043
845.389	3032
845.525	3119
845.661	3085
845.798	3043
845.934	3169
846.07	3070
846.206	3264
846.342	3359
846.478	3245
846.614	3108
846.75	3070
846.886	3051
847.022	3272
847.158	3138
847.294	3226
847.429	3233
847.565	3241
847.701	3504
847.837	3047
847.972	2998
848.108	3176
848.244	3173
848.379	3005
848.515	2952
848.65	2960
848.786	2986
848.921	3062
849.057	3123
849.192	3150
849.328	3066
849.463	3135
849.598	3070
849.734	3024
849.869	2986
850.004	2948
850.14	3047
850.275	2922
850.41	2849
850.545	2902
850.68	2952
850.815	2956
850.95	3036
851.085	3211
851.22	3131
851.355	3066
851.49	2963
851.625	3062
851.76	3039
851.895	2944
852.03	2944
852.165	3005
852.299	3119
852.434	3214
852.569	3131
852.703	3203
852.838	3291
852.973	3367
853.107	3355
853.242	3123
853.376	3089
853.511	2998
853.645	3051
853.78	3230
853.914	3150
854.048	3127
854.183	3104
854.317	3161
854.451	3317
854.585	3116
854.72	3100
854.854	3226
854.988	3062
855.122	3131
855.256	3024
855.39	3123
855.524	3222
855.658	3188
855.792	3154
855.926	3214
856.06	3211
856.194	3275
856.327	3154
856.461	3123
856.595	3135
856.729	3135
856.862	3245
856.996	3188
857.13	3218
857.263	3245
857.397	3306
857.53	3165
857.664	3237
857.797	3268
857.931	3249
858.064	3157
858.197	3222
858.331	3135
858.464	3093
858.597	3043
858.731	3169
858.864	3135
858.997	3119
859.13	3218
859.263	3188
859.396	3222
859.529	3081
859.662	3112
859.795	3032
859.928	3173
860.061	3275
860.194	3310
860.327	3135
860.46	3116
860.592	3253
860.725	3253
860.858	3272
860.99	3138
861.123	3089
861.256	3051
861.388	3116
861.521	3835
861.653	3024
861.786	2982
861.918	3036
862.05	3051
862.183	3123
862.315	3176
862.447	3218
862.58	3131
862.712	2990
862.844	2887
862.976	3032
863.108	3005
863.24	3443
863.372	2899
863.504	3001
863.636	2990
863.768	3077
863.9	2967
864.032	2941
864.164	2963
864.296	3005
864.428	3104
864.559	3112
864.691	3089
864.823	3104
864.954	3020
865.086	3081
865.217	2971
865.349	2944
865.48	2998
865.612	3039
865.743	3192
865.875	3055
866.006	2982
866.137	2963
866.269	2979
866.4	2944
866.531	2937
866.662	2910
866.793	2891
866.924	2933
867.055	2952
867.186	2906
867.317	2899
867.448	2842
867.579	2891
867.71	2861
867.841	2819
867.972	2899
868.103	2906
868.233	2937
868.364	2895
868.495	2914
868.625	3074
868.756	3195
868.886	2960
869.017	3051
869.147	3195
869.278	3154
869.408	3070
869.539	3043
869.669	3112
869.799	3005
869.929	3188
870.06	3142
870.19	3291
870.32	3275
870.45	3279
870.58	3401
870.71	3458
870.84	3447
870.97	3298
871.1	3237
871.23	3454
871.36	3469
871.489	3405
871.619	3428
871.749	3378
871.879	3412
872.008	3485
872.138	3363
872.267	3249
872.397	3142
872.526	3150
872.656	3039
872.785	3100
872.915	3253
873.044	3344
873.173	3199
873.303	3249
873.432	3233
873.561	3211
873.69	3157
873.819	3138
873.948	3154
874.077	3081
874.206	3066
874.335	3085
874.464	3253
874.593	3317
874.722	3237
874.851	3393
874.979	3336
875.108	3306
875.237	3237
875.365	3195
875.494	3180
875.623	3287
875.751	3077
875.88	3112
876.008	3173
876.136	3241
876.265	3367
876.393	3492
876.521	3431
876.65	3351
876.778	3317
876.906	3256
877.034	3226
877.162	3226
877.29	3180
877.418	3272
877.546	3272
877.674	3245
877.802	3253
877.93	3233
878.058	3173
878.185	3100
878.313	3203
878.441	3218
878.568	3097
878.696	3154
878.824	3279
878.951	3321
879.079	3450
879.206	3663
879.333	3428
879.461	3382
879.588	3420
879.715	3557
879.842	3591
879.97	3420
880.097	3180
880.224	3188
880.351	3249
880.478	3218
880.605	3222
880.732	3233
880.859	3507
880.986	3332
881.112	3389
881.239	3260
881.366	3154
881.493	3055
881.619	3013
881.746	3116
881.872	3123
881.999	3154
882.125	3211
882.252	3306
882.378	3332
882.505	3439
882.631	3279
882.757	3192
882.883	3230
883.01	3298
883.136	3199
883.262	3146
883.388	3173
883.514	3340
883.64	3409
883.766	3355
883.892	3222
884.018	3264
884.143	3450
884.269	3591
884.395	3249
884.52	3211
884.646	3237
884.772	3192
884.897	3203
885.023	3287
885.148	3359
885.274	3443
885.399	3370
885.524	3344
885.65	3279
885.775	3344
885.9	3313
886.025	3492
886.15	3420
886.275	3336
886.4	3260
886.525	3321
886.65	3310
886.775	3321
886.9	3492
887.025	3675
887.149	3450
887.274	3302
887.399	3241
887.523	3253
887.648	3256
887.773	3237
887.897	3428
888.021	3439
888.146	3329
888.27	3481
888.395	3534
888.519	3477
888.643	3473
888.767	3481
888.891	3317
889.015	3279
889.139	3321
889.263	3283
889.387	3481
889.511	3530
889.635	3485
889.759	3351
889.883	3321
890.006	3443
890.13	3500
890.254	3275
890.377	3363
890.501	3230
890.624	3176
890.748	3317
890.871	3195
890.995	3157
891.118	3077
891.241	3222
891.364	3264
891.488	3340
891.611	3241
891.734	3268
891.857	3351
891.98	3275
892.103	3359
892.226	3287
892.349	3283
892.471	3108
892.594	3302
892.717	3317
892.839	3344
892.962	3336
893.085	3393
893.207	3329
893.33	3157
893.452	3256
893.575	3412
893.697	3245
893.819	3542
893.941	3485
894.064	3496
894.186	3317
894.308	3253
894.43	3492
894.552	3572
894.674	3561
894.796	3317
894.918	3344
895.04	3325
895.161	3431
895.283	3401
895.405	3321
895.526	3393
895.648	3439
895.769	3454
895.891	3450
896.012	3507
896.134	3507
896.255	3473
896.376	3389
896.498	3397
896.619	3458
896.74	3370
896.861	3447
896.982	3720
897.103	3838
897.224	3599
897.345	3507
897.466	3481
897.587	3553
897.708	3648
897.828	3557
897.949	3443
898.07	3397
898.19	3477
898.311	3629
898.431	3500
898.552	3568
898.672	3656
898.792	3584
898.913	3553
899.033	3428
899.153	3291
899.273	3283
899.393	3298
899.513	3367
899.633	3370
899.753	3370
899.873	3351
899.993	3412
900.113	3370
900.232	3447
900.352	3386
900.472	3313
900.591	3256
900.711	3359
900.83	3264
900.95	3450
901.069	3526
901.189	3355
901.308	3218
901.427	3138
901.546	3237
901.665	3344
901.784	3397
901.904	3256
902.023	3180
902.141	3055
902.26	3043
902.379	3180
902.498	3123
902.617	3066
902.735	3245
902.854	3233
902.973	3218
903.091	3093
903.21	3074
903.328	3173
903.446	3127
903.565	3150
903.683	3241
903.801	3199
903.919	3272
904.038	3332
904.156	3188
904.274	3298
904.392	3294
904.51	3340
904.627	3351
904.745	3447
904.863	3500
904.981	3253
905.098	3180
905.216	3256
905.334	3302
905.451	3348
905.569	3340
905.686	3428
905.803	3458
905.921	3294
906.038	3416
906.155	3370
906.272	3313
906.389	3370
906.506	3294
906.623	3310
906.74	3298
906.857	3207
906.974	3256
907.091	3389
907.208	3606
907.324	3534
907.441	3370
907.557	3283
907.674	3249
907.79	3249
907.907	3279
908.023	3382
908.139	3393
908.256	3359
908.372	3393
908.488	3397
908.604	3283
908.72	3207
908.836	3321
908.952	3272
909.068	3317
909.184	3488
909.3	3405
909.415	3515
909.531	3519
909.647	3329
909.762	3340
909.878	3245
909.993	3409
910.108	3401
910.224	3393
910.339	3420
910.454	3348
910.57	3325
910.685	3245
910.8	3663
910.915	3553
911.03	3485
911.145	3283
911.259	3272
911.374	3348
911.489	3245
911.604	3249
911.718	3138
911.833	3176
911.947	3066
912.062	3005
912.176	3165
912.291	3230
912.405	3272
912.519	3450
912.633	3485
912.748	3382
912.862	3298
912.976	3203
913.09	3043
913.204	3146
913.318	3233
913.431	3367
913.545	3348
913.659	3412
913.772	3378
913.886	3241
914	3211
914.113	3359
914.226	3496
914.34	3416
914.453	3237
914.566	3435
914.68	3370
914.793	3313
914.906	3131
915.019	3127
915.132	3093
915.245	3184
915.358	3249
915.47	3310
915.583	3298
915.696	3310
915.809	3370
915.921	3450
916.034	3294
916.146	3275
916.259	3264
916.371	3374
916.483	3370
916.595	3306
916.708	3363
916.82	3340
916.932	3363
917.044	3393
917.156	3340
917.268	3287
917.38	3336
917.491	3332
917.603	3386
917.715	3469
917.826	3477
917.938	3397
918.049	3298
918.161	3435
918.272	3641
918.384	3606
918.495	3481
918.606	3348
918.717	3336
918.828	3409
918.939	3428
919.05	3313
919.161	3412
919.272	3218
919.383	3287
919.494	3538
919.604	3679
919.715	3519
919.826	3424
919.936	3431
920.047	3614
920.157	3599
920.267	3808
920.378	3625
920.488	3599
920.598	3766
920.708	3937
920.818	3876
920.928	3873
921.038	4071
921.148	4010
921.258	3736
921.368	3682
921.477	3622
921.587	3564
921.697	3462
921.806	3644
921.916	3515
922.025	3382
922.134	3401
922.244	3310
922.353	3462
922.462	3302
922.571	3241
922.68	3138
922.789	3112
922.898	3165
923.007	3108
923.116	3203
923.224	3211
923.333	3230
923.442	3138
923.55	3085
923.659	3180
923.767	3245
923.876	3131
923.984	3294
924.092	3150
924.201	3184
924.309	3249
924.417	3249
924.525	3188
924.633	3260
924.741	4192
924.849	3062
924.956	3233
925.064	3112
925.172	3058
925.279	3108
925.387	3165
925.494	3199
925.602	3382
925.709	3363
925.816	3195
925.924	3291
926.031	3416
926.138	3397
926.245	3416
926.352	3272
926.459	3428
926.566	3481
926.673	3359
926.779	3291
926.886	3230
926.993	3165
927.099	3131
927.206	3135
927.312	3108
927.419	3287
927.525	3214
927.631	3306
927.737	3131
927.843	3142
927.95	3039
928.056	3127
928.162	3207
928.267	3275
928.373	3804
928.479	3332
928.585	3097
928.69	3230
928.796	3302
928.901	3188
929.007	3077
929.112	3214
929.218	3169
929.323	3150
929.428	3176
929.533	3294
929.638	3116
929.743	3218
929.848	3294
929.953	3188
930.058	3142
930.163	3043
930.267	3089
930.372	3222
930.477	3089
930.581	3306
930.685	3214
930.79	3074
930.894	3100
930.998	3085
931.103	3256
931.207	3013
931.311	2937
931.415	2937
931.519	2823
931.623	2800
