Data from test_V78500241_267.txt Node
Date: Fri Mar 25 16:17:03 CST 2022
User: usil
Spectrometer: V785-0024
Trigger mode: 0
Integration Time (sec): 4.000000E-1
Scans to average: 1
Nonlinearity correction enabled: false
Boxcar width: 0
Storing dark spectrum: false
XAxis mode: Wavelengths
Number of Pixels in Spectrum: 1024
>>>>>Begin Spectral Data<<<<<
801.071	2948
801.214	2956
801.356	2891
801.499	2899
801.641	2887
801.783	2937
801.926	3081
802.068	2979
802.211	3032
802.353	3097
802.496	3001
802.638	3009
802.78	3047
802.923	3074
803.065	3005
803.208	2925
803.35	2902
803.492	2971
803.635	2979
803.777	2769
803.919	2914
804.061	3222
804.204	2933
804.346	2906
804.488	2910
804.63	3001
804.773	2876
804.915	2933
805.057	3108
805.199	2971
805.341	2979
805.483	3058
805.626	3043
805.768	2994
805.91	3081
806.052	3123
806.194	3058
806.336	3260
806.478	3074
806.62	2948
806.762	2986
806.904	3062
807.046	3199
807.188	3032
807.33	2937
807.472	3009
807.614	2891
807.756	2982
807.898	2925
808.04	2914
808.182	2986
808.324	2960
808.465	2914
808.607	2906
808.749	2819
808.891	2857
809.033	3024
809.174	2990
809.316	2876
809.458	2906
809.6	2792
809.741	2815
809.883	2785
810.025	2895
810.166	2895
810.308	2842
810.45	2857
810.591	2796
810.733	2777
810.875	2834
811.016	2807
811.158	2807
811.299	2864
811.441	2929
811.582	2925
811.724	2868
811.865	2830
812.007	2933
812.148	2933
812.29	2845
812.431	2922
812.573	2952
812.714	2975
812.855	3043
812.997	3051
813.138	3127
813.279	3028
813.421	2960
813.562	2937
813.703	2883
813.845	2922
813.986	2811
814.127	2724
814.268	2876
814.41	2861
814.551	2807
814.692	2876
814.833	2819
814.974	2918
815.115	2994
815.256	2834
815.397	2819
815.539	2887
815.68	2777
815.821	2807
815.962	2967
816.103	2967
816.244	2880
816.385	2857
816.526	2963
816.666	2918
816.807	2766
816.948	2937
817.089	2960
817.23	2895
817.371	2788
817.512	2796
817.653	2868
817.793	2823
817.934	2899
818.075	2963
818.216	3005
818.356	3024
818.497	2906
818.638	2788
818.778	2826
818.919	2811
819.06	2769
819.2	2918
819.341	2826
819.481	2807
819.622	2952
819.762	3135
819.903	3028
820.043	2922
820.184	2910
820.324	2899
820.465	2998
820.605	3066
820.746	3081
820.886	2960
821.026	3119
821.167	3131
821.307	3313
821.447	3321
821.588	3241
821.728	3203
821.868	3237
822.008	3077
822.149	3188
822.289	3233
822.429	3100
822.569	3112
822.709	3161
822.849	3036
822.99	3077
823.13	3165
823.27	3203
823.41	3116
823.55	3165
823.69	3192
823.83	3214
823.97	3116
824.11	3020
824.25	3020
824.389	3070
824.529	3127
824.669	3051
824.809	3237
824.949	3253
825.089	3218
825.228	3188
825.368	3036
825.508	2960
825.648	2948
825.787	2967
825.927	2994
826.067	2956
826.206	2979
826.346	3085
826.485	3081
826.625	3104
826.765	3275
826.904	3211
827.044	2975
827.183	2937
827.323	2891
827.462	2994
827.601	2918
827.741	2971
827.88	2994
828.02	2857
828.159	2990
828.298	3047
828.437	3150
828.577	3009
828.716	3272
828.855	3077
828.994	2952
829.134	2872
829.273	2937
829.412	2922
829.551	2864
829.69	2922
829.829	3032
829.968	3112
830.107	3039
830.246	3017
830.385	2944
830.524	2880
830.663	2834
830.802	2746
830.941	2659
831.08	2689
831.219	2785
831.357	2811
831.496	2986
831.635	2705
831.774	2602
831.913	2648
832.051	2571
832.19	2602
832.329	2693
832.467	2545
832.606	2507
832.744	2636
832.883	2594
833.022	2613
833.16	2659
833.299	2678
833.437	2674
833.576	2708
833.714	2735
833.852	2777
833.991	2735
834.129	2834
834.267	2834
834.406	2819
834.544	2849
834.682	2876
834.821	2857
834.959	3116
835.097	2899
835.235	3062
835.373	3024
835.511	3005
835.65	2929
835.788	2971
835.926	2842
836.064	2796
836.202	2834
836.34	3108
836.478	3142
836.615	3070
836.753	3135
836.891	3192
837.029	3180
837.167	3116
837.305	3062
837.443	3077
837.58	2941
837.718	3135
837.856	3093
837.993	3039
838.131	3138
838.269	3127
838.406	3100
838.544	3104
838.681	2948
838.819	2944
838.956	2830
839.094	2834
839.231	2899
839.369	3028
839.506	3386
839.643	3218
839.781	2994
839.918	2979
840.055	3047
840.193	3070
840.33	3070
840.467	3127
840.604	3157
840.742	3374
840.879	3066
841.016	3093
841.153	3150
841.29	3355
841.427	3306
841.564	3237
841.701	3355
841.838	3207
841.975	3169
842.112	3184
842.249	3104
842.385	3047
842.522	3287
842.659	3077
842.796	3081
842.933	3157
843.069	3055
843.206	3005
843.343	3176
843.479	3081
843.616	3127
843.752	2925
843.889	2902
844.025	3070
844.162	2899
844.298	3093
844.435	2979
844.571	2929
844.708	3077
844.844	3203
844.98	3241
845.117	3195
845.253	3055
845.389	3009
845.525	3077
845.661	3108
845.798	3013
845.934	3169
846.07	3062
846.206	3249
846.342	3332
846.478	3249
846.614	3085
846.75	3066
846.886	3028
847.022	3218
847.158	3131
847.294	3245
847.429	3249
847.565	3199
847.701	3507
847.837	3036
847.972	3032
848.108	3131
848.244	3138
848.379	2998
848.515	2952
848.65	2956
848.786	2971
848.921	2967
849.057	3142
849.192	3165
849.328	3043
849.463	3127
849.598	3062
849.734	3005
849.869	2998
850.004	2918
850.14	2979
850.275	2902
850.41	2883
850.545	2887
850.68	2956
850.815	2952
850.95	3020
851.085	3184
851.22	3116
851.355	3009
851.49	2960
851.625	2971
851.76	3001
851.895	2937
852.03	2929
852.165	2982
852.299	3116
852.434	3173
852.569	3161
852.703	3207
852.838	3214
852.973	3378
853.107	3291
853.242	3169
853.376	3119
853.511	2963
853.645	3047
853.78	3207
853.914	3138
854.048	3116
854.183	3104
854.317	3173
854.451	3306
854.585	3150
854.72	3070
854.854	3230
854.988	3047
855.122	3058
855.256	2986
855.39	3116
855.524	3233
855.658	3146
855.792	3131
855.926	3199
856.06	3203
856.194	3272
856.327	3135
856.461	3066
856.595	3036
856.729	3108
856.862	3226
856.996	3161
857.13	3230
857.263	3222
857.397	3268
857.53	3100
857.664	3222
857.797	3237
857.931	3249
858.064	3142
858.197	3211
858.331	3100
858.464	3062
858.597	2982
858.731	3131
858.864	3119
858.997	3100
859.13	3180
859.263	3165
859.396	3222
859.529	3116
859.662	3070
859.795	3043
859.928	3138
860.061	3302
860.194	3313
860.327	3135
860.46	3116
860.592	3195
860.725	3256
860.858	3241
860.99	3131
861.123	3047
861.256	3039
861.388	3146
861.521	3857
861.653	3055
861.786	2933
861.918	3005
862.05	3043
862.183	3070
862.315	3169
862.447	3188
862.58	3100
862.712	3005
862.844	2887
862.976	3001
863.108	3001
863.24	3332
863.372	2887
863.504	2982
863.636	2960
863.768	3043
863.9	2975
864.032	2914
864.164	2948
864.296	3013
864.428	3131
864.559	3070
864.691	3055
864.823	3051
864.954	3017
865.086	3055
865.217	3005
865.349	2944
865.48	3020
865.612	3020
865.743	3131
865.875	2979
866.006	2967
866.137	2960
866.269	2948
866.4	2933
866.531	2914
866.662	2925
866.793	2925
866.924	2910
867.055	2948
867.186	2944
867.317	2891
867.448	2864
867.579	2826
867.71	2842
867.841	2815
867.972	2906
868.103	2929
868.233	2876
868.364	2868
868.495	2918
868.625	3074
868.756	3169
868.886	2975
869.017	3024
869.147	3195
869.278	3161
869.408	3017
869.539	3028
869.669	3085
869.799	3009
869.929	3138
870.06	3100
870.19	3340
870.32	3272
870.45	3310
870.58	3393
870.71	3420
870.84	3477
870.97	3321
871.1	3249
871.23	3485
871.36	3462
871.489	3317
871.619	3378
871.749	3386
871.879	3454
872.008	3496
872.138	3397
872.267	3302
872.397	3119
872.526	3104
872.656	3020
872.785	3127
872.915	3230
873.044	3302
873.173	3226
873.303	3253
873.432	3268
873.561	3260
873.69	3176
873.819	3146
873.948	3180
874.077	3093
874.206	3013
874.335	3104
874.464	3241
874.593	3329
874.722	3264
874.851	3397
874.979	3382
875.108	3374
875.237	3195
875.365	3146
875.494	3203
875.623	3253
875.751	3070
875.88	3085
876.008	3214
876.136	3211
876.265	3340
876.393	3488
876.521	3389
876.65	3424
876.778	3363
876.906	3237
877.034	3260
877.162	3237
877.29	3150
877.418	3222
877.546	3233
877.674	3264
877.802	3241
877.93	3222
878.058	3184
878.185	3119
878.313	3218
878.441	3222
878.568	3066
878.696	3176
878.824	3241
878.951	3321
879.079	3466
879.206	3629
879.333	3431
879.461	3325
879.588	3363
879.715	3473
879.842	3610
879.97	3344
880.097	3165
880.224	3108
880.351	3184
880.478	3214
880.605	3211
880.732	3192
880.859	3504
880.986	3351
881.112	3363
881.239	3245
881.366	3112
881.493	3024
881.619	3062
881.746	3062
881.872	3116
881.999	3138
882.125	3135
882.252	3272
882.378	3298
882.505	3386
882.631	3325
882.757	3157
882.883	3218
883.01	3249
883.136	3165
883.262	3108
883.388	3119
883.514	3332
883.64	3363
883.766	3313
883.892	3184
884.018	3211
884.143	3428
884.269	3504
884.395	3256
884.52	3184
884.646	3180
884.772	3093
884.897	3093
885.023	3192
885.148	3351
885.274	3412
885.399	3382
885.524	3283
885.65	3256
885.775	3294
885.9	3233
886.025	3439
886.15	3336
886.275	3336
886.4	3214
886.525	3329
886.65	3279
886.775	3287
886.9	3542
887.025	3648
887.149	3389
887.274	3306
887.399	3188
887.523	3245
887.648	3184
887.773	3176
887.897	3359
888.021	3386
888.146	3275
888.27	3435
888.395	3519
888.519	3454
888.643	3469
888.767	3462
888.891	3294
889.015	3272
889.139	3317
889.263	3264
889.387	3420
889.511	3515
889.635	3488
889.759	3256
889.883	3321
890.006	3382
890.13	3458
890.254	3256
890.377	3336
890.501	3237
890.624	3150
890.748	3298
890.871	3161
890.995	3131
891.118	3043
891.241	3203
891.364	3214
891.488	3321
891.611	3176
891.734	3203
891.857	3310
891.98	3279
892.103	3325
892.226	3272
892.349	3207
892.471	3104
892.594	3245
892.717	3283
892.839	3272
892.962	3367
893.085	3374
893.207	3306
893.33	3127
893.452	3188
893.575	3378
893.697	3268
893.819	3424
893.941	3507
894.064	3447
894.186	3287
894.308	3287
894.43	3431
894.552	3584
894.674	3488
894.796	3272
894.918	3253
895.04	3287
895.161	3458
895.283	3393
895.405	3279
895.526	3389
895.648	3389
895.769	3466
895.891	3462
896.012	3473
896.134	3450
896.255	3439
896.376	3386
896.498	3370
896.619	3428
896.74	3351
896.861	3412
896.982	3675
897.103	3842
897.224	3591
897.345	3507
897.466	3428
897.587	3500
897.708	3618
897.828	3553
897.949	3424
898.07	3355
898.19	3409
898.311	3564
898.431	3454
898.552	3534
898.672	3652
898.792	3557
898.913	3572
899.033	3454
899.153	3317
899.273	3211
899.393	3279
899.513	3310
899.633	3363
899.753	3336
899.873	3329
899.993	3378
900.113	3340
900.232	3393
900.352	3348
900.472	3283
900.591	3214
900.711	3294
900.83	3253
900.95	3420
901.069	3481
901.189	3370
901.308	3146
901.427	3131
901.546	3142
901.665	3279
901.784	3336
901.904	3192
902.023	3150
902.141	3043
902.26	2967
902.379	3154
902.498	3077
902.617	3051
902.735	3214
902.854	3241
902.973	3165
903.091	3043
903.21	3058
903.328	3142
903.446	3093
903.565	3100
903.683	3192
903.801	3119
903.919	3222
904.038	3283
904.156	3154
904.274	3313
904.392	3245
904.51	3294
904.627	3336
904.745	3500
904.863	3485
904.981	3272
905.098	3184
905.216	3211
905.334	3336
905.451	3313
905.569	3367
905.686	3466
905.803	3454
905.921	3268
906.038	3428
906.155	3370
906.272	3279
906.389	3344
906.506	3230
906.623	3233
906.74	3275
906.857	3188
906.974	3264
907.091	3409
907.208	3572
907.324	3507
907.441	3435
907.557	3245
907.674	3237
907.79	3203
907.907	3287
908.023	3382
908.139	3389
908.256	3329
908.372	3389
908.488	3382
908.604	3260
908.72	3222
908.836	3279
908.952	3298
909.068	3359
909.184	3504
909.3	3412
909.415	3538
909.531	3481
909.647	3313
909.762	3279
909.878	3272
909.993	3359
910.108	3336
910.224	3370
910.339	3401
910.454	3325
910.57	3325
910.685	3226
910.8	3599
910.915	3538
911.03	3443
911.145	3294
911.259	3268
911.374	3317
911.489	3233
911.604	3203
911.718	3104
911.833	3142
911.947	3051
912.062	2979
912.176	3157
912.291	3188
912.405	3226
912.519	3435
912.633	3435
912.748	3351
912.862	3291
912.976	3169
913.09	3055
913.204	3165
913.318	3211
913.431	3348
913.545	3340
913.659	3428
913.772	3359
913.886	3256
914	3226
914.113	3367
914.226	3428
914.34	3401
914.453	3256
914.566	3447
914.68	3279
914.793	3306
914.906	3157
915.019	3135
915.132	3112
915.245	3150
915.358	3214
915.47	3245
915.583	3298
915.696	3287
915.809	3428
915.921	3447
916.034	3283
916.146	3302
916.259	3241
916.371	3348
916.483	3367
916.595	3275
916.708	3367
916.82	3348
916.932	3348
917.044	3370
917.156	3359
917.268	3253
917.38	3287
917.491	3317
917.603	3424
917.715	3443
917.826	3462
917.938	3386
918.049	3260
918.161	3458
918.272	3576
918.384	3564
918.495	3492
918.606	3367
918.717	3230
918.828	3374
918.939	3435
919.05	3317
919.161	3389
919.272	3218
919.383	3268
919.494	3481
919.604	3663
919.715	3507
919.826	3409
919.936	3485
920.047	3629
920.157	3515
920.267	3766
920.378	3603
920.488	3618
920.598	3800
920.708	3987
920.818	3797
920.928	3857
921.038	3998
921.148	3998
921.258	3675
921.368	3652
921.477	3576
921.587	3530
921.697	3439
921.806	3663
921.916	3515
922.025	3359
922.134	3374
922.244	3340
922.353	3443
922.462	3279
922.571	3241
922.68	3119
922.789	3089
922.898	3154
923.007	3074
923.116	3226
923.224	3184
923.333	3157
923.442	3116
923.55	3066
923.659	3119
923.767	3192
923.876	3112
923.984	3233
924.092	3085
924.201	3218
924.309	3222
924.417	3272
924.525	3169
924.633	3222
924.741	4154
924.849	3074
924.956	3310
925.064	3104
925.172	3017
925.279	3127
925.387	3180
925.494	3233
925.602	3389
925.709	3306
925.816	3192
925.924	3306
926.031	3355
926.138	3344
926.245	3374
926.352	3222
926.459	3428
926.566	3447
926.673	3325
926.779	3253
926.886	3226
926.993	3142
927.099	3135
927.206	3123
927.312	3127
927.419	3249
927.525	3218
927.631	3279
927.737	3157
927.843	3135
927.95	3028
928.056	3127
928.162	3157
928.267	3256
928.373	3854
928.479	3298
928.585	3058
928.69	3272
928.796	3291
928.901	3192
929.007	3070
929.112	3222
929.218	3195
929.323	3169
929.428	3127
929.533	3310
929.638	3119
929.743	3157
929.848	3272
929.953	3245
930.058	3184
930.163	2998
930.267	3077
930.372	3218
930.477	3043
930.581	3325
930.685	3203
930.79	3074
930.894	3127
930.998	3108
931.103	3291
931.207	2971
931.311	2914
931.415	2925
931.519	2777
931.623	2826
