Data from test_V78500241_260.txt Node
Date: Fri Mar 25 16:17:00 CST 2022
User: usil
Spectrometer: V785-0024
Trigger mode: 0
Integration Time (sec): 4.000000E-1
Scans to average: 1
Nonlinearity correction enabled: false
Boxcar width: 0
Storing dark spectrum: false
XAxis mode: Wavelengths
Number of Pixels in Spectrum: 1024
>>>>>Begin Spectral Data<<<<<
801.071	2918
801.214	2941
801.356	2853
801.499	2880
801.641	2895
801.783	2929
801.926	3058
802.068	2979
802.211	3001
802.353	3051
802.496	2937
802.638	2979
802.78	3062
802.923	3089
803.065	2967
803.208	2899
803.35	2944
803.492	2902
803.635	2918
803.777	2796
803.919	2880
804.061	3192
804.204	2952
804.346	2910
804.488	2864
804.63	2933
804.773	2883
804.915	2929
805.057	3085
805.199	2933
805.341	2971
805.483	3043
805.626	3001
805.768	2933
805.91	3077
806.052	3127
806.194	2998
806.336	3226
806.478	3047
806.62	2979
806.762	3013
806.904	3055
807.046	3161
807.188	3039
807.33	2880
807.472	2998
807.614	2899
807.756	2994
807.898	2933
808.04	2876
808.182	2948
808.324	2960
808.465	2868
808.607	2902
808.749	2823
808.891	2849
809.033	2967
809.174	2960
809.316	2876
809.458	2899
809.6	2735
809.741	2777
809.883	2750
810.025	2842
810.166	2823
810.308	2834
810.45	2857
810.591	2792
810.733	2788
810.875	2826
811.016	2773
811.158	2792
811.299	2788
811.441	2922
811.582	2887
811.724	2861
811.865	2823
812.007	2910
812.148	2891
812.29	2853
812.431	2891
812.573	2937
812.714	2956
812.855	3051
812.997	3051
813.138	3150
813.279	2994
813.421	2982
813.562	2998
813.703	2853
813.845	2891
813.986	2785
814.127	2731
814.268	2823
814.41	2800
814.551	2826
814.692	2914
814.833	2811
814.974	2899
815.115	2986
815.256	2826
815.397	2800
815.539	2880
815.68	2804
815.821	2796
815.962	2929
816.103	2952
816.244	2880
816.385	2906
816.526	2967
816.666	2925
816.807	2743
816.948	2880
817.089	2914
817.23	2853
817.371	2758
817.512	2773
817.653	2876
817.793	2785
817.934	2834
818.075	2979
818.216	2990
818.356	3017
818.497	2899
818.638	2807
818.778	2834
818.919	2807
819.06	2781
819.2	2853
819.341	2823
819.481	2815
819.622	2899
819.762	3104
819.903	3039
820.043	2902
820.184	2944
820.324	2906
820.465	3032
820.605	3005
820.746	3062
820.886	2918
821.026	3116
821.167	3176
821.307	3233
821.447	3256
821.588	3245
821.728	3203
821.868	3199
822.008	3089
822.149	3188
822.289	3256
822.429	3081
822.569	3089
822.709	3222
822.849	3058
822.99	3036
823.13	3165
823.27	3226
823.41	3100
823.55	3123
823.69	3154
823.83	3161
823.97	3074
824.11	3001
824.25	2963
824.389	3051
824.529	3146
824.669	3058
824.809	3173
824.949	3211
825.089	3218
825.228	3176
825.368	2998
825.508	2982
825.648	2952
825.787	3001
825.927	3055
826.067	2933
826.206	2986
826.346	3001
826.485	3089
826.625	3112
826.765	3256
826.904	3169
827.044	2998
827.183	2895
827.323	2857
827.462	2994
827.601	2925
827.741	2922
827.88	2963
828.02	2830
828.159	2952
828.298	3043
828.437	3112
828.577	3043
828.716	3268
828.855	3085
828.994	2902
829.134	2895
829.273	2899
829.412	2861
829.551	2864
829.69	2929
829.829	2952
829.968	3116
830.107	2975
830.246	2994
830.385	2937
830.524	2857
830.663	2823
830.802	2731
830.941	2655
831.08	2632
831.219	2735
831.357	2758
831.496	2952
831.635	2724
831.774	2674
831.913	2651
832.051	2533
832.19	2560
832.329	2670
832.467	2526
832.606	2488
832.744	2575
832.883	2587
833.022	2564
833.16	2640
833.299	2663
833.437	2705
833.576	2689
833.714	2754
833.852	2724
833.991	2731
834.129	2819
834.267	2815
834.406	2769
834.544	2895
834.682	2887
834.821	2868
834.959	3028
835.097	2880
835.235	3051
835.373	2975
835.511	3017
835.65	2952
835.788	2918
835.926	2823
836.064	2811
836.202	2857
836.34	3100
836.478	3146
836.615	3066
836.753	3104
836.891	3195
837.029	3207
837.167	3127
837.305	3032
837.443	3066
837.58	2952
837.718	3108
837.856	3081
837.993	2994
838.131	3116
838.269	3081
838.406	3112
838.544	3077
838.681	2914
838.819	2910
838.956	2807
839.094	2819
839.231	2906
839.369	3039
839.506	3393
839.643	3222
839.781	3013
839.918	2971
840.055	3024
840.193	3039
840.33	3055
840.467	3093
840.604	3127
840.742	3401
840.879	3074
841.016	3005
841.153	3150
841.29	3283
841.427	3279
841.564	3260
841.701	3325
841.838	3218
841.975	3165
842.112	3260
842.249	3047
842.385	3077
842.522	3260
842.659	3093
842.796	3051
842.933	3127
843.069	3081
843.206	3043
843.343	3123
843.479	3085
843.616	3127
843.752	2895
843.889	2845
844.025	3074
844.162	2876
844.298	3097
844.435	2944
844.571	2910
844.708	3077
844.844	3203
844.98	3249
845.117	3157
845.253	3062
845.389	3013
845.525	3112
845.661	3074
845.798	3020
845.934	3131
846.07	3074
846.206	3230
846.342	3294
846.478	3211
846.614	3066
846.75	3055
846.886	2990
847.022	3291
847.158	3116
847.294	3211
847.429	3226
847.565	3211
847.701	3523
847.837	2998
847.972	3001
848.108	3146
848.244	3127
848.379	2944
848.515	2925
848.65	2952
848.786	2975
848.921	2982
849.057	3116
849.192	3123
849.328	3051
849.463	3097
849.598	3047
849.734	3020
849.869	2998
850.004	2922
850.14	2998
850.275	2895
850.41	2792
850.545	2891
850.68	2929
850.815	2960
850.95	2982
851.085	3192
851.22	3119
851.355	3058
851.49	2948
851.625	2986
851.76	3001
851.895	2899
852.03	2895
852.165	3024
852.299	3108
852.434	3199
852.569	3116
852.703	3157
852.838	3222
852.973	3344
853.107	3336
853.242	3131
853.376	3108
853.511	2979
853.645	3043
853.78	3211
853.914	3108
854.048	3104
854.183	3070
854.317	3161
854.451	3287
854.585	3154
854.72	3093
854.854	3176
854.988	3005
855.122	3074
855.256	2967
855.39	3093
855.524	3283
855.658	3161
855.792	3176
855.926	3165
856.06	3241
856.194	3302
856.327	3116
856.461	3085
856.595	3066
856.729	3074
856.862	3211
856.996	3146
857.13	3199
857.263	3207
857.397	3233
857.53	3127
857.664	3218
857.797	3241
857.931	3233
858.064	3169
858.197	3222
858.331	3108
858.464	3108
858.597	3043
858.731	3116
858.864	3165
858.997	3058
859.13	3150
859.263	3169
859.396	3173
859.529	3058
859.662	3039
859.795	3093
859.928	3131
860.061	3294
860.194	3291
860.327	3093
860.46	3066
860.592	3218
860.725	3222
860.858	3241
860.99	3100
861.123	3051
861.256	3039
861.388	3131
861.521	3804
861.653	3028
861.786	2944
861.918	2975
862.05	3043
862.183	3119
862.315	3138
862.447	3176
862.58	3066
862.712	2937
862.844	2838
862.976	3047
863.108	2979
863.24	3310
863.372	2899
863.504	2960
863.636	2941
863.768	3032
863.9	2975
864.032	2914
864.164	2956
864.296	3001
864.428	3081
864.559	3077
864.691	3055
864.823	3070
864.954	3039
865.086	3017
865.217	2975
865.349	2929
865.48	2952
865.612	3036
865.743	3146
865.875	2967
866.006	2929
866.137	2956
866.269	2948
866.4	2933
866.531	2910
866.662	2880
866.793	2876
866.924	2899
867.055	2982
867.186	2941
867.317	2880
867.448	2861
867.579	2887
867.71	2853
867.841	2819
867.972	2910
868.103	2868
868.233	2880
868.364	2861
868.495	2876
868.625	3066
868.756	3180
868.886	2971
869.017	3009
869.147	3176
869.278	3165
869.408	3039
869.539	3013
869.669	3081
869.799	3039
869.929	3112
870.06	3142
870.19	3336
870.32	3279
870.45	3279
870.58	3370
870.71	3450
870.84	3428
870.97	3287
871.1	3268
871.23	3477
871.36	3469
871.489	3393
871.619	3405
871.749	3447
871.879	3435
872.008	3473
872.138	3382
872.267	3279
872.397	3165
872.526	3131
872.656	2990
872.785	3097
872.915	3275
873.044	3306
873.173	3256
873.303	3275
873.432	3279
873.561	3245
873.69	3195
873.819	3188
873.948	3245
874.077	3123
874.206	3058
874.335	3104
874.464	3241
874.593	3378
874.722	3310
874.851	3435
874.979	3378
875.108	3332
875.237	3237
875.365	3192
875.494	3199
875.623	3283
875.751	3112
875.88	3138
876.008	3233
876.136	3256
876.265	3374
876.393	3538
876.521	3454
876.65	3439
876.778	3363
876.906	3283
877.034	3264
877.162	3291
877.29	3268
877.418	3306
877.546	3268
877.674	3310
877.802	3283
877.93	3298
878.058	3157
878.185	3146
878.313	3233
878.441	3249
878.568	3104
878.696	3192
878.824	3283
878.951	3332
879.079	3496
879.206	3656
879.333	3492
879.461	3405
879.588	3409
879.715	3507
879.842	3644
879.97	3443
880.097	3237
880.224	3203
880.351	3211
880.478	3302
880.605	3226
880.732	3241
880.859	3557
880.986	3332
881.112	3374
881.239	3264
881.366	3176
881.493	3093
881.619	3051
881.746	3142
881.872	3127
881.999	3154
882.125	3211
882.252	3302
882.378	3332
882.505	3473
882.631	3298
882.757	3245
882.883	3249
883.01	3298
883.136	3199
883.262	3180
883.388	3142
883.514	3363
883.64	3458
883.766	3359
883.892	3211
884.018	3313
884.143	3462
884.269	3564
884.395	3222
884.52	3222
884.646	3207
884.772	3169
884.897	3135
885.023	3245
885.148	3332
885.274	3481
885.399	3405
885.524	3329
885.65	3298
885.775	3336
885.9	3344
886.025	3473
886.15	3397
886.275	3302
886.4	3302
886.525	3317
886.65	3317
886.775	3298
886.9	3526
887.025	3686
887.149	3439
887.274	3275
887.399	3157
887.523	3249
887.648	3157
887.773	3226
887.897	3386
888.021	3409
888.146	3329
888.27	3450
888.395	3618
888.519	3469
888.643	3458
888.767	3511
888.891	3336
889.015	3272
889.139	3329
889.263	3268
889.387	3469
889.511	3580
889.635	3504
889.759	3344
889.883	3306
890.006	3412
890.13	3526
890.254	3329
890.377	3317
890.501	3214
890.624	3249
890.748	3355
890.871	3211
890.995	3169
891.118	3097
891.241	3226
891.364	3249
891.488	3340
891.611	3195
891.734	3230
891.857	3317
891.98	3249
892.103	3405
892.226	3302
892.349	3268
892.471	3138
892.594	3287
892.717	3317
892.839	3336
892.962	3332
893.085	3397
893.207	3348
893.33	3184
893.452	3214
893.575	3363
893.697	3272
893.819	3496
893.941	3519
894.064	3485
894.186	3313
894.308	3344
894.43	3473
894.552	3576
894.674	3507
894.796	3272
894.918	3332
895.04	3325
895.161	3496
895.283	3424
895.405	3378
895.526	3420
895.648	3473
895.769	3443
895.891	3511
896.012	3504
896.134	3481
896.255	3458
896.376	3454
896.498	3424
896.619	3458
896.74	3416
896.861	3428
896.982	3717
897.103	3880
897.224	3671
897.345	3549
897.466	3485
897.587	3561
897.708	3660
897.828	3595
897.949	3469
898.07	3344
898.19	3469
898.311	3622
898.431	3439
898.552	3526
898.672	3622
898.792	3591
898.913	3587
899.033	3424
899.153	3302
899.273	3275
899.393	3287
899.513	3291
899.633	3344
899.753	3348
899.873	3370
899.993	3401
900.113	3397
900.232	3424
900.352	3382
900.472	3306
900.591	3241
900.711	3332
900.83	3245
900.95	3466
901.069	3526
901.189	3367
901.308	3203
901.427	3184
901.546	3211
901.665	3325
901.784	3367
901.904	3264
902.023	3165
902.141	3058
902.26	3039
902.379	3180
902.498	3093
902.617	3062
902.735	3230
902.854	3275
902.973	3233
903.091	3066
903.21	3112
903.328	3154
903.446	3169
903.565	3135
903.683	3245
903.801	3154
903.919	3279
904.038	3291
904.156	3195
904.274	3306
904.392	3283
904.51	3348
904.627	3367
904.745	3485
904.863	3542
904.981	3264
905.098	3146
905.216	3264
905.334	3325
905.451	3317
905.569	3325
905.686	3420
905.803	3481
905.921	3310
906.038	3428
906.155	3367
906.272	3294
906.389	3340
906.506	3283
906.623	3302
906.74	3302
906.857	3226
906.974	3306
907.091	3481
907.208	3599
907.324	3481
907.441	3397
907.557	3249
907.674	3279
907.79	3253
907.907	3310
908.023	3409
908.139	3393
908.256	3409
908.372	3443
908.488	3401
908.604	3275
908.72	3264
908.836	3348
908.952	3302
909.068	3393
909.184	3530
909.3	3382
909.415	3561
909.531	3504
909.647	3336
909.762	3325
909.878	3302
909.993	3378
910.108	3351
910.224	3382
910.339	3450
910.454	3355
910.57	3298
910.685	3249
910.8	3599
910.915	3549
911.03	3469
911.145	3291
911.259	3367
911.374	3317
911.489	3279
911.604	3264
911.718	3157
911.833	3184
911.947	3089
912.062	3043
912.176	3207
912.291	3192
912.405	3230
912.519	3485
912.633	3492
912.748	3340
912.862	3302
912.976	3226
913.09	3116
913.204	3230
913.318	3264
913.431	3298
913.545	3370
913.659	3450
913.772	3386
913.886	3253
914	3230
914.113	3424
914.226	3412
914.34	3389
914.453	3245
914.566	3439
914.68	3348
914.793	3370
914.906	3184
915.019	3127
915.132	3085
915.245	3180
915.358	3249
915.47	3264
915.583	3275
915.696	3321
915.809	3439
915.921	3428
916.034	3245
916.146	3268
916.259	3298
916.371	3412
916.483	3367
916.595	3310
916.708	3325
916.82	3389
916.932	3378
917.044	3355
917.156	3401
917.268	3294
917.38	3329
917.491	3302
917.603	3416
917.715	3492
917.826	3504
917.938	3420
918.049	3313
918.161	3462
918.272	3557
918.384	3568
918.495	3515
918.606	3370
918.717	3317
918.828	3386
918.939	3447
919.05	3325
919.161	3405
919.272	3192
919.383	3298
919.494	3549
919.604	3759
919.715	3557
919.826	3439
919.936	3519
920.047	3553
920.157	3561
920.267	3774
920.378	3595
920.488	3599
920.598	3819
920.708	3960
920.818	3876
920.928	3869
921.038	3983
921.148	4059
921.258	3774
921.368	3667
921.477	3625
921.587	3534
921.697	3507
921.806	3682
921.916	3542
922.025	3351
922.134	3401
922.244	3336
922.353	3454
922.462	3279
922.571	3294
922.68	3142
922.789	3081
922.898	3161
923.007	3150
923.116	3199
923.224	3214
923.333	3207
923.442	3150
923.55	3112
923.659	3180
923.767	3226
923.876	3131
923.984	3226
924.092	3100
924.201	3214
924.309	3233
924.417	3256
924.525	3230
924.633	3298
924.741	4173
924.849	3066
924.956	3279
925.064	3169
925.172	3062
925.279	3127
925.387	3207
925.494	3211
925.602	3355
925.709	3359
925.816	3211
925.924	3336
926.031	3393
926.138	3340
926.245	3405
926.352	3279
926.459	3443
926.566	3504
926.673	3298
926.779	3249
926.886	3306
926.993	3146
927.099	3154
927.206	3157
927.312	3157
927.419	3256
927.525	3245
927.631	3291
927.737	3131
927.843	3127
927.95	3043
928.056	3135
928.162	3237
928.267	3287
928.373	3903
928.479	3325
928.585	3043
928.69	3211
928.796	3279
928.901	3230
929.007	3108
929.112	3264
929.218	3199
929.323	3180
929.428	3211
929.533	3344
929.638	3142
929.743	3203
929.848	3298
929.953	3230
930.058	3176
930.163	3055
930.267	3051
930.372	3195
930.477	3051
930.581	3306
930.685	3203
930.79	3070
930.894	3146
930.998	3097
931.103	3302
931.207	3001
931.311	2941
931.415	2975
931.519	2754
931.623	2872
