Data from test_V78500241_284.txt Node
Date: Fri Mar 25 16:17:10 CST 2022
User: usil
Spectrometer: V785-0024
Trigger mode: 0
Integration Time (sec): 4.000000E-1
Scans to average: 1
Nonlinearity correction enabled: false
Boxcar width: 0
Storing dark spectrum: false
XAxis mode: Wavelengths
Number of Pixels in Spectrum: 1024
>>>>>Begin Spectral Data<<<<<
801.071	2910
801.214	2941
801.356	2853
801.499	2925
801.641	2891
801.783	2925
801.926	3020
802.068	2948
802.211	3001
802.353	3028
802.496	2963
802.638	3009
802.78	3001
802.923	3119
803.065	3005
803.208	2887
803.35	2941
803.492	2922
803.635	2933
803.777	2720
803.919	2864
804.061	3188
804.204	2922
804.346	2910
804.488	2849
804.63	2994
804.773	2826
804.915	2910
805.057	3112
805.199	2933
805.341	2990
805.483	3039
805.626	3017
805.768	2937
805.91	3100
806.052	3112
806.194	3032
806.336	3195
806.478	3024
806.62	2960
806.762	2933
806.904	3017
807.046	3165
807.188	2994
807.33	2876
807.472	2937
807.614	2891
807.756	2986
807.898	2891
808.04	2872
808.182	3005
808.324	2952
808.465	2876
808.607	2891
808.749	2754
808.891	2880
809.033	2948
809.174	2937
809.316	2872
809.458	2899
809.6	2788
809.741	2739
809.883	2727
810.025	2845
810.166	2849
810.308	2823
810.45	2838
810.591	2758
810.733	2785
810.875	2823
811.016	2777
811.158	2743
811.299	2830
811.441	2918
811.582	2914
811.724	2811
811.865	2838
812.007	2887
812.148	2895
812.29	2872
812.431	2895
812.573	2929
812.714	2990
812.855	3017
812.997	3032
813.138	3104
813.279	2998
813.421	2986
813.562	2948
813.703	2880
813.845	2864
813.986	2788
814.127	2716
814.268	2834
814.41	2849
814.551	2807
814.692	2868
814.833	2807
814.974	2910
815.115	2914
815.256	2845
815.397	2826
815.539	2845
815.68	2766
815.821	2777
815.962	2941
816.103	2918
816.244	2906
816.385	2861
816.526	2990
816.666	2937
816.807	2720
816.948	2887
817.089	2910
817.23	2826
817.371	2777
817.512	2781
817.653	2857
817.793	2796
817.934	2876
818.075	2925
818.216	2960
818.356	3043
818.497	2872
818.638	2800
818.778	2792
818.919	2785
819.06	2724
819.2	2876
819.341	2796
819.481	2800
819.622	2910
819.762	3116
819.903	3024
820.043	2899
820.184	2929
820.324	2880
820.465	2998
820.605	3039
820.746	3024
820.886	2910
821.026	3100
821.167	3146
821.307	3237
821.447	3283
821.588	3268
821.728	3176
821.868	3180
822.008	3077
822.149	3169
822.289	3195
822.429	3108
822.569	3108
822.709	3188
822.849	3013
822.99	3062
823.13	3150
823.27	3192
823.41	3093
823.55	3116
823.69	3176
823.83	3180
823.97	3093
824.11	2986
824.25	2967
824.389	3039
824.529	3116
824.669	3051
824.809	3230
824.949	3218
825.089	3176
825.228	3150
825.368	2975
825.508	2941
825.648	2982
825.787	3028
825.927	3028
826.067	2979
826.206	2960
826.346	3058
826.485	3070
826.625	3100
826.765	3260
826.904	3207
827.044	3005
827.183	2922
827.323	2834
827.462	2963
827.601	2902
827.741	2944
827.88	2941
828.02	2849
828.159	2963
828.298	3028
828.437	3085
828.577	3020
828.716	3230
828.855	3085
828.994	2876
829.134	2899
829.273	2914
829.412	2853
829.551	2864
829.69	2853
829.829	2990
829.968	3100
830.107	3001
830.246	3017
830.385	2956
830.524	2834
830.663	2834
830.802	2758
830.941	2640
831.08	2670
831.219	2785
831.357	2769
831.496	2937
831.635	2701
831.774	2640
831.913	2667
832.051	2526
832.19	2556
832.329	2655
832.467	2518
832.606	2438
832.744	2579
832.883	2579
833.022	2552
833.16	2651
833.299	2701
833.437	2663
833.576	2678
833.714	2712
833.852	2727
833.991	2743
834.129	2830
834.267	2804
834.406	2762
834.544	2868
834.682	2887
834.821	2891
834.959	3024
835.097	2849
835.235	3055
835.373	2994
835.511	3001
835.65	2952
835.788	2948
835.926	2842
836.064	2838
836.202	2853
836.34	3081
836.478	3093
836.615	3055
836.753	3150
836.891	3165
837.029	3127
837.167	3104
837.305	3062
837.443	3013
837.58	2937
837.718	3131
837.856	3047
837.993	3020
838.131	3089
838.269	3100
838.406	3093
838.544	3066
838.681	2933
838.819	2922
838.956	2811
839.094	2804
839.231	2876
839.369	3005
839.506	3344
839.643	3169
839.781	3028
839.918	2925
840.055	3024
840.193	3020
840.33	3062
840.467	3024
840.604	3108
840.742	3374
840.879	3051
841.016	3055
841.153	3108
841.29	3310
841.427	3291
841.564	3283
841.701	3256
841.838	3207
841.975	3131
842.112	3211
842.249	3085
842.385	3066
842.522	3237
842.659	3093
842.796	3043
842.933	3081
843.069	3100
843.206	3009
843.343	3165
843.479	3135
843.616	3195
843.752	2941
843.889	2876
844.025	3077
844.162	2876
844.298	3085
844.435	3017
844.571	2952
844.708	3093
844.844	3218
844.98	3245
845.117	3222
845.253	3081
845.389	3043
845.525	3104
845.661	3127
845.798	3005
845.934	3165
846.07	3058
846.206	3230
846.342	3348
846.478	3268
846.614	3116
846.75	3100
846.886	3070
847.022	3253
847.158	3192
847.294	3218
847.429	3275
847.565	3279
847.701	3488
847.837	3074
847.972	3081
848.108	3203
848.244	3192
848.379	3039
848.515	2971
848.65	2944
848.786	3013
848.921	3047
849.057	3131
849.192	3218
849.328	3142
849.463	3161
849.598	3119
849.734	3081
849.869	2986
850.004	2979
850.14	3017
850.275	2952
850.41	2845
850.545	2918
850.68	2998
850.815	2998
850.95	3005
851.085	3256
851.22	3146
851.355	3074
851.49	2982
851.625	3036
851.76	3085
851.895	2963
852.03	2929
852.165	3070
852.299	3154
852.434	3211
852.569	3176
852.703	3211
852.838	3279
852.973	3374
853.107	3370
853.242	3169
853.376	3135
853.511	3005
853.645	3093
853.78	3279
853.914	3188
854.048	3127
854.183	3127
854.317	3173
854.451	3355
854.585	3157
854.72	3100
854.854	3230
854.988	3074
855.122	3165
855.256	3013
855.39	3157
855.524	3294
855.658	3233
855.792	3173
855.926	3237
856.06	3272
856.194	3298
856.327	3165
856.461	3150
856.595	3123
856.729	3142
856.862	3260
856.996	3184
857.13	3230
857.263	3294
857.397	3268
857.53	3123
857.664	3233
857.797	3310
857.931	3302
858.064	3176
858.197	3249
858.331	3131
858.464	3127
858.597	3077
858.731	3123
858.864	3161
858.997	3161
859.13	3211
859.263	3195
859.396	3241
859.529	3104
859.662	3131
859.795	3093
859.928	3169
860.061	3306
860.194	3310
860.327	3146
860.46	3154
860.592	3260
860.725	3253
860.858	3298
860.99	3142
861.123	3062
861.256	3112
861.388	3180
861.521	3873
861.653	3058
861.786	2975
861.918	3036
862.05	3036
862.183	3119
862.315	3138
862.447	3241
862.58	3135
862.712	2994
862.844	2895
862.976	3070
863.108	3036
863.24	3340
863.372	2906
863.504	3001
863.636	2960
863.768	3047
863.9	3005
864.032	2941
864.164	2952
864.296	3028
864.428	3127
864.559	3123
864.691	3131
864.823	3138
864.954	3077
865.086	3112
865.217	2994
865.349	2967
865.48	3013
865.612	3017
865.743	3169
865.875	3020
866.006	2982
866.137	3024
866.269	2982
866.4	2971
866.531	2948
866.662	2899
866.793	2937
866.924	2944
867.055	2986
867.186	2971
867.317	2910
867.448	2868
867.579	2906
867.71	2910
867.841	2842
867.972	2918
868.103	2963
868.233	2895
868.364	2899
868.495	2971
868.625	3138
868.756	3207
868.886	3009
869.017	3047
869.147	3176
869.278	3207
869.408	3074
869.539	3074
869.669	3119
869.799	3077
869.929	3218
870.06	3119
870.19	3340
870.32	3306
870.45	3310
870.58	3409
870.71	3485
870.84	3473
870.97	3355
871.1	3283
871.23	3534
871.36	3496
871.489	3348
871.619	3409
871.749	3443
871.879	3466
872.008	3530
872.138	3416
872.267	3272
872.397	3188
872.526	3127
872.656	3039
872.785	3138
872.915	3306
873.044	3359
873.173	3253
873.303	3275
873.432	3279
873.561	3264
873.69	3222
873.819	3154
873.948	3245
874.077	3131
874.206	3066
874.335	3116
874.464	3249
874.593	3378
874.722	3245
874.851	3420
874.979	3378
875.108	3405
875.237	3211
875.365	3195
875.494	3173
875.623	3218
875.751	3131
875.88	3173
876.008	3214
876.136	3260
876.265	3424
876.393	3530
876.521	3485
876.65	3473
876.778	3370
876.906	3294
877.034	3245
877.162	3260
877.29	3211
877.418	3291
877.546	3253
877.674	3287
877.802	3256
877.93	3268
878.058	3188
878.185	3135
878.313	3241
878.441	3222
878.568	3108
878.696	3150
878.824	3275
878.951	3336
879.079	3454
879.206	3644
879.333	3485
879.461	3344
879.588	3389
879.715	3534
879.842	3584
879.97	3397
880.097	3233
880.224	3173
880.351	3241
880.478	3272
880.605	3188
880.732	3230
880.859	3526
880.986	3302
881.112	3332
881.239	3241
881.366	3131
881.493	3058
881.619	3051
881.746	3127
881.872	3138
881.999	3119
882.125	3161
882.252	3298
882.378	3348
882.505	3443
882.631	3302
882.757	3222
882.883	3233
883.01	3249
883.136	3203
883.262	3119
883.388	3116
883.514	3370
883.64	3409
883.766	3340
883.892	3226
884.018	3218
884.143	3428
884.269	3591
884.395	3211
884.52	3230
884.646	3214
884.772	3169
884.897	3127
885.023	3233
885.148	3332
885.274	3439
885.399	3374
885.524	3329
885.65	3344
885.775	3336
885.9	3329
886.025	3424
886.15	3374
886.275	3340
886.4	3264
886.525	3310
886.65	3359
886.775	3310
886.9	3530
887.025	3618
887.149	3500
887.274	3275
887.399	3207
887.523	3211
887.648	3237
887.773	3199
887.897	3420
888.021	3389
888.146	3287
888.27	3412
888.395	3576
888.519	3473
888.643	3507
888.767	3458
888.891	3359
889.015	3241
889.139	3344
889.263	3264
889.387	3447
889.511	3538
889.635	3469
889.759	3321
889.883	3306
890.006	3439
890.13	3466
890.254	3298
890.377	3332
890.501	3249
890.624	3211
890.748	3321
890.871	3180
890.995	3150
891.118	3085
891.241	3226
891.364	3279
891.488	3310
891.611	3188
891.734	3268
891.857	3287
891.98	3272
892.103	3389
892.226	3302
892.349	3222
892.471	3154
892.594	3237
892.717	3302
892.839	3291
892.962	3310
893.085	3382
893.207	3302
893.33	3176
893.452	3237
893.575	3351
893.697	3256
893.819	3466
893.941	3530
894.064	3462
894.186	3291
894.308	3317
894.43	3447
894.552	3561
894.674	3481
894.796	3279
894.918	3344
895.04	3313
895.161	3469
895.283	3443
895.405	3332
895.526	3359
895.648	3488
895.769	3447
895.891	3447
896.012	3466
896.134	3519
896.255	3420
896.376	3363
896.498	3382
896.619	3443
896.74	3374
896.861	3431
896.982	3679
897.103	3854
897.224	3633
897.345	3542
897.466	3416
897.587	3530
897.708	3641
897.828	3542
897.949	3473
898.07	3348
898.19	3412
898.311	3622
898.431	3443
898.552	3515
898.672	3610
898.792	3610
898.913	3553
899.033	3462
899.153	3313
899.273	3203
899.393	3321
899.513	3344
899.633	3325
899.753	3348
899.873	3287
899.993	3397
900.113	3382
900.232	3397
900.352	3359
900.472	3329
900.591	3241
900.711	3287
900.83	3287
900.95	3454
901.069	3534
901.189	3374
901.308	3211
901.427	3176
901.546	3207
901.665	3310
901.784	3344
901.904	3241
902.023	3169
902.141	3062
902.26	3013
902.379	3131
902.498	3123
902.617	3074
902.735	3226
902.854	3245
902.973	3203
903.091	3058
903.21	3070
903.328	3154
903.446	3108
903.565	3138
903.683	3214
903.801	3135
903.919	3279
904.038	3321
904.156	3211
904.274	3321
904.392	3279
904.51	3336
904.627	3389
904.745	3431
904.863	3492
904.981	3253
905.098	3199
905.216	3268
905.334	3332
905.451	3306
905.569	3336
905.686	3477
905.803	3492
905.921	3332
906.038	3382
906.155	3370
906.272	3241
906.389	3355
906.506	3264
906.623	3302
906.74	3310
906.857	3237
906.974	3298
907.091	3485
907.208	3519
907.324	3488
907.441	3420
907.557	3214
907.674	3211
907.79	3241
907.907	3325
908.023	3405
908.139	3386
908.256	3355
908.372	3359
908.488	3351
908.604	3306
908.72	3249
908.836	3279
908.952	3279
909.068	3374
909.184	3515
909.3	3416
909.415	3534
909.531	3492
909.647	3302
909.762	3317
909.878	3279
909.993	3355
910.108	3359
910.224	3325
910.339	3378
910.454	3340
910.57	3287
910.685	3226
910.8	3614
910.915	3530
911.03	3458
911.145	3302
911.259	3298
911.374	3313
911.489	3275
911.604	3253
911.718	3146
911.833	3184
911.947	3062
912.062	2963
912.176	3188
912.291	3233
912.405	3207
912.519	3469
912.633	3481
912.748	3389
912.862	3291
912.976	3207
913.09	3051
913.204	3169
913.318	3268
913.431	3325
913.545	3351
913.659	3405
913.772	3348
913.886	3237
914	3207
914.113	3382
914.226	3447
914.34	3401
914.453	3211
914.566	3447
914.68	3313
914.793	3344
914.906	3214
915.019	3131
915.132	3055
915.245	3222
915.358	3222
915.47	3287
915.583	3294
915.696	3329
915.809	3439
915.921	3435
916.034	3321
916.146	3294
916.259	3253
916.371	3443
916.483	3405
916.595	3332
916.708	3359
916.82	3363
916.932	3359
917.044	3363
917.156	3359
917.268	3302
917.38	3348
917.491	3344
917.603	3405
917.715	3504
917.826	3542
917.938	3454
918.049	3321
918.161	3504
918.272	3614
918.384	3641
918.495	3553
918.606	3370
918.717	3321
918.828	3450
918.939	3466
919.05	3336
919.161	3424
919.272	3249
919.383	3329
919.494	3572
919.604	3724
919.715	3561
919.826	3443
919.936	3523
920.047	3587
920.157	3610
920.267	3819
920.378	3667
920.488	3641
920.598	3831
920.708	4025
920.818	3888
920.928	3892
921.038	4074
921.148	4071
921.258	3759
921.368	3679
921.477	3648
921.587	3622
921.697	3481
921.806	3713
921.916	3515
922.025	3405
922.134	3416
922.244	3378
922.353	3492
922.462	3359
922.571	3321
922.68	3119
922.789	3127
922.898	3161
923.007	3150
923.116	3195
923.224	3169
923.333	3253
923.442	3157
923.55	3146
923.659	3207
923.767	3291
923.876	3146
923.984	3268
924.092	3154
924.201	3294
924.309	3294
924.417	3298
924.525	3226
924.633	3336
924.741	4188
924.849	3097
924.956	3336
925.064	3138
925.172	3077
925.279	3180
925.387	3199
925.494	3237
925.602	3382
925.709	3374
925.816	3253
925.924	3344
926.031	3450
926.138	3332
926.245	3439
926.352	3348
926.459	3458
926.566	3511
926.673	3386
926.779	3294
926.886	3283
926.993	3184
927.099	3188
927.206	3173
927.312	3154
927.419	3260
927.525	3230
927.631	3313
927.737	3218
927.843	3123
927.95	3066
928.056	3157
928.162	3230
928.267	3302
928.373	3918
928.479	3374
928.585	3097
928.69	3241
928.796	3294
928.901	3169
929.007	3058
929.112	3253
929.218	3233
929.323	3207
929.428	3165
929.533	3382
929.638	3188
929.743	3199
929.848	3325
929.953	3264
930.058	3195
930.163	3047
930.267	3104
930.372	3249
930.477	3058
930.581	3344
930.685	3214
930.79	3104
930.894	3195
930.998	3138
931.103	3317
931.207	3009
931.311	2986
931.415	2952
931.519	2811
931.623	2868
