Data from test_V78500241_181.txt Node
Date: Fri Mar 25 16:16:27 CST 2022
User: usil
Spectrometer: V785-0024
Trigger mode: 0
Integration Time (sec): 4.000000E-1
Scans to average: 1
Nonlinearity correction enabled: false
Boxcar width: 0
Storing dark spectrum: false
XAxis mode: Wavelengths
Number of Pixels in Spectrum: 1024
>>>>>Begin Spectral Data<<<<<
801.071	2944
801.214	2967
801.356	2910
801.499	2914
801.641	2876
801.783	2922
801.926	3039
802.068	2990
802.211	3032
802.353	3013
802.496	2967
802.638	2994
802.78	3047
802.923	3085
803.065	3032
803.208	2910
803.35	2902
803.492	2937
803.635	2937
803.777	2788
803.919	2872
804.061	3237
804.204	2963
804.346	2902
804.488	2857
804.63	3024
804.773	2876
804.915	2925
805.057	3131
805.199	2944
805.341	2971
805.483	3047
805.626	3009
805.768	2963
805.91	3097
806.052	3131
806.194	3055
806.336	3241
806.478	3036
806.62	2960
806.762	3009
806.904	3070
807.046	3188
807.188	2971
807.33	2937
807.472	2994
807.614	2906
807.756	2990
807.898	2952
808.04	2956
808.182	2975
808.324	2925
808.465	2910
808.607	2895
808.749	2804
808.891	2834
809.033	2982
809.174	3017
809.316	2918
809.458	2918
809.6	2826
809.741	2785
809.883	2777
810.025	2883
810.166	2861
810.308	2868
810.45	2872
810.591	2777
810.733	2800
810.875	2823
811.016	2796
811.158	2746
811.299	2838
811.441	2948
811.582	2902
811.724	2823
811.865	2868
812.007	2933
812.148	2895
812.29	2864
812.431	2880
812.573	2948
812.714	2998
812.855	3055
812.997	3062
813.138	3123
813.279	3024
813.421	2982
813.562	2979
813.703	2891
813.845	2887
813.986	2830
814.127	2746
814.268	2842
814.41	2880
814.551	2842
814.692	2872
814.833	2845
814.974	2914
815.115	2971
815.256	2800
815.397	2838
815.539	2857
815.68	2777
815.821	2823
815.962	2979
816.103	2922
816.244	2830
816.385	2880
816.526	2971
816.666	2941
816.807	2746
816.948	2891
817.089	2937
817.23	2868
817.371	2815
817.512	2796
817.653	2883
817.793	2872
817.934	2876
818.075	2994
818.216	3013
818.356	3036
818.497	2902
818.638	2830
818.778	2819
818.919	2845
819.06	2762
819.2	2887
819.341	2857
819.481	2796
819.622	2929
819.762	3123
819.903	3024
820.043	2880
820.184	2922
820.324	2910
820.465	3028
820.605	3043
820.746	3032
820.886	2937
821.026	3081
821.167	3176
821.307	3283
821.447	3279
821.588	3264
821.728	3161
821.868	3218
822.008	3097
822.149	3218
822.289	3237
822.429	3119
822.569	3074
822.709	3199
822.849	3001
822.99	3047
823.13	3142
823.27	3214
823.41	3093
823.55	3199
823.69	3142
823.83	3203
823.97	3112
824.11	3017
824.25	2986
824.389	3074
824.529	3157
824.669	3112
824.809	3184
824.949	3283
825.089	3272
825.228	3169
825.368	3036
825.508	2998
825.648	2990
825.787	3036
825.927	3043
826.067	2971
826.206	3020
826.346	3009
826.485	3062
826.625	3104
826.765	3264
826.904	3249
827.044	3020
827.183	3009
827.323	2849
827.462	2994
827.601	2906
827.741	2971
827.88	2948
828.02	2864
828.159	2956
828.298	3074
828.437	3085
828.577	3066
828.716	3256
828.855	3123
828.994	2929
829.134	2887
829.273	2944
829.412	2872
829.551	2849
829.69	2925
829.829	2979
829.968	3169
830.107	3001
830.246	3017
830.385	2952
830.524	2899
830.663	2830
830.802	2762
830.941	2659
831.08	2648
831.219	2800
831.357	2781
831.496	2986
831.635	2720
831.774	2663
831.913	2659
832.051	2537
832.19	2568
832.329	2670
832.467	2526
832.606	2488
832.744	2579
832.883	2621
833.022	2590
833.16	2617
833.299	2708
833.437	2708
833.576	2693
833.714	2800
833.852	2750
833.991	2781
834.129	2823
834.267	2857
834.406	2796
834.544	2853
834.682	2853
834.821	2880
834.959	3077
835.097	2883
835.235	3070
835.373	3020
835.511	3020
835.65	3001
835.788	2941
835.926	2834
836.064	2830
836.202	2880
836.34	3097
836.478	3195
836.615	3036
836.753	3127
836.891	3207
837.029	3142
837.167	3108
837.305	3043
837.443	3074
837.58	2963
837.718	3154
837.856	3058
837.993	3047
838.131	3188
838.269	3127
838.406	3077
838.544	3077
838.681	2948
838.819	2941
838.956	2807
839.094	2830
839.231	2906
839.369	2975
839.506	3405
839.643	3222
839.781	2982
839.918	2982
840.055	3058
840.193	3066
840.33	3093
840.467	3116
840.604	3157
840.742	3424
840.879	3074
841.016	3062
841.153	3119
841.29	3386
841.427	3321
841.564	3279
841.701	3332
841.838	3275
841.975	3195
842.112	3222
842.249	3108
842.385	3043
842.522	3256
842.659	3070
842.796	3032
842.933	3100
843.069	3058
843.206	3055
843.343	3233
843.479	3104
843.616	3142
843.752	2922
843.889	2895
844.025	3066
844.162	2922
844.298	3066
844.435	2952
844.571	2929
844.708	3074
844.844	3207
844.98	3268
845.117	3230
845.253	3077
845.389	2998
845.525	3077
845.661	3131
845.798	2990
845.934	3131
846.07	3062
846.206	3222
846.342	3321
846.478	3256
846.614	3097
846.75	3032
846.886	3047
847.022	3233
847.158	3146
847.294	3180
847.429	3249
847.565	3237
847.701	3545
847.837	3028
847.972	3020
848.108	3180
848.244	3154
848.379	2986
848.515	2937
848.65	2952
848.786	2956
848.921	2990
849.057	3116
849.192	3226
849.328	3066
849.463	3119
849.598	3051
849.734	3039
849.869	2994
850.004	2918
850.14	2975
850.275	2944
850.41	2883
850.545	2899
850.68	2902
850.815	2941
850.95	2990
851.085	3188
851.22	3097
851.355	3058
851.49	2998
851.625	3039
851.76	3043
851.895	2922
852.03	2941
852.165	3066
852.299	3119
852.434	3184
852.569	3142
852.703	3195
852.838	3256
852.973	3332
853.107	3351
853.242	3161
853.376	3085
853.511	2971
853.645	3024
853.78	3230
853.914	3150
854.048	3146
854.183	3100
854.317	3161
854.451	3294
854.585	3165
854.72	3100
854.854	3253
854.988	3108
855.122	3077
855.256	2975
855.39	3123
855.524	3264
855.658	3195
855.792	3142
855.926	3203
856.06	3222
856.194	3291
856.327	3173
856.461	3104
856.595	3093
856.729	3123
856.862	3214
856.996	3188
857.13	3211
857.263	3222
857.397	3275
857.53	3131
857.664	3230
857.797	3268
857.931	3332
858.064	3154
858.197	3302
858.331	3154
858.464	3085
858.597	3028
858.731	3100
858.864	3150
858.997	3119
859.13	3199
859.263	3169
859.396	3192
859.529	3097
859.662	3131
859.795	3024
859.928	3169
860.061	3302
860.194	3302
860.327	3161
860.46	3081
860.592	3260
860.725	3264
860.858	3211
860.99	3146
861.123	3077
861.256	3097
861.388	3165
861.521	3781
861.653	3043
861.786	3001
861.918	3013
862.05	3104
862.183	3077
862.315	3146
862.447	3184
862.58	3123
862.712	2952
862.844	2868
862.976	3039
863.108	3028
863.24	3294
863.372	2895
863.504	2994
863.636	2937
863.768	3039
863.9	3001
864.032	2956
864.164	2941
864.296	3032
864.428	3108
864.559	3070
864.691	3081
864.823	3089
864.954	3058
865.086	3070
865.217	3032
865.349	2963
865.48	2998
865.612	3032
865.743	3169
865.875	2986
866.006	2956
866.137	2963
866.269	2956
866.4	2963
866.531	2910
866.662	2876
866.793	2887
866.924	2902
867.055	2998
867.186	2937
867.317	2910
867.448	2853
867.579	2891
867.71	2842
867.841	2872
867.972	2887
868.103	2902
868.233	2838
868.364	2891
868.495	2918
868.625	3077
868.756	3157
868.886	2956
869.017	3013
869.147	3165
869.278	3176
869.408	3047
869.539	3001
869.669	3123
869.799	3066
869.929	3176
870.06	3176
870.19	3355
870.32	3279
870.45	3310
870.58	3351
870.71	3492
870.84	3450
870.97	3351
871.1	3237
871.23	3496
871.36	3458
871.489	3355
871.619	3393
871.749	3405
871.879	3428
872.008	3515
872.138	3367
872.267	3325
872.397	3154
872.526	3116
872.656	3001
872.785	3100
872.915	3275
873.044	3336
873.173	3222
873.303	3249
873.432	3214
873.561	3287
873.69	3161
873.819	3169
873.948	3180
874.077	3123
874.206	3066
874.335	3089
874.464	3226
874.593	3340
874.722	3256
874.851	3393
874.979	3355
875.108	3336
875.237	3169
875.365	3157
875.494	3169
875.623	3253
875.751	3100
875.88	3169
876.008	3203
876.136	3222
876.265	3374
876.393	3507
876.521	3447
876.65	3420
876.778	3359
876.906	3253
877.034	3199
877.162	3233
877.29	3184
877.418	3264
877.546	3237
877.674	3256
877.802	3230
877.93	3245
878.058	3161
878.185	3097
878.313	3180
878.441	3195
878.568	3085
878.696	3188
878.824	3241
878.951	3287
879.079	3473
879.206	3618
879.333	3420
879.461	3321
879.588	3351
879.715	3523
879.842	3595
879.97	3409
880.097	3154
880.224	3119
880.351	3233
880.478	3214
880.605	3226
880.732	3218
880.859	3523
880.986	3340
881.112	3325
881.239	3233
881.366	3146
881.493	3032
881.619	3066
881.746	3077
881.872	3100
881.999	3150
882.125	3207
882.252	3279
882.378	3279
882.505	3424
882.631	3279
882.757	3173
882.883	3180
883.01	3253
883.136	3157
883.262	3104
883.388	3116
883.514	3367
883.64	3409
883.766	3329
883.892	3230
884.018	3264
884.143	3409
884.269	3530
884.395	3222
884.52	3150
884.646	3188
884.772	3138
884.897	3131
885.023	3218
885.148	3336
885.274	3443
885.399	3393
885.524	3272
885.65	3256
885.775	3344
885.9	3302
886.025	3450
886.15	3405
886.275	3332
886.4	3272
886.525	3325
886.65	3283
886.775	3294
886.9	3481
887.025	3671
887.149	3431
887.274	3264
887.399	3188
887.523	3241
887.648	3188
887.773	3237
887.897	3431
888.021	3382
888.146	3260
888.27	3450
888.395	3523
888.519	3431
888.643	3485
888.767	3454
888.891	3344
889.015	3245
889.139	3253
889.263	3237
889.387	3409
889.511	3545
889.635	3469
889.759	3306
889.883	3370
890.006	3340
890.13	3496
890.254	3264
890.377	3367
890.501	3207
890.624	3188
890.748	3321
890.871	3188
890.995	3138
891.118	3081
891.241	3211
891.364	3253
891.488	3340
891.611	3184
891.734	3230
891.857	3298
891.98	3287
892.103	3302
892.226	3279
892.349	3195
892.471	3127
892.594	3264
892.717	3306
892.839	3268
892.962	3306
893.085	3405
893.207	3359
893.33	3195
893.452	3192
893.575	3370
893.697	3275
893.819	3504
893.941	3488
894.064	3447
894.186	3302
894.308	3294
894.43	3393
894.552	3549
894.674	3523
894.796	3287
894.918	3294
895.04	3310
895.161	3439
895.283	3416
895.405	3351
895.526	3374
895.648	3428
895.769	3462
895.891	3439
896.012	3477
896.134	3515
896.255	3431
896.376	3370
896.498	3405
896.619	3416
896.74	3370
896.861	3412
896.982	3736
897.103	3838
897.224	3603
897.345	3534
897.466	3443
897.587	3481
897.708	3641
897.828	3542
897.949	3496
898.07	3325
898.19	3412
898.311	3591
898.431	3443
898.552	3549
898.672	3591
898.792	3644
898.913	3580
899.033	3431
899.153	3313
899.273	3260
899.393	3283
899.513	3332
899.633	3313
899.753	3332
899.873	3325
899.993	3386
900.113	3359
900.232	3439
900.352	3351
900.472	3279
900.591	3207
900.711	3325
900.83	3249
900.95	3443
901.069	3530
901.189	3351
901.308	3154
901.427	3093
901.546	3199
901.665	3340
901.784	3344
901.904	3249
902.023	3173
902.141	3020
902.26	2979
902.379	3165
902.498	3077
902.617	3085
902.735	3211
902.854	3264
902.973	3188
903.091	3074
903.21	3108
903.328	3142
903.446	3123
903.565	3112
903.683	3199
903.801	3142
903.919	3287
904.038	3291
904.156	3203
904.274	3283
904.392	3306
904.51	3283
904.627	3332
904.745	3488
904.863	3500
904.981	3283
905.098	3192
905.216	3222
905.334	3329
905.451	3348
905.569	3321
905.686	3473
905.803	3477
905.921	3279
906.038	3439
906.155	3355
906.272	3275
906.389	3348
906.506	3241
906.623	3287
906.74	3256
906.857	3199
906.974	3275
907.091	3469
907.208	3618
907.324	3500
907.441	3389
907.557	3222
907.674	3218
907.79	3214
907.907	3294
908.023	3378
908.139	3374
908.256	3363
908.372	3367
908.488	3370
908.604	3287
908.72	3214
908.836	3279
908.952	3264
909.068	3340
909.184	3515
909.3	3409
909.415	3538
909.531	3454
909.647	3291
909.762	3321
909.878	3291
909.993	3374
910.108	3363
910.224	3382
910.339	3409
910.454	3336
910.57	3329
910.685	3279
910.8	3599
910.915	3568
911.03	3443
911.145	3241
911.259	3268
911.374	3348
911.489	3230
911.604	3237
911.718	3123
911.833	3146
911.947	3017
912.062	3032
912.176	3150
912.291	3211
912.405	3237
912.519	3443
912.633	3504
912.748	3348
912.862	3291
912.976	3173
913.09	3089
913.204	3123
913.318	3230
913.431	3310
913.545	3355
913.659	3473
913.772	3348
913.886	3260
914	3214
914.113	3344
914.226	3447
914.34	3378
914.453	3188
914.566	3431
914.68	3291
914.793	3336
914.906	3176
915.019	3146
915.132	3058
915.245	3214
915.358	3241
915.47	3260
915.583	3253
915.696	3321
915.809	3435
915.921	3428
916.034	3298
916.146	3245
916.259	3256
916.371	3409
916.483	3367
916.595	3283
916.708	3348
916.82	3340
916.932	3374
917.044	3332
917.156	3378
917.268	3275
917.38	3279
917.491	3283
917.603	3409
917.715	3485
917.826	3500
917.938	3412
918.049	3268
918.161	3405
918.272	3572
918.384	3614
918.495	3515
918.606	3321
918.717	3279
918.828	3401
918.939	3443
919.05	3355
919.161	3416
919.272	3214
919.383	3306
919.494	3511
919.604	3713
919.715	3500
919.826	3428
919.936	3458
920.047	3614
920.157	3549
920.267	3736
920.378	3599
920.488	3564
920.598	3789
920.708	3949
920.818	3842
920.928	3838
921.038	4017
921.148	4044
921.258	3690
921.368	3682
921.477	3599
921.587	3553
921.697	3462
921.806	3637
921.916	3553
922.025	3359
922.134	3393
922.244	3306
922.353	3481
922.462	3287
922.571	3249
922.68	3085
922.789	3100
922.898	3138
923.007	3100
923.116	3207
923.224	3142
923.333	3211
923.442	3138
923.55	3100
923.659	3157
923.767	3256
923.876	3100
923.984	3233
924.092	3116
924.201	3195
924.309	3230
924.417	3287
924.525	3203
924.633	3237
924.741	4181
924.849	3058
924.956	3298
925.064	3119
925.172	3085
925.279	3104
925.387	3245
925.494	3176
925.602	3378
925.709	3313
925.816	3207
925.924	3283
926.031	3409
926.138	3298
926.245	3367
926.352	3241
926.459	3397
926.566	3500
926.673	3355
926.779	3260
926.886	3222
926.993	3161
927.099	3138
927.206	3104
927.312	3127
927.419	3256
927.525	3203
927.631	3329
927.737	3154
927.843	3127
927.95	3055
928.056	3150
928.162	3161
928.267	3275
928.373	3922
928.479	3340
928.585	3085
928.69	3226
928.796	3321
928.901	3135
929.007	3058
929.112	3195
929.218	3199
929.323	3138
929.428	3161
929.533	3344
929.638	3097
929.743	3180
929.848	3279
929.953	3218
930.058	3131
930.163	2975
930.267	3070
930.372	3203
930.477	3036
930.581	3336
930.685	3173
930.79	3097
930.894	3104
930.998	3127
931.103	3306
931.207	3024
931.311	2952
931.415	2941
931.519	2758
931.623	2796
