Data from test_V78500241_1537.txt Node
Date: Fri Mar 25 16:25:51 CST 2022
User: usil
Spectrometer: V785-0024
Trigger mode: 0
Integration Time (sec): 4.000000E-1
Scans to average: 1
Nonlinearity correction enabled: false
Boxcar width: 0
Storing dark spectrum: false
XAxis mode: Wavelengths
Number of Pixels in Spectrum: 1024
>>>>>Begin Spectral Data<<<<<
801.071	2922
801.214	2994
801.356	2872
801.499	2914
801.641	2883
801.783	2944
801.926	3081
802.068	2994
802.211	3024
802.353	3093
802.496	3017
802.638	3070
802.78	3077
802.923	3066
803.065	3032
803.208	2899
803.35	2963
803.492	2948
803.635	2960
803.777	2754
803.919	2887
804.061	3203
804.204	2963
804.346	2971
804.488	2861
804.63	3017
804.773	2902
804.915	2948
805.057	3108
805.199	2963
805.341	2967
805.483	3062
805.626	3039
805.768	2990
805.91	3100
806.052	3116
806.194	3043
806.336	3249
806.478	3032
806.62	2982
806.762	2994
806.904	3081
807.046	3207
807.188	2990
807.33	2963
807.472	2982
807.614	2914
807.756	2998
807.898	2925
808.04	2918
808.182	2971
808.324	2979
808.465	2910
808.607	2918
808.749	2838
808.891	2838
809.033	2975
809.174	2990
809.316	2895
809.458	2925
809.6	2777
809.741	2842
809.883	2773
810.025	2883
810.166	2891
810.308	2842
810.45	2880
810.591	2788
810.733	2811
810.875	2838
811.016	2807
811.158	2739
811.299	2838
811.441	2944
811.582	2925
811.724	2864
811.865	2853
812.007	2922
812.148	2902
812.29	2845
812.431	2929
812.573	2944
812.714	3001
812.855	3047
812.997	3062
813.138	3131
813.279	3024
813.421	3005
813.562	3005
813.703	2891
813.845	2864
813.986	2796
814.127	2754
814.268	2819
814.41	2842
814.551	2842
814.692	2906
814.833	2864
814.974	2922
815.115	2990
815.256	2868
815.397	2819
815.539	2910
815.68	2804
815.821	2762
815.962	2975
816.103	2937
816.244	2906
816.385	2887
816.526	3017
816.666	2910
816.807	2796
816.948	2899
817.089	2944
817.23	2845
817.371	2777
817.512	2834
817.653	2845
817.793	2857
817.934	2906
818.075	2998
818.216	2979
818.356	3032
818.497	2880
818.638	2823
818.778	2804
818.919	2781
819.06	2754
819.2	2872
819.341	2815
819.481	2838
819.622	2956
819.762	3123
819.903	3062
820.043	2929
820.184	2895
820.324	2937
820.465	3051
820.605	3051
820.746	3055
820.886	2948
821.026	3093
821.167	3138
821.307	3298
821.447	3283
821.588	3260
821.728	3245
821.868	3180
822.008	3089
822.149	3192
822.289	3279
822.429	3100
822.569	3142
822.709	3199
822.849	3051
822.99	3081
823.13	3176
823.27	3176
823.41	3138
823.55	3180
823.69	3154
823.83	3226
823.97	3093
824.11	3005
824.25	2990
824.389	3119
824.529	3112
824.669	3070
824.809	3214
824.949	3256
825.089	3211
825.228	3180
825.368	3036
825.508	2967
825.648	3001
825.787	3024
825.927	3028
826.067	2982
826.206	2963
826.346	3055
826.485	3097
826.625	3123
826.765	3264
826.904	3211
827.044	3028
827.183	2960
827.323	2834
827.462	2979
827.601	2922
827.741	2960
827.88	2979
828.02	2853
828.159	3028
828.298	3009
828.437	3116
828.577	3062
828.716	3226
828.855	3097
828.994	2941
829.134	2880
829.273	2925
829.412	2868
829.551	2872
829.69	2887
829.829	3024
829.968	3135
830.107	3024
830.246	3039
830.385	2941
830.524	2868
830.663	2830
830.802	2724
830.941	2663
831.08	2651
831.219	2762
831.357	2754
831.496	2982
831.635	2708
831.774	2678
831.913	2648
832.051	2552
832.19	2583
832.329	2686
832.467	2537
832.606	2507
832.744	2606
832.883	2610
833.022	2610
833.16	2667
833.299	2697
833.437	2727
833.576	2724
833.714	2739
833.852	2724
833.991	2769
834.129	2826
834.267	2849
834.406	2766
834.544	2868
834.682	2937
834.821	2883
834.959	3074
835.097	2937
835.235	3077
835.373	3009
835.511	2982
835.65	2963
835.788	2952
835.926	2823
836.064	2785
836.202	2899
836.34	3100
836.478	3180
836.615	3036
836.753	3138
836.891	3237
837.029	3169
837.167	3108
837.305	3077
837.443	3032
837.58	2952
837.718	3131
837.856	3097
837.993	3062
838.131	3123
838.269	3119
838.406	3123
838.544	3097
838.681	2960
838.819	2910
838.956	2842
839.094	2842
839.231	2899
839.369	3005
839.506	3325
839.643	3218
839.781	3013
839.918	2975
840.055	3081
840.193	3089
840.33	3032
840.467	3085
840.604	3150
840.742	3454
840.879	3047
841.016	3043
841.153	3077
841.29	3325
841.427	3283
841.564	3249
841.701	3344
841.838	3249
841.975	3188
842.112	3260
842.249	3074
842.385	3036
842.522	3256
842.659	3104
842.796	3062
842.933	3146
843.069	3058
843.206	3077
843.343	3214
843.479	3116
843.616	3184
843.752	2868
843.889	2883
844.025	3089
844.162	2857
844.298	3089
844.435	2975
844.571	2944
844.708	3116
844.844	3188
844.98	3279
845.117	3188
845.253	3013
845.389	3001
845.525	3108
845.661	3100
845.798	2982
845.934	3138
846.07	3051
846.206	3211
846.342	3302
846.478	3237
846.614	3104
846.75	3070
846.886	3032
847.022	3226
847.158	3131
847.294	3154
847.429	3256
847.565	3199
847.701	3488
847.837	3062
847.972	3013
848.108	3184
848.244	3138
848.379	3005
848.515	2944
848.65	2941
848.786	2944
848.921	3024
849.057	3135
849.192	3157
849.328	3100
849.463	3093
849.598	3013
849.734	3020
849.869	2998
850.004	2925
850.14	2952
850.275	2944
850.41	2861
850.545	2887
850.68	2960
850.815	2994
850.95	2994
851.085	3165
851.22	3085
851.355	3043
851.49	3009
851.625	2982
851.76	3001
851.895	2922
852.03	2925
852.165	3032
852.299	3108
852.434	3211
852.569	3119
852.703	3192
852.838	3249
852.973	3382
853.107	3370
853.242	3142
853.376	3097
853.511	2986
853.645	3066
853.78	3237
853.914	3131
854.048	3097
854.183	3081
854.317	3135
854.451	3325
854.585	3123
854.72	3074
854.854	3207
854.988	3001
855.122	3085
855.256	2982
855.39	3127
855.524	3260
855.658	3218
855.792	3138
855.926	3207
856.06	3226
856.194	3287
856.327	3119
856.461	3085
856.595	3089
856.729	3100
856.862	3214
856.996	3138
857.13	3214
857.263	3264
857.397	3321
857.53	3142
857.664	3195
857.797	3226
857.931	3237
858.064	3157
858.197	3249
858.331	3142
858.464	3100
858.597	3013
858.731	3100
858.864	3146
858.997	3138
859.13	3165
859.263	3135
859.396	3207
859.529	3104
859.662	3058
859.795	3055
859.928	3161
860.061	3260
860.194	3313
860.327	3123
860.46	3062
860.592	3241
860.725	3260
860.858	3207
860.99	3135
861.123	3047
861.256	3055
861.388	3146
861.521	3918
861.653	2994
861.786	2979
861.918	2979
862.05	3093
862.183	3074
862.315	3135
862.447	3207
862.58	3100
862.712	2948
862.844	2891
862.976	3005
863.108	3024
863.24	3313
863.372	2883
863.504	2963
863.636	2952
863.768	3047
863.9	2967
864.032	2929
864.164	2967
864.296	3005
864.428	3108
864.559	3097
864.691	3100
864.823	3108
864.954	3017
865.086	3024
865.217	2986
865.349	2933
865.48	3001
865.612	3013
865.743	3188
865.875	3009
866.006	2925
866.137	2990
866.269	2906
866.4	2948
866.531	2906
866.662	2902
866.793	2899
866.924	2887
867.055	2944
867.186	2944
867.317	2902
867.448	2826
867.579	2861
867.71	2845
867.841	2815
867.972	2876
868.103	2925
868.233	2902
868.364	2910
868.495	2883
868.625	3070
868.756	3169
868.886	2982
869.017	3017
869.147	3169
869.278	3138
869.408	3070
869.539	3055
869.669	3100
869.799	3043
869.929	3108
870.06	3123
870.19	3359
870.32	3275
870.45	3275
870.58	3374
870.71	3454
870.84	3424
870.97	3313
871.1	3165
871.23	3492
871.36	3447
871.489	3374
871.619	3428
871.749	3401
871.879	3416
872.008	3435
872.138	3351
872.267	3294
872.397	3154
872.526	3104
872.656	3028
872.785	3097
872.915	3241
873.044	3298
873.173	3211
873.303	3253
873.432	3165
873.561	3214
873.69	3157
873.819	3135
873.948	3203
874.077	3070
874.206	3009
874.335	3119
874.464	3203
874.593	3378
874.722	3207
874.851	3370
874.979	3321
875.108	3348
875.237	3180
875.365	3173
875.494	3192
875.623	3241
875.751	3051
875.88	3104
876.008	3222
876.136	3230
876.265	3382
876.393	3481
876.521	3386
876.65	3393
876.778	3325
876.906	3214
877.034	3233
877.162	3184
877.29	3142
877.418	3249
877.546	3268
877.674	3214
877.802	3230
877.93	3207
878.058	3173
878.185	3104
878.313	3195
878.441	3218
878.568	3074
878.696	3161
878.824	3272
878.951	3260
879.079	3431
879.206	3584
879.333	3416
879.461	3363
879.588	3325
879.715	3485
879.842	3603
879.97	3393
880.097	3131
880.224	3104
880.351	3169
880.478	3222
880.605	3218
880.732	3203
880.859	3507
880.986	3291
881.112	3325
881.239	3199
881.366	3108
881.493	3051
881.619	2990
881.746	3085
881.872	3104
881.999	3077
882.125	3135
882.252	3211
882.378	3283
882.505	3466
882.631	3245
882.757	3135
882.883	3184
883.01	3214
883.136	3119
883.262	3097
883.388	3104
883.514	3348
883.64	3351
883.766	3310
883.892	3142
884.018	3272
884.143	3409
884.269	3534
884.395	3222
884.52	3138
884.646	3180
884.772	3119
884.897	3058
885.023	3161
885.148	3321
885.274	3416
885.399	3370
885.524	3272
885.65	3256
885.775	3302
885.9	3275
886.025	3405
886.15	3378
886.275	3275
886.4	3214
886.525	3325
886.65	3241
886.775	3272
886.9	3504
887.025	3614
887.149	3389
887.274	3249
887.399	3161
887.523	3211
887.648	3176
887.773	3188
887.897	3378
888.021	3386
888.146	3313
888.27	3435
888.395	3504
888.519	3462
888.643	3431
888.767	3435
888.891	3291
889.015	3241
889.139	3279
889.263	3222
889.387	3382
889.511	3557
889.635	3454
889.759	3260
889.883	3287
890.006	3370
890.13	3511
890.254	3264
890.377	3302
890.501	3222
890.624	3199
890.748	3310
890.871	3176
890.995	3089
891.118	3077
891.241	3218
891.364	3253
891.488	3382
891.611	3142
891.734	3211
891.857	3256
891.98	3214
892.103	3344
892.226	3241
892.349	3233
892.471	3097
892.594	3268
892.717	3283
892.839	3310
892.962	3291
893.085	3389
893.207	3294
893.33	3131
893.452	3230
893.575	3329
893.697	3256
893.819	3469
893.941	3515
894.064	3420
894.186	3279
894.308	3272
894.43	3409
894.552	3515
894.674	3488
894.796	3275
894.918	3325
895.04	3264
895.161	3405
895.283	3359
895.405	3287
895.526	3367
895.648	3462
895.769	3412
895.891	3431
896.012	3519
896.134	3416
896.255	3424
896.376	3397
896.498	3363
896.619	3409
896.74	3393
896.861	3401
896.982	3671
897.103	3835
897.224	3580
897.345	3469
897.466	3416
897.587	3504
897.708	3580
897.828	3564
897.949	3435
898.07	3313
898.19	3447
898.311	3618
898.431	3481
898.552	3462
898.672	3591
898.792	3622
898.913	3561
899.033	3416
899.153	3294
899.273	3241
899.393	3256
899.513	3329
899.633	3310
899.753	3321
899.873	3313
899.993	3344
900.113	3348
900.232	3370
900.352	3340
900.472	3256
900.591	3214
900.711	3317
900.83	3222
900.95	3409
901.069	3504
901.189	3359
901.308	3195
901.427	3157
901.546	3192
901.665	3275
901.784	3336
901.904	3188
902.023	3150
902.141	3024
902.26	3028
902.379	3135
902.498	3070
902.617	3058
902.735	3188
902.854	3222
902.973	3218
903.091	3039
903.21	3051
903.328	3116
903.446	3104
903.565	3097
903.683	3192
903.801	3093
903.919	3222
904.038	3317
904.156	3146
904.274	3268
904.392	3279
904.51	3253
904.627	3298
904.745	3488
904.863	3530
904.981	3245
905.098	3176
905.216	3249
905.334	3279
905.451	3268
905.569	3272
905.686	3431
905.803	3462
905.921	3256
906.038	3401
906.155	3355
906.272	3359
906.389	3310
906.506	3272
906.623	3283
906.74	3253
906.857	3237
906.974	3264
907.091	3435
907.208	3584
907.324	3485
907.441	3405
907.557	3203
907.674	3222
907.79	3237
907.907	3264
908.023	3374
908.139	3363
908.256	3367
908.372	3367
908.488	3317
908.604	3283
908.72	3222
908.836	3287
908.952	3302
909.068	3313
909.184	3477
909.3	3424
909.415	3496
909.531	3473
909.647	3283
909.762	3275
909.878	3211
909.993	3351
910.108	3344
910.224	3329
910.339	3420
910.454	3329
910.57	3264
910.685	3283
910.8	3580
910.915	3534
911.03	3431
911.145	3260
911.259	3253
911.374	3317
911.489	3253
911.604	3222
911.718	3093
911.833	3161
911.947	3024
912.062	2975
912.176	3138
912.291	3188
912.405	3241
912.519	3447
912.633	3500
912.748	3332
912.862	3283
912.976	3184
913.09	3047
913.204	3146
913.318	3207
913.431	3325
913.545	3332
913.659	3363
913.772	3313
913.886	3207
914	3214
914.113	3313
914.226	3389
914.34	3332
914.453	3222
914.566	3409
914.68	3291
914.793	3272
914.906	3123
915.019	3127
915.132	3047
915.245	3150
915.358	3237
915.47	3272
915.583	3245
915.696	3310
915.809	3378
915.921	3481
916.034	3233
916.146	3253
916.259	3218
916.371	3412
916.483	3355
916.595	3268
916.708	3321
916.82	3287
916.932	3336
917.044	3363
917.156	3351
917.268	3230
917.38	3298
917.491	3283
917.603	3382
917.715	3420
917.826	3466
917.938	3397
918.049	3279
918.161	3424
918.272	3538
918.384	3580
918.495	3397
918.606	3367
918.717	3272
918.828	3370
918.939	3405
919.05	3317
919.161	3351
919.272	3180
919.383	3256
919.494	3466
919.604	3690
919.715	3469
919.826	3378
919.936	3466
920.047	3576
920.157	3523
920.267	3762
920.378	3618
920.488	3595
920.598	3740
920.708	3975
920.818	3850
920.928	3838
921.038	4029
921.148	3922
921.258	3694
921.368	3648
921.477	3557
921.587	3511
921.697	3439
921.806	3629
921.916	3511
922.025	3359
922.134	3310
922.244	3321
922.353	3439
922.462	3264
922.571	3207
922.68	3119
922.789	3074
922.898	3138
923.007	3070
923.116	3230
923.224	3146
923.333	3184
923.442	3119
923.55	3055
923.659	3119
923.767	3226
923.876	3085
923.984	3249
924.092	3119
924.201	3150
924.309	3211
924.417	3222
924.525	3142
924.633	3245
924.741	4177
924.849	3032
924.956	3272
925.064	3097
925.172	3036
925.279	3123
925.387	3142
925.494	3154
925.602	3348
925.709	3317
925.816	3214
925.924	3275
926.031	3389
926.138	3321
926.245	3397
926.352	3272
926.459	3386
926.566	3488
926.673	3310
926.779	3272
926.886	3226
926.993	3176
927.099	3135
927.206	3066
927.312	3093
927.419	3233
927.525	3184
927.631	3287
927.737	3135
927.843	3127
927.95	2994
928.056	3135
928.162	3199
928.267	3272
928.373	3804
928.479	3317
928.585	3070
928.69	3203
928.796	3264
928.901	3150
929.007	3013
929.112	3226
929.218	3176
929.323	3188
929.428	3157
929.533	3325
929.638	3135
929.743	3169
929.848	3287
929.953	3230
930.058	3157
930.163	2994
930.267	3074
930.372	3211
930.477	3043
930.581	3298
930.685	3161
930.79	3051
930.894	3100
930.998	3108
931.103	3283
931.207	2979
931.311	2948
931.415	2933
931.519	2804
931.623	2800
