Data from test_V78500241_784.txt Node
Date: Fri Mar 25 16:20:38 CST 2022
User: usil
Spectrometer: V785-0024
Trigger mode: 0
Integration Time (sec): 4.000000E-1
Scans to average: 1
Nonlinearity correction enabled: false
Boxcar width: 0
Storing dark spectrum: false
XAxis mode: Wavelengths
Number of Pixels in Spectrum: 1024
>>>>>Begin Spectral Data<<<<<
801.071	2914
801.214	2952
801.356	2922
801.499	2910
801.641	2902
801.783	2952
801.926	3123
802.068	3005
802.211	3032
802.353	3043
802.496	2990
802.638	3017
802.78	3085
802.923	3081
803.065	3024
803.208	2929
803.35	2941
803.492	2975
803.635	2941
803.777	2773
803.919	2887
804.061	3264
804.204	2982
804.346	2906
804.488	2880
804.63	2994
804.773	2895
804.915	2914
805.057	3077
805.199	2952
805.341	3001
805.483	3055
805.626	3085
805.768	2967
805.91	3100
806.052	3116
806.194	3066
806.336	3264
806.478	3085
806.62	2990
806.762	3024
806.904	3100
807.046	3211
807.188	2998
807.33	2914
807.472	2994
807.614	2963
807.756	2990
807.898	2960
808.04	2891
808.182	3024
808.324	2982
808.465	2933
808.607	2899
808.749	2823
808.891	2853
809.033	2990
809.174	3013
809.316	2910
809.458	2902
809.6	2804
809.741	2777
809.883	2785
810.025	2864
810.166	2861
810.308	2861
810.45	2868
810.591	2800
810.733	2800
810.875	2876
811.016	2792
811.158	2792
811.299	2826
811.441	2952
811.582	2918
811.724	2826
811.865	2842
812.007	2937
812.148	2895
812.29	2857
812.431	2933
812.573	2937
812.714	2956
812.855	3077
812.997	3081
813.138	3157
813.279	3062
813.421	3013
813.562	2967
813.703	2914
813.845	2937
813.986	2792
814.127	2743
814.268	2804
814.41	2864
814.551	2807
814.692	2906
814.833	2811
814.974	2887
815.115	2960
815.256	2826
815.397	2849
815.539	2845
815.68	2773
815.821	2811
815.962	2960
816.103	2952
816.244	2914
816.385	2891
816.526	2986
816.666	2937
816.807	2800
816.948	2933
817.089	2967
817.23	2872
817.371	2781
817.512	2777
817.653	2864
817.793	2838
817.934	2887
818.075	2990
818.216	2982
818.356	3036
818.497	2918
818.638	2815
818.778	2861
818.919	2819
819.06	2788
819.2	2880
819.341	2807
819.481	2834
819.622	2937
819.762	3142
819.903	3085
820.043	2956
820.184	2922
820.324	2914
820.465	3009
820.605	3036
820.746	3043
820.886	2952
821.026	3157
821.167	3188
821.307	3260
821.447	3298
821.588	3241
821.728	3249
821.868	3203
822.008	3154
822.149	3199
822.289	3203
822.429	3104
822.569	3085
822.709	3203
822.849	3047
822.99	3081
823.13	3169
823.27	3195
823.41	3093
823.55	3142
823.69	3192
823.83	3192
823.97	3100
824.11	3013
824.25	3017
824.389	3097
824.529	3127
824.669	3089
824.809	3214
824.949	3272
825.089	3214
825.228	3150
825.368	3028
825.508	2982
825.648	2998
825.787	3032
825.927	3009
826.067	2967
826.206	2956
826.346	3055
826.485	3100
826.625	3165
826.765	3256
826.904	3222
827.044	3001
827.183	2956
827.323	2910
827.462	2994
827.601	2944
827.741	2960
827.88	2979
828.02	2868
828.159	2990
828.298	3058
828.437	3123
828.577	3070
828.716	3256
828.855	3108
828.994	2910
829.134	2895
829.273	2941
829.412	2868
829.551	2891
829.69	2906
829.829	2986
829.968	3176
830.107	3047
830.246	3032
830.385	2922
830.524	2883
830.663	2819
830.802	2743
830.941	2625
831.08	2674
831.219	2773
831.357	2777
831.496	2971
831.635	2739
831.774	2632
831.913	2640
832.051	2556
832.19	2613
832.329	2686
832.467	2522
832.606	2469
832.744	2545
832.883	2606
833.022	2602
833.16	2667
833.299	2708
833.437	2720
833.576	2724
833.714	2739
833.852	2769
833.991	2781
834.129	2830
834.267	2815
834.406	2781
834.544	2815
834.682	2880
834.821	2849
834.959	3066
835.097	2910
835.235	3066
835.373	3005
835.511	3017
835.65	2982
835.788	2956
835.926	2830
836.064	2819
836.202	2891
836.34	3112
836.478	3154
836.615	3055
836.753	3123
836.891	3184
837.029	3195
837.167	3119
837.305	3100
837.443	3093
837.58	2986
837.718	3112
837.856	3062
837.993	3089
838.131	3131
838.269	3100
838.406	3089
838.544	3119
838.681	2941
838.819	2895
838.956	2807
839.094	2838
839.231	2933
839.369	2979
839.506	3355
839.643	3253
839.781	3013
839.918	2975
840.055	3085
840.193	3089
840.33	3055
840.467	3127
840.604	3135
840.742	3428
840.879	3055
841.016	3093
841.153	3085
841.29	3351
841.427	3302
841.564	3272
841.701	3268
841.838	3233
841.975	3157
842.112	3218
842.249	3116
842.385	3020
842.522	3264
842.659	3119
842.796	3043
842.933	3112
843.069	3039
843.206	3081
843.343	3176
843.479	3100
843.616	3138
843.752	2887
843.889	2868
844.025	3062
844.162	2902
844.298	3066
844.435	2967
844.571	2887
844.708	3074
844.844	3214
844.98	3237
845.117	3157
845.253	3089
845.389	2982
845.525	3108
845.661	3077
845.798	3047
845.934	3123
846.07	3055
846.206	3222
846.342	3306
846.478	3226
846.614	3127
846.75	3047
846.886	3024
847.022	3249
847.158	3161
847.294	3203
847.429	3230
847.565	3195
847.701	3466
847.837	3070
847.972	2998
848.108	3157
848.244	3169
848.379	3009
848.515	2986
848.65	2948
848.786	2971
848.921	3028
849.057	3089
849.192	3135
849.328	3085
849.463	3100
849.598	3043
849.734	3081
849.869	3005
850.004	2918
850.14	3013
850.275	2933
850.41	2857
850.545	2910
850.68	2982
850.815	3001
850.95	3001
851.085	3222
851.22	3104
851.355	3047
851.49	3009
851.625	2986
851.76	3051
851.895	2948
852.03	2971
852.165	3066
852.299	3131
852.434	3188
852.569	3173
852.703	3173
852.838	3298
852.973	3367
853.107	3317
853.242	3192
853.376	3100
853.511	3005
853.645	3077
853.78	3283
853.914	3184
854.048	3123
854.183	3116
854.317	3169
854.451	3332
854.585	3161
854.72	3116
854.854	3260
854.988	3093
855.122	3150
855.256	3036
855.39	3184
855.524	3291
855.658	3222
855.792	3169
855.926	3264
856.06	3249
856.194	3325
856.327	3195
856.461	3116
856.595	3138
856.729	3116
856.862	3291
856.996	3188
857.13	3214
857.263	3264
857.397	3329
857.53	3214
857.664	3256
857.797	3287
857.931	3306
858.064	3199
858.197	3253
858.331	3154
858.464	3138
858.597	3055
858.731	3154
858.864	3195
858.997	3150
859.13	3203
859.263	3237
859.396	3233
859.529	3131
859.662	3089
859.795	3081
859.928	3180
860.061	3291
860.194	3325
860.327	3192
860.46	3131
860.592	3275
860.725	3253
860.858	3291
860.99	3131
861.123	3089
861.256	3089
861.388	3169
861.521	3937
861.653	3020
861.786	3028
861.918	3039
862.05	3104
862.183	3138
862.315	3199
862.447	3249
862.58	3138
862.712	2967
862.844	2902
862.976	3017
863.108	3077
863.24	3462
863.372	2914
863.504	3024
863.636	3024
863.768	3055
863.9	3009
864.032	2922
864.164	2990
864.296	3013
864.428	3135
864.559	3154
864.691	3100
864.823	3058
864.954	3081
865.086	3093
865.217	3036
865.349	2975
865.48	3043
865.612	3020
865.743	3199
865.875	2990
866.006	2963
866.137	3013
866.269	2998
866.4	2929
866.531	2971
866.662	2914
866.793	2895
866.924	2933
867.055	2990
867.186	2990
867.317	2933
867.448	2883
867.579	2876
867.71	2876
867.841	2849
867.972	2933
868.103	2929
868.233	2922
868.364	2933
868.495	2925
868.625	3119
868.756	3161
868.886	3032
869.017	3017
869.147	3150
869.278	3192
869.408	3104
869.539	3020
869.669	3138
869.799	3043
869.929	3157
870.06	3169
870.19	3329
870.32	3336
870.45	3317
870.58	3393
870.71	3462
870.84	3450
870.97	3317
871.1	3272
871.23	3504
871.36	3469
871.489	3382
871.619	3378
871.749	3431
871.879	3428
872.008	3496
872.138	3359
872.267	3302
872.397	3218
872.526	3116
872.656	3081
872.785	3108
872.915	3256
873.044	3344
873.173	3253
873.303	3264
873.432	3321
873.561	3264
873.69	3157
873.819	3173
873.948	3207
874.077	3127
874.206	3066
874.335	3119
874.464	3245
874.593	3374
874.722	3298
874.851	3431
874.979	3386
875.108	3344
875.237	3211
875.365	3165
875.494	3176
875.623	3294
875.751	3089
875.88	3184
876.008	3192
876.136	3199
876.265	3393
876.393	3523
876.521	3462
876.65	3397
876.778	3355
876.906	3249
877.034	3207
877.162	3298
877.29	3226
877.418	3306
877.546	3294
877.674	3268
877.802	3272
877.93	3264
878.058	3157
878.185	3146
878.313	3199
878.441	3207
878.568	3070
878.696	3184
878.824	3264
878.951	3291
879.079	3462
879.206	3644
879.333	3428
879.461	3363
879.588	3382
879.715	3507
879.842	3637
879.97	3416
880.097	3233
880.224	3146
880.351	3233
880.478	3237
880.605	3188
880.732	3195
880.859	3488
880.986	3313
881.112	3359
881.239	3241
881.366	3123
881.493	3051
881.619	3043
881.746	3089
881.872	3116
881.999	3100
882.125	3173
882.252	3233
882.378	3363
882.505	3458
882.631	3325
882.757	3230
882.883	3222
883.01	3287
883.136	3214
883.262	3138
883.388	3127
883.514	3374
883.64	3401
883.766	3336
883.892	3203
884.018	3260
884.143	3416
884.269	3561
884.395	3207
884.52	3192
884.646	3211
884.772	3169
884.897	3131
885.023	3222
885.148	3367
885.274	3424
885.399	3348
885.524	3287
885.65	3302
885.775	3310
885.9	3291
886.025	3458
886.15	3378
886.275	3325
886.4	3279
886.525	3313
886.65	3310
886.775	3294
886.9	3500
887.025	3637
887.149	3431
887.274	3283
887.399	3195
887.523	3199
887.648	3214
887.773	3207
887.897	3416
888.021	3424
888.146	3367
888.27	3439
888.395	3568
888.519	3443
888.643	3481
888.767	3458
888.891	3317
889.015	3275
889.139	3302
889.263	3226
889.387	3405
889.511	3591
889.635	3477
889.759	3294
889.883	3275
890.006	3431
890.13	3542
890.254	3291
890.377	3389
890.501	3226
890.624	3195
890.748	3344
890.871	3192
890.995	3142
891.118	3066
891.241	3218
891.364	3233
891.488	3325
891.611	3233
891.734	3237
891.857	3325
891.98	3260
892.103	3351
892.226	3302
892.349	3237
892.471	3138
892.594	3302
892.717	3306
892.839	3253
892.962	3317
893.085	3435
893.207	3325
893.33	3154
893.452	3203
893.575	3370
893.697	3253
893.819	3515
893.941	3519
894.064	3492
894.186	3241
894.308	3302
894.43	3481
894.552	3561
894.674	3473
894.796	3294
894.918	3340
895.04	3310
895.161	3447
895.283	3397
895.405	3294
895.526	3348
895.648	3439
895.769	3443
895.891	3469
896.012	3515
896.134	3477
896.255	3424
896.376	3378
896.498	3363
896.619	3386
896.74	3409
896.861	3435
896.982	3717
897.103	3831
897.224	3622
897.345	3549
897.466	3485
897.587	3504
897.708	3595
897.828	3523
897.949	3485
898.07	3355
898.19	3435
898.311	3663
898.431	3462
898.552	3561
898.672	3587
898.792	3603
898.913	3561
899.033	3435
899.153	3302
899.273	3195
899.393	3329
899.513	3325
899.633	3310
899.753	3355
899.873	3344
899.993	3389
900.113	3344
900.232	3412
900.352	3367
900.472	3325
900.591	3203
900.711	3313
900.83	3272
900.95	3420
901.069	3496
901.189	3386
901.308	3180
901.427	3199
901.546	3218
901.665	3321
901.784	3348
901.904	3233
902.023	3169
902.141	3066
902.26	3017
902.379	3154
902.498	3112
902.617	3093
902.735	3222
902.854	3222
902.973	3203
903.091	3062
903.21	3074
903.328	3165
903.446	3131
903.565	3173
903.683	3245
903.801	3150
903.919	3256
904.038	3268
904.156	3203
904.274	3329
904.392	3291
904.51	3313
904.627	3355
904.745	3462
904.863	3477
904.981	3321
905.098	3195
905.216	3249
905.334	3294
905.451	3321
905.569	3340
905.686	3431
905.803	3454
905.921	3260
906.038	3458
906.155	3340
906.272	3249
906.389	3374
906.506	3218
906.623	3272
906.74	3306
906.857	3226
906.974	3233
907.091	3454
907.208	3561
907.324	3492
907.441	3389
907.557	3253
907.674	3287
907.79	3226
907.907	3329
908.023	3370
908.139	3367
908.256	3317
908.372	3401
908.488	3363
908.604	3287
908.72	3268
908.836	3291
908.952	3336
909.068	3367
909.184	3496
909.3	3409
909.415	3538
909.531	3507
909.647	3291
909.762	3310
909.878	3287
909.993	3363
910.108	3355
910.224	3378
910.339	3462
910.454	3340
910.57	3317
910.685	3241
910.8	3591
910.915	3549
911.03	3458
911.145	3302
911.259	3321
911.374	3325
911.489	3291
911.604	3237
911.718	3135
911.833	3203
911.947	3055
912.062	3013
912.176	3157
912.291	3241
912.405	3226
912.519	3492
912.633	3458
912.748	3344
912.862	3351
912.976	3192
913.09	3093
913.204	3146
913.318	3214
913.431	3359
913.545	3348
913.659	3409
913.772	3359
913.886	3230
914	3230
914.113	3355
914.226	3424
914.34	3363
914.453	3245
914.566	3428
914.68	3302
914.793	3325
914.906	3180
915.019	3108
915.132	3062
915.245	3169
915.358	3218
915.47	3222
915.583	3256
915.696	3275
915.809	3412
915.921	3431
916.034	3253
916.146	3241
916.259	3207
916.371	3382
916.483	3378
916.595	3272
916.708	3351
916.82	3332
916.932	3359
917.044	3363
917.156	3378
917.268	3253
917.38	3283
917.491	3310
917.603	3370
917.715	3504
917.826	3485
917.938	3340
918.049	3264
918.161	3450
918.272	3587
918.384	3576
918.495	3519
918.606	3321
918.717	3287
918.828	3363
918.939	3420
919.05	3298
919.161	3401
919.272	3180
919.383	3294
919.494	3492
919.604	3663
919.715	3485
919.826	3443
919.936	3473
920.047	3656
920.157	3576
920.267	3789
920.378	3618
920.488	3561
920.598	3774
920.708	3968
920.818	3850
920.928	3800
921.038	4040
921.148	4025
921.258	3698
921.368	3663
921.477	3580
921.587	3515
921.697	3462
921.806	3622
921.916	3519
922.025	3344
922.134	3340
922.244	3344
922.353	3397
922.462	3298
922.571	3291
922.68	3093
922.789	3055
922.898	3150
923.007	3127
923.116	3207
923.224	3195
923.333	3150
923.442	3157
923.55	3108
923.659	3157
923.767	3211
923.876	3146
923.984	3245
924.092	3097
924.201	3184
924.309	3245
924.417	3249
924.525	3203
924.633	3233
924.741	4200
924.849	3017
924.956	3264
925.064	3108
925.172	3043
925.279	3100
925.387	3203
925.494	3218
925.602	3382
925.709	3325
925.816	3176
925.924	3245
926.031	3389
926.138	3363
926.245	3336
926.352	3222
926.459	3409
926.566	3450
926.673	3291
926.779	3211
926.886	3272
926.993	3138
927.099	3135
927.206	3138
927.312	3157
927.419	3241
927.525	3195
927.631	3253
927.737	3150
927.843	3138
927.95	3024
928.056	3131
928.162	3169
928.267	3260
928.373	3774
928.479	3298
928.585	3051
928.69	3214
928.796	3287
928.901	3161
929.007	3043
929.112	3173
929.218	3165
929.323	3146
929.428	3135
929.533	3329
929.638	3119
929.743	3150
929.848	3253
929.953	3203
930.058	3161
930.163	2982
930.267	3036
930.372	3188
930.477	3032
930.581	3291
930.685	3169
930.79	3081
930.894	3142
930.998	3119
931.103	3264
931.207	2971
931.311	2941
931.415	2941
931.519	2762
931.623	2830
