Data from test_V78500241_80.txt Node
Date: Fri Mar 25 16:15:45 CST 2022
User: usil
Spectrometer: V785-0024
Trigger mode: 0
Integration Time (sec): 4.000000E-1
Scans to average: 1
Nonlinearity correction enabled: false
Boxcar width: 0
Storing dark spectrum: false
XAxis mode: Wavelengths
Number of Pixels in Spectrum: 1024
>>>>>Begin Spectral Data<<<<<
801.071	2948
801.214	2967
801.356	2941
801.499	2982
801.641	2899
801.783	2994
801.926	3108
802.068	3020
802.211	3020
802.353	3070
802.496	3032
802.638	3039
802.78	3074
802.923	3074
803.065	3062
803.208	2952
803.35	2975
803.492	2956
803.635	2979
803.777	2792
803.919	2902
804.061	3249
804.204	2975
804.346	2956
804.488	2895
804.63	3017
804.773	2910
804.915	2960
805.057	3104
805.199	2963
805.341	3032
805.483	3070
805.626	3066
805.768	3028
805.91	3127
806.052	3180
806.194	3119
806.336	3275
806.478	3108
806.62	3005
806.762	2998
806.904	3112
807.046	3218
807.188	3039
807.33	2982
807.472	3009
807.614	2998
807.756	3047
807.898	2982
808.04	2960
808.182	3005
808.324	2986
808.465	2937
808.607	2922
808.749	2807
808.891	2861
809.033	3039
809.174	3001
809.316	2941
809.458	2922
809.6	2819
809.741	2807
809.883	2815
810.025	2864
810.166	2922
810.308	2872
810.45	2902
810.591	2785
810.733	2823
810.875	2906
811.016	2819
811.158	2834
811.299	2891
811.441	2979
811.582	2906
811.724	2868
811.865	2857
812.007	2975
812.148	2937
812.29	2868
812.431	2952
812.573	2994
812.714	3009
812.855	3081
812.997	3127
813.138	3150
813.279	3051
813.421	3013
813.562	2971
813.703	2922
813.845	2899
813.986	2819
814.127	2758
814.268	2849
814.41	2899
814.551	2849
814.692	2899
814.833	2861
814.974	2933
815.115	3028
815.256	2868
815.397	2876
815.539	2895
815.68	2811
815.821	2826
815.962	2960
816.103	2975
816.244	2937
816.385	2933
816.526	2994
816.666	2975
816.807	2777
816.948	2944
817.089	2963
817.23	2922
817.371	2842
817.512	2826
817.653	2864
817.793	2887
817.934	2948
818.075	2956
818.216	3055
818.356	3036
818.497	2922
818.638	2838
818.778	2853
818.919	2838
819.06	2811
819.2	2891
819.341	2849
819.481	2811
819.622	2971
819.762	3176
819.903	3100
820.043	2963
820.184	2952
820.324	2918
820.465	3047
820.605	3081
820.746	3081
820.886	3001
821.026	3146
821.167	3192
821.307	3256
821.447	3313
821.588	3287
821.728	3249
821.868	3207
822.008	3108
822.149	3218
822.289	3294
822.429	3146
822.569	3127
822.709	3211
822.849	3085
822.99	3127
823.13	3199
823.27	3264
823.41	3119
823.55	3211
823.69	3207
823.83	3230
823.97	3123
824.11	3009
824.25	3055
824.389	3081
824.529	3184
824.669	3100
824.809	3260
824.949	3321
825.089	3233
825.228	3199
825.368	3032
825.508	3043
825.648	2982
825.787	3024
825.927	3081
826.067	3081
826.206	3001
826.346	3108
826.485	3112
826.625	3157
826.765	3302
826.904	3268
827.044	3020
827.183	2963
827.323	2861
827.462	3028
827.601	2952
827.741	2971
827.88	3001
828.02	2887
828.159	3020
828.298	3093
828.437	3154
828.577	3051
828.716	3249
828.855	3138
828.994	2956
829.134	2960
829.273	2948
829.412	2937
829.551	2895
829.69	2918
829.829	3009
829.968	3176
830.107	3058
830.246	3043
830.385	2967
830.524	2895
830.663	2853
830.802	2766
830.941	2716
831.08	2663
831.219	2819
831.357	2804
831.496	3028
831.635	2762
831.774	2674
831.913	2727
832.051	2590
832.19	2602
832.329	2735
832.467	2571
832.606	2499
832.744	2587
832.883	2598
833.022	2621
833.16	2648
833.299	2720
833.437	2762
833.576	2727
833.714	2785
833.852	2762
833.991	2807
834.129	2880
834.267	2891
834.406	2804
834.544	2914
834.682	2914
834.821	2925
834.959	3097
835.097	2963
835.235	3085
835.373	3039
835.511	3039
835.65	3036
835.788	3020
835.926	2872
836.064	2868
836.202	2864
836.34	3138
836.478	3180
836.615	3116
836.753	3135
836.891	3230
837.029	3195
837.167	3123
837.305	3123
837.443	3131
837.58	3001
837.718	3150
837.856	3077
837.993	3066
838.131	3154
838.269	3135
838.406	3097
838.544	3131
838.681	2990
838.819	2933
838.956	2861
839.094	2857
839.231	2963
839.369	3058
839.506	3386
839.643	3272
839.781	2998
839.918	2982
840.055	3074
840.193	3074
840.33	3112
840.467	3135
840.604	3226
840.742	3504
840.879	3100
841.016	3077
841.153	3169
841.29	3336
841.427	3351
841.564	3302
841.701	3348
841.838	3279
841.975	3203
842.112	3275
842.249	3100
842.385	3104
842.522	3310
842.659	3146
842.796	3097
842.933	3135
843.069	3112
843.206	3093
843.343	3218
843.479	3146
843.616	3180
843.752	2918
843.889	2899
844.025	3112
844.162	2922
844.298	3108
844.435	2971
844.571	2952
844.708	3123
844.844	3207
844.98	3253
845.117	3199
845.253	3089
845.389	3039
845.525	3123
845.661	3176
845.798	3039
845.934	3165
846.07	3077
846.206	3268
846.342	3370
846.478	3268
846.614	3157
846.75	3142
846.886	3013
847.022	3264
847.158	3184
847.294	3211
847.429	3256
847.565	3222
847.701	3549
847.837	3047
847.972	3039
848.108	3184
848.244	3154
848.379	3024
848.515	2979
848.65	2986
848.786	3001
848.921	3051
849.057	3138
849.192	3176
849.328	3108
849.463	3169
849.598	3093
849.734	3123
849.869	2994
850.004	2971
850.14	3020
850.275	2952
850.41	2876
850.545	2910
850.68	2994
850.815	2994
850.95	3001
851.085	3173
851.22	3138
851.355	3081
851.49	2982
851.625	3051
851.76	3028
851.895	2967
852.03	2960
852.165	3100
852.299	3123
852.434	3211
852.569	3184
852.703	3211
852.838	3329
852.973	3374
853.107	3336
853.242	3184
853.376	3089
853.511	2990
853.645	3100
853.78	3283
853.914	3138
854.048	3131
854.183	3119
854.317	3142
854.451	3310
854.585	3146
854.72	3138
854.854	3230
854.988	3085
855.122	3116
855.256	3005
855.39	3150
855.524	3317
855.658	3237
855.792	3165
855.926	3249
856.06	3260
856.194	3302
856.327	3169
856.461	3108
856.595	3150
856.729	3123
856.862	3279
856.996	3199
857.13	3245
857.263	3249
857.397	3264
857.53	3173
857.664	3218
857.797	3253
857.931	3321
858.064	3161
858.197	3253
858.331	3138
858.464	3131
858.597	3089
858.731	3169
858.864	3157
858.997	3146
859.13	3199
859.263	3195
859.396	3218
859.529	3116
859.662	3085
859.795	3085
859.928	3173
860.061	3313
860.194	3325
860.327	3138
860.46	3112
860.592	3272
860.725	3298
860.858	3298
860.99	3142
861.123	3066
861.256	3089
861.388	3199
861.521	3720
861.653	3055
861.786	3001
861.918	3013
862.05	3104
862.183	3157
862.315	3138
862.447	3226
862.58	3199
862.712	2990
862.844	2925
862.976	3062
863.108	3028
863.24	3336
863.372	2918
863.504	3017
863.636	2982
863.768	3043
863.9	3039
864.032	2963
864.164	2979
864.296	3036
864.428	3089
864.559	3104
864.691	3112
864.823	3112
864.954	3047
865.086	3081
865.217	3017
865.349	3032
865.48	2979
865.612	3051
865.743	3176
865.875	3005
866.006	2960
866.137	3013
866.269	2929
866.4	2960
866.531	2975
866.662	2952
866.793	2914
866.924	2929
867.055	3032
867.186	2910
867.317	2906
867.448	2902
867.579	2891
867.71	2876
867.841	2842
867.972	2941
868.103	2918
868.233	2929
868.364	2922
868.495	2918
868.625	3127
868.756	3199
868.886	2967
869.017	3058
869.147	3184
869.278	3176
869.408	3070
869.539	3043
869.669	3138
869.799	3085
869.929	3192
870.06	3127
870.19	3367
870.32	3298
870.45	3374
870.58	3439
870.71	3473
870.84	3488
870.97	3313
871.1	3264
871.23	3507
871.36	3507
871.489	3340
871.619	3447
871.749	3450
871.879	3431
872.008	3511
872.138	3397
872.267	3332
872.397	3199
872.526	3131
872.656	3024
872.785	3146
872.915	3279
873.044	3355
873.173	3249
873.303	3275
873.432	3260
873.561	3287
873.69	3188
873.819	3211
873.948	3211
874.077	3161
874.206	3055
874.335	3074
874.464	3218
874.593	3389
874.722	3241
874.851	3416
874.979	3389
875.108	3359
875.237	3230
875.365	3211
875.494	3169
875.623	3272
875.751	3123
875.88	3157
876.008	3253
876.136	3272
876.265	3443
876.393	3564
876.521	3462
876.65	3428
876.778	3382
876.906	3291
877.034	3241
877.162	3283
877.29	3203
877.418	3302
877.546	3226
877.674	3260
877.802	3272
877.93	3237
878.058	3207
878.185	3131
878.313	3226
878.441	3230
878.568	3112
878.696	3214
878.824	3268
878.951	3382
879.079	3523
879.206	3599
879.333	3454
879.461	3348
879.588	3370
879.715	3473
879.842	3656
879.97	3458
880.097	3195
880.224	3142
880.351	3226
880.478	3241
880.605	3237
880.732	3245
880.859	3507
880.986	3370
881.112	3378
881.239	3256
881.366	3138
881.493	3051
881.619	3043
881.746	3112
881.872	3100
881.999	3154
882.125	3199
882.252	3279
882.378	3306
882.505	3412
882.631	3340
882.757	3173
882.883	3241
883.01	3237
883.136	3180
883.262	3135
883.388	3169
883.514	3298
883.64	3405
883.766	3329
883.892	3199
884.018	3298
884.143	3469
884.269	3553
884.395	3226
884.52	3188
884.646	3195
884.772	3100
884.897	3131
885.023	3241
885.148	3378
885.274	3462
885.399	3359
885.524	3344
885.65	3279
885.775	3359
885.9	3302
886.025	3477
886.15	3393
886.275	3367
886.4	3268
886.525	3348
886.65	3298
886.775	3359
886.9	3549
887.025	3591
887.149	3450
887.274	3287
887.399	3203
887.523	3260
887.648	3207
887.773	3230
887.897	3435
888.021	3416
888.146	3325
888.27	3473
888.395	3587
888.519	3416
888.643	3481
888.767	3507
888.891	3340
889.015	3268
889.139	3313
889.263	3275
889.387	3462
889.511	3526
889.635	3481
889.759	3302
889.883	3298
890.006	3435
890.13	3568
890.254	3332
890.377	3374
890.501	3218
890.624	3211
890.748	3325
890.871	3207
890.995	3154
891.118	3093
891.241	3214
891.364	3291
891.488	3344
891.611	3199
891.734	3260
891.857	3329
891.98	3241
892.103	3370
892.226	3336
892.349	3249
892.471	3157
892.594	3291
892.717	3325
892.839	3302
892.962	3325
893.085	3397
893.207	3348
893.33	3192
893.452	3211
893.575	3359
893.697	3249
893.819	3485
893.941	3545
894.064	3481
894.186	3340
894.308	3260
894.43	3450
894.552	3599
894.674	3519
894.796	3298
894.918	3367
895.04	3310
895.161	3504
895.283	3439
895.405	3336
895.526	3382
895.648	3447
895.769	3443
895.891	3488
896.012	3485
896.134	3477
896.255	3439
896.376	3416
896.498	3428
896.619	3450
896.74	3405
896.861	3469
896.982	3667
897.103	3884
897.224	3587
897.345	3557
897.466	3473
897.587	3507
897.708	3660
897.828	3545
897.949	3466
898.07	3389
898.19	3462
898.311	3629
898.431	3477
898.552	3542
898.672	3641
898.792	3614
898.913	3545
899.033	3431
899.153	3272
899.273	3249
899.393	3294
899.513	3332
899.633	3363
899.753	3332
899.873	3355
899.993	3393
900.113	3348
900.232	3382
900.352	3344
900.472	3325
900.591	3237
900.711	3306
900.83	3268
900.95	3447
901.069	3492
901.189	3363
901.308	3207
901.427	3146
901.546	3245
901.665	3302
901.784	3363
901.904	3260
902.023	3169
902.141	3062
902.26	3032
902.379	3203
902.498	3085
902.617	3100
902.735	3241
902.854	3256
902.973	3207
903.091	3104
903.21	3070
903.328	3161
903.446	3127
903.565	3135
903.683	3268
903.801	3165
903.919	3230
904.038	3291
904.156	3207
904.274	3294
904.392	3256
904.51	3279
904.627	3351
904.745	3458
904.863	3538
904.981	3325
905.098	3237
905.216	3272
905.334	3321
905.451	3344
905.569	3355
905.686	3450
905.803	3435
905.921	3310
906.038	3462
906.155	3363
906.272	3264
906.389	3340
906.506	3249
906.623	3275
906.74	3344
906.857	3249
906.974	3287
907.091	3500
907.208	3595
907.324	3496
907.441	3424
907.557	3222
907.674	3237
907.79	3253
907.907	3310
908.023	3405
908.139	3351
908.256	3374
908.372	3409
908.488	3389
908.604	3287
908.72	3264
908.836	3310
908.952	3306
909.068	3374
909.184	3526
909.3	3393
909.415	3481
909.531	3538
909.647	3317
909.762	3310
909.878	3302
909.993	3405
910.108	3367
910.224	3321
910.339	3454
910.454	3370
910.57	3355
910.685	3260
910.8	3614
910.915	3561
911.03	3488
911.145	3306
911.259	3313
911.374	3355
911.489	3256
911.604	3294
911.718	3154
911.833	3222
911.947	3055
912.062	3005
912.176	3199
912.291	3233
912.405	3241
912.519	3447
912.633	3485
912.748	3325
912.862	3332
912.976	3230
913.09	3112
913.204	3169
913.318	3264
913.431	3405
913.545	3397
913.659	3409
913.772	3355
913.886	3245
914	3195
914.113	3424
914.226	3439
914.34	3416
914.453	3249
914.566	3466
914.68	3310
914.793	3355
914.906	3142
915.019	3176
915.132	3104
915.245	3230
915.358	3260
915.47	3306
915.583	3283
915.696	3325
915.809	3458
915.921	3469
916.034	3241
916.146	3249
916.259	3272
916.371	3424
916.483	3405
916.595	3279
916.708	3363
916.82	3332
916.932	3389
917.044	3378
917.156	3420
917.268	3317
917.38	3313
917.491	3310
917.603	3393
917.715	3492
917.826	3481
917.938	3420
918.049	3310
918.161	3488
918.272	3614
918.384	3553
918.495	3488
918.606	3378
918.717	3302
918.828	3420
918.939	3466
919.05	3329
919.161	3447
919.272	3233
919.383	3310
919.494	3526
919.604	3759
919.715	3507
919.826	3443
919.936	3511
920.047	3599
920.157	3622
920.267	3774
920.378	3660
920.488	3595
920.598	3797
920.708	3979
920.818	3869
920.928	3835
921.038	4078
921.148	4013
921.258	3724
921.368	3660
921.477	3618
921.587	3542
921.697	3519
921.806	3667
921.916	3580
922.025	3405
922.134	3420
922.244	3378
922.353	3481
922.462	3336
922.571	3272
922.68	3100
922.789	3142
922.898	3165
923.007	3116
923.116	3222
923.224	3211
923.333	3226
923.442	3131
923.55	3127
923.659	3173
923.767	3256
923.876	3157
923.984	3279
924.092	3135
924.201	3237
924.309	3226
924.417	3268
924.525	3226
924.633	3226
924.741	4223
924.849	3097
924.956	3325
925.064	3116
925.172	3097
925.279	3104
925.387	3226
925.494	3184
925.602	3382
925.709	3367
925.816	3222
925.924	3329
926.031	3424
926.138	3321
926.245	3393
926.352	3272
926.459	3443
926.566	3485
926.673	3344
926.779	3317
926.886	3298
926.993	3188
927.099	3146
927.206	3135
927.312	3169
927.419	3233
927.525	3237
927.631	3302
927.737	3203
927.843	3161
927.95	3058
928.056	3135
928.162	3214
928.267	3260
928.373	3789
928.479	3363
928.585	3127
928.69	3283
928.796	3321
928.901	3222
929.007	3097
929.112	3207
929.218	3233
929.323	3169
929.428	3169
929.533	3317
929.638	3150
929.743	3192
929.848	3268
929.953	3222
930.058	3211
930.163	3039
930.267	3100
930.372	3245
930.477	3036
930.581	3359
930.685	3214
930.79	3093
930.894	3142
930.998	3116
931.103	3325
931.207	2986
931.311	2960
931.415	2952
931.519	2811
931.623	2872
