Data from test_V78500241_633.txt Node
Date: Fri Mar 25 16:19:35 CST 2022
User: usil
Spectrometer: V785-0024
Trigger mode: 0
Integration Time (sec): 4.000000E-1
Scans to average: 1
Nonlinearity correction enabled: false
Boxcar width: 0
Storing dark spectrum: false
XAxis mode: Wavelengths
Number of Pixels in Spectrum: 1024
>>>>>Begin Spectral Data<<<<<
801.071	2895
801.214	2971
801.356	2925
801.499	2910
801.641	2914
801.783	2902
801.926	3051
802.068	3001
802.211	2979
802.353	3055
802.496	2990
802.638	3039
802.78	3039
802.923	3074
803.065	3036
803.208	2918
803.35	2971
803.492	2944
803.635	2952
803.777	2777
803.919	2868
804.061	3237
804.204	2963
804.346	2925
804.488	2922
804.63	3013
804.773	2914
804.915	2948
805.057	3112
805.199	2925
805.341	2986
805.483	3013
805.626	3013
805.768	2975
805.91	3127
806.052	3131
806.194	3062
806.336	3237
806.478	3058
806.62	3001
806.762	3028
806.904	3093
807.046	3184
807.188	3009
807.33	2948
807.472	3013
807.614	2933
807.756	3047
807.898	2925
808.04	2910
808.182	2994
808.324	2948
808.465	2899
808.607	2887
808.749	2834
808.891	2826
809.033	2963
809.174	2994
809.316	2872
809.458	2941
809.6	2819
809.741	2766
809.883	2781
810.025	2857
810.166	2891
810.308	2868
810.45	2883
810.591	2785
810.733	2769
810.875	2891
811.016	2819
811.158	2792
811.299	2826
811.441	2952
811.582	2895
811.724	2830
811.865	2864
812.007	2944
812.148	2883
812.29	2902
812.431	2914
812.573	2944
812.714	2952
812.855	3077
812.997	3116
813.138	3142
813.279	2990
813.421	3001
813.562	2990
813.703	2895
813.845	2895
813.986	2792
814.127	2773
814.268	2861
814.41	2864
814.551	2815
814.692	2925
814.833	2861
814.974	2906
815.115	2944
815.256	2853
815.397	2811
815.539	2857
815.68	2754
815.821	2811
815.962	2975
816.103	2922
816.244	2899
816.385	2910
816.526	3009
816.666	2929
816.807	2773
816.948	2925
817.089	2887
817.23	2883
817.371	2762
817.512	2838
817.653	2834
817.793	2838
817.934	2895
818.075	2933
818.216	2975
818.356	3047
818.497	2899
818.638	2830
818.778	2826
818.919	2788
819.06	2773
819.2	2880
819.341	2838
819.481	2788
819.622	2952
819.762	3116
819.903	3047
820.043	2929
820.184	2929
820.324	2929
820.465	3020
820.605	3017
820.746	3020
820.886	2948
821.026	3135
821.167	3169
821.307	3256
821.447	3264
821.588	3249
821.728	3188
821.868	3233
822.008	3058
822.149	3192
822.289	3230
822.429	3074
822.569	3051
822.709	3195
822.849	3039
822.99	3089
823.13	3173
823.27	3207
823.41	3112
823.55	3176
823.69	3138
823.83	3184
823.97	3108
824.11	2956
824.25	2998
824.389	3123
824.529	3116
824.669	3077
824.809	3207
824.949	3245
825.089	3218
825.228	3169
825.368	3036
825.508	2960
825.648	2982
825.787	2994
825.927	3020
826.067	2994
826.206	2990
826.346	3108
826.485	3123
826.625	3146
826.765	3268
826.904	3230
827.044	3020
827.183	2918
827.323	2880
827.462	3013
827.601	2925
827.741	2944
827.88	2979
828.02	2861
828.159	2967
828.298	3024
828.437	3116
828.577	3074
828.716	3268
828.855	3108
828.994	2933
829.134	2902
829.273	2925
829.412	2849
829.551	2861
829.69	2883
829.829	3013
829.968	3157
830.107	3024
830.246	3024
830.385	2956
830.524	2902
830.663	2834
830.802	2762
830.941	2659
831.08	2651
831.219	2758
831.357	2750
831.496	2960
831.635	2739
831.774	2655
831.913	2632
832.051	2568
832.19	2610
832.329	2701
832.467	2526
832.606	2507
832.744	2613
832.883	2587
833.022	2606
833.16	2667
833.299	2693
833.437	2705
833.576	2670
833.714	2743
833.852	2743
833.991	2766
834.129	2838
834.267	2823
834.406	2807
834.544	2902
834.682	2918
834.821	2933
834.959	3055
835.097	2902
835.235	3058
835.373	3024
835.511	3017
835.65	2975
835.788	2982
835.926	2826
836.064	2796
836.202	2887
836.34	3104
836.478	3150
836.615	3028
836.753	3116
836.891	3207
837.029	3184
837.167	3074
837.305	3112
837.443	3058
837.58	2971
837.718	3138
837.856	3104
837.993	3005
838.131	3138
838.269	3123
838.406	3093
838.544	3093
838.681	2922
838.819	2906
838.956	2834
839.094	2807
839.231	2922
839.369	3028
839.506	3397
839.643	3241
839.781	3005
839.918	2960
840.055	3058
840.193	3081
840.33	3036
840.467	3089
840.604	3116
840.742	3389
840.879	3062
841.016	3070
841.153	3108
841.29	3359
841.427	3253
841.564	3268
841.701	3298
841.838	3214
841.975	3157
842.112	3249
842.249	3119
842.385	3070
842.522	3264
842.659	3131
842.796	3062
842.933	3074
843.069	3062
843.206	3047
843.343	3218
843.479	3089
843.616	3154
843.752	2899
843.889	2842
844.025	3089
844.162	2880
844.298	3077
844.435	2918
844.571	2906
844.708	3062
844.844	3211
844.98	3253
845.117	3184
845.253	3081
845.389	3024
845.525	3093
845.661	3108
845.798	2982
845.934	3127
846.07	3024
846.206	3256
846.342	3310
846.478	3203
846.614	3097
846.75	3051
846.886	3039
847.022	3256
847.158	3157
847.294	3211
847.429	3218
847.565	3218
847.701	3511
847.837	3009
847.972	2994
848.108	3150
848.244	3161
848.379	2998
848.515	2933
848.65	2937
848.786	2925
848.921	2998
849.057	3100
849.192	3146
849.328	3066
849.463	3131
849.598	3051
849.734	3058
849.869	2937
850.004	2891
850.14	2986
850.275	2922
850.41	2864
850.545	2922
850.68	2941
850.815	2960
850.95	3001
851.085	3199
851.22	3108
851.355	3039
851.49	3001
851.625	3039
851.76	3013
851.895	2956
852.03	2922
852.165	3062
852.299	3135
852.434	3253
852.569	3169
852.703	3222
852.838	3272
852.973	3382
853.107	3359
853.242	3157
853.376	3127
853.511	3009
853.645	3024
853.78	3279
853.914	3192
854.048	3150
854.183	3138
854.317	3188
854.451	3332
854.585	3203
854.72	3150
854.854	3237
854.988	3066
855.122	3119
855.256	3009
855.39	3146
855.524	3272
855.658	3192
855.792	3211
855.926	3226
856.06	3283
856.194	3298
856.327	3176
856.461	3097
856.595	3157
856.729	3154
856.862	3260
856.996	3184
857.13	3241
857.263	3226
857.397	3336
857.53	3157
857.664	3207
857.797	3256
857.931	3283
858.064	3180
858.197	3260
858.331	3146
858.464	3154
858.597	3047
858.731	3184
858.864	3165
858.997	3112
859.13	3184
859.263	3245
859.396	3222
859.529	3138
859.662	3112
859.795	3085
859.928	3211
860.061	3317
860.194	3344
860.327	3180
860.46	3127
860.592	3272
860.725	3253
860.858	3294
860.99	3142
861.123	3074
861.256	3058
861.388	3135
861.521	3724
861.653	3039
861.786	2990
861.918	3047
862.05	3081
862.183	3119
862.315	3180
862.447	3241
862.58	3112
862.712	2986
862.844	2899
862.976	3043
863.108	3058
863.24	3412
863.372	2944
863.504	2986
863.636	2990
863.768	3036
863.9	3013
864.032	2963
864.164	3024
864.296	2998
864.428	3142
864.559	3150
864.691	3138
864.823	3077
864.954	3116
865.086	3051
865.217	3009
865.349	2994
865.48	3032
865.612	3036
865.743	3218
865.875	3017
866.006	3001
866.137	3020
866.269	2994
866.4	2971
866.531	2937
866.662	2948
866.793	2941
866.924	2922
867.055	2963
867.186	2956
867.317	2914
867.448	2872
867.579	2887
867.71	2826
867.841	2849
867.972	2910
868.103	2929
868.233	2918
868.364	2910
868.495	2975
868.625	3135
868.756	3180
868.886	2990
869.017	3032
869.147	3184
869.278	3188
869.408	3047
869.539	3043
869.669	3157
869.799	3077
869.929	3173
870.06	3195
870.19	3332
870.32	3332
870.45	3317
870.58	3412
870.71	3507
870.84	3466
870.97	3313
871.1	3275
871.23	3538
871.36	3473
871.489	3401
871.619	3443
871.749	3412
871.879	3492
872.008	3507
872.138	3401
872.267	3332
872.397	3233
872.526	3131
872.656	3089
872.785	3127
872.915	3264
873.044	3374
873.173	3207
873.303	3283
873.432	3214
873.561	3272
873.69	3161
873.819	3192
873.948	3211
874.077	3131
874.206	3039
874.335	3138
874.464	3260
874.593	3355
874.722	3275
874.851	3378
874.979	3393
875.108	3386
875.237	3211
875.365	3154
875.494	3161
875.623	3268
875.751	3108
875.88	3116
876.008	3203
876.136	3245
876.265	3412
876.393	3553
876.521	3435
876.65	3435
876.778	3393
876.906	3275
877.034	3218
877.162	3230
877.29	3195
877.418	3306
877.546	3279
877.674	3275
877.802	3253
877.93	3249
878.058	3169
878.185	3135
878.313	3230
878.441	3253
878.568	3108
878.696	3192
878.824	3249
878.951	3332
879.079	3488
879.206	3675
879.333	3473
879.461	3363
879.588	3405
879.715	3542
879.842	3606
879.97	3428
880.097	3199
880.224	3161
880.351	3211
880.478	3264
880.605	3211
880.732	3222
880.859	3519
880.986	3348
881.112	3291
881.239	3237
881.366	3104
881.493	3081
881.619	3062
881.746	3093
881.872	3093
881.999	3150
882.125	3184
882.252	3260
882.378	3268
882.505	3469
882.631	3336
882.757	3188
882.883	3260
883.01	3245
883.136	3180
883.262	3116
883.388	3123
883.514	3386
883.64	3389
883.766	3294
883.892	3245
884.018	3233
884.143	3405
884.269	3549
884.395	3230
884.52	3173
884.646	3192
884.772	3150
884.897	3135
885.023	3180
885.148	3367
885.274	3450
885.399	3386
885.524	3313
885.65	3310
885.775	3336
885.9	3306
886.025	3405
886.15	3401
886.275	3302
886.4	3264
886.525	3298
886.65	3321
886.775	3317
886.9	3530
887.025	3679
887.149	3435
887.274	3260
887.399	3154
887.523	3184
887.648	3180
887.773	3199
887.897	3374
888.021	3386
888.146	3325
888.27	3431
888.395	3584
888.519	3458
888.643	3492
888.767	3473
888.891	3344
889.015	3253
889.139	3321
889.263	3321
889.387	3435
889.511	3534
889.635	3439
889.759	3321
889.883	3291
890.006	3401
890.13	3519
890.254	3302
890.377	3344
890.501	3237
890.624	3207
890.748	3321
890.871	3207
890.995	3154
891.118	3097
891.241	3237
891.364	3230
891.488	3340
891.611	3176
891.734	3233
891.857	3264
891.98	3230
892.103	3370
892.226	3294
892.349	3226
892.471	3165
892.594	3272
892.717	3279
892.839	3245
892.962	3332
893.085	3355
893.207	3344
893.33	3214
893.452	3192
893.575	3325
893.697	3279
893.819	3488
893.941	3481
894.064	3447
894.186	3287
894.308	3283
894.43	3492
894.552	3542
894.674	3447
894.796	3294
894.918	3287
895.04	3348
895.161	3488
895.283	3412
895.405	3287
895.526	3401
895.648	3420
895.769	3431
895.891	3492
896.012	3519
896.134	3447
896.255	3466
896.376	3374
896.498	3389
896.619	3447
896.74	3424
896.861	3443
896.982	3679
897.103	3873
897.224	3553
897.345	3568
897.466	3439
897.587	3504
897.708	3652
897.828	3595
897.949	3481
898.07	3359
898.19	3431
898.311	3614
898.431	3515
898.552	3507
898.672	3580
898.792	3587
898.913	3515
899.033	3454
899.153	3329
899.273	3218
899.393	3275
899.513	3306
899.633	3325
899.753	3359
899.873	3291
899.993	3370
900.113	3313
900.232	3401
900.352	3370
900.472	3336
900.591	3253
900.711	3321
900.83	3253
900.95	3374
901.069	3530
901.189	3378
901.308	3222
901.427	3138
901.546	3195
901.665	3351
901.784	3351
901.904	3253
902.023	3146
902.141	3032
902.26	3024
902.379	3157
902.498	3089
902.617	3104
902.735	3253
902.854	3275
902.973	3211
903.091	3036
903.21	3062
903.328	3169
903.446	3116
903.565	3097
903.683	3199
903.801	3135
903.919	3264
904.038	3291
904.156	3188
904.274	3294
904.392	3283
904.51	3283
904.627	3340
904.745	3462
904.863	3485
904.981	3279
905.098	3180
905.216	3237
905.334	3340
905.451	3321
905.569	3272
905.686	3405
905.803	3469
905.921	3264
906.038	3443
906.155	3359
906.272	3294
906.389	3363
906.506	3233
906.623	3272
906.74	3260
906.857	3195
906.974	3298
907.091	3488
907.208	3557
907.324	3500
907.441	3401
907.557	3222
907.674	3237
907.79	3218
907.907	3283
908.023	3370
908.139	3367
908.256	3355
908.372	3348
908.488	3355
908.604	3287
908.72	3272
908.836	3275
908.952	3298
909.068	3401
909.184	3500
909.3	3393
909.415	3530
909.531	3481
909.647	3287
909.762	3291
909.878	3272
909.993	3370
910.108	3370
910.224	3374
910.339	3409
910.454	3348
910.57	3298
910.685	3272
910.8	3595
910.915	3545
911.03	3416
911.145	3264
911.259	3287
911.374	3321
911.489	3313
911.604	3233
911.718	3131
911.833	3203
911.947	3058
912.062	3001
912.176	3176
912.291	3241
912.405	3184
912.519	3439
912.633	3477
912.748	3355
912.862	3302
912.976	3211
913.09	3047
913.204	3165
913.318	3302
913.431	3329
913.545	3351
913.659	3447
913.772	3344
913.886	3233
914	3192
914.113	3348
914.226	3439
914.34	3370
914.453	3218
914.566	3405
914.68	3283
914.793	3294
914.906	3173
915.019	3123
915.132	3108
915.245	3176
915.358	3195
915.47	3256
915.583	3253
915.696	3310
915.809	3389
915.921	3431
916.034	3272
916.146	3275
916.259	3230
916.371	3424
916.483	3386
916.595	3275
916.708	3370
916.82	3332
916.932	3340
917.044	3367
917.156	3332
917.268	3287
917.38	3325
917.491	3310
917.603	3393
917.715	3447
917.826	3481
917.938	3359
918.049	3245
918.161	3405
918.272	3587
918.384	3519
918.495	3504
918.606	3351
918.717	3306
918.828	3359
918.939	3424
919.05	3302
919.161	3393
919.272	3199
919.383	3272
919.494	3492
919.604	3648
919.715	3462
919.826	3431
919.936	3492
920.047	3595
920.157	3549
920.267	3762
920.378	3591
920.488	3568
920.598	3762
920.708	3941
920.818	3861
920.928	3812
921.038	4048
921.148	4006
921.258	3690
921.368	3606
921.477	3587
921.587	3511
921.697	3420
921.806	3637
921.916	3500
922.025	3393
922.134	3355
922.244	3283
922.353	3439
922.462	3283
922.571	3253
922.68	3085
922.789	3089
922.898	3150
923.007	3093
923.116	3195
923.224	3161
923.333	3180
923.442	3093
923.55	3142
923.659	3150
923.767	3211
923.876	3119
923.984	3218
924.092	3138
924.201	3165
924.309	3249
924.417	3275
924.525	3165
924.633	3287
924.741	4040
924.849	3051
924.956	3256
925.064	3085
925.172	3020
925.279	3127
925.387	3192
925.494	3203
925.602	3340
925.709	3310
925.816	3214
925.924	3287
926.031	3374
926.138	3355
926.245	3344
926.352	3275
926.459	3420
926.566	3473
926.673	3325
926.779	3230
926.886	3264
926.993	3180
927.099	3131
927.206	3131
927.312	3138
927.419	3245
927.525	3230
927.631	3279
927.737	3123
927.843	3150
927.95	3017
928.056	3157
928.162	3138
928.267	3260
928.373	3812
928.479	3294
928.585	3074
928.69	3199
928.796	3272
928.901	3157
929.007	3009
929.112	3222
929.218	3180
929.323	3131
929.428	3203
929.533	3336
929.638	3135
929.743	3135
929.848	3264
929.953	3203
930.058	3165
930.163	2994
930.267	3055
930.372	3214
930.477	3039
930.581	3325
930.685	3192
930.79	3051
930.894	3100
930.998	3070
931.103	3310
931.207	2960
931.311	2963
931.415	2933
931.519	2777
931.623	2815
