Data from test_V78500241_211.txt Node
Date: Fri Mar 25 16:16:39 CST 2022
User: usil
Spectrometer: V785-0024
Trigger mode: 0
Integration Time (sec): 4.000000E-1
Scans to average: 1
Nonlinearity correction enabled: false
Boxcar width: 0
Storing dark spectrum: false
XAxis mode: Wavelengths
Number of Pixels in Spectrum: 1024
>>>>>Begin Spectral Data<<<<<
801.071	2872
801.214	2967
801.356	2899
801.499	2929
801.641	2880
801.783	2891
801.926	3028
802.068	2967
802.211	3001
802.353	3039
802.496	2952
802.638	3005
802.78	2994
802.923	3097
803.065	3043
803.208	2895
803.35	2925
803.492	2925
803.635	2933
803.777	2785
803.919	2864
804.061	3180
804.204	2963
804.346	2902
804.488	2849
804.63	2994
804.773	2868
804.915	2910
805.057	3070
805.199	2937
805.341	3001
805.483	3043
805.626	2986
805.768	2956
805.91	3066
806.052	3116
806.194	3036
806.336	3245
806.478	3005
806.62	2960
806.762	2979
806.904	3024
807.046	3180
807.188	2990
807.33	2956
807.472	2986
807.614	2887
807.756	2998
807.898	2956
808.04	2887
808.182	3001
808.324	2979
808.465	2872
808.607	2872
808.749	2815
808.891	2811
809.033	2971
809.174	2986
809.316	2899
809.458	2902
809.6	2762
809.741	2781
809.883	2796
810.025	2887
810.166	2849
810.308	2834
810.45	2853
810.591	2788
810.733	2754
810.875	2830
811.016	2769
811.158	2781
811.299	2830
811.441	2922
811.582	2887
811.724	2838
811.865	2849
812.007	2918
812.148	2883
812.29	2887
812.431	2918
812.573	2918
812.714	2982
812.855	3043
812.997	3058
813.138	3138
813.279	3017
813.421	3024
813.562	2956
813.703	2895
813.845	2891
813.986	2766
814.127	2743
814.268	2857
814.41	2864
814.551	2815
814.692	2849
814.833	2838
814.974	2914
815.115	2944
815.256	2842
815.397	2834
815.539	2872
815.68	2785
815.821	2781
815.962	2922
816.103	2922
816.244	2861
816.385	2872
816.526	2963
816.666	2948
816.807	2758
816.948	2887
817.089	2906
817.23	2864
817.371	2785
817.512	2807
817.653	2838
817.793	2868
817.934	2887
818.075	2963
818.216	3005
818.356	3020
818.497	2861
818.638	2785
818.778	2811
818.919	2819
819.06	2777
819.2	2883
819.341	2796
819.481	2777
819.622	2975
819.762	3123
819.903	3043
820.043	2895
820.184	2925
820.324	2929
820.465	2994
820.605	3028
820.746	3062
820.886	2952
821.026	3089
821.167	3161
821.307	3237
821.447	3302
821.588	3260
821.728	3188
821.868	3192
822.008	3116
822.149	3169
822.289	3230
822.429	3085
822.569	3085
822.709	3192
822.849	3062
822.99	3055
823.13	3161
823.27	3226
823.41	3104
823.55	3173
823.69	3146
823.83	3211
823.97	3081
824.11	3005
824.25	3005
824.389	3070
824.529	3146
824.669	3070
824.809	3195
824.949	3218
825.089	3260
825.228	3192
825.368	3005
825.508	2998
825.648	2986
825.787	3036
825.927	3028
826.067	2960
826.206	2986
826.346	3020
826.485	3062
826.625	3116
826.765	3302
826.904	3211
827.044	3005
827.183	2963
827.323	2853
827.462	3017
827.601	2883
827.741	2941
827.88	2960
828.02	2857
828.159	2990
828.298	3058
828.437	3108
828.577	3051
828.716	3230
828.855	3081
828.994	2937
829.134	2906
829.273	2922
829.412	2849
829.551	2834
829.69	2887
829.829	2998
829.968	3127
830.107	3001
830.246	3024
830.385	2914
830.524	2872
830.663	2807
830.802	2735
830.941	2689
831.08	2644
831.219	2739
831.357	2766
831.496	2963
831.635	2708
831.774	2651
831.913	2648
832.051	2568
832.19	2564
832.329	2670
832.467	2499
832.606	2446
832.744	2579
832.883	2560
833.022	2598
833.16	2663
833.299	2705
833.437	2686
833.576	2697
833.714	2724
833.852	2746
833.991	2773
834.129	2830
834.267	2777
834.406	2788
834.544	2864
834.682	2899
834.821	2872
834.959	3039
835.097	2868
835.235	3077
835.373	2986
835.511	3020
835.65	2944
835.788	2963
835.926	2815
836.064	2819
836.202	2853
836.34	3119
836.478	3146
836.615	3058
836.753	3135
836.891	3214
837.029	3169
837.167	3074
837.305	3066
837.443	3055
837.58	2960
837.718	3173
837.856	3036
837.993	3058
838.131	3100
838.269	3085
838.406	3154
838.544	3108
838.681	2929
838.819	2918
838.956	2800
839.094	2819
839.231	2944
839.369	3020
839.506	3370
839.643	3199
839.781	3005
839.918	2975
840.055	3036
840.193	3058
840.33	3047
840.467	3108
840.604	3116
840.742	3409
840.879	3062
841.016	3028
841.153	3089
841.29	3344
841.427	3298
841.564	3230
841.701	3310
841.838	3188
841.975	3184
842.112	3211
842.249	3093
842.385	3032
842.522	3233
842.659	3085
842.796	3062
842.933	3135
843.069	3032
843.206	3085
843.343	3157
843.479	3070
843.616	3131
843.752	2864
843.889	2872
844.025	3070
844.162	2864
844.298	3089
844.435	2933
844.571	2895
844.708	3093
844.844	3146
844.98	3233
845.117	3195
845.253	3036
845.389	3009
845.525	3108
845.661	3062
845.798	3001
845.934	3146
846.07	3074
846.206	3207
846.342	3306
846.478	3214
846.614	3097
846.75	3047
846.886	3013
847.022	3264
847.158	3135
847.294	3157
847.429	3237
847.565	3195
847.701	3454
847.837	3013
847.972	3001
848.108	3169
848.244	3112
848.379	3001
848.515	2899
848.65	2952
848.786	2971
848.921	2982
849.057	3074
849.192	3173
849.328	3062
849.463	3135
849.598	3036
849.734	3005
849.869	2986
850.004	2902
850.14	2925
850.275	2952
850.41	2842
850.545	2891
850.68	2948
850.815	2960
850.95	2956
851.085	3184
851.22	3100
851.355	3074
851.49	2990
851.625	2967
851.76	3001
851.895	2933
852.03	2952
852.165	3085
852.299	3165
852.434	3176
852.569	3161
852.703	3165
852.838	3241
852.973	3332
853.107	3374
853.242	3184
853.376	3100
853.511	3005
853.645	3077
853.78	3245
853.914	3157
854.048	3157
854.183	3077
854.317	3173
854.451	3332
854.585	3180
854.72	3081
854.854	3260
854.988	3123
855.122	3142
855.256	3001
855.39	3146
855.524	3291
855.658	3199
855.792	3180
855.926	3264
856.06	3237
856.194	3348
856.327	3188
856.461	3112
856.595	3131
856.729	3169
856.862	3249
856.996	3188
857.13	3230
857.263	3291
857.397	3313
857.53	3176
857.664	3230
857.797	3291
857.931	3313
858.064	3253
858.197	3279
858.331	3180
858.464	3180
858.597	3051
858.731	3146
858.864	3176
858.997	3146
859.13	3192
859.263	3260
859.396	3253
859.529	3108
859.662	3135
859.795	3123
859.928	3161
860.061	3302
860.194	3310
860.327	3180
860.46	3161
860.592	3272
860.725	3272
860.858	3294
860.99	3142
861.123	3112
861.256	3089
861.388	3214
861.521	3903
861.653	3058
861.786	3032
861.918	3066
862.05	3116
862.183	3154
862.315	3195
862.447	3226
862.58	3131
862.712	3013
862.844	2929
862.976	3039
863.108	3062
863.24	3321
863.372	2944
863.504	2994
863.636	2963
863.768	3093
863.9	3024
864.032	2963
864.164	3005
864.296	3077
864.428	3119
864.559	3142
864.691	3104
864.823	3097
864.954	3081
865.086	3066
865.217	3001
865.349	3001
865.48	3024
865.612	3070
865.743	3199
865.875	3009
866.006	2994
866.137	2994
866.269	3020
866.4	2979
866.531	2979
866.662	2944
866.793	2933
866.924	2929
867.055	3032
867.186	2971
867.317	2899
867.448	2864
867.579	2876
867.71	2891
867.841	2864
867.972	2971
868.103	2952
868.233	2941
868.364	2918
868.495	2952
868.625	3100
868.756	3237
868.886	2994
869.017	3085
869.147	3203
869.278	3199
869.408	3097
869.539	3047
869.669	3131
869.799	3100
869.929	3154
870.06	3146
870.19	3363
870.32	3325
870.45	3351
870.58	3393
870.71	3481
870.84	3492
870.97	3344
871.1	3272
871.23	3500
871.36	3488
871.489	3382
871.619	3458
871.749	3466
871.879	3477
872.008	3519
872.138	3374
872.267	3306
872.397	3176
872.526	3127
872.656	3058
872.785	3093
872.915	3249
873.044	3348
873.173	3283
873.303	3256
873.432	3253
873.561	3272
873.69	3203
873.819	3188
873.948	3268
874.077	3116
874.206	3093
874.335	3108
874.464	3253
874.593	3351
874.722	3249
874.851	3439
874.979	3389
875.108	3348
875.237	3279
875.365	3211
875.494	3230
875.623	3291
875.751	3116
875.88	3138
876.008	3241
876.136	3268
876.265	3405
876.393	3542
876.521	3454
876.65	3469
876.778	3340
876.906	3283
877.034	3214
877.162	3306
877.29	3195
877.418	3264
877.546	3287
877.674	3359
877.802	3287
877.93	3268
878.058	3203
878.185	3169
878.313	3230
878.441	3272
878.568	3123
878.696	3169
878.824	3329
878.951	3363
879.079	3481
879.206	3679
879.333	3492
879.461	3367
879.588	3416
879.715	3568
879.842	3648
879.97	3401
880.097	3184
880.224	3199
880.351	3226
880.478	3237
880.605	3268
880.732	3237
880.859	3507
880.986	3355
881.112	3389
881.239	3272
881.366	3116
881.493	3089
881.619	3020
881.746	3070
881.872	3093
881.999	3154
882.125	3150
882.252	3306
882.378	3344
882.505	3454
882.631	3382
882.757	3176
882.883	3241
883.01	3291
883.136	3214
883.262	3150
883.388	3180
883.514	3378
883.64	3401
883.766	3363
883.892	3245
884.018	3249
884.143	3515
884.269	3576
884.395	3264
884.52	3207
884.646	3222
884.772	3150
884.897	3097
885.023	3264
885.148	3355
885.274	3466
885.399	3370
885.524	3306
885.65	3317
885.775	3340
885.9	3348
886.025	3511
886.15	3393
886.275	3332
886.4	3249
886.525	3355
886.65	3287
886.775	3306
886.9	3576
887.025	3679
887.149	3428
887.274	3302
887.399	3214
887.523	3264
887.648	3222
887.773	3237
887.897	3443
888.021	3447
888.146	3351
888.27	3492
888.395	3591
888.519	3526
888.643	3519
888.767	3473
888.891	3313
889.015	3306
889.139	3310
889.263	3253
889.387	3439
889.511	3534
889.635	3462
889.759	3275
889.883	3313
890.006	3431
890.13	3561
890.254	3317
890.377	3405
890.501	3241
890.624	3203
890.748	3325
890.871	3192
890.995	3146
891.118	3093
891.241	3253
891.364	3268
891.488	3332
891.611	3245
891.734	3302
891.857	3332
891.98	3275
892.103	3363
892.226	3298
892.349	3207
892.471	3188
892.594	3249
892.717	3310
892.839	3298
892.962	3378
893.085	3435
893.207	3321
893.33	3226
893.452	3260
893.575	3378
893.697	3294
893.819	3511
893.941	3564
894.064	3485
894.186	3332
894.308	3302
894.43	3473
894.552	3545
894.674	3519
894.796	3279
894.918	3370
895.04	3332
895.161	3473
895.283	3401
895.405	3332
895.526	3378
895.648	3458
895.769	3462
895.891	3473
896.012	3542
896.134	3511
896.255	3420
896.376	3351
896.498	3439
896.619	3447
896.74	3386
896.861	3447
896.982	3724
897.103	3896
897.224	3595
897.345	3553
897.466	3477
897.587	3530
897.708	3671
897.828	3591
897.949	3496
898.07	3340
898.19	3454
898.311	3622
898.431	3500
898.552	3561
898.672	3591
898.792	3564
898.913	3530
899.033	3397
899.153	3321
899.273	3230
899.393	3348
899.513	3306
899.633	3348
899.753	3382
899.873	3336
899.993	3401
900.113	3401
900.232	3382
900.352	3321
900.472	3332
900.591	3241
900.711	3321
900.83	3279
900.95	3462
901.069	3534
901.189	3370
901.308	3203
901.427	3161
901.546	3237
901.665	3382
901.784	3386
901.904	3264
902.023	3184
902.141	3032
902.26	2998
902.379	3211
902.498	3116
902.617	3112
902.735	3233
902.854	3253
902.973	3173
903.091	3085
903.21	3127
903.328	3131
903.446	3150
903.565	3108
903.683	3272
903.801	3119
903.919	3283
904.038	3329
904.156	3207
904.274	3321
904.392	3310
904.51	3310
904.627	3378
904.745	3454
904.863	3557
904.981	3294
905.098	3157
905.216	3237
905.334	3313
905.451	3340
905.569	3370
905.686	3458
905.803	3450
905.921	3306
906.038	3397
906.155	3351
906.272	3302
906.389	3351
906.506	3230
906.623	3287
906.74	3344
906.857	3214
906.974	3256
907.091	3462
907.208	3606
907.324	3492
907.441	3416
907.557	3233
907.674	3237
907.79	3260
907.907	3329
908.023	3431
908.139	3412
908.256	3363
908.372	3435
908.488	3367
908.604	3294
908.72	3287
908.836	3268
908.952	3348
909.068	3351
909.184	3473
909.3	3386
909.415	3500
909.531	3485
909.647	3283
909.762	3348
909.878	3268
909.993	3370
910.108	3359
910.224	3359
910.339	3454
910.454	3367
910.57	3306
910.685	3287
910.8	3595
910.915	3534
911.03	3447
911.145	3321
911.259	3298
911.374	3367
911.489	3268
911.604	3245
911.718	3100
911.833	3165
911.947	3055
912.062	3024
912.176	3150
912.291	3264
912.405	3245
912.519	3439
912.633	3519
912.748	3386
912.862	3310
912.976	3180
913.09	3074
913.204	3173
913.318	3268
913.431	3382
913.545	3359
913.659	3405
913.772	3370
913.886	3260
914	3230
914.113	3401
914.226	3473
914.34	3389
914.453	3222
914.566	3492
914.68	3374
914.793	3336
914.906	3165
915.019	3154
915.132	3097
915.245	3180
915.358	3207
915.47	3245
915.583	3283
915.696	3317
915.809	3454
915.921	3477
916.034	3268
916.146	3268
916.259	3268
916.371	3412
916.483	3389
916.595	3298
916.708	3393
916.82	3310
916.932	3344
917.044	3340
917.156	3348
917.268	3272
917.38	3325
917.491	3310
917.603	3428
917.715	3458
917.826	3473
917.938	3420
918.049	3313
918.161	3443
918.272	3542
918.384	3599
918.495	3515
918.606	3382
918.717	3268
918.828	3397
918.939	3526
919.05	3340
919.161	3355
919.272	3165
919.383	3325
919.494	3469
919.604	3732
919.715	3538
919.826	3458
919.936	3481
920.047	3629
920.157	3614
920.267	3808
920.378	3648
920.488	3584
920.598	3816
920.708	3994
920.818	3854
920.928	3903
921.038	4082
921.148	4029
921.258	3728
921.368	3667
921.477	3610
921.587	3553
921.697	3526
921.806	3641
921.916	3587
922.025	3420
922.134	3420
922.244	3389
922.353	3469
922.462	3310
922.571	3275
922.68	3138
922.789	3157
922.898	3214
923.007	3142
923.116	3272
923.224	3226
923.333	3230
923.442	3142
923.55	3173
923.659	3214
923.767	3298
923.876	3150
923.984	3306
924.092	3165
924.201	3192
924.309	3283
924.417	3279
924.525	3218
924.633	3302
924.741	4249
924.849	3100
924.956	3317
925.064	3142
925.172	3104
925.279	3157
925.387	3230
925.494	3237
925.602	3397
925.709	3397
925.816	3253
925.924	3344
926.031	3439
926.138	3405
926.245	3412
926.352	3291
926.459	3481
926.566	3523
926.673	3378
926.779	3294
926.886	3291
926.993	3188
927.099	3203
927.206	3154
927.312	3184
927.419	3256
927.525	3233
927.631	3340
927.737	3222
927.843	3146
927.95	3058
928.056	3230
928.162	3230
928.267	3317
928.373	3926
928.479	3370
928.585	3131
928.69	3275
928.796	3336
928.901	3226
929.007	3055
929.112	3272
929.218	3222
929.323	3161
929.428	3154
929.533	3355
929.638	3199
929.743	3203
929.848	3336
929.953	3264
930.058	3199
930.163	3062
930.267	3104
930.372	3245
930.477	3066
930.581	3325
930.685	3203
930.79	3085
930.894	3161
930.998	3157
931.103	3363
931.207	2994
931.311	3017
931.415	2933
931.519	2845
931.623	2868
