Data from test_V78500241_552.txt Node
Date: Fri Mar 25 16:19:01 CST 2022
User: usil
Spectrometer: V785-0024
Trigger mode: 0
Integration Time (sec): 4.000000E-1
Scans to average: 1
Nonlinearity correction enabled: false
Boxcar width: 0
Storing dark spectrum: false
XAxis mode: Wavelengths
Number of Pixels in Spectrum: 1024
>>>>>Begin Spectral Data<<<<<
801.071	2918
801.214	2944
801.356	2880
801.499	2880
801.641	2868
801.783	2933
801.926	3032
802.068	2922
802.211	3028
802.353	3036
802.496	2941
802.638	3020
802.78	3039
802.923	3081
803.065	3005
803.208	2864
803.35	2914
803.492	2910
803.635	2914
803.777	2731
803.919	2842
804.061	3176
804.204	2941
804.346	2880
804.488	2868
804.63	2956
804.773	2861
804.915	2864
805.057	3070
805.199	2918
805.341	2975
805.483	3058
805.626	3005
805.768	2944
805.91	3074
806.052	3108
806.194	3005
806.336	3237
806.478	3028
806.62	2967
806.762	2967
806.904	3066
807.046	3173
807.188	2998
807.33	2899
807.472	2979
807.614	2944
807.756	2948
807.898	2899
808.04	2864
808.182	2944
808.324	2948
808.465	2906
808.607	2872
808.749	2766
808.891	2834
809.033	2960
809.174	2990
809.316	2857
809.458	2902
809.6	2796
809.741	2766
809.883	2758
810.025	2868
810.166	2864
810.308	2830
810.45	2834
810.591	2796
810.733	2777
810.875	2815
811.016	2746
811.158	2739
811.299	2796
811.441	2941
811.582	2845
811.724	2826
811.865	2811
812.007	2899
812.148	2872
812.29	2861
812.431	2876
812.573	2933
812.714	2967
812.855	3028
812.997	3047
813.138	3119
813.279	2975
813.421	2967
813.562	2963
813.703	2880
813.845	2876
813.986	2743
814.127	2716
814.268	2845
814.41	2807
814.551	2826
814.692	2864
814.833	2804
814.974	2899
815.115	2948
815.256	2815
815.397	2777
815.539	2842
815.68	2773
815.821	2773
815.962	2899
816.103	2944
816.244	2853
816.385	2849
816.526	2986
816.666	2906
816.807	2743
816.948	2864
817.089	2883
817.23	2891
817.371	2743
817.512	2800
817.653	2834
817.793	2819
817.934	2880
818.075	2998
818.216	2982
818.356	3047
818.497	2845
818.638	2811
818.778	2792
818.919	2811
819.06	2720
819.2	2880
819.341	2781
819.481	2796
819.622	2933
819.762	3127
819.903	2994
820.043	2902
820.184	2887
820.324	2922
820.465	2979
820.605	3032
820.746	3028
820.886	2937
821.026	3058
821.167	3169
821.307	3241
821.447	3279
821.588	3211
821.728	3131
821.868	3218
822.008	3058
822.149	3150
822.289	3241
822.429	3070
822.569	3074
822.709	3188
822.849	2982
822.99	3085
823.13	3131
823.27	3165
823.41	3089
823.55	3154
823.69	3138
823.83	3176
823.97	3104
824.11	2986
824.25	2998
824.389	3089
824.529	3100
824.669	3028
824.809	3157
824.949	3264
825.089	3233
825.228	3173
825.368	3009
825.508	2998
825.648	2944
825.787	3024
825.927	3009
826.067	2963
826.206	2948
826.346	3051
826.485	3093
826.625	3085
826.765	3233
826.904	3184
827.044	2986
827.183	2929
827.323	2849
827.462	2975
827.601	2880
827.741	2933
827.88	2975
828.02	2857
828.159	2960
828.298	3032
828.437	3100
828.577	3024
828.716	3214
828.855	3085
828.994	2895
829.134	2883
829.273	2922
829.412	2857
829.551	2872
829.69	2861
829.829	2990
829.968	3116
830.107	2998
830.246	3001
830.385	2948
830.524	2883
830.663	2796
830.802	2712
830.941	2621
831.08	2651
831.219	2724
831.357	2735
831.496	2956
831.635	2731
831.774	2670
831.913	2636
832.051	2564
832.19	2568
832.329	2674
832.467	2526
832.606	2446
832.744	2568
832.883	2583
833.022	2594
833.16	2640
833.299	2693
833.437	2686
833.576	2705
833.714	2693
833.852	2701
833.991	2781
834.129	2815
834.267	2830
834.406	2792
834.544	2891
834.682	2876
834.821	2838
834.959	3051
835.097	2880
835.235	3077
835.373	3028
835.511	3024
835.65	2963
835.788	2925
835.926	2807
836.064	2838
836.202	2849
836.34	3070
836.478	3131
836.615	3024
836.753	3085
836.891	3180
837.029	3146
837.167	3077
837.305	3066
837.443	2979
837.58	2918
837.718	3100
837.856	3039
837.993	3001
838.131	3100
838.269	3081
838.406	3100
838.544	3081
838.681	2948
838.819	2906
838.956	2792
839.094	2834
839.231	2902
839.369	3017
839.506	3329
839.643	3195
839.781	2979
839.918	2967
840.055	3043
840.193	3043
840.33	3028
840.467	3077
840.604	3146
840.742	3439
840.879	3039
841.016	3017
841.153	3077
841.29	3313
841.427	3291
841.564	3287
841.701	3287
841.838	3192
841.975	3211
842.112	3188
842.249	3039
842.385	3047
842.522	3253
842.659	3058
842.796	3028
842.933	3077
843.069	3009
843.206	3028
843.343	3188
843.479	3089
843.616	3127
843.752	2910
843.889	2849
844.025	3085
844.162	2853
844.298	3058
844.435	2929
844.571	2899
844.708	3032
844.844	3195
844.98	3264
845.117	3203
845.253	3017
845.389	3001
845.525	3047
845.661	3089
845.798	3001
845.934	3097
846.07	3036
846.206	3199
846.342	3313
846.478	3241
846.614	3062
846.75	3032
846.886	3013
847.022	3173
847.158	3123
847.294	3116
847.429	3195
847.565	3222
847.701	3473
847.837	3001
847.972	2990
848.108	3127
848.244	3123
848.379	2952
848.515	2899
848.65	2914
848.786	2952
848.921	2979
849.057	3081
849.192	3150
849.328	3055
849.463	3108
849.598	3051
849.734	3077
849.869	2956
850.004	2902
850.14	2952
850.275	2880
850.41	2842
850.545	2899
850.68	2895
850.815	2933
850.95	2979
851.085	3180
851.22	3104
851.355	3066
851.49	2952
851.625	2975
851.76	2998
851.895	2925
852.03	2902
852.165	3028
852.299	3112
852.434	3222
852.569	3150
852.703	3165
852.838	3233
852.973	3389
853.107	3310
853.242	3161
853.376	3097
853.511	2967
853.645	3066
853.78	3253
853.914	3119
854.048	3112
854.183	3081
854.317	3142
854.451	3329
854.585	3150
854.72	3119
854.854	3237
854.988	3047
855.122	3104
855.256	2998
855.39	3123
855.524	3241
855.658	3176
855.792	3188
855.926	3226
856.06	3275
856.194	3329
856.327	3176
856.461	3104
856.595	3142
856.729	3104
856.862	3188
856.996	3199
857.13	3226
857.263	3253
857.397	3310
857.53	3161
857.664	3199
857.797	3237
857.931	3321
858.064	3211
858.197	3260
858.331	3188
858.464	3157
858.597	3055
858.731	3157
858.864	3173
858.997	3085
859.13	3161
859.263	3203
859.396	3218
859.529	3123
859.662	3100
859.795	3100
859.928	3127
860.061	3291
860.194	3310
860.327	3195
860.46	3150
860.592	3279
860.725	3272
860.858	3256
860.99	3157
861.123	3070
861.256	3077
861.388	3165
861.521	3736
861.653	3032
861.786	3001
861.918	3062
862.05	3100
862.183	3104
862.315	3207
862.447	3264
862.58	3119
862.712	2929
862.844	2876
862.976	3017
863.108	3062
863.24	3488
863.372	2906
863.504	2956
863.636	2933
863.768	3020
863.9	3009
864.032	2952
864.164	2963
864.296	3051
864.428	3116
864.559	3100
864.691	3104
864.823	3085
864.954	3039
865.086	3058
865.217	3032
865.349	2975
865.48	3070
865.612	3036
865.743	3176
865.875	2979
866.006	2956
866.137	3017
866.269	3001
866.4	2941
866.531	2963
866.662	2914
866.793	2910
866.924	2937
867.055	2998
867.186	2937
867.317	2922
867.448	2838
867.579	2838
867.71	2849
867.841	2830
867.972	2937
868.103	2925
868.233	2914
868.364	2925
868.495	2937
868.625	3108
868.756	3176
868.886	3005
869.017	3055
869.147	3218
869.278	3184
869.408	3074
869.539	3043
869.669	3089
869.799	3043
869.929	3165
870.06	3138
870.19	3344
870.32	3279
870.45	3340
870.58	3393
870.71	3500
870.84	3447
870.97	3310
871.1	3260
871.23	3500
871.36	3469
871.489	3355
871.619	3374
871.749	3431
871.879	3447
872.008	3500
872.138	3416
872.267	3264
872.397	3184
872.526	3108
872.656	3009
872.785	3161
872.915	3275
873.044	3351
873.173	3256
873.303	3298
873.432	3237
873.561	3253
873.69	3161
873.819	3150
873.948	3203
874.077	3112
874.206	3097
874.335	3085
874.464	3218
874.593	3378
874.722	3260
874.851	3393
874.979	3389
875.108	3386
875.237	3253
875.365	3195
875.494	3180
875.623	3302
875.751	3097
875.88	3157
876.008	3226
876.136	3283
876.265	3420
876.393	3492
876.521	3450
876.65	3431
876.778	3321
876.906	3256
877.034	3249
877.162	3275
877.29	3207
877.418	3291
877.546	3249
877.674	3233
877.802	3283
877.93	3321
878.058	3176
878.185	3150
878.313	3230
878.441	3226
878.568	3077
878.696	3154
878.824	3256
878.951	3321
879.079	3462
879.206	3622
879.333	3500
879.461	3359
879.588	3389
879.715	3469
879.842	3614
879.97	3405
880.097	3150
880.224	3127
880.351	3218
880.478	3237
880.605	3245
880.732	3207
880.859	3481
880.986	3313
881.112	3355
881.239	3211
881.366	3127
881.493	3066
881.619	3013
881.746	3085
881.872	3123
881.999	3131
882.125	3161
882.252	3260
882.378	3325
882.505	3435
882.631	3306
882.757	3199
882.883	3237
883.01	3253
883.136	3176
883.262	3116
883.388	3097
883.514	3310
883.64	3386
883.766	3370
883.892	3207
884.018	3264
884.143	3466
884.269	3538
884.395	3260
884.52	3169
884.646	3230
884.772	3154
884.897	3131
885.023	3245
885.148	3382
885.274	3439
885.399	3382
885.524	3302
885.65	3298
885.775	3359
885.9	3332
886.025	3469
886.15	3393
886.275	3329
886.4	3272
886.525	3325
886.65	3275
886.775	3283
886.9	3526
887.025	3671
887.149	3454
887.274	3275
887.399	3207
887.523	3245
887.648	3218
887.773	3237
887.897	3363
888.021	3447
888.146	3348
888.27	3473
888.395	3580
888.519	3416
888.643	3439
888.767	3492
888.891	3329
889.015	3272
889.139	3306
889.263	3233
889.387	3409
889.511	3530
889.635	3515
889.759	3306
889.883	3298
890.006	3386
890.13	3526
890.254	3287
890.377	3348
890.501	3165
890.624	3260
890.748	3310
890.871	3230
890.995	3116
891.118	3089
891.241	3226
891.364	3241
891.488	3298
891.611	3211
891.734	3218
891.857	3302
891.98	3294
892.103	3336
892.226	3329
892.349	3214
892.471	3131
892.594	3268
892.717	3367
892.839	3264
892.962	3332
893.085	3378
893.207	3321
893.33	3176
893.452	3211
893.575	3351
893.697	3294
893.819	3477
893.941	3492
894.064	3454
894.186	3279
894.308	3310
894.43	3492
894.552	3549
894.674	3519
894.796	3302
894.918	3378
895.04	3329
895.161	3473
895.283	3435
895.405	3317
895.526	3351
895.648	3420
895.769	3454
895.891	3450
896.012	3507
896.134	3466
896.255	3431
896.376	3382
896.498	3378
896.619	3416
896.74	3389
896.861	3420
896.982	3728
897.103	3861
897.224	3584
897.345	3542
897.466	3458
897.587	3496
897.708	3629
897.828	3526
897.949	3488
898.07	3363
898.19	3469
898.311	3648
898.431	3450
898.552	3545
898.672	3599
898.792	3576
898.913	3530
899.033	3447
899.153	3302
899.273	3237
899.393	3279
899.513	3302
899.633	3310
899.753	3355
899.873	3348
899.993	3386
900.113	3336
900.232	3409
900.352	3374
900.472	3291
900.591	3222
900.711	3306
900.83	3226
900.95	3431
901.069	3511
901.189	3370
901.308	3233
901.427	3146
901.546	3211
901.665	3294
901.784	3351
901.904	3222
902.023	3192
902.141	3039
902.26	3009
902.379	3169
902.498	3058
902.617	3066
902.735	3226
902.854	3268
902.973	3192
903.091	3085
903.21	3074
903.328	3176
903.446	3138
903.565	3097
903.683	3222
903.801	3116
903.919	3283
904.038	3359
904.156	3188
904.274	3329
904.392	3275
904.51	3279
904.627	3340
904.745	3454
904.863	3511
904.981	3283
905.098	3188
905.216	3222
905.334	3317
905.451	3279
905.569	3321
905.686	3462
905.803	3420
905.921	3287
906.038	3439
906.155	3321
906.272	3298
906.389	3374
906.506	3268
906.623	3291
906.74	3291
906.857	3176
906.974	3260
907.091	3477
907.208	3595
907.324	3485
907.441	3389
907.557	3241
907.674	3287
907.79	3237
907.907	3291
908.023	3386
908.139	3382
908.256	3393
908.372	3348
908.488	3370
908.604	3256
908.72	3230
908.836	3310
908.952	3283
909.068	3306
909.184	3504
909.3	3435
909.415	3545
909.531	3481
909.647	3298
909.762	3336
909.878	3313
909.993	3363
910.108	3389
910.224	3397
910.339	3431
910.454	3348
910.57	3294
910.685	3279
910.8	3614
910.915	3542
911.03	3466
911.145	3275
911.259	3279
911.374	3294
911.489	3260
911.604	3237
911.718	3119
911.833	3154
911.947	3009
912.062	3005
912.176	3169
912.291	3199
912.405	3207
912.519	3439
912.633	3443
912.748	3336
912.862	3291
912.976	3173
913.09	3062
913.204	3142
913.318	3218
913.431	3317
913.545	3355
913.659	3416
913.772	3340
913.886	3199
914	3226
914.113	3374
914.226	3401
914.34	3405
914.453	3237
914.566	3416
914.68	3260
914.793	3317
914.906	3154
915.019	3100
915.132	3081
915.245	3173
915.358	3199
915.47	3233
915.583	3279
915.696	3272
915.809	3397
915.921	3424
916.034	3291
916.146	3260
916.259	3253
916.371	3367
916.483	3344
916.595	3275
916.708	3359
916.82	3325
916.932	3355
917.044	3393
917.156	3306
917.268	3268
917.38	3317
917.491	3291
917.603	3378
917.715	3412
917.826	3477
917.938	3351
918.049	3279
918.161	3447
918.272	3576
918.384	3614
918.495	3492
918.606	3325
918.717	3275
918.828	3424
918.939	3424
919.05	3367
919.161	3409
919.272	3188
919.383	3310
919.494	3534
919.604	3686
919.715	3526
919.826	3462
919.936	3473
920.047	3614
920.157	3561
920.267	3747
920.378	3648
920.488	3587
920.598	3804
920.708	4029
920.818	3846
920.928	3861
921.038	4063
921.148	4040
921.258	3717
921.368	3660
921.477	3652
921.587	3568
921.697	3515
921.806	3732
921.916	3584
922.025	3401
922.134	3397
922.244	3359
922.353	3485
922.462	3351
922.571	3294
922.68	3138
922.789	3127
922.898	3165
923.007	3161
923.116	3260
923.224	3256
923.333	3222
923.442	3127
923.55	3127
923.659	3184
923.767	3241
923.876	3161
923.984	3298
924.092	3131
924.201	3192
924.309	3275
924.417	3306
924.525	3230
924.633	3291
924.741	4067
924.849	3070
924.956	3313
925.064	3123
925.172	3104
925.279	3135
925.387	3237
925.494	3302
925.602	3393
925.709	3382
925.816	3241
925.924	3348
926.031	3386
926.138	3351
926.245	3401
926.352	3310
926.459	3450
926.566	3523
926.673	3344
926.779	3294
926.886	3279
926.993	3230
927.099	3138
927.206	3135
927.312	3184
927.419	3298
927.525	3237
927.631	3313
927.737	3199
927.843	3146
927.95	3081
928.056	3176
928.162	3211
928.267	3287
928.373	3812
928.479	3367
928.585	3058
928.69	3283
928.796	3336
928.901	3241
929.007	3093
929.112	3211
929.218	3253
929.323	3176
929.428	3188
929.533	3355
929.638	3169
929.743	3214
929.848	3272
929.953	3287
930.058	3195
930.163	3024
930.267	3051
930.372	3214
930.477	3081
930.581	3340
930.685	3195
930.79	3142
930.894	3142
930.998	3142
931.103	3306
931.207	2948
931.311	2998
931.415	2906
931.519	2845
931.623	2823
