Data from test_V78500241_811.txt Node
Date: Fri Mar 25 16:20:49 CST 2022
User: usil
Spectrometer: V785-0024
Trigger mode: 0
Integration Time (sec): 4.000000E-1
Scans to average: 1
Nonlinearity correction enabled: false
Boxcar width: 0
Storing dark spectrum: false
XAxis mode: Wavelengths
Number of Pixels in Spectrum: 1024
>>>>>Begin Spectral Data<<<<<
801.071	2906
801.214	2933
801.356	2857
801.499	2902
801.641	2845
801.783	2941
801.926	3039
802.068	2948
802.211	3001
802.353	3032
802.496	2960
802.638	2994
802.78	2979
802.923	3081
803.065	3005
803.208	2853
803.35	2933
803.492	2910
803.635	2933
803.777	2731
803.919	2872
804.061	3218
804.204	2929
804.346	2941
804.488	2830
804.63	3009
804.773	2845
804.915	2902
805.057	3093
805.199	2925
805.341	2986
805.483	3043
805.626	3009
805.768	2933
805.91	3070
806.052	3074
806.194	3024
806.336	3207
806.478	3024
806.62	2956
806.762	2982
806.904	3066
807.046	3150
807.188	2990
807.33	2887
807.472	2990
807.614	2918
807.756	3001
807.898	2922
808.04	2864
808.182	2952
808.324	2941
808.465	2853
808.607	2910
808.749	2815
808.891	2864
809.033	2960
809.174	2967
809.316	2891
809.458	2883
809.6	2773
809.741	2766
809.883	2785
810.025	2804
810.166	2845
810.308	2823
810.45	2834
810.591	2769
810.733	2743
810.875	2845
811.016	2804
811.158	2724
811.299	2800
811.441	2944
811.582	2910
811.724	2823
811.865	2845
812.007	2895
812.148	2899
812.29	2826
812.431	2861
812.573	2956
812.714	2975
812.855	3077
812.997	3043
813.138	3112
813.279	3024
813.421	2982
813.562	2963
813.703	2849
813.845	2876
813.986	2766
814.127	2762
814.268	2811
814.41	2845
814.551	2796
814.692	2868
814.833	2807
814.974	2876
815.115	2956
815.256	2823
815.397	2804
815.539	2864
815.68	2807
815.821	2792
815.962	2941
816.103	2918
816.244	2842
816.385	2826
816.526	2960
816.666	2922
816.807	2758
816.948	2887
817.089	2895
817.23	2838
817.371	2781
817.512	2788
817.653	2845
817.793	2838
817.934	2872
818.075	2975
818.216	2998
818.356	3005
818.497	2868
818.638	2804
818.778	2800
818.919	2800
819.06	2773
819.2	2876
819.341	2773
819.481	2788
819.622	2929
819.762	3127
819.903	3047
820.043	2902
820.184	2891
820.324	2864
820.465	3020
820.605	3005
820.746	3001
820.886	2918
821.026	3093
821.167	3173
821.307	3233
821.447	3199
821.588	3230
821.728	3154
821.868	3173
822.008	3051
822.149	3226
822.289	3222
822.429	3100
822.569	3108
822.709	3176
822.849	3028
822.99	3066
823.13	3173
823.27	3188
823.41	3108
823.55	3142
823.69	3100
823.83	3169
823.97	3100
824.11	2979
824.25	2975
824.389	3077
824.529	3089
824.669	3070
824.809	3176
824.949	3241
825.089	3203
825.228	3154
825.368	2990
825.508	2990
825.648	2979
825.787	2994
825.927	3020
826.067	2952
826.206	2948
826.346	3028
826.485	3058
826.625	3077
826.765	3283
826.904	3176
827.044	2956
827.183	2933
827.323	2845
827.462	2998
827.601	2895
827.741	2944
827.88	2952
828.02	2838
828.159	2933
828.298	3001
828.437	3085
828.577	3032
828.716	3264
828.855	3093
828.994	2887
829.134	2910
829.273	2914
829.412	2864
829.551	2864
829.69	2929
829.829	2982
829.968	3146
830.107	3024
830.246	3001
830.385	2933
830.524	2868
830.663	2796
830.802	2743
830.941	2670
831.08	2659
831.219	2727
831.357	2750
831.496	2963
831.635	2716
831.774	2632
831.913	2670
832.051	2522
832.19	2594
832.329	2674
832.467	2533
832.606	2469
832.744	2598
832.883	2613
833.022	2556
833.16	2667
833.299	2697
833.437	2708
833.576	2701
833.714	2724
833.852	2701
833.991	2769
834.129	2785
834.267	2800
834.406	2777
834.544	2887
834.682	2906
834.821	2857
834.959	3066
835.097	2887
835.235	3055
835.373	2990
835.511	3028
835.65	2925
835.788	2925
835.926	2826
836.064	2807
836.202	2845
836.34	3093
836.478	3150
836.615	3058
836.753	3119
836.891	3176
837.029	3176
837.167	3085
837.305	3055
837.443	3032
837.58	2975
837.718	3165
837.856	3047
837.993	3066
838.131	3119
838.269	3074
838.406	3100
838.544	3097
838.681	2975
838.819	2891
838.956	2804
839.094	2830
839.231	2899
839.369	3017
839.506	3374
839.643	3195
839.781	2979
839.918	2975
840.055	3024
840.193	3074
840.33	3036
840.467	3066
840.604	3112
840.742	3393
840.879	3013
841.016	3020
841.153	3089
841.29	3313
841.427	3283
841.564	3268
841.701	3340
841.838	3230
841.975	3138
842.112	3245
842.249	3055
842.385	3051
842.522	3230
842.659	3070
842.796	3039
842.933	3123
843.069	3055
843.206	3051
843.343	3195
843.479	3081
843.616	3157
843.752	2914
843.889	2853
844.025	3100
844.162	2891
844.298	3108
844.435	2967
844.571	2906
844.708	3036
844.844	3207
844.98	3264
845.117	3199
845.253	3074
845.389	3009
845.525	3081
845.661	3081
845.798	2994
845.934	3112
846.07	3036
846.206	3207
846.342	3313
846.478	3199
846.614	3081
846.75	3074
846.886	3001
847.022	3241
847.158	3112
847.294	3180
847.429	3203
847.565	3184
847.701	3462
847.837	3005
847.972	2979
848.108	3119
848.244	3112
848.379	2998
848.515	2956
848.65	2922
848.786	2971
848.921	2994
849.057	3100
849.192	3116
849.328	3062
849.463	3104
849.598	3024
849.734	3043
849.869	2963
850.004	2914
850.14	2967
850.275	2910
850.41	2834
850.545	2887
850.68	2918
850.815	2914
850.95	2975
851.085	3192
851.22	3074
851.355	3013
851.49	2986
851.625	2967
851.76	3001
851.895	2925
852.03	2910
852.165	3039
852.299	3100
852.434	3184
852.569	3146
852.703	3169
852.838	3211
852.973	3340
853.107	3283
853.242	3142
853.376	3043
853.511	2960
853.645	3039
853.78	3245
853.914	3100
854.048	3100
854.183	3081
854.317	3131
854.451	3268
854.585	3123
854.72	3081
854.854	3180
854.988	3024
855.122	3097
855.256	2967
855.39	3142
855.524	3226
855.658	3173
855.792	3180
855.926	3207
856.06	3195
856.194	3230
856.327	3123
856.461	3047
856.595	3066
856.729	3074
856.862	3218
856.996	3112
857.13	3211
857.263	3241
857.397	3249
857.53	3112
857.664	3184
857.797	3264
857.931	3222
858.064	3226
858.197	3222
858.331	3108
858.464	3100
858.597	2998
858.731	3108
858.864	3116
858.997	3093
859.13	3169
859.263	3165
859.396	3176
859.529	3062
859.662	3055
859.795	3032
859.928	3131
860.061	3260
860.194	3275
860.327	3157
860.46	3077
860.592	3241
860.725	3233
860.858	3272
860.99	3085
861.123	3043
861.256	3058
861.388	3157
861.521	4006
861.653	2967
861.786	3005
861.918	3036
862.05	3051
862.183	3043
862.315	3169
862.447	3180
862.58	3047
862.712	2933
862.844	2857
862.976	3017
863.108	3043
863.24	3306
863.372	2842
863.504	2956
863.636	2910
863.768	3024
863.9	2979
864.032	2910
864.164	2937
864.296	3009
864.428	3074
864.559	3108
864.691	3062
864.823	3043
864.954	3039
865.086	3051
865.217	3009
865.349	2948
865.48	2975
865.612	3005
865.743	3161
865.875	2975
866.006	2948
866.137	2971
866.269	2922
866.4	2929
866.531	2914
866.662	2883
866.793	2895
866.924	2910
867.055	2975
867.186	2914
867.317	2902
867.448	2842
867.579	2849
867.71	2785
867.841	2796
867.972	2872
868.103	2918
868.233	2918
868.364	2883
868.495	2906
868.625	3089
868.756	3184
868.886	2956
869.017	3043
869.147	3157
869.278	3173
869.408	3020
869.539	3001
869.669	3051
869.799	3020
869.929	3097
870.06	3119
870.19	3294
870.32	3283
870.45	3291
870.58	3355
870.71	3431
870.84	3416
870.97	3302
871.1	3237
871.23	3496
871.36	3473
871.489	3336
871.619	3393
871.749	3378
871.879	3416
872.008	3488
872.138	3351
872.267	3260
872.397	3138
872.526	3100
872.656	2990
872.785	3077
872.915	3230
873.044	3279
873.173	3211
873.303	3237
873.432	3237
873.561	3249
873.69	3176
873.819	3093
873.948	3192
874.077	3081
874.206	3039
874.335	3100
874.464	3218
874.593	3355
874.722	3222
874.851	3374
874.979	3378
875.108	3313
875.237	3180
875.365	3142
875.494	3176
875.623	3226
875.751	3081
875.88	3119
876.008	3176
876.136	3188
876.265	3370
876.393	3507
876.521	3412
876.65	3397
876.778	3340
876.906	3253
877.034	3214
877.162	3233
877.29	3169
877.418	3256
877.546	3249
877.674	3207
877.802	3237
877.93	3249
878.058	3138
878.185	3100
878.313	3230
878.441	3211
878.568	3028
878.696	3131
878.824	3253
878.951	3272
879.079	3447
879.206	3618
879.333	3401
879.461	3332
879.588	3386
879.715	3485
879.842	3595
879.97	3382
880.097	3142
880.224	3097
880.351	3131
880.478	3188
880.605	3180
880.732	3203
880.859	3504
880.986	3283
881.112	3321
881.239	3207
881.366	3127
881.493	3024
881.619	3001
881.746	3062
881.872	3097
881.999	3085
882.125	3135
882.252	3218
882.378	3287
882.505	3466
882.631	3260
882.757	3138
882.883	3176
883.01	3245
883.136	3165
883.262	3081
883.388	3100
883.514	3291
883.64	3344
883.766	3313
883.892	3203
884.018	3241
884.143	3431
884.269	3496
884.395	3211
884.52	3146
884.646	3188
884.772	3138
884.897	3119
885.023	3222
885.148	3298
885.274	3405
885.399	3355
885.524	3294
885.65	3218
885.775	3287
885.9	3260
886.025	3431
886.15	3298
886.275	3291
886.4	3241
886.525	3279
886.65	3272
886.775	3272
886.9	3519
887.025	3625
887.149	3382
887.274	3233
887.399	3188
887.523	3161
887.648	3184
887.773	3184
887.897	3336
888.021	3351
888.146	3306
888.27	3420
888.395	3515
888.519	3416
888.643	3435
888.767	3481
888.891	3321
889.015	3207
889.139	3279
889.263	3222
889.387	3393
889.511	3496
889.635	3424
889.759	3302
889.883	3291
890.006	3374
890.13	3469
890.254	3249
890.377	3302
890.501	3226
890.624	3184
890.748	3291
890.871	3192
890.995	3135
891.118	3020
891.241	3173
891.364	3260
891.488	3306
891.611	3173
891.734	3256
891.857	3298
891.98	3241
892.103	3325
892.226	3302
892.349	3199
892.471	3135
892.594	3207
892.717	3294
892.839	3230
892.962	3275
893.085	3321
893.207	3272
893.33	3150
893.452	3192
893.575	3321
893.697	3264
893.819	3420
893.941	3492
894.064	3473
894.186	3306
894.308	3287
894.43	3405
894.552	3542
894.674	3488
894.796	3256
894.918	3294
895.04	3287
895.161	3405
895.283	3393
895.405	3386
895.526	3355
895.648	3412
895.769	3416
895.891	3435
896.012	3458
896.134	3473
896.255	3416
896.376	3370
896.498	3355
896.619	3435
896.74	3344
896.861	3412
896.982	3652
897.103	3850
897.224	3584
897.345	3496
897.466	3447
897.587	3507
897.708	3545
897.828	3523
897.949	3412
898.07	3306
898.19	3382
898.311	3599
898.431	3454
898.552	3488
898.672	3572
898.792	3564
898.913	3519
899.033	3397
899.153	3275
899.273	3207
899.393	3306
899.513	3279
899.633	3313
899.753	3336
899.873	3291
899.993	3359
900.113	3313
900.232	3359
900.352	3329
900.472	3283
900.591	3207
900.711	3291
900.83	3211
900.95	3397
901.069	3549
901.189	3344
901.308	3169
901.427	3138
901.546	3157
901.665	3291
901.784	3321
901.904	3199
902.023	3108
902.141	3013
902.26	3009
902.379	3127
902.498	3081
902.617	3089
902.735	3211
902.854	3218
902.973	3173
903.091	3036
903.21	3074
903.328	3135
903.446	3104
903.565	3119
903.683	3199
903.801	3127
903.919	3222
904.038	3279
904.156	3165
904.274	3264
904.392	3287
904.51	3294
904.627	3336
904.745	3439
904.863	3488
904.981	3237
905.098	3127
905.216	3245
905.334	3272
905.451	3325
905.569	3287
905.686	3374
905.803	3447
905.921	3249
906.038	3386
906.155	3355
906.272	3233
906.389	3310
906.506	3233
906.623	3256
906.74	3268
906.857	3165
906.974	3222
907.091	3454
907.208	3572
907.324	3466
907.441	3382
907.557	3230
907.674	3203
907.79	3222
907.907	3283
908.023	3363
908.139	3351
908.256	3313
908.372	3317
908.488	3340
908.604	3237
908.72	3199
908.836	3291
908.952	3279
909.068	3313
909.184	3439
909.3	3397
909.415	3488
909.531	3450
909.647	3237
909.762	3272
909.878	3256
909.993	3336
910.108	3294
910.224	3321
910.339	3435
910.454	3332
910.57	3291
910.685	3230
910.8	3542
910.915	3523
911.03	3382
911.145	3233
911.259	3230
911.374	3325
911.489	3230
911.604	3230
911.718	3081
911.833	3135
911.947	2986
912.062	2982
912.176	3112
912.291	3207
912.405	3165
912.519	3424
912.633	3477
912.748	3348
912.862	3230
912.976	3173
913.09	3036
913.204	3127
913.318	3176
913.431	3355
913.545	3329
913.659	3386
913.772	3302
913.886	3222
914	3222
914.113	3355
914.226	3386
914.34	3348
914.453	3230
914.566	3386
914.68	3313
914.793	3313
914.906	3127
915.019	3146
915.132	3051
915.245	3169
915.358	3222
915.47	3218
915.583	3245
915.696	3310
915.809	3370
915.921	3431
916.034	3214
916.146	3283
916.259	3211
916.371	3374
916.483	3344
916.595	3264
916.708	3306
916.82	3332
916.932	3355
917.044	3355
917.156	3340
917.268	3279
917.38	3325
917.491	3302
917.603	3325
917.715	3458
917.826	3454
917.938	3393
918.049	3268
918.161	3450
918.272	3576
918.384	3568
918.495	3530
918.606	3370
918.717	3264
918.828	3424
918.939	3401
919.05	3321
919.161	3386
919.272	3211
919.383	3291
919.494	3564
919.604	3747
919.715	3481
919.826	3424
919.936	3500
920.047	3625
920.157	3625
920.267	3816
920.378	3618
920.488	3660
920.598	3797
920.708	3998
920.818	3873
920.928	3888
921.038	4090
921.148	4029
921.258	3759
921.368	3698
921.477	3595
921.587	3614
921.697	3481
921.806	3637
921.916	3549
922.025	3386
922.134	3382
922.244	3325
922.353	3481
922.462	3332
922.571	3279
922.68	3154
922.789	3138
922.898	3180
923.007	3142
923.116	3298
923.224	3214
923.333	3207
923.442	3138
923.55	3135
923.659	3192
923.767	3245
923.876	3154
923.984	3283
924.092	3157
924.201	3230
924.309	3287
924.417	3325
924.525	3211
924.633	3268
924.741	4234
924.849	3135
924.956	3302
925.064	3165
925.172	3077
925.279	3123
925.387	3253
925.494	3245
925.602	3344
925.709	3393
925.816	3192
925.924	3298
926.031	3435
926.138	3405
926.245	3397
926.352	3310
926.459	3492
926.566	3504
926.673	3359
926.779	3294
926.886	3260
926.993	3188
927.099	3211
927.206	3180
927.312	3169
927.419	3272
927.525	3260
927.631	3306
927.737	3195
927.843	3203
927.95	3077
928.056	3157
928.162	3192
928.267	3287
928.373	3823
928.479	3321
928.585	3104
928.69	3256
928.796	3310
928.901	3226
929.007	3116
929.112	3233
929.218	3233
929.323	3146
929.428	3199
929.533	3348
929.638	3146
929.743	3188
929.848	3317
929.953	3226
930.058	3176
930.163	2994
930.267	3070
930.372	3222
930.477	3058
930.581	3367
930.685	3211
930.79	3081
930.894	3146
930.998	3119
931.103	3340
931.207	2990
931.311	2967
931.415	2948
931.519	2804
931.623	2804
