Data from test_V78500241_454.txt Node
Date: Fri Mar 25 16:18:20 CST 2022
User: usil
Spectrometer: V785-0024
Trigger mode: 0
Integration Time (sec): 4.000000E-1
Scans to average: 1
Nonlinearity correction enabled: false
Boxcar width: 0
Storing dark spectrum: false
XAxis mode: Wavelengths
Number of Pixels in Spectrum: 1024
>>>>>Begin Spectral Data<<<<<
801.071	2891
801.214	2929
801.356	2872
801.499	2868
801.641	2887
801.783	2925
801.926	3032
802.068	2975
802.211	2998
802.353	3032
802.496	2937
802.638	2982
802.78	3032
802.923	3089
803.065	3009
803.208	2861
803.35	2918
803.492	2941
803.635	2971
803.777	2762
803.919	2842
804.061	3146
804.204	2933
804.346	2895
804.488	2842
804.63	2948
804.773	2861
804.915	2864
805.057	3066
805.199	2944
805.341	2975
805.483	3028
805.626	2979
805.768	2910
805.91	3066
806.052	3089
806.194	3028
806.336	3218
806.478	2998
806.62	2960
806.762	2960
806.904	3005
807.046	3169
807.188	2971
807.33	2887
807.472	2963
807.614	2937
807.756	2967
807.898	2899
808.04	2864
808.182	2960
808.324	2944
808.465	2861
808.607	2883
808.749	2842
808.891	2857
809.033	2948
809.174	2933
809.316	2887
809.458	2899
809.6	2792
809.741	2773
809.883	2773
810.025	2868
810.166	2857
810.308	2853
810.45	2883
810.591	2750
810.733	2781
810.875	2819
811.016	2750
811.158	2739
811.299	2781
811.441	2937
811.582	2899
811.724	2830
811.865	2853
812.007	2880
812.148	2883
812.29	2838
812.431	2853
812.573	2925
812.714	2941
812.855	3047
812.997	3036
813.138	3081
813.279	2986
813.421	2975
813.562	2998
813.703	2853
813.845	2929
813.986	2785
814.127	2708
814.268	2811
814.41	2838
814.551	2838
814.692	2883
814.833	2819
814.974	2914
815.115	2941
815.256	2811
815.397	2777
815.539	2887
815.68	2785
815.821	2792
815.962	2910
816.103	2933
816.244	2880
816.385	2853
816.526	2979
816.666	2941
816.807	2735
816.948	2902
817.089	2868
817.23	2845
817.371	2769
817.512	2800
817.653	2853
817.793	2811
817.934	2857
818.075	2956
818.216	3013
818.356	3032
818.497	2887
818.638	2796
818.778	2830
818.919	2735
819.06	2762
819.2	2876
819.341	2815
819.481	2815
819.622	2914
819.762	3119
819.903	3100
820.043	2922
820.184	2906
820.324	2880
820.465	2994
820.605	2994
820.746	3036
820.886	2925
821.026	3081
821.167	3127
821.307	3218
821.447	3272
821.588	3192
821.728	3207
821.868	3195
822.008	3085
822.149	3195
822.289	3218
822.429	3112
822.569	3108
822.709	3161
822.849	2979
822.99	3074
823.13	3154
823.27	3169
823.41	3104
823.55	3176
823.69	3154
823.83	3199
823.97	3112
824.11	2986
824.25	2956
824.389	3039
824.529	3093
824.669	3055
824.809	3237
824.949	3268
825.089	3218
825.228	3146
825.368	2982
825.508	2956
825.648	2975
825.787	2986
825.927	3001
826.067	2975
826.206	2937
826.346	3032
826.485	3066
826.625	3089
826.765	3260
826.904	3195
827.044	2979
827.183	2902
827.323	2853
827.462	2952
827.601	2910
827.741	2925
827.88	2944
828.02	2876
828.159	3001
828.298	3013
828.437	3119
828.577	3043
828.716	3245
828.855	3077
828.994	2918
829.134	2902
829.273	2895
829.412	2853
829.551	2849
829.69	2864
829.829	2971
829.968	3108
830.107	3024
830.246	2990
830.385	2918
830.524	2872
830.663	2823
830.802	2712
830.941	2640
831.08	2640
831.219	2758
831.357	2743
831.496	2944
831.635	2701
831.774	2651
831.913	2644
832.051	2552
832.19	2564
832.329	2686
832.467	2545
832.606	2492
832.744	2579
832.883	2549
833.022	2606
833.16	2659
833.299	2693
833.437	2682
833.576	2678
833.714	2697
833.852	2769
833.991	2769
834.129	2823
834.267	2815
834.406	2785
834.544	2861
834.682	2891
834.821	2838
834.959	3070
835.097	2891
835.235	3032
835.373	2990
835.511	3024
835.65	2967
835.788	2967
835.926	2849
836.064	2800
836.202	2819
836.34	3089
836.478	3112
836.615	3039
836.753	3097
836.891	3245
837.029	3169
837.167	3100
837.305	3093
837.443	3036
837.58	2979
837.718	3119
837.856	3058
837.993	2986
838.131	3108
838.269	3100
838.406	3100
838.544	3112
838.681	2918
838.819	2925
838.956	2788
839.094	2838
839.231	2880
839.369	2963
839.506	3370
839.643	3214
839.781	3020
839.918	2922
840.055	3047
840.193	3058
840.33	3036
840.467	3074
840.604	3161
840.742	3416
840.879	3062
841.016	3020
841.153	3093
841.29	3340
841.427	3283
841.564	3272
841.701	3260
841.838	3207
841.975	3180
842.112	3218
842.249	3058
842.385	3020
842.522	3222
842.659	3062
842.796	3070
842.933	3070
843.069	3001
843.206	3047
843.343	3165
843.479	3097
843.616	3108
843.752	2918
843.889	2853
844.025	3085
844.162	2902
844.298	3051
844.435	2956
844.571	2929
844.708	3089
844.844	3199
844.98	3264
845.117	3180
845.253	3013
845.389	2971
845.525	3097
845.661	3108
845.798	2994
845.934	3146
846.07	3055
846.206	3207
846.342	3268
846.478	3207
846.614	3127
846.75	3039
846.886	3013
847.022	3241
847.158	3085
847.294	3180
847.429	3230
847.565	3203
847.701	3496
847.837	3032
847.972	2986
848.108	3146
848.244	3142
848.379	2990
848.515	2922
848.65	2929
848.786	2963
848.921	3039
849.057	3066
849.192	3135
849.328	3039
849.463	3112
849.598	3058
849.734	3036
849.869	2952
850.004	2906
850.14	2952
850.275	2952
850.41	2842
850.545	2864
850.68	2918
850.815	2960
850.95	2941
851.085	3169
851.22	3135
851.355	3043
851.49	2986
851.625	3017
851.76	3024
851.895	2937
852.03	2899
852.165	3020
852.299	3123
852.434	3173
852.569	3142
852.703	3184
852.838	3256
852.973	3321
853.107	3302
853.242	3173
853.376	3081
853.511	2998
853.645	3043
853.78	3207
853.914	3112
854.048	3127
854.183	3085
854.317	3165
854.451	3302
854.585	3119
854.72	3112
854.854	3233
854.988	3013
855.122	3093
855.256	2967
855.39	3085
855.524	3226
855.658	3192
855.792	3161
855.926	3192
856.06	3188
856.194	3260
856.327	3142
856.461	3097
856.595	3074
856.729	3085
856.862	3211
856.996	3074
857.13	3169
857.263	3272
857.397	3268
857.53	3119
857.664	3184
857.797	3211
857.931	3272
858.064	3161
858.197	3207
858.331	3116
858.464	3058
858.597	2998
858.731	3097
858.864	3161
858.997	3062
859.13	3138
859.263	3146
859.396	3211
859.529	3104
859.662	3108
859.795	3062
859.928	3119
860.061	3260
860.194	3275
860.327	3142
860.46	3085
860.592	3268
860.725	3218
860.858	3279
860.99	3108
861.123	3074
861.256	3066
861.388	3119
861.521	3956
861.653	3043
861.786	2986
861.918	3013
862.05	3077
862.183	3085
862.315	3123
862.447	3211
862.58	3100
862.712	2906
862.844	2845
862.976	3028
863.108	2982
863.24	3306
863.372	2864
863.504	2914
863.636	2929
863.768	3013
863.9	2975
864.032	2929
864.164	2948
864.296	2998
864.428	3112
864.559	3097
864.691	3039
864.823	3062
864.954	3017
865.086	3055
865.217	2929
865.349	2944
865.48	2986
865.612	2990
865.743	3165
865.875	2998
866.006	2914
866.137	2956
866.269	2922
866.4	2967
866.531	2906
866.662	2891
866.793	2872
866.924	2925
867.055	2975
867.186	2952
867.317	2910
867.448	2853
867.579	2857
867.71	2857
867.841	2819
867.972	2899
868.103	2876
868.233	2853
868.364	2902
868.495	2883
868.625	3085
868.756	3199
868.886	3001
869.017	3047
869.147	3154
869.278	3173
869.408	3028
869.539	2998
869.669	3074
869.799	2998
869.929	3146
870.06	3097
870.19	3340
870.32	3230
870.45	3260
870.58	3378
870.71	3420
870.84	3447
870.97	3279
871.1	3264
871.23	3393
871.36	3447
871.489	3332
871.619	3374
871.749	3409
871.879	3443
872.008	3462
872.138	3359
872.267	3287
872.397	3161
872.526	3081
872.656	2998
872.785	3062
872.915	3207
873.044	3329
873.173	3207
873.303	3287
873.432	3260
873.561	3264
873.69	3146
873.819	3104
873.948	3192
874.077	3093
874.206	3051
874.335	3058
874.464	3249
874.593	3306
874.722	3253
874.851	3389
874.979	3359
875.108	3302
875.237	3169
875.365	3157
875.494	3165
875.623	3253
875.751	3077
875.88	3135
876.008	3184
876.136	3195
876.265	3317
876.393	3515
876.521	3443
876.65	3374
876.778	3355
876.906	3211
877.034	3207
877.162	3203
877.29	3154
877.418	3260
877.546	3237
877.674	3249
877.802	3233
877.93	3203
878.058	3138
878.185	3100
878.313	3199
878.441	3222
878.568	3039
878.696	3135
878.824	3256
878.951	3256
879.079	3424
879.206	3637
879.333	3435
879.461	3317
879.588	3348
879.715	3507
879.842	3584
879.97	3397
880.097	3150
880.224	3123
880.351	3188
880.478	3241
880.605	3165
880.732	3199
880.859	3462
880.986	3298
881.112	3344
881.239	3165
881.366	3093
881.493	3058
881.619	3028
881.746	3089
881.872	3104
881.999	3100
882.125	3138
882.252	3226
882.378	3287
882.505	3405
882.631	3249
882.757	3135
882.883	3203
883.01	3230
883.136	3180
883.262	3066
883.388	3081
883.514	3340
883.64	3382
883.766	3298
883.892	3188
884.018	3249
884.143	3424
884.269	3534
884.395	3195
884.52	3157
884.646	3192
884.772	3085
884.897	3112
885.023	3184
885.148	3329
885.274	3409
885.399	3340
885.524	3310
885.65	3264
885.775	3348
885.9	3245
886.025	3431
886.15	3351
886.275	3313
886.4	3249
886.525	3313
886.65	3249
886.775	3264
886.9	3477
887.025	3622
887.149	3367
887.274	3264
887.399	3161
887.523	3146
887.648	3176
887.773	3188
887.897	3393
888.021	3412
888.146	3310
888.27	3435
888.395	3507
888.519	3378
888.643	3428
888.767	3466
888.891	3287
889.015	3249
889.139	3298
889.263	3256
889.387	3401
889.511	3488
889.635	3431
889.759	3249
889.883	3294
890.006	3359
890.13	3454
890.254	3249
890.377	3313
890.501	3214
890.624	3222
890.748	3302
890.871	3192
890.995	3093
891.118	3051
891.241	3165
891.364	3233
891.488	3325
891.611	3169
891.734	3226
891.857	3275
891.98	3237
892.103	3355
892.226	3306
892.349	3241
892.471	3066
892.594	3233
892.717	3279
892.839	3237
892.962	3321
893.085	3351
893.207	3287
893.33	3165
893.452	3184
893.575	3355
893.697	3233
893.819	3454
893.941	3526
894.064	3458
894.186	3291
894.308	3264
894.43	3431
894.552	3523
894.674	3500
894.796	3272
894.918	3294
895.04	3317
895.161	3397
895.283	3374
895.405	3283
895.526	3393
895.648	3431
895.769	3405
895.891	3428
896.012	3439
896.134	3454
896.255	3378
896.376	3367
896.498	3313
896.619	3462
896.74	3355
896.861	3397
896.982	3679
897.103	3842
897.224	3557
897.345	3526
897.466	3416
897.587	3500
897.708	3652
897.828	3526
897.949	3420
898.07	3325
898.19	3428
898.311	3610
898.431	3420
898.552	3523
898.672	3595
898.792	3561
898.913	3526
899.033	3416
899.153	3279
899.273	3199
899.393	3264
899.513	3272
899.633	3310
899.753	3340
899.873	3321
899.993	3401
900.113	3287
900.232	3401
900.352	3321
900.472	3302
900.591	3218
900.711	3294
900.83	3203
900.95	3431
901.069	3538
901.189	3344
901.308	3165
901.427	3142
901.546	3161
901.665	3253
901.784	3344
901.904	3173
902.023	3123
902.141	2998
902.26	2975
902.379	3123
902.498	3039
902.617	3047
902.735	3192
902.854	3211
902.973	3241
903.091	3039
903.21	3020
903.328	3146
903.446	3097
903.565	3089
903.683	3176
903.801	3127
903.919	3272
904.038	3321
904.156	3192
904.274	3245
904.392	3253
904.51	3321
904.627	3325
904.745	3435
904.863	3473
904.981	3222
905.098	3184
905.216	3233
905.334	3253
905.451	3310
905.569	3302
905.686	3409
905.803	3428
905.921	3268
906.038	3397
906.155	3340
906.272	3222
906.389	3336
906.506	3222
906.623	3260
906.74	3268
906.857	3138
906.974	3233
907.091	3416
907.208	3564
907.324	3488
907.441	3363
907.557	3222
907.674	3214
907.79	3188
907.907	3268
908.023	3351
908.139	3374
908.256	3336
908.372	3363
908.488	3336
908.604	3275
908.72	3226
908.836	3321
908.952	3256
909.068	3344
909.184	3492
909.3	3374
909.415	3485
909.531	3435
909.647	3279
909.762	3310
909.878	3291
909.993	3336
910.108	3348
910.224	3317
910.339	3420
910.454	3325
910.57	3253
910.685	3218
910.8	3606
910.915	3526
911.03	3443
911.145	3291
911.259	3237
911.374	3272
911.489	3214
911.604	3260
911.718	3119
911.833	3131
911.947	3017
912.062	3020
912.176	3154
912.291	3188
912.405	3207
912.519	3416
912.633	3447
912.748	3355
912.862	3256
912.976	3192
913.09	3062
913.204	3131
913.318	3245
913.431	3370
913.545	3336
913.659	3454
913.772	3317
913.886	3233
914	3211
914.113	3329
914.226	3389
914.34	3363
914.453	3184
914.566	3374
914.68	3272
914.793	3310
914.906	3150
915.019	3123
915.132	3070
915.245	3173
915.358	3207
915.47	3188
915.583	3264
915.696	3272
915.809	3386
915.921	3405
916.034	3287
916.146	3226
916.259	3214
916.371	3367
916.483	3378
916.595	3294
916.708	3325
916.82	3302
916.932	3344
917.044	3310
917.156	3348
917.268	3256
917.38	3287
917.491	3294
917.603	3378
917.715	3447
917.826	3466
917.938	3302
918.049	3268
918.161	3401
918.272	3591
918.384	3587
918.495	3477
918.606	3340
918.717	3249
918.828	3393
918.939	3424
919.05	3249
919.161	3351
919.272	3150
919.383	3272
919.494	3507
919.604	3686
919.715	3492
919.826	3412
919.936	3450
920.047	3610
920.157	3553
920.267	3793
920.378	3587
920.488	3564
920.598	3766
920.708	3934
920.818	3861
920.928	3800
921.038	4021
921.148	3975
921.258	3713
921.368	3625
921.477	3564
921.587	3530
921.697	3428
921.806	3633
921.916	3557
922.025	3355
922.134	3401
922.244	3336
922.353	3420
922.462	3302
922.571	3233
922.68	3081
922.789	3039
922.898	3108
923.007	3066
923.116	3154
923.224	3169
923.333	3184
923.442	3085
923.55	3100
923.659	3138
923.767	3184
923.876	3116
923.984	3214
924.092	3112
924.201	3173
924.309	3226
924.417	3249
924.525	3214
924.633	3237
924.741	3994
924.849	3085
924.956	3272
925.064	3081
925.172	3024
925.279	3112
925.387	3199
925.494	3192
925.602	3348
925.709	3355
925.816	3184
925.924	3268
926.031	3359
926.138	3306
926.245	3382
926.352	3226
926.459	3397
926.566	3447
926.673	3321
926.779	3260
926.886	3226
926.993	3131
927.099	3097
927.206	3157
927.312	3119
927.419	3241
927.525	3188
927.631	3245
927.737	3157
927.843	3119
927.95	3058
928.056	3157
928.162	3176
928.267	3253
928.373	3789
928.479	3291
928.585	3066
928.69	3203
928.796	3264
928.901	3146
929.007	3051
929.112	3226
929.218	3150
929.323	3135
929.428	3165
929.533	3321
929.638	3138
929.743	3169
929.848	3253
929.953	3195
930.058	3142
930.163	2960
930.267	3039
930.372	3169
930.477	3036
930.581	3310
930.685	3176
930.79	3066
930.894	3051
930.998	3093
931.103	3302
931.207	2948
931.311	2986
931.415	2937
931.519	2777
931.623	2819
