Data from test_V78500241_1623.txt Node
Date: Fri Mar 25 16:26:26 CST 2022
User: usil
Spectrometer: V785-0024
Trigger mode: 0
Integration Time (sec): 4.000000E-1
Scans to average: 1
Nonlinearity correction enabled: false
Boxcar width: 0
Storing dark spectrum: false
XAxis mode: Wavelengths
Number of Pixels in Spectrum: 1024
>>>>>Begin Spectral Data<<<<<
801.071	2899
801.214	2941
801.356	2872
801.499	2864
801.641	2895
801.783	2929
801.926	3077
802.068	2971
802.211	2963
802.353	3009
802.496	2933
802.638	3005
802.78	3032
802.923	3070
803.065	3009
803.208	2922
803.35	2895
803.492	2887
803.635	2925
803.777	2754
803.919	2872
804.061	3222
804.204	2948
804.346	2895
804.488	2819
804.63	3005
804.773	2880
804.915	2914
805.057	3066
805.199	2891
805.341	2960
805.483	3032
805.626	2979
805.768	2933
805.91	3104
806.052	3116
806.194	3039
806.336	3226
806.478	3028
806.62	2925
806.762	2963
806.904	3062
807.046	3135
807.188	2986
807.33	2941
807.472	2944
807.614	2902
807.756	2986
807.898	2925
808.04	2906
808.182	2990
808.324	2960
808.465	2902
808.607	2883
808.749	2788
808.891	2864
809.033	2933
809.174	2963
809.316	2861
809.458	2880
809.6	2796
809.741	2716
809.883	2773
810.025	2830
810.166	2830
810.308	2823
810.45	2845
810.591	2773
810.733	2758
810.875	2796
811.016	2792
811.158	2777
811.299	2781
811.441	2902
811.582	2883
811.724	2811
811.865	2864
812.007	2902
812.148	2853
812.29	2876
812.431	2887
812.573	2895
812.714	2979
812.855	3051
812.997	3024
813.138	3104
813.279	2979
813.421	2948
813.562	2960
813.703	2929
813.845	2887
813.986	2811
814.127	2724
814.268	2815
814.41	2830
814.551	2796
814.692	2842
814.833	2800
814.974	2891
815.115	2941
815.256	2823
815.397	2811
815.539	2876
815.68	2792
815.821	2815
815.962	2941
816.103	2910
816.244	2861
816.385	2838
816.526	2948
816.666	2910
816.807	2743
816.948	2883
817.089	2914
817.23	2849
817.371	2758
817.512	2785
817.653	2823
817.793	2849
817.934	2857
818.075	2979
818.216	2990
818.356	3028
818.497	2864
818.638	2766
818.778	2834
818.919	2811
819.06	2758
819.2	2883
819.341	2777
819.481	2804
819.622	2914
819.762	3070
819.903	3055
820.043	2895
820.184	2845
820.324	2868
820.465	3001
820.605	3058
820.746	3013
820.886	2918
821.026	3070
821.167	3123
821.307	3230
821.447	3260
821.588	3230
821.728	3214
821.868	3203
822.008	3085
822.149	3146
822.289	3222
822.429	3093
822.569	3116
822.709	3165
822.849	2982
822.99	3070
823.13	3161
823.27	3199
823.41	3085
823.55	3157
823.69	3131
823.83	3188
823.97	3058
824.11	2960
824.25	2998
824.389	3070
824.529	3116
824.669	3070
824.809	3165
824.949	3268
825.089	3203
825.228	3157
825.368	3009
825.508	2937
825.648	2963
825.787	2971
825.927	2998
826.067	2944
826.206	2925
826.346	3062
826.485	3047
826.625	3097
826.765	3260
826.904	3169
827.044	2967
827.183	2963
827.323	2849
827.462	2933
827.601	2895
827.741	2891
827.88	2956
828.02	2830
828.159	2960
828.298	3028
828.437	3070
828.577	3039
828.716	3154
828.855	3100
828.994	2914
829.134	2868
829.273	2944
829.412	2872
829.551	2861
829.69	2868
829.829	2971
829.968	3104
830.107	3024
830.246	3024
830.385	2895
830.524	2868
830.663	2826
830.802	2708
830.941	2629
831.08	2663
831.219	2773
831.357	2769
831.496	2944
831.635	2716
831.774	2640
831.913	2644
832.051	2533
832.19	2590
832.329	2667
832.467	2549
832.606	2484
832.744	2568
832.883	2583
833.022	2575
833.16	2629
833.299	2682
833.437	2678
833.576	2720
833.714	2720
833.852	2724
833.991	2777
834.129	2857
834.267	2830
834.406	2746
834.544	2872
834.682	2872
834.821	2849
834.959	3055
835.097	2887
835.235	3062
835.373	2967
835.511	3001
835.65	2986
835.788	2956
835.926	2838
836.064	2796
836.202	2823
836.34	3081
836.478	3154
836.615	3036
836.753	3112
836.891	3214
837.029	3157
837.167	3108
837.305	3074
837.443	3047
837.58	2975
837.718	3127
837.856	3051
837.993	3039
838.131	3123
838.269	3093
838.406	3093
838.544	3047
838.681	2937
838.819	2887
838.956	2800
839.094	2792
839.231	2925
839.369	3009
839.506	3382
839.643	3218
839.781	3009
839.918	2956
840.055	3039
840.193	3024
840.33	3028
840.467	3081
840.604	3161
840.742	3367
840.879	3047
841.016	3055
841.153	3104
841.29	3336
841.427	3310
841.564	3283
841.701	3329
841.838	3211
841.975	3184
842.112	3188
842.249	3070
842.385	3032
842.522	3268
842.659	3055
842.796	3066
842.933	3089
843.069	3058
843.206	3020
843.343	3173
843.479	3123
843.616	3093
843.752	2868
843.889	2864
844.025	3100
844.162	2876
844.298	3097
844.435	2952
844.571	2933
844.708	3047
844.844	3222
844.98	3203
845.117	3192
845.253	3066
845.389	2948
845.525	3074
845.661	3097
845.798	3013
845.934	3127
846.07	3032
846.206	3176
846.342	3302
846.478	3218
846.614	3089
846.75	3039
846.886	3058
847.022	3268
847.158	3123
847.294	3207
847.429	3226
847.565	3245
847.701	3477
847.837	3032
847.972	2967
848.108	3161
848.244	3108
848.379	3001
848.515	2941
848.65	2910
848.786	3005
848.921	3005
849.057	3112
849.192	3131
849.328	3093
849.463	3089
849.598	3017
849.734	3047
849.869	2937
850.004	2883
850.14	2963
850.275	2902
850.41	2807
850.545	2864
850.68	2929
850.815	2944
850.95	2975
851.085	3146
851.22	3116
851.355	3020
851.49	3005
851.625	3001
851.76	2982
851.895	2922
852.03	2914
852.165	3047
852.299	3074
852.434	3161
852.569	3119
852.703	3154
852.838	3199
852.973	3340
853.107	3287
853.242	3123
853.376	3070
853.511	2967
853.645	3001
853.78	3192
853.914	3119
854.048	3142
854.183	3085
854.317	3131
854.451	3291
854.585	3142
854.72	3112
854.854	3180
854.988	3028
855.122	3055
855.256	2971
855.39	3100
855.524	3214
855.658	3188
855.792	3131
855.926	3142
856.06	3218
856.194	3260
856.327	3135
856.461	3100
856.595	3085
856.729	3066
856.862	3222
856.996	3165
857.13	3214
857.263	3207
857.397	3268
857.53	3142
857.664	3192
857.797	3245
857.931	3268
858.064	3154
858.197	3207
858.331	3142
858.464	3093
858.597	2986
858.731	3100
858.864	3119
858.997	3093
859.13	3127
859.263	3199
859.396	3192
859.529	3089
859.662	3070
859.795	3032
859.928	3135
860.061	3291
860.194	3325
860.327	3135
860.46	3089
860.592	3249
860.725	3222
860.858	3275
860.99	3089
861.123	3058
861.256	3039
861.388	3161
861.521	3827
861.653	3013
861.786	2967
861.918	3017
862.05	3081
862.183	3085
862.315	3150
862.447	3230
862.58	3066
862.712	2960
862.844	2864
862.976	3024
863.108	2971
863.24	3302
863.372	2838
863.504	2941
863.636	2914
863.768	2998
863.9	2975
864.032	2891
864.164	2948
864.296	2994
864.428	3074
864.559	3108
864.691	3070
864.823	3058
864.954	3005
865.086	3039
865.217	2967
865.349	2910
865.48	2986
865.612	3036
865.743	3116
865.875	2948
866.006	2941
866.137	2986
866.269	2979
866.4	2941
866.531	2925
866.662	2842
866.793	2910
866.924	2902
867.055	2941
867.186	2914
867.317	2861
867.448	2815
867.579	2838
867.71	2845
867.841	2785
867.972	2902
868.103	2891
868.233	2864
868.364	2883
868.495	2906
868.625	3085
868.756	3203
868.886	2941
869.017	3005
869.147	3169
869.278	3188
869.408	3043
869.539	3039
869.669	3097
869.799	3020
869.929	3100
870.06	3112
870.19	3348
870.32	3279
870.45	3279
870.58	3374
870.71	3401
870.84	3469
870.97	3260
871.1	3226
871.23	3466
871.36	3466
871.489	3355
871.619	3412
871.749	3389
871.879	3397
872.008	3462
872.138	3382
872.267	3245
872.397	3119
872.526	3085
872.656	3013
872.785	3074
872.915	3203
873.044	3283
873.173	3226
873.303	3245
873.432	3233
873.561	3233
873.69	3135
873.819	3100
873.948	3233
874.077	3127
874.206	3070
874.335	3077
874.464	3169
874.593	3291
874.722	3283
874.851	3420
874.979	3363
875.108	3298
875.237	3214
875.365	3165
875.494	3192
875.623	3226
875.751	3104
875.88	3112
876.008	3176
876.136	3241
876.265	3367
876.393	3466
876.521	3401
876.65	3363
876.778	3367
876.906	3241
877.034	3184
877.162	3249
877.29	3169
877.418	3241
877.546	3249
877.674	3241
877.802	3211
877.93	3218
878.058	3154
878.185	3070
878.313	3176
878.441	3207
878.568	3085
878.696	3135
878.824	3214
878.951	3298
879.079	3424
879.206	3595
879.333	3401
879.461	3313
879.588	3329
879.715	3496
879.842	3591
879.97	3389
880.097	3154
880.224	3138
880.351	3176
880.478	3176
880.605	3188
880.732	3176
880.859	3485
880.986	3317
881.112	3291
881.239	3199
881.366	3085
881.493	3020
881.619	3024
881.746	3051
881.872	3097
881.999	3085
882.125	3127
882.252	3237
882.378	3287
882.505	3462
882.631	3264
882.757	3135
882.883	3230
883.01	3211
883.136	3184
883.262	3074
883.388	3093
883.514	3332
883.64	3329
883.766	3302
883.892	3173
884.018	3275
884.143	3386
884.269	3542
884.395	3226
884.52	3146
884.646	3188
884.772	3119
884.897	3074
885.023	3211
885.148	3336
885.274	3412
885.399	3336
885.524	3306
885.65	3264
885.775	3294
885.9	3302
886.025	3405
886.15	3378
886.275	3264
886.4	3207
886.525	3313
886.65	3283
886.775	3298
886.9	3519
887.025	3644
887.149	3382
887.274	3283
887.399	3195
887.523	3173
887.648	3176
887.773	3188
887.897	3351
888.021	3382
888.146	3291
888.27	3386
888.395	3523
888.519	3401
888.643	3473
888.767	3431
888.891	3302
889.015	3199
889.139	3237
889.263	3249
889.387	3412
889.511	3466
889.635	3450
889.759	3291
889.883	3233
890.006	3367
890.13	3462
890.254	3268
890.377	3351
890.501	3218
890.624	3154
890.748	3283
890.871	3180
890.995	3112
891.118	3036
891.241	3192
891.364	3207
891.488	3298
891.611	3199
891.734	3233
891.857	3264
891.98	3241
892.103	3332
892.226	3230
892.349	3195
892.471	3108
892.594	3241
892.717	3245
892.839	3279
892.962	3272
893.085	3355
893.207	3279
893.33	3138
893.452	3161
893.575	3355
893.697	3207
893.819	3504
893.941	3504
894.064	3450
894.186	3298
894.308	3268
894.43	3420
894.552	3500
894.674	3443
894.796	3256
894.918	3268
895.04	3279
895.161	3443
895.283	3424
895.405	3302
895.526	3363
895.648	3439
895.769	3424
895.891	3435
896.012	3481
896.134	3458
896.255	3416
896.376	3374
896.498	3351
896.619	3416
896.74	3344
896.861	3397
896.982	3633
897.103	3827
897.224	3568
897.345	3507
897.466	3420
897.587	3481
897.708	3603
897.828	3530
897.949	3420
898.07	3310
898.19	3409
898.311	3625
898.431	3431
898.552	3496
898.672	3618
898.792	3549
898.913	3515
899.033	3397
899.153	3283
899.273	3173
899.393	3294
899.513	3294
899.633	3287
899.753	3298
899.873	3359
899.993	3363
900.113	3321
900.232	3351
900.352	3313
900.472	3253
900.591	3203
900.711	3279
900.83	3245
900.95	3386
901.069	3511
901.189	3351
901.308	3150
901.427	3161
901.546	3226
901.665	3256
901.784	3344
901.904	3176
902.023	3142
902.141	3032
902.26	3001
902.379	3157
902.498	3070
902.617	3085
902.735	3180
902.854	3207
902.973	3169
903.091	3093
903.21	3097
903.328	3112
903.446	3081
903.565	3108
903.683	3192
903.801	3131
903.919	3188
904.038	3325
904.156	3146
904.274	3268
904.392	3230
904.51	3313
904.627	3348
904.745	3439
904.863	3447
904.981	3279
905.098	3138
905.216	3218
905.334	3256
905.451	3268
905.569	3298
905.686	3405
905.803	3397
905.921	3279
906.038	3428
906.155	3359
906.272	3272
906.389	3313
906.506	3203
906.623	3249
906.74	3260
906.857	3169
906.974	3241
907.091	3431
907.208	3580
907.324	3485
907.441	3351
907.557	3237
907.674	3214
907.79	3161
907.907	3279
908.023	3389
908.139	3321
908.256	3317
908.372	3397
908.488	3359
908.604	3256
908.72	3199
908.836	3237
908.952	3272
909.068	3325
909.184	3420
909.3	3332
909.415	3492
909.531	3443
909.647	3214
909.762	3287
909.878	3245
909.993	3332
910.108	3336
910.224	3344
910.339	3420
910.454	3287
910.57	3310
910.685	3226
910.8	3603
910.915	3549
911.03	3397
911.145	3256
911.259	3275
911.374	3336
911.489	3256
911.604	3241
911.718	3108
911.833	3157
911.947	3013
912.062	2982
912.176	3142
912.291	3195
912.405	3180
912.519	3420
912.633	3412
912.748	3313
912.862	3279
912.976	3184
913.09	3081
913.204	3154
913.318	3222
913.431	3344
913.545	3336
913.659	3443
913.772	3351
913.886	3192
914	3173
914.113	3355
914.226	3393
914.34	3378
914.453	3233
914.566	3397
914.68	3287
914.793	3313
914.906	3165
915.019	3123
915.132	3051
915.245	3161
915.358	3241
915.47	3268
915.583	3306
915.696	3321
915.809	3401
915.921	3447
916.034	3294
916.146	3302
916.259	3253
916.371	3389
916.483	3393
916.595	3298
916.708	3355
916.82	3363
916.932	3412
917.044	3348
917.156	3351
917.268	3260
917.38	3348
917.491	3340
917.603	3393
917.715	3458
917.826	3500
917.938	3393
918.049	3256
918.161	3488
918.272	3591
918.384	3637
918.495	3542
918.606	3386
918.717	3321
918.828	3428
918.939	3477
919.05	3355
919.161	3428
919.272	3268
919.383	3351
919.494	3545
919.604	3728
919.715	3515
919.826	3519
919.936	3523
920.047	3606
920.157	3591
920.267	3789
920.378	3679
920.488	3576
920.598	3819
920.708	4017
920.818	3819
920.928	3846
921.038	4063
921.148	4029
921.258	3720
921.368	3671
921.477	3656
921.587	3595
921.697	3530
921.806	3671
921.916	3542
922.025	3428
922.134	3389
922.244	3336
922.353	3477
922.462	3294
922.571	3237
922.68	3165
922.789	3089
922.898	3161
923.007	3089
923.116	3237
923.224	3195
923.333	3260
923.442	3188
923.55	3093
923.659	3169
923.767	3203
923.876	3154
923.984	3260
924.092	3154
924.201	3207
924.309	3260
924.417	3321
924.525	3192
924.633	3214
924.741	4227
924.849	3077
924.956	3310
925.064	3127
925.172	3097
925.279	3127
925.387	3233
925.494	3233
925.602	3393
925.709	3348
925.816	3245
925.924	3329
926.031	3397
926.138	3363
926.245	3389
926.352	3268
926.459	3428
926.566	3477
926.673	3329
926.779	3294
926.886	3302
926.993	3180
927.099	3180
927.206	3119
927.312	3157
927.419	3203
927.525	3241
927.631	3275
927.737	3165
927.843	3192
927.95	3036
928.056	3192
928.162	3237
928.267	3237
928.373	3949
928.479	3317
928.585	3089
928.69	3233
928.796	3298
928.901	3176
929.007	3066
929.112	3226
929.218	3184
929.323	3180
929.428	3173
929.533	3332
929.638	3176
929.743	3230
929.848	3302
929.953	3218
930.058	3192
930.163	3024
930.267	3081
930.372	3230
930.477	3058
930.581	3363
930.685	3230
930.79	3089
930.894	3150
930.998	3100
931.103	3336
931.207	2990
931.311	2941
931.415	2933
931.519	2800
931.623	2857
