Data from test_V78500241_1745.txt Node
Date: Fri Mar 25 16:27:17 CST 2022
User: usil
Spectrometer: V785-0024
Trigger mode: 0
Integration Time (sec): 4.000000E-1
Scans to average: 1
Nonlinearity correction enabled: false
Boxcar width: 0
Storing dark spectrum: false
XAxis mode: Wavelengths
Number of Pixels in Spectrum: 1024
>>>>>Begin Spectral Data<<<<<
801.071	2876
801.214	2933
801.356	2876
801.499	2895
801.641	2853
801.783	2914
801.926	3039
802.068	2982
802.211	2994
802.353	3024
802.496	2944
802.638	3005
802.78	3017
802.923	3085
803.065	3013
803.208	2895
803.35	2925
803.492	2925
803.635	2963
803.777	2769
803.919	2872
804.061	3195
804.204	2948
804.346	2845
804.488	2857
804.63	2929
804.773	2876
804.915	2937
805.057	3108
805.199	2925
805.341	2963
805.483	3024
805.626	3024
805.768	2922
805.91	3047
806.052	3116
806.194	3013
806.336	3230
806.478	3017
806.62	2922
806.762	2948
806.904	3039
807.046	3165
807.188	2990
807.33	2891
807.472	2952
807.614	2891
807.756	2967
807.898	2933
808.04	2891
808.182	2944
808.324	2948
808.465	2872
808.607	2830
808.749	2758
808.891	2819
809.033	2975
809.174	2956
809.316	2845
809.458	2887
809.6	2769
809.741	2781
809.883	2750
810.025	2845
810.166	2830
810.308	2826
810.45	2815
810.591	2785
810.733	2716
810.875	2834
811.016	2804
811.158	2769
811.299	2796
811.441	2895
811.582	2891
811.724	2830
811.865	2853
812.007	2887
812.148	2864
812.29	2823
812.431	2857
812.573	2944
812.714	2960
812.855	3032
812.997	3055
813.138	3127
813.279	3013
813.421	2975
813.562	2963
813.703	2842
813.845	2891
813.986	2773
814.127	2720
814.268	2788
814.41	2819
814.551	2823
814.692	2883
814.833	2769
814.974	2849
815.115	2967
815.256	2834
815.397	2796
815.539	2842
815.68	2792
815.821	2826
815.962	2933
816.103	2944
816.244	2861
816.385	2864
816.526	2941
816.666	2906
816.807	2739
816.948	2872
817.089	2914
817.23	2857
817.371	2785
817.512	2792
817.653	2891
817.793	2834
817.934	2883
818.075	2986
818.216	2956
818.356	2998
818.497	2872
818.638	2758
818.778	2823
818.919	2777
819.06	2781
819.2	2864
819.341	2804
819.481	2804
819.622	2922
819.762	3089
819.903	3043
820.043	2895
820.184	2929
820.324	2868
820.465	3032
820.605	3039
820.746	3020
820.886	2914
821.026	3119
821.167	3176
821.307	3272
821.447	3294
821.588	3287
821.728	3188
821.868	3184
822.008	3047
822.149	3176
822.289	3214
822.429	3097
822.569	3123
822.709	3154
822.849	3005
822.99	3085
823.13	3127
823.27	3199
823.41	3081
823.55	3165
823.69	3142
823.83	3188
823.97	3089
824.11	2982
824.25	2982
824.389	3097
824.529	3116
824.669	3108
824.809	3180
824.949	3260
825.089	3214
825.228	3146
825.368	3036
825.508	2986
825.648	2979
825.787	2986
825.927	3036
826.067	2986
826.206	2956
826.346	3036
826.485	3062
826.625	3081
826.765	3237
826.904	3207
827.044	2979
827.183	2914
827.323	2864
827.462	2967
827.601	2880
827.741	2925
827.88	2956
828.02	2868
828.159	2941
828.298	3017
828.437	3146
828.577	3058
828.716	3245
828.855	3074
828.994	2906
829.134	2887
829.273	2887
829.412	2826
829.551	2861
829.69	2876
829.829	2979
829.968	3081
830.107	3017
830.246	3013
830.385	2891
830.524	2883
830.663	2845
830.802	2766
830.941	2644
831.08	2613
831.219	2743
831.357	2754
831.496	2967
831.635	2689
831.774	2659
831.913	2625
832.051	2530
832.19	2549
832.329	2663
832.467	2507
832.606	2473
832.744	2568
832.883	2617
833.022	2602
833.16	2640
833.299	2667
833.437	2716
833.576	2705
833.714	2735
833.852	2705
833.991	2766
834.129	2853
834.267	2811
834.406	2750
834.544	2868
834.682	2899
834.821	2857
834.959	3039
835.097	2922
835.235	3028
835.373	3009
835.511	3055
835.65	2956
835.788	2971
835.926	2834
836.064	2788
836.202	2857
836.34	3066
836.478	3157
836.615	3017
836.753	3173
836.891	3176
837.029	3131
837.167	3081
837.305	3039
837.443	2998
837.58	2960
837.718	3123
837.856	3058
837.993	3032
838.131	3154
838.269	3100
838.406	3104
838.544	3077
838.681	2963
838.819	2880
838.956	2811
839.094	2800
839.231	2902
839.369	2986
839.506	3389
839.643	3192
839.781	2994
839.918	2971
840.055	3032
840.193	3043
840.33	3043
840.467	3058
840.604	3195
840.742	3412
840.879	3036
841.016	3028
841.153	3058
841.29	3336
841.427	3325
841.564	3256
841.701	3317
841.838	3176
841.975	3142
842.112	3222
842.249	3070
842.385	3036
842.522	3245
842.659	3112
842.796	3077
842.933	3081
843.069	3001
843.206	3039
843.343	3184
843.479	3116
843.616	3154
843.752	2883
843.889	2868
844.025	3089
844.162	2864
844.298	3058
844.435	2925
844.571	2902
844.708	3047
844.844	3176
844.98	3230
845.117	3218
845.253	3009
845.389	3036
845.525	3104
845.661	3135
845.798	3013
845.934	3055
846.07	3055
846.206	3199
846.342	3325
846.478	3207
846.614	3097
846.75	3047
846.886	3032
847.022	3275
847.158	3131
847.294	3184
847.429	3256
847.565	3195
847.701	3443
847.837	3062
847.972	2956
848.108	3157
848.244	3119
848.379	2986
848.515	2922
848.65	2906
848.786	2960
848.921	3013
849.057	3077
849.192	3127
849.328	3077
849.463	3123
849.598	3043
849.734	3032
849.869	2971
850.004	2906
850.14	2948
850.275	2891
850.41	2807
850.545	2902
850.68	2914
850.815	2941
850.95	2994
851.085	3199
851.22	3108
851.355	3020
851.49	2963
851.625	3001
851.76	3039
851.895	2963
852.03	2910
852.165	3055
852.299	3097
852.434	3161
852.569	3116
852.703	3169
852.838	3256
852.973	3310
853.107	3313
853.242	3142
853.376	3062
853.511	2998
853.645	3013
853.78	3256
853.914	3150
854.048	3093
854.183	3116
854.317	3154
854.451	3272
854.585	3150
854.72	3051
854.854	3180
854.988	3009
855.122	3089
855.256	2948
855.39	3116
855.524	3230
855.658	3180
855.792	3123
855.926	3154
856.06	3192
856.194	3241
856.327	3135
856.461	3051
856.595	3089
856.729	3070
856.862	3211
856.996	3112
857.13	3214
857.263	3233
857.397	3268
857.53	3112
857.664	3165
857.797	3195
857.931	3226
858.064	3146
858.197	3169
858.331	3104
858.464	3093
858.597	2956
858.731	3127
858.864	3161
858.997	3062
859.13	3157
859.263	3173
859.396	3169
859.529	3089
859.662	3070
859.795	3036
859.928	3135
860.061	3256
860.194	3249
860.327	3127
860.46	3081
860.592	3256
860.725	3188
860.858	3241
860.99	3070
861.123	3032
861.256	3062
861.388	3138
861.521	4002
861.653	2979
861.786	2944
861.918	2967
862.05	3051
862.183	3081
862.315	3150
862.447	3192
862.58	3116
862.712	2941
862.844	2891
862.976	2990
863.108	2986
863.24	3313
863.372	2876
863.504	2986
863.636	2941
863.768	3024
863.9	2944
864.032	2906
864.164	2929
864.296	3001
864.428	3066
864.559	3131
864.691	3119
864.823	3070
864.954	3055
865.086	3039
865.217	2971
865.349	2933
865.48	3001
865.612	3039
865.743	3150
865.875	3009
866.006	2941
866.137	2952
866.269	2922
866.4	2918
866.531	2929
866.662	2918
866.793	2902
866.924	2864
867.055	2941
867.186	2956
867.317	2899
867.448	2845
867.579	2823
867.71	2826
867.841	2838
867.972	2910
868.103	2861
868.233	2853
868.364	2876
868.495	2937
868.625	3104
868.756	3154
868.886	2929
869.017	2998
869.147	3188
869.278	3154
869.408	3020
869.539	3009
869.669	3085
869.799	3028
869.929	3135
870.06	3112
870.19	3336
870.32	3241
870.45	3287
870.58	3355
870.71	3431
870.84	3504
870.97	3291
871.1	3230
871.23	3469
871.36	3477
871.489	3351
871.619	3412
871.749	3405
871.879	3447
872.008	3496
872.138	3355
872.267	3268
872.397	3188
872.526	3104
872.656	3005
872.785	3081
872.915	3264
873.044	3329
873.173	3222
873.303	3233
873.432	3260
873.561	3245
873.69	3169
873.819	3119
873.948	3195
874.077	3116
874.206	3024
874.335	3112
874.464	3207
874.593	3249
874.722	3233
874.851	3386
874.979	3344
875.108	3279
875.237	3173
875.365	3138
875.494	3104
875.623	3260
875.751	3066
875.88	3131
876.008	3173
876.136	3203
876.265	3355
876.393	3523
876.521	3443
876.65	3378
876.778	3329
876.906	3253
877.034	3222
877.162	3199
877.29	3214
877.418	3233
877.546	3279
877.674	3230
877.802	3245
877.93	3211
878.058	3161
878.185	3077
878.313	3211
878.441	3165
878.568	3077
878.696	3169
878.824	3237
878.951	3306
879.079	3424
879.206	3591
879.333	3443
879.461	3260
879.588	3332
879.715	3523
879.842	3564
879.97	3367
880.097	3180
880.224	3104
880.351	3173
880.478	3184
880.605	3226
880.732	3176
880.859	3545
880.986	3321
881.112	3317
881.239	3226
881.366	3112
881.493	3001
881.619	3024
881.746	3077
881.872	3089
881.999	3066
882.125	3119
882.252	3256
882.378	3279
882.505	3386
882.631	3283
882.757	3097
882.883	3169
883.01	3222
883.136	3192
883.262	3070
883.388	3058
883.514	3283
883.64	3351
883.766	3306
883.892	3184
884.018	3214
884.143	3389
884.269	3549
884.395	3207
884.52	3154
884.646	3169
884.772	3161
884.897	3085
885.023	3180
885.148	3321
885.274	3443
885.399	3344
885.524	3279
885.65	3226
885.775	3313
885.9	3241
886.025	3389
886.15	3317
886.275	3321
886.4	3241
886.525	3272
886.65	3287
886.775	3302
886.9	3488
887.025	3648
887.149	3401
887.274	3207
887.399	3192
887.523	3211
887.648	3195
887.773	3207
887.897	3363
888.021	3382
888.146	3287
888.27	3416
888.395	3526
888.519	3435
888.643	3443
888.767	3450
888.891	3313
889.015	3214
889.139	3256
889.263	3230
889.387	3409
889.511	3473
889.635	3431
889.759	3268
889.883	3264
890.006	3344
890.13	3500
890.254	3287
890.377	3363
890.501	3169
890.624	3199
890.748	3294
890.871	3165
890.995	3097
891.118	3077
891.241	3192
891.364	3199
891.488	3332
891.611	3161
891.734	3230
891.857	3272
891.98	3226
892.103	3298
892.226	3291
892.349	3233
892.471	3093
892.594	3245
892.717	3310
892.839	3321
892.962	3264
893.085	3344
893.207	3298
893.33	3119
893.452	3161
893.575	3321
893.697	3207
893.819	3481
893.941	3530
894.064	3450
894.186	3256
894.308	3241
894.43	3469
894.552	3504
894.674	3473
894.796	3268
894.918	3313
895.04	3279
895.161	3405
895.283	3374
895.405	3321
895.526	3359
895.648	3435
895.769	3424
895.891	3466
896.012	3469
896.134	3496
896.255	3443
896.376	3412
896.498	3355
896.619	3386
896.74	3363
896.861	3382
896.982	3656
897.103	3838
897.224	3580
897.345	3485
897.466	3439
897.587	3454
897.708	3618
897.828	3534
897.949	3450
898.07	3317
898.19	3412
898.311	3587
898.431	3431
898.552	3519
898.672	3614
898.792	3553
898.913	3530
899.033	3393
899.153	3256
899.273	3188
899.393	3310
899.513	3329
899.633	3332
899.753	3294
899.873	3302
899.993	3367
900.113	3329
900.232	3389
900.352	3332
900.472	3268
900.591	3214
900.711	3325
900.83	3283
900.95	3374
901.069	3507
901.189	3370
901.308	3195
901.427	3119
901.546	3165
901.665	3302
901.784	3351
901.904	3195
902.023	3173
902.141	3020
902.26	2982
902.379	3165
902.498	3074
902.617	3043
902.735	3192
902.854	3245
902.973	3192
903.091	3028
903.21	3024
903.328	3123
903.446	3066
903.565	3077
903.683	3195
903.801	3131
903.919	3222
904.038	3325
904.156	3180
904.274	3321
904.392	3279
904.51	3310
904.627	3313
904.745	3466
904.863	3496
904.981	3268
905.098	3150
905.216	3211
905.334	3291
905.451	3264
905.569	3310
905.686	3424
905.803	3428
905.921	3222
906.038	3469
906.155	3325
906.272	3253
906.389	3340
906.506	3214
906.623	3237
906.74	3279
906.857	3165
906.974	3241
907.091	3439
907.208	3591
907.324	3466
907.441	3405
907.557	3226
907.674	3233
907.79	3211
907.907	3237
908.023	3336
908.139	3393
908.256	3275
908.372	3355
908.488	3344
908.604	3237
908.72	3214
908.836	3226
908.952	3249
909.068	3321
909.184	3428
909.3	3348
909.415	3485
909.531	3496
909.647	3260
909.762	3291
909.878	3256
909.993	3340
910.108	3351
910.224	3291
910.339	3443
910.454	3329
910.57	3256
910.685	3241
910.8	3580
910.915	3504
911.03	3443
911.145	3256
911.259	3249
911.374	3272
911.489	3218
911.604	3188
911.718	3089
911.833	3150
911.947	3009
912.062	2982
912.176	3127
912.291	3154
912.405	3161
912.519	3424
912.633	3393
912.748	3329
912.862	3253
912.976	3146
913.09	3058
913.204	3119
913.318	3199
913.431	3321
913.545	3329
913.659	3378
913.772	3306
913.886	3233
914	3157
914.113	3317
914.226	3409
914.34	3344
914.453	3176
914.566	3409
914.68	3245
914.793	3313
914.906	3154
915.019	3081
915.132	3055
915.245	3173
915.358	3180
915.47	3218
915.583	3275
915.696	3264
915.809	3363
915.921	3420
916.034	3195
916.146	3230
916.259	3233
916.371	3401
916.483	3351
916.595	3256
916.708	3332
916.82	3348
916.932	3279
917.044	3378
917.156	3340
917.268	3241
917.38	3283
917.491	3272
917.603	3367
917.715	3447
917.826	3462
917.938	3382
918.049	3272
918.161	3473
918.272	3568
918.384	3576
918.495	3561
918.606	3317
918.717	3313
918.828	3386
918.939	3412
919.05	3355
919.161	3370
919.272	3165
919.383	3298
919.494	3534
919.604	3732
919.715	3526
919.826	3435
919.936	3443
920.047	3618
920.157	3587
920.267	3762
920.378	3644
920.488	3610
920.598	3785
920.708	3991
920.818	3850
920.928	3896
921.038	4040
921.148	4029
921.258	3774
921.368	3720
921.477	3675
921.587	3576
921.697	3488
921.806	3701
921.916	3526
922.025	3359
922.134	3412
922.244	3351
922.353	3450
922.462	3329
922.571	3275
922.68	3127
922.789	3131
922.898	3154
923.007	3169
923.116	3298
923.224	3226
923.333	3214
923.442	3138
923.55	3112
923.659	3230
923.767	3268
923.876	3138
923.984	3329
924.092	3142
924.201	3218
924.309	3294
924.417	3287
924.525	3245
924.633	3336
924.741	4063
924.849	3066
924.956	3321
925.064	3138
925.172	3089
925.279	3154
925.387	3218
925.494	3237
925.602	3439
925.709	3382
925.816	3203
925.924	3302
926.031	3447
926.138	3329
926.245	3405
926.352	3313
926.459	3420
926.566	3530
926.673	3389
926.779	3279
926.886	3310
926.993	3150
927.099	3176
927.206	3146
927.312	3131
927.419	3306
927.525	3249
927.631	3332
927.737	3214
927.843	3169
927.95	3070
928.056	3173
928.162	3211
928.267	3294
928.373	3960
928.479	3348
928.585	3100
928.69	3218
928.796	3332
928.901	3188
929.007	3055
929.112	3218
929.218	3211
929.323	3230
929.428	3203
929.533	3370
929.638	3127
929.743	3222
929.848	3294
929.953	3245
930.058	3180
930.163	3058
930.267	3074
930.372	3241
930.477	3062
930.581	3348
930.685	3192
930.79	3116
930.894	3135
930.998	3104
931.103	3302
931.207	3005
931.311	2960
931.415	2952
931.519	2807
931.623	2857
