Data from test_V78500241_1188.txt Node
Date: Fri Mar 25 16:23:25 CST 2022
User: usil
Spectrometer: V785-0024
Trigger mode: 0
Integration Time (sec): 4.000000E-1
Scans to average: 1
Nonlinearity correction enabled: false
Boxcar width: 0
Storing dark spectrum: false
XAxis mode: Wavelengths
Number of Pixels in Spectrum: 1024
>>>>>Begin Spectral Data<<<<<
801.071	2883
801.214	2960
801.356	2868
801.499	2918
801.641	2864
801.783	2899
801.926	3066
802.068	2967
802.211	2982
802.353	3055
802.496	2941
802.638	3017
802.78	3055
802.923	3077
803.065	2994
803.208	2868
803.35	2944
803.492	2925
803.635	2910
803.777	2762
803.919	2864
804.061	3195
804.204	2918
804.346	2887
804.488	2887
804.63	2971
804.773	2872
804.915	2880
805.057	3081
805.199	2922
805.341	2982
805.483	3028
805.626	2994
805.768	2960
805.91	3077
806.052	3142
806.194	3055
806.336	3222
806.478	3028
806.62	2979
806.762	2967
806.904	3028
807.046	3142
807.188	2990
807.33	2910
807.472	2960
807.614	2876
807.756	3001
807.898	2922
808.04	2899
808.182	3013
808.324	2941
808.465	2887
808.607	2880
808.749	2845
808.891	2857
809.033	2979
809.174	2944
809.316	2895
809.458	2887
809.6	2750
809.741	2796
809.883	2746
810.025	2857
810.166	2830
810.308	2845
810.45	2864
810.591	2746
810.733	2766
810.875	2823
811.016	2746
811.158	2766
811.299	2826
811.441	2902
811.582	2906
811.724	2838
811.865	2807
812.007	2925
812.148	2864
812.29	2899
812.431	2887
812.573	2944
812.714	2952
812.855	3055
812.997	3024
813.138	3138
813.279	2986
813.421	2994
813.562	2963
813.703	2853
813.845	2902
813.986	2766
814.127	2716
814.268	2807
814.41	2823
814.551	2777
814.692	2914
814.833	2800
814.974	2891
815.115	2941
815.256	2838
815.397	2819
815.539	2845
815.68	2735
815.821	2792
815.962	2941
816.103	2925
816.244	2849
816.385	2853
816.526	2922
816.666	2891
816.807	2754
816.948	2902
817.089	2918
817.23	2880
817.371	2769
817.512	2785
817.653	2857
817.793	2861
817.934	2857
818.075	2963
818.216	3009
818.356	2975
818.497	2872
818.638	2811
818.778	2804
818.919	2788
819.06	2739
819.2	2853
819.341	2796
819.481	2811
819.622	2902
819.762	3051
819.903	3058
820.043	2910
820.184	2902
820.324	2899
820.465	2967
820.605	2982
820.746	3013
820.886	2956
821.026	3077
821.167	3161
821.307	3275
821.447	3287
821.588	3241
821.728	3169
821.868	3173
822.008	3085
822.149	3176
822.289	3218
822.429	3074
822.569	3077
822.709	3157
822.849	3039
822.99	3055
823.13	3138
823.27	3180
823.41	3138
823.55	3127
823.69	3150
823.83	3161
823.97	3077
824.11	2986
824.25	2982
824.389	3051
824.529	3097
824.669	3051
824.809	3211
824.949	3272
825.089	3214
825.228	3180
825.368	3017
825.508	2986
825.648	2948
825.787	2975
825.927	2994
826.067	2998
826.206	2937
826.346	3032
826.485	3062
826.625	3142
826.765	3249
826.904	3180
827.044	2994
827.183	2925
827.323	2883
827.462	2971
827.601	2929
827.741	2922
827.88	2960
828.02	2838
828.159	2952
828.298	3024
828.437	3093
828.577	3055
828.716	3249
828.855	3066
828.994	2914
829.134	2891
829.273	2906
829.412	2864
829.551	2842
829.69	2872
829.829	2956
829.968	3108
830.107	3005
830.246	3009
830.385	2925
830.524	2864
830.663	2830
830.802	2731
830.941	2655
831.08	2674
831.219	2708
831.357	2758
831.496	2963
831.635	2739
831.774	2651
831.913	2617
832.051	2556
832.19	2583
832.329	2670
832.467	2530
832.606	2461
832.744	2549
832.883	2571
833.022	2575
833.16	2655
833.299	2674
833.437	2659
833.576	2689
833.714	2727
833.852	2697
833.991	2735
834.129	2804
834.267	2830
834.406	2758
834.544	2857
834.682	2883
834.821	2857
834.959	3036
835.097	2880
835.235	3066
835.373	2967
835.511	3001
835.65	2944
835.788	2952
835.926	2819
836.064	2804
836.202	2834
836.34	3081
836.478	3150
836.615	3043
836.753	3150
836.891	3192
837.029	3165
837.167	3062
837.305	3051
837.443	3017
837.58	2994
837.718	3089
837.856	3020
837.993	3070
838.131	3142
838.269	3085
838.406	3066
838.544	3039
838.681	2918
838.819	2910
838.956	2773
839.094	2845
839.231	2864
839.369	3009
839.506	3401
839.643	3214
839.781	3009
839.918	2952
840.055	3024
840.193	3074
840.33	3051
840.467	3104
840.604	3138
840.742	3389
840.879	3058
841.016	3024
841.153	3093
841.29	3325
841.427	3287
841.564	3264
841.701	3291
841.838	3214
841.975	3154
842.112	3207
842.249	3070
842.385	3001
842.522	3283
842.659	3070
842.796	3013
842.933	3119
843.069	3066
843.206	3036
843.343	3180
843.479	3066
843.616	3138
843.752	2902
843.889	2842
844.025	3039
844.162	2826
844.298	3066
844.435	2914
844.571	2918
844.708	3104
844.844	3165
844.98	3222
845.117	3184
845.253	3032
845.389	2994
845.525	3074
845.661	3112
845.798	3013
845.934	3093
846.07	3070
846.206	3184
846.342	3283
846.478	3192
846.614	3085
846.75	3028
846.886	3043
847.022	3233
847.158	3127
847.294	3165
847.429	3230
847.565	3226
847.701	3443
847.837	2982
847.972	3039
848.108	3127
848.244	3150
848.379	2948
848.515	2956
848.65	2937
848.786	2895
848.921	2994
849.057	3081
849.192	3131
849.328	3074
849.463	3085
849.598	3039
849.734	3028
849.869	2948
850.004	2864
850.14	2963
850.275	2895
850.41	2819
850.545	2876
850.68	2944
850.815	2960
850.95	2944
851.085	3211
851.22	3093
851.355	3024
851.49	2948
851.625	2998
851.76	3013
851.895	2948
852.03	2895
852.165	3009
852.299	3081
852.434	3173
852.569	3127
852.703	3184
852.838	3260
852.973	3317
853.107	3249
853.242	3146
853.376	3066
853.511	2963
853.645	3032
853.78	3233
853.914	3112
854.048	3104
854.183	3081
854.317	3097
854.451	3260
854.585	3116
854.72	3055
854.854	3195
854.988	3093
855.122	3066
855.256	2960
855.39	3077
855.524	3195
855.658	3165
855.792	3157
855.926	3184
856.06	3203
856.194	3192
856.327	3112
856.461	3047
856.595	3085
856.729	3085
856.862	3218
856.996	3131
857.13	3218
857.263	3184
857.397	3253
857.53	3112
857.664	3173
857.797	3180
857.931	3241
858.064	3119
858.197	3195
858.331	3108
858.464	3051
858.597	2994
858.731	3100
858.864	3131
858.997	3123
859.13	3131
859.263	3165
859.396	3188
859.529	3112
859.662	3047
859.795	3024
859.928	3138
860.061	3230
860.194	3279
860.327	3138
860.46	3093
860.592	3264
860.725	3268
860.858	3241
860.99	3081
861.123	3043
861.256	3058
861.388	3112
861.521	3682
861.653	3032
861.786	2967
861.918	2963
862.05	3055
862.183	3085
862.315	3131
862.447	3192
862.58	3074
862.712	2914
862.844	2872
862.976	2986
863.108	3009
863.24	3313
863.372	2883
863.504	2967
863.636	2922
863.768	2998
863.9	2948
864.032	2918
864.164	2929
864.296	3039
864.428	3093
864.559	3104
864.691	3070
864.823	3009
864.954	3032
865.086	3032
865.217	3013
865.349	2937
865.48	2979
865.612	3043
865.743	3150
865.875	2975
866.006	2895
866.137	2948
866.269	2948
866.4	2914
866.531	2887
866.662	2864
866.793	2891
866.924	2891
867.055	2952
867.186	2872
867.317	2845
867.448	2845
867.579	2826
867.71	2872
867.841	2788
867.972	2929
868.103	2941
868.233	2876
868.364	2864
868.495	2925
868.625	3070
868.756	3154
868.886	2971
869.017	3024
869.147	3131
869.278	3157
869.408	3058
869.539	2982
869.669	3074
869.799	3043
869.929	3100
870.06	3108
870.19	3294
870.32	3302
870.45	3329
870.58	3336
870.71	3431
870.84	3466
870.97	3310
871.1	3226
871.23	3428
871.36	3428
871.489	3344
871.619	3389
871.749	3416
871.879	3454
872.008	3450
872.138	3351
872.267	3233
872.397	3146
872.526	3081
872.656	2990
872.785	3097
872.915	3203
873.044	3325
873.173	3184
873.303	3237
873.432	3222
873.561	3237
873.69	3169
873.819	3112
873.948	3192
874.077	3066
874.206	3028
874.335	3100
874.464	3230
874.593	3332
874.722	3249
874.851	3348
874.979	3351
875.108	3321
875.237	3195
875.365	3123
875.494	3157
875.623	3233
875.751	3119
875.88	3123
876.008	3154
876.136	3176
876.265	3332
876.393	3496
876.521	3378
876.65	3363
876.778	3359
876.906	3253
877.034	3188
877.162	3214
877.29	3203
877.418	3249
877.546	3218
877.674	3233
877.802	3218
877.93	3226
878.058	3119
878.185	3093
878.313	3157
878.441	3214
878.568	3070
878.696	3119
878.824	3241
878.951	3272
879.079	3450
879.206	3606
879.333	3428
879.461	3340
879.588	3340
879.715	3488
879.842	3599
879.97	3336
880.097	3173
880.224	3135
880.351	3188
880.478	3169
880.605	3188
880.732	3203
880.859	3477
880.986	3291
881.112	3325
881.239	3226
881.366	3062
881.493	3017
881.619	3036
881.746	3077
881.872	3093
881.999	3093
882.125	3112
882.252	3214
882.378	3241
882.505	3420
882.631	3275
882.757	3165
882.883	3214
883.01	3203
883.136	3184
883.262	3077
883.388	3097
883.514	3329
883.64	3386
883.766	3287
883.892	3214
884.018	3218
884.143	3420
884.269	3542
884.395	3211
884.52	3154
884.646	3188
884.772	3127
884.897	3116
885.023	3192
885.148	3298
885.274	3447
885.399	3355
885.524	3283
885.65	3249
885.775	3344
885.9	3298
886.025	3412
886.15	3363
886.275	3260
886.4	3192
886.525	3283
886.65	3237
886.775	3241
886.9	3530
887.025	3584
887.149	3412
887.274	3222
887.399	3184
887.523	3211
887.648	3180
887.773	3180
887.897	3367
888.021	3370
888.146	3310
888.27	3435
888.395	3530
888.519	3393
888.643	3458
888.767	3454
888.891	3291
889.015	3268
889.139	3272
889.263	3264
889.387	3386
889.511	3473
889.635	3447
889.759	3245
889.883	3298
890.006	3382
890.13	3469
890.254	3260
890.377	3321
890.501	3199
890.624	3192
890.748	3287
890.871	3195
890.995	3043
891.118	3017
891.241	3157
891.364	3203
891.488	3344
891.611	3131
891.734	3192
891.857	3291
891.98	3260
892.103	3344
892.226	3256
892.349	3188
892.471	3131
892.594	3249
892.717	3253
892.839	3264
892.962	3291
893.085	3348
893.207	3268
893.33	3161
893.452	3203
893.575	3302
893.697	3275
893.819	3450
893.941	3504
894.064	3405
894.186	3233
894.308	3249
894.43	3416
894.552	3523
894.674	3473
894.796	3256
894.918	3287
895.04	3294
895.161	3409
895.283	3367
895.405	3260
895.526	3367
895.648	3389
895.769	3393
895.891	3443
896.012	3477
896.134	3469
896.255	3374
896.376	3374
896.498	3359
896.619	3424
896.74	3386
896.861	3409
896.982	3671
897.103	3838
897.224	3553
897.345	3492
897.466	3450
897.587	3504
897.708	3603
897.828	3523
897.949	3412
898.07	3310
898.19	3378
898.311	3591
898.431	3450
898.552	3523
898.672	3564
898.792	3568
898.913	3523
899.033	3401
899.153	3283
899.273	3245
899.393	3287
899.513	3306
899.633	3302
899.753	3348
899.873	3313
899.993	3363
900.113	3298
900.232	3412
900.352	3310
900.472	3272
900.591	3195
900.711	3287
900.83	3199
900.95	3397
901.069	3481
901.189	3325
901.308	3161
901.427	3116
901.546	3192
901.665	3317
901.784	3306
901.904	3192
902.023	3176
902.141	3009
902.26	2948
902.379	3135
902.498	3097
902.617	2994
902.735	3195
902.854	3226
902.973	3154
903.091	3032
903.21	3036
903.328	3085
903.446	3089
903.565	3097
903.683	3173
903.801	3097
903.919	3199
904.038	3264
904.156	3131
904.274	3298
904.392	3268
904.51	3268
904.627	3302
904.745	3458
904.863	3481
904.981	3245
905.098	3157
905.216	3203
905.334	3302
905.451	3260
905.569	3291
905.686	3409
905.803	3435
905.921	3279
906.038	3416
906.155	3340
906.272	3245
906.389	3351
906.506	3195
906.623	3237
906.74	3260
906.857	3188
906.974	3283
907.091	3405
907.208	3538
907.324	3526
907.441	3344
907.557	3226
907.674	3184
907.79	3211
907.907	3233
908.023	3389
908.139	3378
908.256	3306
908.372	3355
908.488	3351
908.604	3241
908.72	3203
908.836	3306
908.952	3272
909.068	3302
909.184	3519
909.3	3409
909.415	3458
909.531	3443
909.647	3283
909.762	3279
909.878	3253
909.993	3317
910.108	3370
910.224	3363
910.339	3370
910.454	3332
910.57	3279
910.685	3230
910.8	3610
910.915	3511
911.03	3405
911.145	3260
911.259	3253
911.374	3317
911.489	3218
911.604	3253
911.718	3119
911.833	3119
911.947	3032
912.062	2979
912.176	3138
912.291	3180
912.405	3214
912.519	3416
912.633	3458
912.748	3310
912.862	3256
912.976	3157
913.09	3051
913.204	3108
913.318	3192
913.431	3329
913.545	3348
913.659	3348
913.772	3340
913.886	3245
914	3188
914.113	3336
914.226	3386
914.34	3363
914.453	3207
914.566	3382
914.68	3317
914.793	3325
914.906	3135
915.019	3116
915.132	3070
915.245	3165
915.358	3192
915.47	3214
915.583	3233
915.696	3283
915.809	3443
915.921	3374
916.034	3226
916.146	3226
916.259	3192
916.371	3401
916.483	3382
916.595	3264
916.708	3321
916.82	3306
916.932	3355
917.044	3317
917.156	3325
917.268	3245
917.38	3283
917.491	3287
917.603	3355
917.715	3485
917.826	3420
917.938	3378
918.049	3249
918.161	3382
918.272	3549
918.384	3564
918.495	3458
918.606	3344
918.717	3256
918.828	3355
918.939	3405
919.05	3298
919.161	3351
919.272	3154
919.383	3275
919.494	3477
919.604	3660
919.715	3492
919.826	3325
919.936	3428
920.047	3564
920.157	3523
920.267	3747
920.378	3584
920.488	3584
920.598	3793
920.708	3926
920.818	3819
920.928	3819
921.038	4029
921.148	3975
921.258	3694
921.368	3606
921.477	3576
921.587	3481
921.697	3454
921.806	3633
921.916	3538
922.025	3409
922.134	3378
922.244	3310
922.353	3367
922.462	3306
922.571	3230
922.68	3097
922.789	3093
922.898	3142
923.007	3104
923.116	3199
923.224	3142
923.333	3195
923.442	3100
923.55	3062
923.659	3135
923.767	3218
923.876	3081
923.984	3211
924.092	3093
924.201	3169
924.309	3195
924.417	3245
924.525	3180
924.633	3233
924.741	4032
924.849	3024
924.956	3230
925.064	3062
925.172	2986
925.279	3108
925.387	3173
925.494	3176
925.602	3336
925.709	3340
925.816	3161
925.924	3241
926.031	3359
926.138	3306
926.245	3351
926.352	3230
926.459	3428
926.566	3466
926.673	3332
926.779	3237
926.886	3218
926.993	3157
927.099	3108
927.206	3089
927.312	3093
927.419	3218
927.525	3199
927.631	3268
927.737	3100
927.843	3104
927.95	3013
928.056	3112
928.162	3154
928.267	3279
928.373	3823
928.479	3287
928.585	3043
928.69	3154
928.796	3275
928.901	3161
929.007	2990
929.112	3268
929.218	3173
929.323	3116
929.428	3138
929.533	3329
929.638	3135
929.743	3157
929.848	3283
929.953	3184
930.058	3127
930.163	2979
930.267	3055
930.372	3207
930.477	3032
930.581	3306
930.685	3157
930.79	3051
930.894	3154
930.998	3062
931.103	3287
931.207	2971
931.311	2963
931.415	2918
931.519	2769
931.623	2819
