Data from test_V78500241_332.txt Node
Date: Fri Mar 25 16:17:30 CST 2022
User: usil
Spectrometer: V785-0024
Trigger mode: 0
Integration Time (sec): 4.000000E-1
Scans to average: 1
Nonlinearity correction enabled: false
Boxcar width: 0
Storing dark spectrum: false
XAxis mode: Wavelengths
Number of Pixels in Spectrum: 1024
>>>>>Begin Spectral Data<<<<<
801.071	2910
801.214	2998
801.356	2952
801.499	2944
801.641	2876
801.783	2902
801.926	3097
802.068	3013
802.211	3043
802.353	3043
802.496	2971
802.638	3017
802.78	3058
802.923	3062
803.065	3020
803.208	2929
803.35	2948
803.492	2944
803.635	2948
803.777	2777
803.919	2906
804.061	3230
804.204	2944
804.346	2929
804.488	2864
804.63	2986
804.773	2887
804.915	2929
805.057	3100
805.199	2929
805.341	2986
805.483	3001
805.626	2998
805.768	2990
805.91	3089
806.052	3169
806.194	3017
806.336	3287
806.478	3039
806.62	2994
806.762	3009
806.904	3119
807.046	3142
807.188	2990
807.33	2906
807.472	3032
807.614	2944
807.756	3001
807.898	2922
808.04	2895
808.182	2994
808.324	2975
808.465	2914
808.607	2891
808.749	2811
808.891	2845
809.033	3005
809.174	2963
809.316	2956
809.458	2918
809.6	2788
809.741	2826
809.883	2796
810.025	2842
810.166	2868
810.308	2819
810.45	2872
810.591	2762
810.733	2777
810.875	2880
811.016	2766
811.158	2815
811.299	2811
811.441	2925
811.582	2906
811.724	2800
811.865	2845
812.007	2933
812.148	2868
812.29	2838
812.431	2910
812.573	2971
812.714	2986
812.855	3058
812.997	3074
813.138	3131
813.279	3001
813.421	2986
813.562	2975
813.703	2826
813.845	2902
813.986	2758
814.127	2724
814.268	2834
814.41	2872
814.551	2819
814.692	2883
814.833	2845
814.974	2929
815.115	2960
815.256	2842
815.397	2807
815.539	2899
815.68	2781
815.821	2819
815.962	2948
816.103	2948
816.244	2868
816.385	2853
816.526	2967
816.666	2937
816.807	2762
816.948	2902
817.089	2941
817.23	2891
817.371	2781
817.512	2807
817.653	2853
817.793	2842
817.934	2880
818.075	3013
818.216	2979
818.356	3032
818.497	2895
818.638	2792
818.778	2838
818.919	2781
819.06	2762
819.2	2899
819.341	2792
819.481	2842
819.622	2929
819.762	3100
819.903	3055
820.043	2937
820.184	2899
820.324	2918
820.465	3036
820.605	3005
820.746	3074
820.886	2963
821.026	3165
821.167	3150
821.307	3275
821.447	3279
821.588	3241
821.728	3199
821.868	3169
822.008	3093
822.149	3173
822.289	3233
822.429	3062
822.569	3093
822.709	3199
822.849	3013
822.99	3058
823.13	3142
823.27	3222
823.41	3104
823.55	3188
823.69	3138
823.83	3184
823.97	3142
824.11	3017
824.25	3017
824.389	3089
824.529	3085
824.669	3089
824.809	3230
824.949	3264
825.089	3237
825.228	3207
825.368	3039
825.508	2937
825.648	2979
825.787	3055
825.927	3028
826.067	2998
826.206	2998
826.346	3077
826.485	3112
826.625	3112
826.765	3241
826.904	3256
827.044	3009
827.183	2971
827.323	2902
827.462	3024
827.601	2952
827.741	2967
827.88	3039
828.02	2925
828.159	2994
828.298	3074
828.437	3154
828.577	3142
828.716	3302
828.855	3119
828.994	2944
829.134	2925
829.273	2956
829.412	2918
829.551	2925
829.69	2925
829.829	3039
829.968	3192
830.107	3058
830.246	3066
830.385	2986
830.524	2925
830.663	2876
830.802	2785
830.941	2705
831.08	2708
831.219	2796
831.357	2819
831.496	2975
831.635	2796
831.774	2682
831.913	2701
832.051	2598
832.19	2640
832.329	2697
832.467	2621
832.606	2526
832.744	2613
832.883	2617
833.022	2651
833.16	2712
833.299	2746
833.437	2750
833.576	2746
833.714	2777
833.852	2746
833.991	2826
834.129	2864
834.267	2887
834.406	2842
834.544	2902
834.682	2910
834.821	2872
834.959	3070
835.097	2922
835.235	3112
835.373	3039
835.511	3058
835.65	3009
835.788	2975
835.926	2872
836.064	2880
836.202	2883
836.34	3131
836.478	3176
836.615	3089
836.753	3161
836.891	3264
837.029	3195
837.167	3135
837.305	3081
837.443	3062
837.58	3013
837.718	3195
837.856	3100
837.993	3066
838.131	3146
838.269	3176
838.406	3154
838.544	3127
838.681	3017
838.819	2956
838.956	2861
839.094	2845
839.231	2925
839.369	3077
839.506	3450
839.643	3268
839.781	3055
839.918	2971
840.055	3051
840.193	3108
840.33	3097
840.467	3138
840.604	3184
840.742	3424
840.879	3047
841.016	3062
841.153	3165
841.29	3355
841.427	3344
841.564	3287
841.701	3378
841.838	3268
841.975	3203
842.112	3218
842.249	3104
842.385	3047
842.522	3291
842.659	3142
842.796	3093
842.933	3112
843.069	3085
843.206	3085
843.343	3233
843.479	3135
843.616	3154
843.752	2948
843.889	2929
844.025	3142
844.162	2922
844.298	3081
844.435	2982
844.571	2956
844.708	3104
844.844	3203
844.98	3275
845.117	3245
845.253	3093
845.389	3039
845.525	3127
845.661	3100
845.798	3051
845.934	3180
846.07	3089
846.206	3237
846.342	3374
846.478	3256
846.614	3100
846.75	3085
846.886	3051
847.022	3275
847.158	3161
847.294	3192
847.429	3294
847.565	3226
847.701	3530
847.837	3074
847.972	3024
848.108	3203
848.244	3154
848.379	3043
848.515	2986
848.65	2922
848.786	2979
848.921	3043
849.057	3119
849.192	3157
849.328	3119
849.463	3150
849.598	3097
849.734	3058
849.869	2982
850.004	3005
850.14	3013
850.275	2994
850.41	2883
850.545	2899
850.68	2963
850.815	2975
850.95	2990
851.085	3233
851.22	3135
851.355	3100
851.49	3001
851.625	3051
851.76	3013
851.895	2967
852.03	2929
852.165	3039
852.299	3150
852.434	3176
852.569	3173
852.703	3207
852.838	3275
852.973	3340
853.107	3386
853.242	3184
853.376	3131
853.511	2990
853.645	3058
853.78	3253
853.914	3119
854.048	3138
854.183	3119
854.317	3161
854.451	3321
854.585	3150
854.72	3093
854.854	3256
854.988	3077
855.122	3157
855.256	3036
855.39	3119
855.524	3264
855.658	3203
855.792	3184
855.926	3226
856.06	3260
856.194	3268
856.327	3180
856.461	3108
856.595	3112
856.729	3146
856.862	3287
856.996	3195
857.13	3230
857.263	3283
857.397	3325
857.53	3173
857.664	3249
857.797	3264
857.931	3325
858.064	3214
858.197	3256
858.331	3169
858.464	3108
858.597	3013
858.731	3173
858.864	3146
858.997	3104
859.13	3157
859.263	3195
859.396	3207
859.529	3173
859.662	3089
859.795	3077
859.928	3138
860.061	3313
860.194	3283
860.327	3169
860.46	3138
860.592	3268
860.725	3264
860.858	3321
860.99	3157
861.123	3058
861.256	3093
861.388	3165
861.521	3899
861.653	3039
861.786	3017
861.918	3013
862.05	3093
862.183	3127
862.315	3154
862.447	3195
862.58	3127
862.712	2971
862.844	2899
862.976	3093
863.108	3055
863.24	3382
863.372	2895
863.504	3009
863.636	2982
863.768	3055
863.9	3039
864.032	2990
864.164	2929
864.296	3047
864.428	3138
864.559	3112
864.691	3119
864.823	3089
864.954	3062
865.086	3055
865.217	3020
865.349	2979
865.48	3043
865.612	3058
865.743	3192
865.875	3013
866.006	2979
866.137	3017
866.269	2975
866.4	2971
866.531	2937
866.662	2906
866.793	2910
866.924	2933
867.055	2998
867.186	2952
867.317	2906
867.448	2864
867.579	2906
867.71	2861
867.841	2845
867.972	2906
868.103	2944
868.233	2887
868.364	2891
868.495	2925
868.625	3093
868.756	3199
868.886	3005
869.017	3039
869.147	3214
869.278	3203
869.408	3066
869.539	3032
869.669	3104
869.799	3051
869.929	3131
870.06	3135
870.19	3321
870.32	3325
870.45	3321
870.58	3374
870.71	3466
870.84	3526
870.97	3332
871.1	3272
871.23	3542
871.36	3469
871.489	3359
871.619	3405
871.749	3443
871.879	3416
872.008	3504
872.138	3401
872.267	3348
872.397	3180
872.526	3131
872.656	3039
872.785	3119
872.915	3275
873.044	3321
873.173	3207
873.303	3264
873.432	3302
873.561	3256
873.69	3207
873.819	3165
873.948	3214
874.077	3131
874.206	3135
874.335	3074
874.464	3214
874.593	3348
874.722	3275
874.851	3386
874.979	3370
875.108	3367
875.237	3237
875.365	3203
875.494	3150
875.623	3268
875.751	3104
875.88	3116
876.008	3176
876.136	3272
876.265	3397
876.393	3545
876.521	3462
876.65	3386
876.778	3329
876.906	3260
877.034	3222
877.162	3260
877.29	3176
877.418	3272
877.546	3222
877.674	3233
877.802	3275
877.93	3256
878.058	3180
878.185	3127
878.313	3211
878.441	3214
878.568	3100
878.696	3165
878.824	3283
878.951	3321
879.079	3443
879.206	3625
879.333	3469
879.461	3355
879.588	3386
879.715	3530
879.842	3614
879.97	3405
880.097	3203
880.224	3157
880.351	3249
880.478	3253
880.605	3199
880.732	3180
880.859	3561
880.986	3351
881.112	3355
881.239	3226
881.366	3089
881.493	3058
881.619	3062
881.746	3093
881.872	3116
881.999	3127
882.125	3169
882.252	3287
882.378	3325
882.505	3420
882.631	3298
882.757	3180
882.883	3253
883.01	3253
883.136	3176
883.262	3116
883.388	3119
883.514	3340
883.64	3439
883.766	3310
883.892	3203
884.018	3226
884.143	3439
884.269	3545
884.395	3245
884.52	3184
884.646	3173
884.772	3138
884.897	3131
885.023	3230
885.148	3348
885.274	3424
885.399	3420
885.524	3348
885.65	3287
885.775	3294
885.9	3294
886.025	3481
886.15	3367
886.275	3332
886.4	3207
886.525	3363
886.65	3310
886.775	3287
886.9	3557
887.025	3652
887.149	3424
887.274	3272
887.399	3264
887.523	3199
887.648	3195
887.773	3218
887.897	3439
888.021	3386
888.146	3325
888.27	3450
888.395	3538
888.519	3428
888.643	3469
888.767	3469
888.891	3291
889.015	3310
889.139	3275
889.263	3260
889.387	3435
889.511	3580
889.635	3469
889.759	3294
889.883	3325
890.006	3348
890.13	3511
890.254	3313
890.377	3351
890.501	3233
890.624	3218
890.748	3310
890.871	3207
890.995	3157
891.118	3112
891.241	3207
891.364	3233
891.488	3351
891.611	3195
891.734	3218
891.857	3291
891.98	3233
892.103	3367
892.226	3283
892.349	3245
892.471	3154
892.594	3237
892.717	3329
892.839	3241
892.962	3317
893.085	3389
893.207	3317
893.33	3176
893.452	3188
893.575	3370
893.697	3241
893.819	3485
893.941	3511
894.064	3466
894.186	3359
894.308	3310
894.43	3485
894.552	3519
894.674	3485
894.796	3260
894.918	3348
895.04	3325
895.161	3450
895.283	3397
895.405	3344
895.526	3359
895.648	3439
895.769	3443
895.891	3500
896.012	3530
896.134	3473
896.255	3439
896.376	3405
896.498	3386
896.619	3435
896.74	3378
896.861	3397
896.982	3705
897.103	3865
897.224	3648
897.345	3542
897.466	3454
897.587	3473
897.708	3641
897.828	3584
897.949	3435
898.07	3329
898.19	3409
898.311	3618
898.431	3469
898.552	3523
898.672	3572
898.792	3572
898.913	3530
899.033	3412
899.153	3310
899.273	3226
899.393	3321
899.513	3306
899.633	3336
899.753	3344
899.873	3340
899.993	3401
900.113	3351
900.232	3397
900.352	3329
900.472	3268
900.591	3195
900.711	3294
900.83	3253
900.95	3409
901.069	3530
901.189	3382
901.308	3192
901.427	3169
901.546	3214
901.665	3336
901.784	3332
901.904	3203
902.023	3161
902.141	3039
902.26	2979
902.379	3173
902.498	3119
902.617	3093
902.735	3226
902.854	3260
902.973	3214
903.091	3055
903.21	3119
903.328	3116
903.446	3104
903.565	3116
903.683	3180
903.801	3169
903.919	3249
904.038	3332
904.156	3150
904.274	3260
904.392	3256
904.51	3268
904.627	3374
904.745	3443
904.863	3507
904.981	3272
905.098	3146
905.216	3249
905.334	3329
905.451	3310
905.569	3313
905.686	3424
905.803	3469
905.921	3298
906.038	3435
906.155	3401
906.272	3310
906.389	3344
906.506	3233
906.623	3260
906.74	3306
906.857	3195
906.974	3272
907.091	3462
907.208	3610
907.324	3473
907.441	3370
907.557	3268
907.674	3268
907.79	3230
907.907	3287
908.023	3397
908.139	3348
908.256	3351
908.372	3382
908.488	3321
908.604	3249
908.72	3233
908.836	3294
908.952	3275
909.068	3351
909.184	3500
909.3	3412
909.415	3519
909.531	3454
909.647	3306
909.762	3302
909.878	3310
909.993	3351
910.108	3340
910.224	3363
910.339	3409
910.454	3317
910.57	3313
910.685	3272
910.8	3599
910.915	3534
911.03	3466
911.145	3283
911.259	3275
911.374	3344
911.489	3249
911.604	3230
911.718	3142
911.833	3154
911.947	3039
912.062	2967
912.176	3188
912.291	3226
912.405	3195
912.519	3439
912.633	3481
912.748	3351
912.862	3279
912.976	3203
913.09	3074
913.204	3157
913.318	3279
913.431	3332
913.545	3344
913.659	3443
913.772	3344
913.886	3199
914	3230
914.113	3370
914.226	3458
914.34	3378
914.453	3230
914.566	3405
914.68	3264
914.793	3355
914.906	3142
915.019	3138
915.132	3077
915.245	3131
915.358	3188
915.47	3272
915.583	3272
915.696	3298
915.809	3439
915.921	3412
916.034	3272
916.146	3298
916.259	3283
916.371	3412
916.483	3424
916.595	3321
916.708	3313
916.82	3336
916.932	3363
917.044	3382
917.156	3344
917.268	3272
917.38	3291
917.491	3329
917.603	3359
917.715	3462
917.826	3462
917.938	3409
918.049	3287
918.161	3454
918.272	3576
918.384	3572
918.495	3492
918.606	3382
918.717	3279
918.828	3443
918.939	3412
919.05	3294
919.161	3348
919.272	3222
919.383	3313
919.494	3542
919.604	3705
919.715	3473
919.826	3435
919.936	3507
920.047	3637
920.157	3564
920.267	3778
920.378	3682
920.488	3557
920.598	3781
920.708	3949
920.818	3876
920.928	3850
921.038	4017
921.148	4013
921.258	3724
921.368	3644
921.477	3591
921.587	3572
921.697	3523
921.806	3618
921.916	3496
922.025	3393
922.134	3355
922.244	3317
922.353	3481
922.462	3256
922.571	3253
922.68	3055
922.789	3108
922.898	3116
923.007	3085
923.116	3237
923.224	3192
923.333	3176
923.442	3116
923.55	3077
923.659	3146
923.767	3260
923.876	3154
923.984	3233
924.092	3127
924.201	3203
924.309	3222
924.417	3283
924.525	3188
924.633	3199
924.741	4158
924.849	3085
924.956	3275
925.064	3085
925.172	3047
925.279	3116
925.387	3199
925.494	3192
925.602	3363
925.709	3344
925.816	3184
925.924	3321
926.031	3401
926.138	3313
926.245	3401
926.352	3283
926.459	3420
926.566	3458
926.673	3344
926.779	3260
926.886	3226
926.993	3146
927.099	3104
927.206	3116
927.312	3146
927.419	3214
927.525	3230
927.631	3283
927.737	3135
927.843	3146
927.95	3062
928.056	3119
928.162	3180
928.267	3237
928.373	3854
928.479	3332
928.585	3055
928.69	3226
928.796	3287
928.901	3199
929.007	3077
929.112	3192
929.218	3180
929.323	3138
929.428	3192
929.533	3355
929.638	3116
929.743	3154
929.848	3272
929.953	3211
930.058	3154
930.163	2990
930.267	3039
930.372	3211
930.477	3005
930.581	3329
930.685	3214
930.79	3058
930.894	3142
930.998	3131
931.103	3321
931.207	2982
931.311	2937
931.415	2933
931.519	2743
931.623	2834
