Data from test_V78500241_492.txt Node
Date: Fri Mar 25 16:18:36 CST 2022
User: usil
Spectrometer: V785-0024
Trigger mode: 0
Integration Time (sec): 4.000000E-1
Scans to average: 1
Nonlinearity correction enabled: false
Boxcar width: 0
Storing dark spectrum: false
XAxis mode: Wavelengths
Number of Pixels in Spectrum: 1024
>>>>>Begin Spectral Data<<<<<
801.071	2937
801.214	2933
801.356	2887
801.499	2899
801.641	2880
801.783	2895
801.926	3032
802.068	2967
802.211	2994
802.353	3024
802.496	2929
802.638	3043
802.78	3051
802.923	3077
803.065	2979
803.208	2880
803.35	2925
803.492	2929
803.635	2902
803.777	2758
803.919	2853
804.061	3176
804.204	2914
804.346	2902
804.488	2861
804.63	3001
804.773	2857
804.915	2925
805.057	3077
805.199	2929
805.341	2960
805.483	3058
805.626	3028
805.768	2948
805.91	3093
806.052	3093
806.194	3081
806.336	3207
806.478	3055
806.62	2948
806.762	2979
806.904	3055
807.046	3161
807.188	2994
807.33	2902
807.472	3009
807.614	2895
807.756	2994
807.898	2929
808.04	2906
808.182	2967
808.324	2956
808.465	2891
808.607	2861
808.749	2769
808.891	2853
809.033	2979
809.174	2971
809.316	2876
809.458	2910
809.6	2788
809.741	2758
809.883	2769
810.025	2872
810.166	2868
810.308	2845
810.45	2891
810.591	2792
810.733	2746
810.875	2838
811.016	2758
811.158	2773
811.299	2838
811.441	2933
811.582	2876
811.724	2830
811.865	2823
812.007	2937
812.148	2891
812.29	2853
812.431	2880
812.573	2902
812.714	2971
812.855	3017
812.997	3070
813.138	3089
813.279	2982
813.421	2986
813.562	2975
813.703	2880
813.845	2906
813.986	2796
814.127	2716
814.268	2807
814.41	2807
814.551	2800
814.692	2902
814.833	2807
814.974	2883
815.115	2925
815.256	2823
815.397	2807
815.539	2861
815.68	2792
815.821	2788
815.962	2914
816.103	2929
816.244	2868
816.385	2849
816.526	2944
816.666	2929
816.807	2743
816.948	2883
817.089	2922
817.23	2834
817.371	2788
817.512	2807
817.653	2830
817.793	2826
817.934	2853
818.075	2933
818.216	2975
818.356	2990
818.497	2906
818.638	2788
818.778	2811
818.919	2826
819.06	2758
819.2	2872
819.341	2781
819.481	2826
819.622	2906
819.762	3127
819.903	3043
820.043	2925
820.184	2868
820.324	2876
820.465	2990
820.605	2971
820.746	3032
820.886	2918
821.026	3119
821.167	3138
821.307	3256
821.447	3245
821.588	3195
821.728	3233
821.868	3161
822.008	3089
822.149	3180
822.289	3237
822.429	3089
822.569	3093
822.709	3161
822.849	3005
822.99	3081
823.13	3161
823.27	3188
823.41	3089
823.55	3112
823.69	3131
823.83	3195
823.97	3108
824.11	3024
824.25	3009
824.389	3032
824.529	3116
824.669	3085
824.809	3199
824.949	3287
825.089	3199
825.228	3123
825.368	3005
825.508	2922
825.648	2960
825.787	3020
825.927	3020
826.067	2933
826.206	2925
826.346	3047
826.485	3062
826.625	3104
826.765	3268
826.904	3184
827.044	2963
827.183	2925
827.323	2838
827.462	2956
827.601	2925
827.741	2952
827.88	2918
828.02	2880
828.159	2952
828.298	3036
828.437	3123
828.577	3039
828.716	3226
828.855	3108
828.994	2902
829.134	2819
829.273	2887
829.412	2845
829.551	2842
829.69	2899
829.829	2960
829.968	3104
830.107	3009
830.246	3005
830.385	2914
830.524	2861
830.663	2792
830.802	2708
830.941	2617
831.08	2644
831.219	2739
831.357	2792
831.496	2937
831.635	2697
831.774	2667
831.913	2651
832.051	2533
832.19	2568
832.329	2708
832.467	2552
832.606	2457
832.744	2560
832.883	2590
833.022	2552
833.16	2613
833.299	2686
833.437	2663
833.576	2693
833.714	2712
833.852	2746
833.991	2754
834.129	2849
834.267	2845
834.406	2766
834.544	2849
834.682	2838
834.821	2864
834.959	3074
835.097	2899
835.235	3039
835.373	2960
835.511	3028
835.65	2956
835.788	2956
835.926	2823
836.064	2804
836.202	2792
836.34	3097
836.478	3127
836.615	3028
836.753	3077
836.891	3211
837.029	3123
837.167	3104
837.305	3062
837.443	3039
837.58	2952
837.718	3104
837.856	3066
837.993	3005
838.131	3100
838.269	3112
838.406	3081
838.544	3066
838.681	2929
838.819	2902
838.956	2777
839.094	2826
839.231	2922
839.369	3047
839.506	3393
839.643	3199
839.781	2998
839.918	2982
840.055	3055
840.193	3043
840.33	3062
840.467	3112
840.604	3138
840.742	3401
840.879	3043
841.016	3058
841.153	3097
841.29	3367
841.427	3294
841.564	3230
841.701	3294
841.838	3199
841.975	3157
842.112	3192
842.249	3116
842.385	3032
842.522	3230
842.659	3093
842.796	3077
842.933	3074
843.069	3032
843.206	3077
843.343	3157
843.479	3093
843.616	3119
843.752	2883
843.889	2857
844.025	3074
844.162	2914
844.298	3077
844.435	2952
844.571	2937
844.708	3055
844.844	3131
844.98	3237
845.117	3180
845.253	3043
845.389	2982
845.525	3108
845.661	3077
845.798	3039
845.934	3116
846.07	3066
846.206	3211
846.342	3317
846.478	3249
846.614	3104
846.75	3024
846.886	2998
847.022	3222
847.158	3123
847.294	3184
847.429	3241
847.565	3226
847.701	3477
847.837	3043
847.972	3001
848.108	3123
848.244	3138
848.379	2975
848.515	2933
848.65	2925
848.786	2963
848.921	3009
849.057	3116
849.192	3097
849.328	3055
849.463	3104
849.598	3089
849.734	3017
849.869	2967
850.004	2902
850.14	2910
850.275	2880
850.41	2838
850.545	2887
850.68	2918
850.815	2944
850.95	2944
851.085	3169
851.22	3077
851.355	3051
851.49	2971
851.625	2982
851.76	3005
851.895	2925
852.03	2895
852.165	3036
852.299	3104
852.434	3169
852.569	3123
852.703	3161
852.838	3226
852.973	3317
853.107	3313
853.242	3146
853.376	3116
853.511	2956
853.645	3039
853.78	3226
853.914	3093
854.048	3112
854.183	3066
854.317	3127
854.451	3249
854.585	3077
854.72	3085
854.854	3165
854.988	3055
855.122	3085
855.256	2925
855.39	3089
855.524	3222
855.658	3184
855.792	3131
855.926	3146
856.06	3203
856.194	3233
856.327	3131
856.461	3047
856.595	3055
856.729	3081
856.862	3203
856.996	3150
857.13	3165
857.263	3241
857.397	3237
857.53	3104
857.664	3165
857.797	3237
857.931	3230
858.064	3161
858.197	3176
858.331	3108
858.464	3077
858.597	3005
858.731	3116
858.864	3108
858.997	3104
859.13	3116
859.263	3150
859.396	3222
859.529	3043
859.662	3039
859.795	3062
859.928	3203
860.061	3245
860.194	3302
860.327	3150
860.46	3081
860.592	3218
860.725	3184
860.858	3237
860.99	3112
861.123	3039
861.256	3074
861.388	3116
861.521	3823
861.653	3024
861.786	2925
861.918	2982
862.05	3047
862.183	3062
862.315	3123
862.447	3157
862.58	3097
862.712	2933
862.844	2872
862.976	2994
863.108	2975
863.24	3325
863.372	2891
863.504	2944
863.636	2918
863.768	3028
863.9	2975
864.032	2895
864.164	2963
864.296	3001
864.428	3104
864.559	3081
864.691	3074
864.823	3020
864.954	3036
865.086	3043
865.217	2948
865.349	2948
865.48	2967
865.612	3032
865.743	3165
865.875	2956
866.006	2929
866.137	2960
866.269	2910
866.4	2941
866.531	2937
866.662	2876
866.793	2868
866.924	2872
867.055	2956
867.186	2899
867.317	2861
867.448	2819
867.579	2842
867.71	2826
867.841	2819
867.972	2922
868.103	2891
868.233	2861
868.364	2853
868.495	2902
868.625	3028
868.756	3146
868.886	2941
869.017	3005
869.147	3150
869.278	3184
869.408	3047
869.539	3032
869.669	3108
869.799	3058
869.929	3119
870.06	3157
870.19	3325
870.32	3241
870.45	3321
870.58	3370
870.71	3382
870.84	3428
870.97	3268
871.1	3237
871.23	3477
871.36	3450
871.489	3351
871.619	3374
871.749	3401
871.879	3367
872.008	3458
872.138	3363
872.267	3256
872.397	3119
872.526	3085
872.656	3032
872.785	3097
872.915	3218
873.044	3321
873.173	3192
873.303	3253
873.432	3222
873.561	3245
873.69	3169
873.819	3138
873.948	3180
874.077	3127
874.206	3047
874.335	3081
874.464	3169
874.593	3321
874.722	3203
874.851	3351
874.979	3332
875.108	3344
875.237	3173
875.365	3154
875.494	3157
875.623	3222
875.751	3039
875.88	3116
876.008	3165
876.136	3237
876.265	3374
876.393	3481
876.521	3462
876.65	3412
876.778	3332
876.906	3214
877.034	3203
877.162	3218
877.29	3169
877.418	3214
877.546	3230
877.674	3241
877.802	3237
877.93	3237
878.058	3146
878.185	3150
878.313	3192
878.441	3211
878.568	3093
878.696	3131
878.824	3218
878.951	3253
879.079	3439
879.206	3637
879.333	3447
879.461	3310
879.588	3344
879.715	3450
879.842	3587
879.97	3374
880.097	3116
880.224	3165
880.351	3165
880.478	3199
880.605	3188
880.732	3138
880.859	3488
880.986	3283
881.112	3321
881.239	3214
881.366	3093
881.493	3074
881.619	3013
881.746	3058
881.872	3039
881.999	3085
882.125	3138
882.252	3207
882.378	3253
882.505	3393
882.631	3272
882.757	3192
882.883	3203
883.01	3253
883.136	3169
883.262	3093
883.388	3142
883.514	3306
883.64	3355
883.766	3306
883.892	3154
884.018	3256
884.143	3420
884.269	3538
884.395	3180
884.52	3089
884.646	3173
884.772	3123
884.897	3077
885.023	3176
885.148	3306
885.274	3405
885.399	3336
885.524	3253
885.65	3291
885.775	3287
885.9	3264
886.025	3389
886.15	3351
886.275	3287
886.4	3222
886.525	3325
886.65	3268
886.775	3294
886.9	3458
887.025	3614
887.149	3397
887.274	3230
887.399	3192
887.523	3165
887.648	3173
887.773	3207
887.897	3367
888.021	3378
888.146	3302
888.27	3370
888.395	3507
888.519	3439
888.643	3435
888.767	3492
888.891	3298
889.015	3207
889.139	3329
889.263	3226
889.387	3359
889.511	3500
889.635	3454
889.759	3287
889.883	3249
890.006	3389
890.13	3473
890.254	3283
890.377	3321
890.501	3180
890.624	3169
890.748	3302
890.871	3150
890.995	3070
891.118	3051
891.241	3188
891.364	3207
891.488	3317
891.611	3199
891.734	3222
891.857	3222
891.98	3253
892.103	3340
892.226	3287
892.349	3203
892.471	3116
892.594	3226
892.717	3306
892.839	3287
892.962	3298
893.085	3329
893.207	3291
893.33	3142
893.452	3176
893.575	3340
893.697	3241
893.819	3458
893.941	3526
894.064	3458
894.186	3283
894.308	3226
894.43	3397
894.552	3519
894.674	3462
894.796	3283
894.918	3283
895.04	3268
895.161	3420
895.283	3374
895.405	3310
895.526	3370
895.648	3420
895.769	3412
895.891	3450
896.012	3454
896.134	3458
896.255	3393
896.376	3405
896.498	3374
896.619	3450
896.74	3370
896.861	3397
896.982	3641
897.103	3884
897.224	3599
897.345	3504
897.466	3443
897.587	3466
897.708	3614
897.828	3511
897.949	3431
898.07	3363
898.19	3393
898.311	3576
898.431	3454
898.552	3485
898.672	3587
898.792	3584
898.913	3507
899.033	3409
899.153	3264
899.273	3226
899.393	3275
899.513	3306
899.633	3310
899.753	3336
899.873	3374
899.993	3344
900.113	3321
900.232	3340
900.352	3344
900.472	3302
900.591	3214
900.711	3287
900.83	3275
900.95	3374
901.069	3443
901.189	3344
901.308	3169
901.427	3097
901.546	3188
901.665	3253
901.784	3321
901.904	3203
902.023	3135
902.141	2990
902.26	2982
902.379	3123
902.498	3062
902.617	3028
902.735	3249
902.854	3233
902.973	3214
903.091	3036
903.21	3058
903.328	3131
903.446	3100
903.565	3093
903.683	3184
903.801	3127
903.919	3211
904.038	3298
904.156	3138
904.274	3275
904.392	3222
904.51	3321
904.627	3279
904.745	3409
904.863	3473
904.981	3260
905.098	3192
905.216	3207
905.334	3294
905.451	3313
905.569	3321
905.686	3393
905.803	3435
905.921	3264
906.038	3428
906.155	3348
906.272	3283
906.389	3329
906.506	3211
906.623	3237
906.74	3260
906.857	3165
906.974	3237
907.091	3458
907.208	3568
907.324	3450
907.441	3359
907.557	3226
907.674	3214
907.79	3222
907.907	3245
908.023	3336
908.139	3351
908.256	3363
908.372	3351
908.488	3370
908.604	3233
908.72	3241
908.836	3272
908.952	3291
909.068	3317
909.184	3450
909.3	3389
909.415	3469
909.531	3458
909.647	3272
909.762	3298
909.878	3268
909.993	3359
910.108	3317
910.224	3302
910.339	3378
910.454	3336
910.57	3253
910.685	3222
910.8	3606
910.915	3519
911.03	3431
911.145	3287
911.259	3256
911.374	3302
911.489	3256
911.604	3192
911.718	3104
911.833	3146
911.947	3013
912.062	2963
912.176	3165
912.291	3199
912.405	3211
912.519	3447
912.633	3473
912.748	3317
912.862	3237
912.976	3165
913.09	3058
913.204	3127
913.318	3222
913.431	3310
913.545	3279
913.659	3401
913.772	3382
913.886	3195
914	3131
914.113	3348
914.226	3370
914.34	3393
914.453	3237
914.566	3409
914.68	3226
914.793	3283
914.906	3119
915.019	3077
915.132	3085
915.245	3116
915.358	3207
915.47	3165
915.583	3237
915.696	3283
915.809	3409
915.921	3409
916.034	3256
916.146	3218
916.259	3211
916.371	3348
916.483	3355
916.595	3279
916.708	3310
916.82	3313
916.932	3336
917.044	3351
917.156	3310
917.268	3237
917.38	3279
917.491	3233
917.603	3386
917.715	3431
917.826	3424
917.938	3359
918.049	3272
918.161	3386
918.272	3542
918.384	3526
918.495	3485
918.606	3310
918.717	3291
918.828	3351
918.939	3382
919.05	3283
919.161	3397
919.272	3184
919.383	3237
919.494	3530
919.604	3690
919.715	3450
919.826	3401
919.936	3481
920.047	3599
920.157	3553
920.267	3743
920.378	3599
920.488	3538
920.598	3766
920.708	3991
920.818	3831
920.928	3846
921.038	4021
921.148	4048
921.258	3736
921.368	3648
921.477	3606
921.587	3591
921.697	3466
921.806	3618
921.916	3542
922.025	3389
922.134	3367
922.244	3359
922.353	3488
922.462	3310
922.571	3256
922.68	3127
922.789	3108
922.898	3184
923.007	3119
923.116	3245
923.224	3222
923.333	3237
923.442	3142
923.55	3093
923.659	3199
923.767	3260
923.876	3150
923.984	3310
924.092	3135
924.201	3203
924.309	3249
924.417	3302
924.525	3218
924.633	3272
924.741	4017
924.849	3058
924.956	3317
925.064	3131
925.172	3070
925.279	3146
925.387	3222
925.494	3203
925.602	3439
925.709	3355
925.816	3218
925.924	3351
926.031	3435
926.138	3329
926.245	3351
926.352	3264
926.459	3469
926.566	3500
926.673	3348
926.779	3279
926.886	3310
926.993	3207
927.099	3161
927.206	3146
927.312	3131
927.419	3287
927.525	3245
927.631	3253
927.737	3211
927.843	3154
927.95	3104
928.056	3100
928.162	3192
928.267	3283
928.373	3827
928.479	3355
928.585	3097
928.69	3256
928.796	3302
928.901	3203
929.007	3085
929.112	3214
929.218	3207
929.323	3161
929.428	3188
929.533	3363
929.638	3112
929.743	3241
929.848	3283
929.953	3218
930.058	3157
930.163	3036
930.267	3077
930.372	3214
930.477	3062
930.581	3321
930.685	3211
930.79	3108
930.894	3154
930.998	3169
931.103	3287
931.207	3005
931.311	2952
931.415	2971
931.519	2792
931.623	2815
