Data from test_V78500241_1392.txt Node
Date: Fri Mar 25 16:24:50 CST 2022
User: usil
Spectrometer: V785-0024
Trigger mode: 0
Integration Time (sec): 4.000000E-1
Scans to average: 1
Nonlinearity correction enabled: false
Boxcar width: 0
Storing dark spectrum: false
XAxis mode: Wavelengths
Number of Pixels in Spectrum: 1024
>>>>>Begin Spectral Data<<<<<
801.071	2929
801.214	3013
801.356	2929
801.499	2948
801.641	2910
801.783	2956
801.926	3032
802.068	3028
802.211	3020
802.353	3032
802.496	2982
802.638	3028
802.78	3047
802.923	3108
803.065	3024
803.208	2922
803.35	2944
803.492	2963
803.635	2948
803.777	2819
803.919	2895
804.061	3222
804.204	2982
804.346	2929
804.488	2845
804.63	2998
804.773	2872
804.915	2941
805.057	3138
805.199	2944
805.341	2994
805.483	3055
805.626	3024
805.768	2956
805.91	3123
806.052	3100
806.194	3047
806.336	3268
806.478	3032
806.62	2948
806.762	2982
806.904	3047
807.046	3176
807.188	3024
807.33	2941
807.472	3013
807.614	2922
807.756	3013
807.898	2933
808.04	2845
808.182	2948
808.324	2979
808.465	2842
808.607	2864
808.749	2785
808.891	2849
809.033	2952
809.174	2971
809.316	2910
809.458	2914
809.6	2811
809.741	2785
809.883	2777
810.025	2861
810.166	2861
810.308	2845
810.45	2876
810.591	2807
810.733	2781
810.875	2838
811.016	2788
811.158	2792
811.299	2834
811.441	2910
811.582	2872
811.724	2823
811.865	2834
812.007	2906
812.148	2876
812.29	2872
812.431	2876
812.573	2952
812.714	2963
812.855	3024
812.997	3032
813.138	3150
813.279	3005
813.421	2979
813.562	2956
813.703	2880
813.845	2929
813.986	2792
814.127	2750
814.268	2838
814.41	2826
814.551	2834
814.692	2868
814.833	2815
814.974	2906
815.115	2994
815.256	2838
815.397	2834
815.539	2845
815.68	2792
815.821	2758
815.962	2948
816.103	2922
816.244	2868
816.385	2845
816.526	2944
816.666	2922
816.807	2769
816.948	2910
817.089	2910
817.23	2826
817.371	2788
817.512	2819
817.653	2819
817.793	2834
817.934	2883
818.075	2952
818.216	3024
818.356	3039
818.497	2899
818.638	2807
818.778	2826
818.919	2804
819.06	2746
819.2	2883
819.341	2834
819.481	2804
819.622	2933
819.762	3112
819.903	3024
820.043	2899
820.184	2902
820.324	2902
820.465	3005
820.605	3028
820.746	3020
820.886	2948
821.026	3116
821.167	3108
821.307	3302
821.447	3283
821.588	3256
821.728	3199
821.868	3222
822.008	3108
822.149	3180
822.289	3249
822.429	3123
822.569	3055
822.709	3173
822.849	3009
822.99	3047
823.13	3154
823.27	3203
823.41	3100
823.55	3184
823.69	3173
823.83	3180
823.97	3116
824.11	2971
824.25	3032
824.389	3036
824.529	3108
824.669	3036
824.809	3195
824.949	3241
825.089	3195
825.228	3169
825.368	2971
825.508	2986
825.648	2971
825.787	3020
825.927	3032
826.067	2979
826.206	3001
826.346	3058
826.485	3097
826.625	3142
826.765	3253
826.904	3180
827.044	2994
827.183	2967
827.323	2902
827.462	2963
827.601	2937
827.741	2929
827.88	2986
828.02	2819
828.159	2979
828.298	3043
828.437	3135
828.577	3032
828.716	3237
828.855	3074
828.994	2933
829.134	2853
829.273	2944
829.412	2857
829.551	2868
829.69	2902
829.829	2998
829.968	3119
830.107	2994
830.246	3047
830.385	2933
830.524	2876
830.663	2796
830.802	2731
830.941	2648
831.08	2629
831.219	2769
831.357	2762
831.496	2960
831.635	2708
831.774	2663
831.913	2621
832.051	2537
832.19	2575
832.329	2693
832.467	2514
832.606	2480
832.744	2610
832.883	2568
833.022	2613
833.16	2632
833.299	2678
833.437	2686
833.576	2712
833.714	2682
833.852	2697
833.991	2754
834.129	2864
834.267	2823
834.406	2769
834.544	2857
834.682	2883
834.821	2910
834.959	3043
835.097	2872
835.235	3093
835.373	2967
835.511	3020
835.65	2967
835.788	2994
835.926	2826
836.064	2796
836.202	2849
836.34	3104
836.478	3150
836.615	3062
836.753	3146
836.891	3260
837.029	3154
837.167	3093
837.305	3032
837.443	3043
837.58	2956
837.718	3127
837.856	3077
837.993	3043
838.131	3146
838.269	3089
838.406	3131
838.544	3112
838.681	2956
838.819	2910
838.956	2773
839.094	2823
839.231	2914
839.369	3017
839.506	3329
839.643	3226
839.781	3028
839.918	2941
840.055	3081
840.193	3051
840.33	3066
840.467	3127
840.604	3142
840.742	3393
840.879	3051
841.016	3066
841.153	3138
841.29	3332
841.427	3260
841.564	3283
841.701	3298
841.838	3222
841.975	3146
842.112	3222
842.249	3077
842.385	3058
842.522	3253
842.659	3081
842.796	3051
842.933	3104
843.069	3039
843.206	3036
843.343	3173
843.479	3100
843.616	3131
843.752	2891
843.889	2849
844.025	3077
844.162	2899
844.298	3062
844.435	2922
844.571	2902
844.708	3081
844.844	3150
844.98	3260
845.117	3207
845.253	3032
845.389	3009
845.525	3100
845.661	3116
845.798	3013
845.934	3074
846.07	3051
846.206	3199
846.342	3294
846.478	3241
846.614	3081
846.75	3043
846.886	2994
847.022	3230
847.158	3150
847.294	3203
847.429	3214
847.565	3195
847.701	3473
847.837	3013
847.972	2982
848.108	3142
848.244	3138
848.379	3005
848.515	2982
848.65	2944
848.786	2967
848.921	3017
849.057	3089
849.192	3146
849.328	3055
849.463	3104
849.598	3066
849.734	3055
849.869	2956
850.004	2922
850.14	2990
850.275	2899
850.41	2838
850.545	2849
850.68	2937
850.815	2975
850.95	2963
851.085	3154
851.22	3077
851.355	3062
851.49	2944
851.625	2994
851.76	3047
851.895	2979
852.03	2933
852.165	3005
852.299	3070
852.434	3131
852.569	3138
852.703	3165
852.838	3237
852.973	3329
853.107	3363
853.242	3165
853.376	3100
853.511	3013
853.645	3032
853.78	3233
853.914	3131
854.048	3127
854.183	3089
854.317	3108
854.451	3336
854.585	3108
854.72	3112
854.854	3199
854.988	3043
855.122	3085
855.256	2944
855.39	3104
855.524	3256
855.658	3207
855.792	3131
855.926	3192
856.06	3195
856.194	3291
856.327	3199
856.461	3047
856.595	3062
856.729	3093
856.862	3207
856.996	3146
857.13	3249
857.263	3199
857.397	3310
857.53	3138
857.664	3176
857.797	3214
857.931	3233
858.064	3119
858.197	3203
858.331	3123
858.464	3074
858.597	2998
858.731	3135
858.864	3119
858.997	3089
859.13	3142
859.263	3176
859.396	3176
859.529	3036
859.662	3085
859.795	3055
859.928	3097
860.061	3260
860.194	3283
860.327	3119
860.46	3081
860.592	3211
860.725	3241
860.858	3256
860.99	3108
861.123	3020
861.256	3055
861.388	3116
861.521	3724
861.653	3051
861.786	3001
861.918	2967
862.05	3058
862.183	3074
862.315	3146
862.447	3169
862.58	3077
862.712	2952
862.844	2910
862.976	2967
863.108	3005
863.24	3287
863.372	2864
863.504	2948
863.636	2963
863.768	3020
863.9	2975
864.032	2922
864.164	2956
864.296	3024
864.428	3070
864.559	3108
864.691	3043
864.823	3009
864.954	3070
865.086	3058
865.217	2979
865.349	2944
865.48	2971
865.612	3028
865.743	3127
865.875	2982
866.006	2941
866.137	2979
866.269	2929
866.4	2933
866.531	2952
866.662	2910
866.793	2906
866.924	2868
867.055	2963
867.186	2902
867.317	2906
867.448	2838
867.579	2807
867.71	2880
867.841	2796
867.972	2891
868.103	2876
868.233	2887
868.364	2857
868.495	2891
868.625	3127
868.756	3138
868.886	3005
869.017	3005
869.147	3165
869.278	3150
869.408	3070
869.539	3024
869.669	3097
869.799	3028
869.929	3119
870.06	3119
870.19	3291
870.32	3340
870.45	3253
870.58	3389
870.71	3450
870.84	3405
870.97	3283
871.1	3218
871.23	3481
871.36	3447
871.489	3348
871.619	3370
871.749	3405
871.879	3420
872.008	3496
872.138	3321
872.267	3287
872.397	3123
872.526	3116
872.656	2971
872.785	3104
872.915	3249
873.044	3313
873.173	3184
873.303	3245
873.432	3207
873.561	3199
873.69	3138
873.819	3131
873.948	3184
874.077	3097
874.206	3077
874.335	3085
874.464	3165
874.593	3374
874.722	3241
874.851	3374
874.979	3321
875.108	3291
875.237	3214
875.365	3195
875.494	3127
875.623	3233
875.751	3062
875.88	3116
876.008	3184
876.136	3230
876.265	3355
876.393	3473
876.521	3405
876.65	3420
876.778	3359
876.906	3272
877.034	3203
877.162	3245
877.29	3173
877.418	3245
877.546	3211
877.674	3260
877.802	3241
877.93	3207
878.058	3184
878.185	3123
878.313	3230
878.441	3218
878.568	3085
878.696	3154
878.824	3245
878.951	3306
879.079	3412
879.206	3591
879.333	3420
879.461	3325
879.588	3363
879.715	3511
879.842	3587
879.97	3363
880.097	3169
880.224	3146
880.351	3230
880.478	3222
880.605	3169
880.732	3214
880.859	3507
880.986	3283
881.112	3313
881.239	3207
881.366	3089
881.493	3062
881.619	2994
881.746	3074
881.872	3070
881.999	3108
882.125	3127
882.252	3264
882.378	3329
882.505	3389
882.631	3245
882.757	3192
882.883	3180
883.01	3199
883.136	3127
883.262	3108
883.388	3097
883.514	3306
883.64	3336
883.766	3306
883.892	3226
884.018	3249
884.143	3431
884.269	3526
884.395	3218
884.52	3135
884.646	3138
884.772	3077
884.897	3058
885.023	3214
885.148	3363
885.274	3370
885.399	3370
885.524	3264
885.65	3283
885.775	3329
885.9	3260
886.025	3393
886.15	3359
886.275	3325
886.4	3214
886.525	3310
886.65	3287
886.775	3268
886.9	3481
887.025	3648
887.149	3367
887.274	3264
887.399	3135
887.523	3188
887.648	3169
887.773	3203
887.897	3348
888.021	3409
888.146	3275
888.27	3416
888.395	3507
888.519	3454
888.643	3393
888.767	3477
888.891	3329
889.015	3222
889.139	3275
889.263	3264
889.387	3389
889.511	3504
889.635	3370
889.759	3291
889.883	3306
890.006	3409
890.13	3504
890.254	3275
890.377	3340
890.501	3226
890.624	3195
890.748	3317
890.871	3192
890.995	3108
891.118	3055
891.241	3203
891.364	3256
891.488	3272
891.611	3192
891.734	3233
891.857	3283
891.98	3226
892.103	3344
892.226	3298
892.349	3222
892.471	3097
892.594	3222
892.717	3287
892.839	3298
892.962	3275
893.085	3359
893.207	3256
893.33	3135
893.452	3245
893.575	3325
893.697	3222
893.819	3450
893.941	3477
894.064	3443
894.186	3253
894.308	3298
894.43	3420
894.552	3530
894.674	3458
894.796	3279
894.918	3287
895.04	3294
895.161	3405
895.283	3428
895.405	3317
895.526	3367
895.648	3412
895.769	3420
895.891	3447
896.012	3450
896.134	3473
896.255	3409
896.376	3351
896.498	3397
896.619	3439
896.74	3359
896.861	3359
896.982	3709
897.103	3827
897.224	3576
897.345	3526
897.466	3462
897.587	3485
897.708	3587
897.828	3507
897.949	3458
898.07	3317
898.19	3416
898.311	3568
898.431	3469
898.552	3519
898.672	3572
898.792	3549
898.913	3534
899.033	3389
899.153	3291
899.273	3222
899.393	3287
899.513	3355
899.633	3321
899.753	3348
899.873	3329
899.993	3409
900.113	3321
900.232	3397
900.352	3355
900.472	3283
900.591	3169
900.711	3344
900.83	3233
900.95	3393
901.069	3500
901.189	3329
901.308	3157
901.427	3108
901.546	3184
901.665	3313
901.784	3317
901.904	3203
902.023	3173
902.141	3024
902.26	2982
902.379	3157
902.498	3097
902.617	3058
902.735	3222
902.854	3245
902.973	3214
903.091	3024
903.21	3036
903.328	3100
903.446	3104
903.565	3070
903.683	3188
903.801	3161
903.919	3241
904.038	3268
904.156	3154
904.274	3298
904.392	3249
904.51	3264
904.627	3336
904.745	3477
904.863	3496
904.981	3313
905.098	3169
905.216	3249
905.334	3302
905.451	3275
905.569	3317
905.686	3397
905.803	3431
905.921	3268
906.038	3409
906.155	3310
906.272	3233
906.389	3325
906.506	3218
906.623	3260
906.74	3268
906.857	3173
906.974	3279
907.091	3454
907.208	3542
907.324	3477
907.441	3363
907.557	3226
907.674	3214
907.79	3230
907.907	3279
908.023	3389
908.139	3374
908.256	3363
908.372	3321
908.488	3344
908.604	3279
908.72	3256
908.836	3264
908.952	3260
909.068	3291
909.184	3458
909.3	3401
909.415	3507
909.531	3492
909.647	3298
909.762	3302
909.878	3279
909.993	3359
910.108	3340
910.224	3344
910.339	3412
910.454	3321
910.57	3291
910.685	3211
910.8	3595
910.915	3523
911.03	3374
911.145	3245
911.259	3245
911.374	3329
911.489	3233
911.604	3192
911.718	3104
911.833	3150
911.947	3009
912.062	2952
912.176	3104
912.291	3218
912.405	3169
912.519	3435
912.633	3485
912.748	3359
912.862	3256
912.976	3169
913.09	3055
913.204	3142
913.318	3173
913.431	3306
913.545	3336
913.659	3363
913.772	3348
913.886	3199
914	3241
914.113	3336
914.226	3401
914.34	3382
914.453	3211
914.566	3397
914.68	3268
914.793	3294
914.906	3108
915.019	3108
915.132	3070
915.245	3138
915.358	3218
915.47	3218
915.583	3275
915.696	3291
915.809	3389
915.921	3412
916.034	3275
916.146	3256
916.259	3180
916.371	3374
916.483	3386
916.595	3268
916.708	3344
916.82	3355
916.932	3321
917.044	3348
917.156	3336
917.268	3283
917.38	3283
917.491	3313
917.603	3325
917.715	3454
917.826	3458
917.938	3370
918.049	3283
918.161	3420
918.272	3561
918.384	3561
918.495	3496
918.606	3325
918.717	3291
918.828	3351
918.939	3431
919.05	3283
919.161	3382
919.272	3161
919.383	3291
919.494	3500
919.604	3679
919.715	3485
919.826	3382
919.936	3435
920.047	3591
920.157	3564
920.267	3774
920.378	3584
920.488	3542
920.598	3781
920.708	3922
920.818	3827
920.928	3793
921.038	3979
921.148	3975
921.258	3698
921.368	3629
921.477	3591
921.587	3538
921.697	3462
921.806	3614
921.916	3523
922.025	3344
922.134	3367
922.244	3287
922.353	3428
922.462	3245
922.571	3199
922.68	3097
922.789	3097
922.898	3184
923.007	3085
923.116	3199
923.224	3150
923.333	3195
923.442	3112
923.55	3074
923.659	3173
923.767	3218
923.876	3146
923.984	3275
924.092	3081
924.201	3199
924.309	3195
924.417	3283
924.525	3180
924.633	3272
924.741	3991
924.849	3039
924.956	3256
925.064	3070
925.172	3055
925.279	3085
925.387	3184
925.494	3195
925.602	3378
925.709	3336
925.816	3207
925.924	3321
926.031	3393
926.138	3325
926.245	3332
926.352	3245
926.459	3397
926.566	3492
926.673	3268
926.779	3237
926.886	3222
926.993	3146
927.099	3157
927.206	3116
927.312	3112
927.419	3195
927.525	3180
927.631	3237
927.737	3157
927.843	3112
927.95	3032
928.056	3108
928.162	3123
928.267	3207
928.373	3835
928.479	3291
928.585	3047
928.69	3218
928.796	3272
928.901	3154
929.007	3070
929.112	3195
929.218	3169
929.323	3146
929.428	3154
929.533	3306
929.638	3123
929.743	3199
929.848	3256
929.953	3214
930.058	3169
930.163	2982
930.267	3077
930.372	3176
930.477	3043
930.581	3268
930.685	3176
930.79	3028
930.894	3112
930.998	3081
931.103	3245
931.207	2963
931.311	2948
931.415	2922
931.519	2777
931.623	2800
