Data from test_V78500241_2017.txt Node
Date: Fri Mar 25 16:29:10 CST 2022
User: usil
Spectrometer: V785-0024
Trigger mode: 0
Integration Time (sec): 4.000000E-1
Scans to average: 1
Nonlinearity correction enabled: false
Boxcar width: 0
Storing dark spectrum: false
XAxis mode: Wavelengths
Number of Pixels in Spectrum: 1024
>>>>>Begin Spectral Data<<<<<
801.071	2910
801.214	2944
801.356	2887
801.499	2902
801.641	2868
801.783	2937
801.926	3036
802.068	2982
802.211	2971
802.353	3032
802.496	2941
802.638	3017
802.78	3032
802.923	3074
803.065	3051
803.208	2880
803.35	2952
803.492	2902
803.635	2948
803.777	2766
803.919	2849
804.061	3192
804.204	2937
804.346	2922
804.488	2842
804.63	2982
804.773	2887
804.915	2929
805.057	3081
805.199	2925
805.341	2952
805.483	3043
805.626	2979
805.768	2994
805.91	3081
806.052	3097
806.194	3051
806.336	3268
806.478	3032
806.62	2941
806.762	3009
806.904	3062
807.046	3146
807.188	2986
807.33	2925
807.472	2994
807.614	2941
807.756	2956
807.898	2922
808.04	2914
808.182	2967
808.324	2960
808.465	2910
808.607	2872
808.749	2823
808.891	2864
809.033	2967
809.174	2960
809.316	2876
809.458	2925
809.6	2796
809.741	2731
809.883	2800
810.025	2842
810.166	2861
810.308	2842
810.45	2876
810.591	2754
810.733	2773
810.875	2861
811.016	2815
811.158	2792
811.299	2804
811.441	2944
811.582	2876
811.724	2838
811.865	2849
812.007	2925
812.148	2868
812.29	2861
812.431	2868
812.573	2944
812.714	2960
812.855	3043
812.997	3043
813.138	3138
813.279	2986
813.421	3017
813.562	2979
813.703	2876
813.845	2891
813.986	2758
814.127	2670
814.268	2838
814.41	2868
814.551	2819
814.692	2864
814.833	2807
814.974	2925
815.115	2960
815.256	2842
815.397	2857
815.539	2826
815.68	2781
815.821	2823
815.962	2952
816.103	2929
816.244	2842
816.385	2864
816.526	2963
816.666	2933
816.807	2735
816.948	2861
817.089	2891
817.23	2853
817.371	2769
817.512	2800
817.653	2853
817.793	2834
817.934	2880
818.075	2979
818.216	3005
818.356	3028
818.497	2864
818.638	2830
818.778	2815
818.919	2792
819.06	2785
819.2	2887
819.341	2785
819.481	2819
819.622	2918
819.762	3097
819.903	3047
820.043	2918
820.184	2941
820.324	2918
820.465	3001
820.605	3013
820.746	3058
820.886	2899
821.026	3169
821.167	3169
821.307	3283
821.447	3275
821.588	3241
821.728	3211
821.868	3218
822.008	3085
822.149	3184
822.289	3233
822.429	3112
822.569	3089
822.709	3180
822.849	3028
822.99	3085
823.13	3138
823.27	3195
823.41	3116
823.55	3131
823.69	3176
823.83	3173
823.97	3119
824.11	3036
824.25	2994
824.389	3055
824.529	3138
824.669	3062
824.809	3165
824.949	3230
825.089	3241
825.228	3123
825.368	3028
825.508	2941
825.648	2948
825.787	3001
825.927	3024
826.067	2925
826.206	2967
826.346	3058
826.485	3051
826.625	3104
826.765	3245
826.904	3211
827.044	3013
827.183	2933
827.323	2887
827.462	2929
827.601	2925
827.741	2914
827.88	2914
828.02	2815
828.159	2963
828.298	3066
828.437	3089
828.577	3039
828.716	3253
828.855	3066
828.994	2899
829.134	2880
829.273	2906
829.412	2842
829.551	2891
829.69	2883
829.829	2986
829.968	3108
830.107	3024
830.246	3036
830.385	2910
830.524	2876
830.663	2845
830.802	2712
830.941	2644
831.08	2670
831.219	2743
831.357	2758
831.496	2960
831.635	2754
831.774	2640
831.913	2663
832.051	2560
832.19	2564
832.329	2705
832.467	2503
832.606	2514
832.744	2598
832.883	2602
833.022	2583
833.16	2625
833.299	2693
833.437	2644
833.576	2697
833.714	2743
833.852	2739
833.991	2754
834.129	2815
834.267	2819
834.406	2792
834.544	2880
834.682	2834
834.821	2872
834.959	3028
835.097	2883
835.235	3070
835.373	3001
835.511	2986
835.65	2937
835.788	2967
835.926	2819
836.064	2819
836.202	2800
836.34	3081
836.478	3104
836.615	3024
836.753	3135
836.891	3188
837.029	3127
837.167	3104
837.305	3077
837.443	3017
837.58	2956
837.718	3131
837.856	3055
837.993	3017
838.131	3119
838.269	3097
838.406	3100
838.544	3077
838.681	2944
838.819	2883
838.956	2781
839.094	2830
839.231	2929
839.369	2990
839.506	3378
839.643	3199
839.781	3024
839.918	2925
840.055	3036
840.193	3043
840.33	3043
840.467	3066
840.604	3146
840.742	3374
840.879	3055
841.016	3055
841.153	3119
841.29	3317
841.427	3279
841.564	3241
841.701	3253
841.838	3192
841.975	3176
842.112	3188
842.249	3093
842.385	3036
842.522	3237
842.659	3085
842.796	3043
842.933	3123
843.069	3066
843.206	3043
843.343	3199
843.479	3066
843.616	3150
843.752	2891
843.889	2864
844.025	3104
844.162	2868
844.298	3089
844.435	2952
844.571	2868
844.708	3108
844.844	3203
844.98	3222
845.117	3169
845.253	3032
845.389	3028
845.525	3108
845.661	3081
845.798	3001
845.934	3119
846.07	3028
846.206	3222
846.342	3291
846.478	3222
846.614	3051
846.75	3043
846.886	3032
847.022	3233
847.158	3093
847.294	3211
847.429	3233
847.565	3180
847.701	3511
847.837	2994
847.972	2971
848.108	3165
848.244	3112
848.379	2971
848.515	2925
848.65	2925
848.786	2971
848.921	2986
849.057	3055
849.192	3150
849.328	3074
849.463	3097
849.598	3077
849.734	3017
849.869	2971
850.004	2944
850.14	2967
850.275	2937
850.41	2834
850.545	2876
850.68	2952
850.815	2941
850.95	2990
851.085	3161
851.22	3119
851.355	3017
851.49	2967
851.625	2952
851.76	3005
851.895	2895
852.03	2906
852.165	3020
852.299	3089
852.434	3154
852.569	3146
852.703	3192
852.838	3237
852.973	3332
853.107	3302
853.242	3192
853.376	3058
853.511	2975
853.645	3028
853.78	3214
853.914	3135
854.048	3123
854.183	3066
854.317	3119
854.451	3317
854.585	3123
854.72	3081
854.854	3203
854.988	3074
855.122	3055
855.256	2982
855.39	3093
855.524	3237
855.658	3180
855.792	3169
855.926	3199
856.06	3256
856.194	3249
856.327	3161
856.461	3047
856.595	3074
856.729	3074
856.862	3211
856.996	3150
857.13	3142
857.263	3237
857.397	3291
857.53	3085
857.664	3203
857.797	3199
857.931	3237
858.064	3127
858.197	3203
858.331	3165
858.464	3112
858.597	2975
858.731	3138
858.864	3150
858.997	3097
859.13	3127
859.263	3188
859.396	3199
859.529	3074
859.662	3074
859.795	3047
859.928	3089
860.061	3253
860.194	3294
860.327	3131
860.46	3108
860.592	3222
860.725	3294
860.858	3249
860.99	3089
861.123	3081
861.256	3062
861.388	3138
861.521	3808
861.653	3009
861.786	2948
861.918	3001
862.05	3058
862.183	3116
862.315	3146
862.447	3222
862.58	3089
862.712	2933
862.844	2864
862.976	3028
863.108	2990
863.24	3336
863.372	2887
863.504	2963
863.636	2956
863.768	3028
863.9	3009
864.032	2883
864.164	2918
864.296	3001
864.428	3055
864.559	3085
864.691	3024
864.823	3070
864.954	3020
865.086	3043
865.217	2979
865.349	2971
865.48	3017
865.612	3009
865.743	3161
865.875	2967
866.006	2941
866.137	2944
866.269	2922
866.4	2929
866.531	2899
866.662	2914
866.793	2899
866.924	2868
867.055	2956
867.186	2910
867.317	2880
867.448	2842
867.579	2838
867.71	2853
867.841	2815
867.972	2891
868.103	2876
868.233	2872
868.364	2872
868.495	2880
868.625	3039
868.756	3135
868.886	2941
869.017	3009
869.147	3169
869.278	3123
869.408	3017
869.539	3009
869.669	3058
869.799	3051
869.929	3142
870.06	3093
870.19	3325
870.32	3199
870.45	3310
870.58	3351
870.71	3454
870.84	3454
870.97	3329
871.1	3207
871.23	3466
871.36	3473
871.489	3332
871.619	3420
871.749	3393
871.879	3435
872.008	3473
872.138	3378
872.267	3230
872.397	3165
872.526	3047
872.656	2979
872.785	3097
872.915	3249
873.044	3298
873.173	3241
873.303	3245
873.432	3237
873.561	3222
873.69	3184
873.819	3127
873.948	3176
874.077	3100
874.206	3077
874.335	3089
874.464	3226
874.593	3344
874.722	3253
874.851	3378
874.979	3325
875.108	3294
875.237	3192
875.365	3146
875.494	3150
875.623	3256
875.751	3077
875.88	3135
876.008	3180
876.136	3173
876.265	3332
876.393	3523
876.521	3405
876.65	3359
876.778	3329
876.906	3245
877.034	3211
877.162	3218
877.29	3218
877.418	3279
877.546	3222
877.674	3233
877.802	3283
877.93	3230
878.058	3131
878.185	3062
878.313	3157
878.441	3230
878.568	3036
878.696	3142
878.824	3256
878.951	3275
879.079	3428
879.206	3587
879.333	3416
879.461	3310
879.588	3348
879.715	3458
879.842	3584
879.97	3374
880.097	3127
880.224	3116
880.351	3180
880.478	3253
880.605	3169
880.732	3184
880.859	3545
880.986	3306
881.112	3325
881.239	3180
881.366	3123
881.493	3020
881.619	3013
881.746	3047
881.872	3108
881.999	3051
882.125	3112
882.252	3222
882.378	3283
882.505	3431
882.631	3249
882.757	3173
882.883	3203
883.01	3226
883.136	3173
883.262	3070
883.388	3112
883.514	3321
883.64	3359
883.766	3287
883.892	3165
884.018	3237
884.143	3401
884.269	3530
884.395	3138
884.52	3154
884.646	3173
884.772	3127
884.897	3108
885.023	3207
885.148	3321
885.274	3416
885.399	3397
885.524	3283
885.65	3253
885.775	3332
885.9	3268
886.025	3439
886.15	3355
886.275	3306
886.4	3226
886.525	3317
886.65	3287
886.775	3275
886.9	3473
887.025	3610
887.149	3378
887.274	3283
887.399	3157
887.523	3207
887.648	3222
887.773	3195
887.897	3348
888.021	3409
888.146	3283
888.27	3443
888.395	3542
888.519	3428
888.643	3393
888.767	3462
888.891	3313
889.015	3253
889.139	3302
889.263	3233
889.387	3393
889.511	3538
889.635	3431
889.759	3268
889.883	3313
890.006	3393
890.13	3473
890.254	3275
890.377	3329
890.501	3173
890.624	3211
890.748	3268
890.871	3176
890.995	3127
891.118	3066
891.241	3214
891.364	3218
891.488	3264
891.611	3112
891.734	3169
891.857	3287
891.98	3256
892.103	3279
892.226	3249
892.349	3211
892.471	3142
892.594	3253
892.717	3332
892.839	3256
892.962	3283
893.085	3382
893.207	3283
893.33	3135
893.452	3207
893.575	3336
893.697	3241
893.819	3500
893.941	3443
894.064	3458
894.186	3279
894.308	3272
894.43	3450
894.552	3530
894.674	3443
894.796	3291
894.918	3298
895.04	3287
895.161	3412
895.283	3389
895.405	3317
895.526	3359
895.648	3420
895.769	3374
895.891	3439
896.012	3409
896.134	3431
896.255	3401
896.376	3374
896.498	3351
896.619	3416
896.74	3359
896.861	3416
896.982	3637
897.103	3827
897.224	3542
897.345	3492
897.466	3473
897.587	3458
897.708	3584
897.828	3511
897.949	3477
898.07	3359
898.19	3393
898.311	3587
898.431	3431
898.552	3511
898.672	3572
898.792	3606
898.913	3519
899.033	3397
899.153	3283
899.273	3203
899.393	3298
899.513	3336
899.633	3336
899.753	3306
899.873	3279
899.993	3348
900.113	3351
900.232	3355
900.352	3329
900.472	3302
900.591	3199
900.711	3241
900.83	3253
900.95	3409
901.069	3504
901.189	3336
901.308	3146
901.427	3119
901.546	3195
901.665	3245
901.784	3355
901.904	3180
902.023	3123
902.141	2990
902.26	2979
902.379	3127
902.498	3093
902.617	3039
902.735	3176
902.854	3245
902.973	3199
903.091	3036
903.21	3074
903.328	3112
903.446	3108
903.565	3097
903.683	3199
903.801	3142
903.919	3249
904.038	3253
904.156	3176
904.274	3222
904.392	3230
904.51	3272
904.627	3272
904.745	3412
904.863	3488
904.981	3302
905.098	3154
905.216	3222
905.334	3313
905.451	3298
905.569	3275
905.686	3412
905.803	3450
905.921	3302
906.038	3401
906.155	3397
906.272	3245
906.389	3313
906.506	3222
906.623	3226
906.74	3256
906.857	3188
906.974	3222
907.091	3428
907.208	3534
907.324	3450
907.441	3370
907.557	3230
907.674	3245
907.79	3211
907.907	3275
908.023	3336
908.139	3370
908.256	3313
908.372	3359
908.488	3370
908.604	3253
908.72	3207
908.836	3329
908.952	3279
909.068	3336
909.184	3477
909.3	3397
909.415	3458
909.531	3447
909.647	3260
909.762	3294
909.878	3283
909.993	3367
910.108	3363
910.224	3321
910.339	3428
910.454	3298
910.57	3283
910.685	3230
910.8	3580
910.915	3564
911.03	3431
911.145	3275
911.259	3260
911.374	3294
911.489	3237
911.604	3207
911.718	3150
911.833	3161
911.947	2994
912.062	2975
912.176	3192
912.291	3173
912.405	3218
912.519	3443
912.633	3458
912.748	3306
912.862	3279
912.976	3192
913.09	3039
913.204	3119
913.318	3237
913.431	3355
913.545	3313
913.659	3389
913.772	3336
913.886	3226
914	3176
914.113	3351
914.226	3374
914.34	3359
914.453	3214
914.566	3412
914.68	3260
914.793	3302
914.906	3165
915.019	3104
915.132	3108
915.245	3180
915.358	3203
915.47	3180
915.583	3256
915.696	3336
915.809	3412
915.921	3431
916.034	3291
916.146	3253
916.259	3203
916.371	3393
916.483	3321
916.595	3283
916.708	3359
916.82	3332
916.932	3344
917.044	3313
917.156	3351
917.268	3253
917.38	3313
917.491	3317
917.603	3397
917.715	3416
917.826	3447
917.938	3378
918.049	3253
918.161	3428
918.272	3561
918.384	3523
918.495	3450
918.606	3351
918.717	3264
918.828	3370
918.939	3393
919.05	3294
919.161	3363
919.272	3211
919.383	3253
919.494	3485
919.604	3667
919.715	3477
919.826	3409
919.936	3435
920.047	3553
920.157	3568
920.267	3766
920.378	3572
920.488	3610
920.598	3781
920.708	3899
920.818	3816
920.928	3838
921.038	4017
921.148	4029
921.258	3694
921.368	3652
921.477	3580
921.587	3530
921.697	3424
921.806	3641
921.916	3515
922.025	3351
922.134	3374
922.244	3329
922.353	3420
922.462	3268
922.571	3260
922.68	3081
922.789	3081
922.898	3138
923.007	3100
923.116	3195
923.224	3116
923.333	3192
923.442	3051
923.55	3085
923.659	3135
923.767	3211
923.876	3119
923.984	3230
924.092	3127
924.201	3180
924.309	3169
924.417	3268
924.525	3169
924.633	3207
924.741	4139
924.849	3051
924.956	3264
925.064	3119
925.172	2994
925.279	3089
925.387	3150
925.494	3161
925.602	3306
925.709	3340
925.816	3214
925.924	3313
926.031	3367
926.138	3329
926.245	3336
926.352	3249
926.459	3435
926.566	3473
926.673	3298
926.779	3245
926.886	3233
926.993	3142
927.099	3135
927.206	3104
927.312	3142
927.419	3195
927.525	3203
927.631	3264
927.737	3146
927.843	3116
927.95	2990
928.056	3131
928.162	3176
928.267	3249
928.373	3827
928.479	3272
928.585	3051
928.69	3214
928.796	3310
928.901	3173
929.007	3047
929.112	3176
929.218	3192
929.323	3142
929.428	3135
929.533	3348
929.638	3131
929.743	3169
929.848	3245
929.953	3199
930.058	3127
930.163	3009
930.267	3032
930.372	3188
930.477	3017
930.581	3332
930.685	3184
930.79	3020
930.894	3123
930.998	3070
931.103	3291
931.207	2963
931.311	2929
931.415	2914
931.519	2788
931.623	2804
