Data from test_V78500241_478.txt Node
Date: Fri Mar 25 16:18:30 CST 2022
User: usil
Spectrometer: V785-0024
Trigger mode: 0
Integration Time (sec): 4.000000E-1
Scans to average: 1
Nonlinearity correction enabled: false
Boxcar width: 0
Storing dark spectrum: false
XAxis mode: Wavelengths
Number of Pixels in Spectrum: 1024
>>>>>Begin Spectral Data<<<<<
801.071	2925
801.214	2937
801.356	2864
801.499	2902
801.641	2872
801.783	2899
801.926	3058
802.068	2929
802.211	2990
802.353	3028
802.496	2960
802.638	3005
802.78	3043
802.923	3020
803.065	2986
803.208	2902
803.35	2902
803.492	2929
803.635	2937
803.777	2727
803.919	2838
804.061	3195
804.204	2971
804.346	2918
804.488	2842
804.63	2963
804.773	2895
804.915	2899
805.057	3093
805.199	2937
805.341	2975
805.483	3058
805.626	2979
805.768	2975
805.91	3047
806.052	3085
806.194	3070
806.336	3230
806.478	3020
806.62	2925
806.762	2994
806.904	3036
807.046	3161
807.188	2960
807.33	2887
807.472	3009
807.614	2887
807.756	2929
807.898	2929
808.04	2880
808.182	2948
808.324	2929
808.465	2887
808.607	2834
808.749	2788
808.891	2857
809.033	2971
809.174	2948
809.316	2872
809.458	2880
809.6	2743
809.741	2769
809.883	2766
810.025	2868
810.166	2853
810.308	2834
810.45	2826
810.591	2800
810.733	2769
810.875	2804
811.016	2781
811.158	2727
811.299	2781
811.441	2956
811.582	2868
811.724	2823
811.865	2819
812.007	2883
812.148	2872
812.29	2857
812.431	2872
812.573	2929
812.714	2975
812.855	3036
812.997	3051
813.138	3116
813.279	2998
813.421	2986
813.562	2963
813.703	2880
813.845	2853
813.986	2788
814.127	2724
814.268	2804
814.41	2834
814.551	2826
814.692	2842
814.833	2830
814.974	2868
815.115	2975
815.256	2830
815.397	2807
815.539	2857
815.68	2785
815.821	2769
815.962	2922
816.103	2929
816.244	2868
816.385	2872
816.526	2952
816.666	2918
816.807	2750
816.948	2906
817.089	2899
817.23	2838
817.371	2773
817.512	2777
817.653	2823
817.793	2838
817.934	2880
818.075	2956
818.216	3013
818.356	3036
818.497	2883
818.638	2788
818.778	2815
818.919	2777
819.06	2777
819.2	2876
819.341	2800
819.481	2788
819.622	2933
819.762	3100
819.903	3028
820.043	2941
820.184	2883
820.324	2914
820.465	3036
820.605	3005
820.746	3043
820.886	2925
821.026	3070
821.167	3161
821.307	3256
821.447	3245
821.588	3241
821.728	3184
821.868	3192
822.008	3074
822.149	3146
822.289	3207
822.429	3104
822.569	3074
822.709	3123
822.849	3032
822.99	3070
823.13	3173
823.27	3146
823.41	3089
823.55	3192
823.69	3123
823.83	3138
823.97	3097
824.11	3001
824.25	2986
824.389	3047
824.529	3127
824.669	3043
824.809	3192
824.949	3237
825.089	3214
825.228	3116
825.368	3005
825.508	2963
825.648	2990
825.787	2998
825.927	3005
826.067	2967
826.206	2971
826.346	3055
826.485	3089
826.625	3100
826.765	3249
826.904	3192
827.044	3001
827.183	2899
827.323	2864
827.462	2994
827.601	2899
827.741	2929
827.88	2925
828.02	2830
828.159	2975
828.298	3062
828.437	3104
828.577	3047
828.716	3211
828.855	3081
828.994	2910
829.134	2880
829.273	2929
829.412	2880
829.551	2864
829.69	2880
829.829	2960
829.968	3097
830.107	2982
830.246	3024
830.385	2899
830.524	2830
830.663	2815
830.802	2720
830.941	2667
831.08	2659
831.219	2739
831.357	2746
831.496	2937
831.635	2743
831.774	2697
831.913	2667
832.051	2522
832.19	2579
832.329	2693
832.467	2507
832.606	2469
832.744	2575
832.883	2575
833.022	2606
833.16	2613
833.299	2674
833.437	2701
833.576	2705
833.714	2712
833.852	2743
833.991	2724
834.129	2826
834.267	2807
834.406	2811
834.544	2883
834.682	2849
834.821	2853
834.959	3032
835.097	2883
835.235	3058
835.373	3009
835.511	2982
835.65	2941
835.788	2941
835.926	2842
836.064	2800
836.202	2857
836.34	3074
836.478	3161
836.615	3051
836.753	3116
836.891	3211
837.029	3146
837.167	3100
837.305	3039
837.443	3028
837.58	2971
837.718	3131
837.856	3005
837.993	2986
838.131	3108
838.269	3100
838.406	3119
838.544	3074
838.681	2937
838.819	2918
838.956	2823
839.094	2830
839.231	2895
839.369	3032
839.506	3370
839.643	3237
839.781	2994
839.918	2925
840.055	3039
840.193	3051
840.33	3062
840.467	3089
840.604	3108
840.742	3405
840.879	3024
841.016	3036
841.153	3093
841.29	3294
841.427	3275
841.564	3268
841.701	3287
841.838	3233
841.975	3142
842.112	3230
842.249	3062
842.385	3032
842.522	3294
842.659	3135
842.796	3039
842.933	3135
843.069	3009
843.206	3043
843.343	3173
843.479	3070
843.616	3135
843.752	2883
843.889	2857
844.025	3039
844.162	2876
844.298	3043
844.435	2952
844.571	2895
844.708	3089
844.844	3195
844.98	3245
845.117	3184
845.253	3074
845.389	2982
845.525	3104
845.661	3070
845.798	3017
845.934	3138
846.07	3066
846.206	3180
846.342	3279
846.478	3226
846.614	3066
846.75	3036
846.886	2975
847.022	3211
847.158	3127
847.294	3192
847.429	3226
847.565	3207
847.701	3477
847.837	3020
847.972	2994
848.108	3157
848.244	3135
848.379	2990
848.515	2914
848.65	2899
848.786	2960
848.921	3032
849.057	3058
849.192	3142
849.328	3043
849.463	3123
849.598	3051
849.734	3036
849.869	3028
850.004	2891
850.14	2933
850.275	2910
850.41	2819
850.545	2853
850.68	2944
850.815	2910
850.95	2960
851.085	3157
851.22	3104
851.355	3032
851.49	2944
851.625	2979
851.76	2967
851.895	2914
852.03	2937
852.165	3032
852.299	3097
852.434	3169
852.569	3154
852.703	3203
852.838	3272
852.973	3336
853.107	3317
853.242	3104
853.376	3055
853.511	2948
853.645	3043
853.78	3226
853.914	3100
854.048	3074
854.183	3066
854.317	3173
854.451	3302
854.585	3123
854.72	3074
854.854	3176
854.988	3047
855.122	3089
855.256	2994
855.39	3119
855.524	3184
855.658	3192
855.792	3138
855.926	3192
856.06	3188
856.194	3237
856.327	3142
856.461	3077
856.595	3062
856.729	3062
856.862	3188
856.996	3146
857.13	3207
857.263	3241
857.397	3241
857.53	3097
857.664	3195
857.797	3233
857.931	3237
858.064	3142
858.197	3199
858.331	3127
858.464	3074
858.597	2986
858.731	3123
858.864	3119
858.997	3104
859.13	3123
859.263	3184
859.396	3218
859.529	3074
859.662	3093
859.795	3020
859.928	3150
860.061	3264
860.194	3260
860.327	3138
860.46	3089
860.592	3256
860.725	3176
860.858	3272
860.99	3097
861.123	3051
861.256	3047
861.388	3127
861.521	3892
861.653	2998
861.786	2925
861.918	2990
862.05	3039
862.183	3081
862.315	3154
862.447	3180
862.58	3116
862.712	2914
862.844	2849
862.976	3043
863.108	2994
863.24	3321
863.372	2883
863.504	2956
863.636	2948
863.768	3028
863.9	2975
864.032	2937
864.164	2948
864.296	2952
864.428	3058
864.559	3089
864.691	3085
864.823	3032
864.954	3028
865.086	3024
865.217	2967
865.349	2948
865.48	2944
865.612	3020
865.743	3146
865.875	2982
866.006	2944
866.137	2952
866.269	2937
866.4	2937
866.531	2899
866.662	2864
866.793	2899
866.924	2918
867.055	3013
867.186	2914
867.317	2864
867.448	2826
867.579	2849
867.71	2880
867.841	2819
867.972	2895
868.103	2887
868.233	2864
868.364	2876
868.495	2929
868.625	3066
868.756	3173
868.886	3005
869.017	3017
869.147	3104
869.278	3119
869.408	3005
869.539	3032
869.669	3081
869.799	3047
869.929	3138
870.06	3108
870.19	3321
870.32	3298
870.45	3317
870.58	3355
870.71	3443
870.84	3431
870.97	3253
871.1	3245
871.23	3481
871.36	3431
871.489	3329
871.619	3416
871.749	3397
871.879	3401
872.008	3466
872.138	3336
872.267	3249
872.397	3123
872.526	3089
872.656	2956
872.785	3097
872.915	3279
873.044	3279
873.173	3226
873.303	3253
873.432	3222
873.561	3230
873.69	3180
873.819	3131
873.948	3188
874.077	3081
874.206	3058
874.335	3066
874.464	3199
874.593	3389
874.722	3249
874.851	3393
874.979	3363
875.108	3306
875.237	3173
875.365	3150
875.494	3154
875.623	3275
875.751	3070
875.88	3142
876.008	3203
876.136	3199
876.265	3329
876.393	3500
876.521	3420
876.65	3359
876.778	3321
876.906	3272
877.034	3184
877.162	3241
877.29	3184
877.418	3268
877.546	3207
877.674	3230
877.802	3241
877.93	3218
878.058	3146
878.185	3138
878.313	3233
878.441	3237
878.568	3058
878.696	3131
878.824	3233
878.951	3279
879.079	3435
879.206	3625
879.333	3424
879.461	3340
879.588	3374
879.715	3454
879.842	3568
879.97	3367
880.097	3195
880.224	3127
880.351	3176
880.478	3207
880.605	3222
880.732	3188
880.859	3469
880.986	3294
881.112	3317
881.239	3199
881.366	3097
881.493	3062
881.619	3017
881.746	3085
881.872	3085
881.999	3104
882.125	3123
882.252	3222
882.378	3283
882.505	3443
882.631	3260
882.757	3169
882.883	3237
883.01	3214
883.136	3173
883.262	3116
883.388	3100
883.514	3313
883.64	3367
883.766	3298
883.892	3161
884.018	3226
884.143	3412
884.269	3538
884.395	3192
884.52	3123
884.646	3154
884.772	3127
884.897	3093
885.023	3222
885.148	3317
885.274	3424
885.399	3344
885.524	3237
885.65	3237
885.775	3317
885.9	3283
886.025	3397
886.15	3359
886.275	3287
886.4	3230
886.525	3272
886.65	3298
886.775	3283
886.9	3481
887.025	3629
887.149	3405
887.274	3233
887.399	3176
887.523	3173
887.648	3150
887.773	3169
887.897	3370
888.021	3405
888.146	3313
888.27	3416
888.395	3523
888.519	3389
888.643	3424
888.767	3450
888.891	3279
889.015	3253
889.139	3279
889.263	3218
889.387	3405
889.511	3492
889.635	3397
889.759	3264
889.883	3310
890.006	3409
890.13	3420
890.254	3272
890.377	3313
890.501	3203
890.624	3199
890.748	3336
890.871	3157
890.995	3077
891.118	3032
891.241	3207
891.364	3279
891.488	3336
891.611	3169
891.734	3192
891.857	3298
891.98	3249
892.103	3344
892.226	3268
892.349	3230
892.471	3085
892.594	3230
892.717	3294
892.839	3287
892.962	3306
893.085	3294
893.207	3256
893.33	3173
893.452	3176
893.575	3291
893.697	3260
893.819	3447
893.941	3507
894.064	3466
894.186	3279
894.308	3237
894.43	3405
894.552	3496
894.674	3496
894.796	3249
894.918	3317
895.04	3256
895.161	3405
895.283	3355
895.405	3321
895.526	3382
895.648	3424
895.769	3397
895.891	3431
896.012	3435
896.134	3469
896.255	3393
896.376	3367
896.498	3332
896.619	3424
896.74	3405
896.861	3393
896.982	3686
897.103	3804
897.224	3603
897.345	3477
897.466	3428
897.587	3454
897.708	3576
897.828	3580
897.949	3454
898.07	3344
898.19	3367
898.311	3629
898.431	3416
898.552	3511
898.672	3599
898.792	3572
898.913	3519
899.033	3386
899.153	3291
899.273	3211
899.393	3287
899.513	3306
899.633	3275
899.753	3332
899.873	3325
899.993	3359
900.113	3325
900.232	3462
900.352	3298
900.472	3306
900.591	3192
900.711	3283
900.83	3226
900.95	3428
901.069	3473
901.189	3363
901.308	3165
901.427	3135
901.546	3195
901.665	3291
901.784	3298
901.904	3226
902.023	3135
902.141	2998
902.26	2960
902.379	3150
902.498	3097
902.617	3039
902.735	3169
902.854	3195
902.973	3180
903.091	3051
903.21	3097
903.328	3169
903.446	3093
903.565	3108
903.683	3199
903.801	3104
903.919	3226
904.038	3233
904.156	3180
904.274	3264
904.392	3230
904.51	3298
904.627	3283
904.745	3416
904.863	3488
904.981	3245
905.098	3112
905.216	3237
905.334	3291
905.451	3340
905.569	3332
905.686	3397
905.803	3450
905.921	3287
906.038	3409
906.155	3325
906.272	3241
906.389	3291
906.506	3214
906.623	3222
906.74	3249
906.857	3184
906.974	3222
907.091	3435
907.208	3564
907.324	3424
907.441	3393
907.557	3226
907.674	3192
907.79	3226
907.907	3268
908.023	3412
908.139	3351
908.256	3287
908.372	3389
908.488	3340
908.604	3237
908.72	3176
908.836	3291
908.952	3306
909.068	3329
909.184	3412
909.3	3370
909.415	3454
909.531	3435
909.647	3279
909.762	3264
909.878	3253
909.993	3344
910.108	3306
910.224	3321
910.339	3420
910.454	3313
910.57	3275
910.685	3203
910.8	3599
910.915	3481
911.03	3393
911.145	3249
911.259	3233
911.374	3329
911.489	3226
911.604	3211
911.718	3142
911.833	3138
911.947	3024
912.062	2948
912.176	3203
912.291	3161
912.405	3214
912.519	3412
912.633	3462
912.748	3336
912.862	3256
912.976	3142
913.09	3066
913.204	3119
913.318	3195
913.431	3294
913.545	3298
913.659	3401
913.772	3306
913.886	3222
914	3207
914.113	3313
914.226	3420
914.34	3325
914.453	3211
914.566	3401
914.68	3283
914.793	3329
914.906	3165
915.019	3108
915.132	3032
915.245	3184
915.358	3165
915.47	3233
915.583	3237
915.696	3291
915.809	3374
915.921	3382
916.034	3230
916.146	3275
916.259	3256
916.371	3382
916.483	3386
916.595	3260
916.708	3389
916.82	3367
916.932	3367
917.044	3367
917.156	3359
917.268	3283
917.38	3340
917.491	3306
917.603	3348
917.715	3450
917.826	3488
917.938	3424
918.049	3310
918.161	3431
918.272	3572
918.384	3553
918.495	3504
918.606	3351
918.717	3325
918.828	3370
918.939	3428
919.05	3340
919.161	3401
919.272	3218
919.383	3321
919.494	3530
919.604	3724
919.715	3545
919.826	3435
919.936	3515
920.047	3622
920.157	3584
920.267	3827
920.378	3637
920.488	3595
920.598	3785
920.708	3968
920.818	3880
920.928	3869
921.038	4063
921.148	4006
921.258	3759
921.368	3671
921.477	3637
921.587	3549
921.697	3538
921.806	3701
921.916	3580
922.025	3428
922.134	3389
922.244	3344
922.353	3473
922.462	3313
922.571	3291
922.68	3146
922.789	3066
922.898	3188
923.007	3138
923.116	3272
923.224	3226
923.333	3245
923.442	3138
923.55	3116
923.659	3165
923.767	3272
923.876	3192
923.984	3298
924.092	3135
924.201	3203
924.309	3264
924.417	3283
924.525	3222
924.633	3313
924.741	4105
924.849	3093
924.956	3348
925.064	3119
925.172	3062
925.279	3119
925.387	3226
925.494	3226
925.602	3382
925.709	3393
925.816	3222
925.924	3340
926.031	3420
926.138	3370
926.245	3405
926.352	3268
926.459	3431
926.566	3545
926.673	3386
926.779	3291
926.886	3264
926.993	3169
927.099	3180
927.206	3146
927.312	3154
927.419	3283
927.525	3218
927.631	3287
927.737	3135
927.843	3195
927.95	3013
928.056	3176
928.162	3195
928.267	3294
928.373	3774
928.479	3336
928.585	3097
928.69	3249
928.796	3287
928.901	3207
929.007	3028
929.112	3245
929.218	3237
929.323	3154
929.428	3161
929.533	3382
929.638	3154
929.743	3169
929.848	3317
929.953	3218
930.058	3180
930.163	3036
930.267	3089
930.372	3211
930.477	3047
930.581	3389
930.685	3211
930.79	3100
930.894	3131
930.998	3116
931.103	3310
931.207	2986
931.311	2998
931.415	2937
931.519	2811
931.623	2842
