Data from test_V78500241_1221.txt Node
Date: Fri Mar 25 16:23:39 CST 2022
User: usil
Spectrometer: V785-0024
Trigger mode: 0
Integration Time (sec): 4.000000E-1
Scans to average: 1
Nonlinearity correction enabled: false
Boxcar width: 0
Storing dark spectrum: false
XAxis mode: Wavelengths
Number of Pixels in Spectrum: 1024
>>>>>Begin Spectral Data<<<<<
801.071	2910
801.214	2994
801.356	2872
801.499	2902
801.641	2895
801.783	2929
801.926	3051
802.068	2956
802.211	3039
802.353	3062
802.496	2960
802.638	3028
802.78	3081
802.923	3089
803.065	3043
803.208	2922
803.35	2963
803.492	2979
803.635	2933
803.777	2746
803.919	2845
804.061	3230
804.204	2963
804.346	2937
804.488	2876
804.63	2994
804.773	2895
804.915	2944
805.057	3097
805.199	2952
805.341	2982
805.483	3047
805.626	2998
805.768	2998
805.91	3112
806.052	3135
806.194	3055
806.336	3211
806.478	3058
806.62	2979
806.762	2979
806.904	3074
807.046	3154
807.188	3013
807.33	2918
807.472	2956
807.614	2929
807.756	2982
807.898	2941
808.04	2899
808.182	3001
808.324	2948
808.465	2880
808.607	2891
808.749	2834
808.891	2845
809.033	2975
809.174	2986
809.316	2918
809.458	2883
809.6	2781
809.741	2777
809.883	2766
810.025	2830
810.166	2868
810.308	2857
810.45	2895
810.591	2777
810.733	2762
810.875	2830
811.016	2796
811.158	2766
811.299	2834
811.441	2922
811.582	2960
811.724	2834
811.865	2845
812.007	2929
812.148	2887
812.29	2876
812.431	2895
812.573	2956
812.714	3028
812.855	3047
812.997	3047
813.138	3138
813.279	3017
813.421	2967
813.562	2979
813.703	2868
813.845	2918
813.986	2785
814.127	2727
814.268	2834
814.41	2845
814.551	2838
814.692	2868
814.833	2842
814.974	2902
815.115	2967
815.256	2845
815.397	2826
815.539	2849
815.68	2807
815.821	2826
815.962	2922
816.103	2941
816.244	2868
816.385	2857
816.526	2975
816.666	2941
816.807	2773
816.948	2902
817.089	2929
817.23	2861
817.371	2777
817.512	2796
817.653	2845
817.793	2853
817.934	2910
818.075	2952
818.216	2994
818.356	3062
818.497	2845
818.638	2800
818.778	2830
818.919	2792
819.06	2743
819.2	2902
819.341	2807
819.481	2815
819.622	2937
819.762	3112
819.903	3081
820.043	2922
820.184	2933
820.324	2929
820.465	3032
820.605	3001
820.746	3066
820.886	2937
821.026	3104
821.167	3165
821.307	3249
821.447	3279
821.588	3199
821.728	3211
821.868	3195
822.008	3081
822.149	3218
822.289	3279
822.429	3100
822.569	3062
822.709	3199
822.849	3043
822.99	3047
823.13	3161
823.27	3233
823.41	3138
823.55	3150
823.69	3154
823.83	3211
823.97	3116
824.11	3024
824.25	2998
824.389	3085
824.529	3097
824.669	3089
824.809	3222
824.949	3245
825.089	3230
825.228	3211
825.368	2994
825.508	2941
825.648	2998
825.787	3039
825.927	3055
826.067	2941
826.206	2944
826.346	3024
826.485	3058
826.625	3070
826.765	3298
826.904	3233
827.044	2994
827.183	2929
827.323	2864
827.462	2994
827.601	2952
827.741	2899
827.88	2952
828.02	2868
828.159	2971
828.298	2986
828.437	3127
828.577	3051
828.716	3264
828.855	3104
828.994	2899
829.134	2906
829.273	2952
829.412	2849
829.551	2880
829.69	2864
829.829	2979
829.968	3127
830.107	3024
830.246	3005
830.385	2937
830.524	2876
830.663	2811
830.802	2796
830.941	2708
831.08	2632
831.219	2800
831.357	2766
831.496	2944
831.635	2708
831.774	2648
831.913	2651
832.051	2587
832.19	2575
832.329	2697
832.467	2530
832.606	2473
832.744	2598
832.883	2564
833.022	2606
833.16	2655
833.299	2689
833.437	2670
833.576	2720
833.714	2735
833.852	2724
833.991	2762
834.129	2819
834.267	2864
834.406	2792
834.544	2868
834.682	2857
834.821	2891
834.959	3074
835.097	2929
835.235	3066
835.373	2986
835.511	3047
835.65	2948
835.788	2941
835.926	2861
836.064	2792
836.202	2883
836.34	3081
836.478	3131
836.615	3017
836.753	3127
836.891	3237
837.029	3127
837.167	3074
837.305	3051
837.443	3074
837.58	2975
837.718	3123
837.856	3074
837.993	3051
838.131	3097
838.269	3138
838.406	3089
838.544	3081
838.681	2952
838.819	2960
838.956	2796
839.094	2842
839.231	2929
839.369	3020
839.506	3340
839.643	3230
839.781	3005
839.918	2956
840.055	3047
840.193	3043
840.33	3070
840.467	3127
840.604	3142
840.742	3370
840.879	3032
841.016	3055
841.153	3081
841.29	3340
841.427	3275
841.564	3264
841.701	3298
841.838	3222
841.975	3180
842.112	3233
842.249	3123
842.385	3032
842.522	3241
842.659	3104
842.796	3062
842.933	3081
843.069	3001
843.206	3017
843.343	3195
843.479	3100
843.616	3100
843.752	2922
843.889	2883
844.025	3085
844.162	2929
844.298	3070
844.435	2925
844.571	2941
844.708	3051
844.844	3203
844.98	3218
845.117	3165
845.253	3062
845.389	3020
845.525	3127
845.661	3112
845.798	2982
845.934	3089
846.07	3085
846.206	3233
846.342	3291
846.478	3211
846.614	3070
846.75	3085
846.886	3001
847.022	3245
847.158	3112
847.294	3249
847.429	3226
847.565	3173
847.701	3511
847.837	3032
847.972	3009
848.108	3131
848.244	3119
848.379	2990
848.515	2925
848.65	2944
848.786	2986
848.921	3043
849.057	3123
849.192	3146
849.328	3032
849.463	3100
849.598	3051
849.734	2994
849.869	2971
850.004	2902
850.14	2933
850.275	2929
850.41	2826
850.545	2872
850.68	2933
850.815	2967
850.95	2963
851.085	3169
851.22	3116
851.355	3020
851.49	2990
851.625	3005
851.76	2986
851.895	2922
852.03	2933
852.165	3039
852.299	3097
852.434	3169
852.569	3112
852.703	3188
852.838	3283
852.973	3344
853.107	3344
853.242	3135
853.376	3104
853.511	2982
853.645	3036
853.78	3230
853.914	3154
854.048	3097
854.183	3108
854.317	3127
854.451	3275
854.585	3127
854.72	3077
854.854	3184
854.988	3051
855.122	3123
855.256	2979
855.39	3135
855.524	3207
855.658	3154
855.792	3150
855.926	3169
856.06	3211
856.194	3275
856.327	3112
856.461	3066
856.595	3058
856.729	3077
856.862	3214
856.996	3161
857.13	3165
857.263	3199
857.397	3302
857.53	3123
857.664	3203
857.797	3245
857.931	3230
858.064	3123
858.197	3253
858.331	3150
858.464	3066
858.597	2990
858.731	3123
858.864	3123
858.997	3081
859.13	3138
859.263	3161
859.396	3192
859.529	3047
859.662	3093
859.795	3066
859.928	3127
860.061	3294
860.194	3268
860.327	3127
860.46	3085
860.592	3253
860.725	3253
860.858	3207
860.99	3062
861.123	3062
861.256	2998
861.388	3176
861.521	3724
861.653	2975
861.786	2986
861.918	2994
862.05	3093
862.183	3081
862.315	3119
862.447	3176
862.58	3058
862.712	2925
862.844	2868
862.976	3020
863.108	3043
863.24	3412
863.372	2857
863.504	2960
863.636	2933
863.768	3028
863.9	2971
864.032	2899
864.164	2967
864.296	3017
864.428	3081
864.559	3131
864.691	3062
864.823	3020
864.954	3017
865.086	3085
865.217	2933
865.349	2914
865.48	2960
865.612	2975
865.743	3131
865.875	2948
866.006	2960
866.137	2971
866.269	2937
866.4	2922
866.531	2941
866.662	2880
866.793	2845
866.924	2868
867.055	2948
867.186	2918
867.317	2876
867.448	2842
867.579	2830
867.71	2849
867.841	2807
867.972	2918
868.103	2880
868.233	2872
868.364	2887
868.495	2880
868.625	3077
868.756	3146
868.886	2986
869.017	3013
869.147	3146
869.278	3116
869.408	3039
869.539	3020
869.669	3070
869.799	3024
869.929	3135
870.06	3112
870.19	3291
870.32	3332
870.45	3317
870.58	3348
870.71	3450
870.84	3420
870.97	3291
871.1	3233
871.23	3477
871.36	3447
871.489	3310
871.619	3393
871.749	3401
871.879	3409
872.008	3488
872.138	3325
872.267	3249
872.397	3165
872.526	3074
872.656	2979
872.785	3119
872.915	3260
873.044	3264
873.173	3173
873.303	3249
873.432	3222
873.561	3199
873.69	3161
873.819	3127
873.948	3165
874.077	3116
874.206	3062
874.335	3036
874.464	3226
874.593	3359
874.722	3214
874.851	3386
874.979	3329
875.108	3332
875.237	3241
875.365	3180
875.494	3157
875.623	3222
875.751	3100
875.88	3119
876.008	3207
876.136	3214
876.265	3363
876.393	3519
876.521	3378
876.65	3435
876.778	3325
876.906	3264
877.034	3245
877.162	3211
877.29	3150
877.418	3256
877.546	3283
877.674	3222
877.802	3230
877.93	3211
878.058	3184
878.185	3070
878.313	3207
878.441	3249
878.568	3108
878.696	3135
878.824	3226
878.951	3283
879.079	3420
879.206	3641
879.333	3428
879.461	3298
879.588	3344
879.715	3481
879.842	3564
879.97	3367
880.097	3173
880.224	3138
880.351	3199
880.478	3176
880.605	3230
880.732	3203
880.859	3485
880.986	3313
881.112	3313
881.239	3192
881.366	3135
881.493	3066
881.619	2990
881.746	3043
881.872	3104
881.999	3070
882.125	3150
882.252	3260
882.378	3298
882.505	3409
882.631	3253
882.757	3176
882.883	3195
883.01	3226
883.136	3169
883.262	3131
883.388	3104
883.514	3355
883.64	3340
883.766	3306
883.892	3173
884.018	3245
884.143	3378
884.269	3542
884.395	3226
884.52	3161
884.646	3169
884.772	3100
884.897	3104
885.023	3195
885.148	3287
885.274	3412
885.399	3363
885.524	3287
885.65	3226
885.775	3279
885.9	3279
886.025	3428
886.15	3355
886.275	3321
886.4	3256
886.525	3317
886.65	3279
886.775	3241
886.9	3462
887.025	3606
887.149	3424
887.274	3287
887.399	3169
887.523	3180
887.648	3157
887.773	3157
887.897	3325
888.021	3401
888.146	3298
888.27	3439
888.395	3496
888.519	3374
888.643	3443
888.767	3428
888.891	3302
889.015	3207
889.139	3283
889.263	3245
889.387	3389
889.511	3511
889.635	3428
889.759	3249
889.883	3294
890.006	3344
890.13	3496
890.254	3279
890.377	3348
890.501	3165
890.624	3188
890.748	3313
890.871	3150
890.995	3081
891.118	3066
891.241	3188
891.364	3207
891.488	3310
891.611	3192
891.734	3161
891.857	3264
891.98	3275
892.103	3317
892.226	3264
892.349	3233
892.471	3100
892.594	3207
892.717	3294
892.839	3287
892.962	3268
893.085	3382
893.207	3264
893.33	3131
893.452	3218
893.575	3329
893.697	3211
893.819	3488
893.941	3492
894.064	3466
894.186	3211
894.308	3279
894.43	3435
894.552	3572
894.674	3469
894.796	3264
894.918	3298
895.04	3287
895.161	3420
895.283	3393
895.405	3302
895.526	3355
895.648	3409
895.769	3412
895.891	3454
896.012	3462
896.134	3466
896.255	3401
896.376	3355
896.498	3363
896.619	3389
896.74	3374
896.861	3401
896.982	3644
897.103	3800
897.224	3587
897.345	3542
897.466	3439
897.587	3496
897.708	3641
897.828	3519
897.949	3435
898.07	3317
898.19	3420
898.311	3595
898.431	3447
898.552	3496
898.672	3603
898.792	3561
898.913	3473
899.033	3389
899.153	3279
899.273	3211
899.393	3253
899.513	3272
899.633	3302
899.753	3325
899.873	3294
899.993	3378
900.113	3344
900.232	3340
900.352	3378
900.472	3283
900.591	3218
900.711	3332
900.83	3249
900.95	3424
901.069	3454
901.189	3355
901.308	3203
901.427	3150
901.546	3192
901.665	3313
901.784	3382
901.904	3161
902.023	3138
902.141	3055
902.26	2990
902.379	3146
902.498	3047
902.617	3062
902.735	3214
902.854	3241
902.973	3176
903.091	3020
903.21	3085
903.328	3104
903.446	3085
903.565	3104
903.683	3154
903.801	3085
903.919	3249
904.038	3275
904.156	3138
904.274	3230
904.392	3260
904.51	3298
904.627	3283
904.745	3443
904.863	3500
904.981	3241
905.098	3192
905.216	3218
905.334	3291
905.451	3317
905.569	3291
905.686	3412
905.803	3466
905.921	3275
906.038	3424
906.155	3359
906.272	3264
906.389	3351
906.506	3249
906.623	3230
906.74	3256
906.857	3176
906.974	3241
907.091	3443
907.208	3568
907.324	3447
907.441	3359
907.557	3230
907.674	3226
907.79	3203
907.907	3264
908.023	3359
908.139	3359
908.256	3332
908.372	3367
908.488	3363
908.604	3264
908.72	3241
908.836	3256
908.952	3272
909.068	3317
909.184	3485
909.3	3363
909.415	3488
909.531	3458
909.647	3294
909.762	3310
909.878	3272
909.993	3329
910.108	3348
910.224	3355
910.339	3435
910.454	3321
910.57	3253
910.685	3214
910.8	3587
910.915	3534
911.03	3447
911.145	3253
911.259	3264
911.374	3279
911.489	3264
911.604	3199
911.718	3131
911.833	3154
911.947	3017
912.062	2986
912.176	3184
912.291	3180
912.405	3161
912.519	3424
912.633	3443
912.748	3302
912.862	3249
912.976	3161
913.09	3032
913.204	3135
913.318	3218
913.431	3325
913.545	3317
913.659	3405
913.772	3378
913.886	3237
914	3188
914.113	3344
914.226	3382
914.34	3355
914.453	3211
914.566	3435
914.68	3294
914.793	3291
914.906	3150
915.019	3093
915.132	3070
915.245	3142
915.358	3245
915.47	3195
915.583	3279
915.696	3306
915.809	3405
915.921	3397
916.034	3253
916.146	3272
916.259	3222
916.371	3393
916.483	3378
916.595	3268
916.708	3359
916.82	3329
916.932	3321
917.044	3363
917.156	3389
917.268	3264
917.38	3298
917.491	3291
917.603	3351
917.715	3443
917.826	3435
917.938	3374
918.049	3260
918.161	3420
918.272	3572
918.384	3542
918.495	3492
918.606	3340
918.717	3313
918.828	3325
918.939	3386
919.05	3302
919.161	3397
919.272	3199
919.383	3264
919.494	3538
919.604	3690
919.715	3466
919.826	3348
919.936	3485
920.047	3564
920.157	3591
920.267	3736
920.378	3622
920.488	3515
920.598	3789
920.708	3964
920.818	3861
920.928	3857
921.038	3994
921.148	3994
921.258	3755
921.368	3633
921.477	3610
921.587	3557
921.697	3435
921.806	3610
921.916	3500
922.025	3382
922.134	3348
922.244	3325
922.353	3447
922.462	3306
922.571	3233
922.68	3108
922.789	3085
922.898	3146
923.007	3097
923.116	3237
923.224	3222
923.333	3150
923.442	3077
923.55	3093
923.659	3131
923.767	3199
923.876	3119
923.984	3230
924.092	3070
924.201	3199
924.309	3233
924.417	3237
924.525	3157
924.633	3287
924.741	4013
924.849	3055
924.956	3268
925.064	3108
925.172	3032
925.279	3116
925.387	3199
925.494	3222
925.602	3348
925.709	3336
925.816	3195
925.924	3283
926.031	3389
926.138	3313
926.245	3397
926.352	3253
926.459	3447
926.566	3485
926.673	3310
926.779	3222
926.886	3253
926.993	3116
927.099	3135
927.206	3119
927.312	3100
927.419	3188
927.525	3233
927.631	3283
927.737	3135
927.843	3135
927.95	3039
928.056	3138
928.162	3131
928.267	3207
928.373	3899
928.479	3279
928.585	3070
928.69	3233
928.796	3325
928.901	3192
929.007	3013
929.112	3211
929.218	3207
929.323	3138
929.428	3123
929.533	3264
929.638	3108
929.743	3157
929.848	3264
929.953	3211
930.058	3146
930.163	3043
930.267	3036
930.372	3207
930.477	3036
930.581	3317
930.685	3161
930.79	3032
930.894	3142
930.998	3123
931.103	3272
931.207	2963
931.311	2960
931.415	2925
931.519	2788
931.623	2800
