Data from test_V78500241_400.txt Node
Date: Fri Mar 25 16:17:58 CST 2022
User: usil
Spectrometer: V785-0024
Trigger mode: 0
Integration Time (sec): 4.000000E-1
Scans to average: 1
Nonlinearity correction enabled: false
Boxcar width: 0
Storing dark spectrum: false
XAxis mode: Wavelengths
Number of Pixels in Spectrum: 1024
>>>>>Begin Spectral Data<<<<<
801.071	2895
801.214	2963
801.356	2849
801.499	2902
801.641	2876
801.783	2910
801.926	3043
802.068	3005
802.211	3001
802.353	3032
802.496	2960
802.638	3036
802.78	3017
802.923	3070
803.065	3005
803.208	2876
803.35	2929
803.492	2937
803.635	2918
803.777	2735
803.919	2883
804.061	3188
804.204	2967
804.346	2944
804.488	2861
804.63	2986
804.773	2891
804.915	2925
805.057	3097
805.199	2941
805.341	3001
805.483	3058
805.626	3017
805.768	3028
805.91	3127
806.052	3161
806.194	3077
806.336	3256
806.478	3058
806.62	2971
806.762	3013
806.904	3081
807.046	3157
807.188	3024
807.33	2937
807.472	3024
807.614	2956
807.756	3017
807.898	2933
808.04	2910
808.182	3032
808.324	2975
808.465	2906
808.607	2876
808.749	2830
808.891	2842
809.033	3043
809.174	3005
809.316	2937
809.458	2922
809.6	2807
809.741	2807
809.883	2819
810.025	2918
810.166	2876
810.308	2876
810.45	2880
810.591	2838
810.733	2811
810.875	2891
811.016	2861
811.158	2796
811.299	2849
811.441	2925
811.582	2925
811.724	2864
811.865	2895
812.007	2948
812.148	2929
812.29	2880
812.431	2891
812.573	2990
812.714	3017
812.855	3074
812.997	3047
813.138	3146
813.279	3051
813.421	3039
813.562	2982
813.703	2902
813.845	2902
813.986	2785
814.127	2743
814.268	2823
814.41	2872
814.551	2849
814.692	2902
814.833	2861
814.974	2910
815.115	3013
815.256	2891
815.397	2868
815.539	2906
815.68	2785
815.821	2830
815.962	2994
816.103	2967
816.244	2887
816.385	2918
816.526	2990
816.666	2944
816.807	2769
816.948	2910
817.089	2960
817.23	2883
817.371	2823
817.512	2834
817.653	2868
817.793	2880
817.934	2944
818.075	2963
818.216	3009
818.356	3058
818.497	2937
818.638	2872
818.778	2849
818.919	2838
819.06	2781
819.2	2899
819.341	2872
819.481	2834
819.622	2967
819.762	3108
819.903	3119
820.043	2960
820.184	2952
820.324	2914
820.465	3028
820.605	3036
820.746	3058
820.886	2956
821.026	3108
821.167	3214
821.307	3310
821.447	3306
821.588	3226
821.728	3260
821.868	3214
822.008	3108
822.149	3222
822.289	3279
822.429	3081
822.569	3112
822.709	3226
822.849	3077
822.99	3104
823.13	3192
823.27	3268
823.41	3138
823.55	3165
823.69	3195
823.83	3211
823.97	3161
824.11	3043
824.25	3005
824.389	3100
824.529	3119
824.669	3112
824.809	3218
824.949	3256
825.089	3233
825.228	3154
825.368	3043
825.508	2982
825.648	2956
825.787	3051
825.927	3062
826.067	3017
826.206	2998
826.346	3108
826.485	3108
826.625	3142
826.765	3264
826.904	3272
827.044	3055
827.183	2963
827.323	2883
827.462	3043
827.601	2941
827.741	2952
827.88	2994
828.02	2895
828.159	3043
828.298	3043
828.437	3157
828.577	3074
828.716	3279
828.855	3116
828.994	2925
829.134	2910
829.273	2914
829.412	2895
829.551	2880
829.69	2937
829.829	3024
829.968	3165
830.107	3051
830.246	3058
830.385	2929
830.524	2922
830.663	2857
830.802	2773
830.941	2667
831.08	2689
831.219	2773
831.357	2804
831.496	2979
831.635	2769
831.774	2686
831.913	2689
832.051	2590
832.19	2602
832.329	2701
832.467	2579
832.606	2522
832.744	2583
832.883	2590
833.022	2583
833.16	2682
833.299	2674
833.437	2705
833.576	2739
833.714	2731
833.852	2758
833.991	2804
834.129	2883
834.267	2845
834.406	2815
834.544	2891
834.682	2872
834.821	2883
834.959	3081
835.097	2929
835.235	3100
835.373	3020
835.511	3047
835.65	2979
835.788	2990
835.926	2883
836.064	2826
836.202	2838
836.34	3119
836.478	3154
836.615	3047
836.753	3169
836.891	3241
837.029	3184
837.167	3116
837.305	3104
837.443	3089
837.58	2990
837.718	3123
837.856	3062
837.993	3047
838.131	3138
838.269	3157
838.406	3100
838.544	3138
838.681	2967
838.819	2922
838.956	2838
839.094	2838
839.231	2937
839.369	3024
839.506	3367
839.643	3222
839.781	3024
839.918	2952
840.055	3058
840.193	3066
840.33	3077
840.467	3150
840.604	3150
840.742	3416
840.879	3074
841.016	3039
841.153	3176
841.29	3329
841.427	3344
841.564	3283
841.701	3336
841.838	3249
841.975	3199
842.112	3268
842.249	3100
842.385	3074
842.522	3279
842.659	3119
842.796	3093
842.933	3127
843.069	3077
843.206	3051
843.343	3176
843.479	3154
843.616	3176
843.752	2895
843.889	2838
844.025	3077
844.162	2902
844.298	3089
844.435	2971
844.571	2899
844.708	3081
844.844	3173
844.98	3237
845.117	3192
845.253	3081
845.389	3036
845.525	3108
845.661	3085
845.798	3074
845.934	3176
846.07	3062
846.206	3195
846.342	3310
846.478	3256
846.614	3116
846.75	3081
846.886	3032
847.022	3253
847.158	3131
847.294	3218
847.429	3237
847.565	3226
847.701	3504
847.837	3074
847.972	3036
848.108	3184
848.244	3135
848.379	2994
848.515	2944
848.65	2975
848.786	3017
848.921	3055
849.057	3104
849.192	3165
849.328	3097
849.463	3123
849.598	3074
849.734	3036
849.869	3009
850.004	2941
850.14	2956
850.275	2941
850.41	2857
850.545	2876
850.68	2929
850.815	2986
850.95	3009
851.085	3169
851.22	3119
851.355	3058
851.49	2960
851.625	3020
851.76	3055
851.895	2914
852.03	2956
852.165	3089
852.299	3135
852.434	3218
852.569	3138
852.703	3176
852.838	3272
852.973	3340
853.107	3329
853.242	3184
853.376	3108
853.511	3017
853.645	3020
853.78	3226
853.914	3097
854.048	3119
854.183	3104
854.317	3165
854.451	3260
854.585	3135
854.72	3116
854.854	3264
854.988	3077
855.122	3066
855.256	2982
855.39	3142
855.524	3249
855.658	3203
855.792	3203
855.926	3233
856.06	3222
856.194	3275
856.327	3142
856.461	3089
856.595	3119
856.729	3100
856.862	3233
856.996	3199
857.13	3226
857.263	3245
857.397	3283
857.53	3142
857.664	3214
857.797	3230
857.931	3214
858.064	3173
858.197	3218
858.331	3142
858.464	3119
858.597	3039
858.731	3108
858.864	3116
858.997	3097
859.13	3203
859.263	3192
859.396	3214
859.529	3135
859.662	3097
859.795	3093
859.928	3119
860.061	3283
860.194	3283
860.327	3131
860.46	3116
860.592	3260
860.725	3226
860.858	3298
860.99	3119
861.123	3047
861.256	3051
861.388	3165
861.521	3861
861.653	3017
861.786	3013
861.918	3005
862.05	3070
862.183	3100
862.315	3135
862.447	3192
862.58	3093
862.712	2925
862.844	2899
862.976	3036
863.108	3055
863.24	3435
863.372	2883
863.504	2963
863.636	2979
863.768	3055
863.9	3005
864.032	2914
864.164	2994
864.296	3055
864.428	3089
864.559	3089
864.691	3066
864.823	3097
864.954	3043
865.086	3043
865.217	3017
865.349	2956
865.48	2963
865.612	3005
865.743	3131
865.875	3001
866.006	2986
866.137	2998
866.269	2979
866.4	2948
866.531	2944
866.662	2914
866.793	2872
866.924	2895
867.055	2986
867.186	2933
867.317	2899
867.448	2861
867.579	2876
867.71	2864
867.841	2826
867.972	2899
868.103	2910
868.233	2910
868.364	2891
868.495	2922
868.625	3070
868.756	3173
868.886	2986
869.017	3005
869.147	3165
869.278	3176
869.408	3051
869.539	3066
869.669	3108
869.799	3036
869.929	3131
870.06	3150
870.19	3348
870.32	3336
870.45	3329
870.58	3435
870.71	3462
870.84	3450
870.97	3302
871.1	3294
871.23	3454
871.36	3515
871.489	3412
871.619	3378
871.749	3367
871.879	3420
872.008	3462
872.138	3389
872.267	3283
872.397	3119
872.526	3112
872.656	3013
872.785	3138
872.915	3241
873.044	3321
873.173	3230
873.303	3237
873.432	3218
873.561	3268
873.69	3161
873.819	3146
873.948	3218
874.077	3081
874.206	3039
874.335	3074
874.464	3218
874.593	3363
874.722	3260
874.851	3378
874.979	3348
875.108	3325
875.237	3192
875.365	3199
875.494	3169
875.623	3245
875.751	3119
875.88	3112
876.008	3188
876.136	3245
876.265	3389
876.393	3492
876.521	3412
876.65	3370
876.778	3336
876.906	3275
877.034	3203
877.162	3260
877.29	3214
877.418	3256
877.546	3272
877.674	3249
877.802	3253
877.93	3222
878.058	3157
878.185	3081
878.313	3245
878.441	3203
878.568	3074
878.696	3165
878.824	3253
878.951	3329
879.079	3473
879.206	3622
879.333	3447
879.461	3329
879.588	3344
879.715	3458
879.842	3641
879.97	3405
880.097	3146
880.224	3135
880.351	3207
880.478	3218
880.605	3195
880.732	3222
880.859	3481
880.986	3325
881.112	3306
881.239	3180
881.366	3093
881.493	3020
881.619	3062
881.746	3070
881.872	3058
881.999	3093
882.125	3165
882.252	3245
882.378	3298
882.505	3412
882.631	3279
882.757	3154
882.883	3211
883.01	3222
883.136	3169
883.262	3104
883.388	3135
883.514	3348
883.64	3359
883.766	3275
883.892	3150
884.018	3245
884.143	3458
884.269	3530
884.395	3188
884.52	3161
884.646	3199
884.772	3154
884.897	3100
885.023	3268
885.148	3336
885.274	3469
885.399	3359
885.524	3249
885.65	3264
885.775	3291
885.9	3279
886.025	3443
886.15	3355
886.275	3329
886.4	3199
886.525	3306
886.65	3275
886.775	3287
886.9	3507
887.025	3610
887.149	3401
887.274	3245
887.399	3192
887.523	3192
887.648	3180
887.773	3195
887.897	3397
888.021	3447
888.146	3294
888.27	3447
888.395	3519
888.519	3401
888.643	3439
888.767	3496
888.891	3340
889.015	3207
889.139	3287
889.263	3241
889.387	3393
889.511	3549
889.635	3454
889.759	3302
889.883	3298
890.006	3378
890.13	3492
890.254	3272
890.377	3294
890.501	3195
890.624	3199
890.748	3321
890.871	3142
890.995	3077
891.118	3077
891.241	3192
891.364	3214
891.488	3329
891.611	3218
891.734	3237
891.857	3264
891.98	3294
892.103	3382
892.226	3279
892.349	3211
892.471	3131
892.594	3233
892.717	3306
892.839	3253
892.962	3287
893.085	3359
893.207	3317
893.33	3157
893.452	3192
893.575	3397
893.697	3256
893.819	3462
893.941	3485
894.064	3435
894.186	3241
894.308	3268
894.43	3462
894.552	3511
894.674	3466
894.796	3256
894.918	3321
895.04	3268
895.161	3416
895.283	3367
895.405	3325
895.526	3348
895.648	3458
895.769	3447
895.891	3466
896.012	3492
896.134	3458
896.255	3412
896.376	3374
896.498	3351
896.619	3416
896.74	3355
896.861	3382
896.982	3686
897.103	3896
897.224	3557
897.345	3511
897.466	3450
897.587	3526
897.708	3652
897.828	3504
897.949	3409
898.07	3306
898.19	3431
898.311	3599
898.431	3405
898.552	3511
898.672	3606
898.792	3568
898.913	3496
899.033	3351
899.153	3268
899.273	3188
899.393	3264
899.513	3351
899.633	3332
899.753	3321
899.873	3279
899.993	3393
900.113	3348
900.232	3382
900.352	3313
900.472	3325
900.591	3222
900.711	3287
900.83	3226
900.95	3386
901.069	3492
901.189	3363
901.308	3169
901.427	3142
901.546	3195
901.665	3332
901.784	3329
901.904	3192
902.023	3131
902.141	2960
902.26	2956
902.379	3123
902.498	3093
902.617	3055
902.735	3165
902.854	3218
902.973	3207
903.091	3066
903.21	3062
903.328	3112
903.446	3108
903.565	3108
903.683	3211
903.801	3131
903.919	3233
904.038	3226
904.156	3146
904.274	3298
904.392	3260
904.51	3222
904.627	3355
904.745	3454
904.863	3504
904.981	3249
905.098	3180
905.216	3214
905.334	3321
905.451	3272
905.569	3291
905.686	3435
905.803	3454
905.921	3279
906.038	3447
906.155	3374
906.272	3275
906.389	3336
906.506	3214
906.623	3256
906.74	3245
906.857	3260
906.974	3256
907.091	3431
907.208	3553
907.324	3424
907.441	3382
907.557	3226
907.674	3249
907.79	3226
907.907	3275
908.023	3393
908.139	3401
908.256	3370
908.372	3374
908.488	3367
908.604	3256
908.72	3222
908.836	3275
908.952	3329
909.068	3321
909.184	3504
909.3	3401
909.415	3477
909.531	3458
909.647	3283
909.762	3321
909.878	3249
909.993	3351
910.108	3332
910.224	3325
910.339	3450
910.454	3363
910.57	3298
910.685	3245
910.8	3610
910.915	3561
911.03	3439
911.145	3264
911.259	3298
911.374	3294
911.489	3241
911.604	3211
911.718	3116
911.833	3154
911.947	3070
912.062	2982
912.176	3173
912.291	3169
912.405	3203
912.519	3420
912.633	3462
912.748	3317
912.862	3310
912.976	3184
913.09	3077
913.204	3150
913.318	3207
913.431	3291
913.545	3355
913.659	3382
913.772	3329
913.886	3233
914	3192
914.113	3344
914.226	3431
914.34	3374
914.453	3188
914.566	3397
914.68	3302
914.793	3279
914.906	3169
915.019	3127
915.132	3081
915.245	3161
915.358	3218
915.47	3192
915.583	3275
915.696	3310
915.809	3382
915.921	3428
916.034	3214
916.146	3253
916.259	3233
916.371	3370
916.483	3359
916.595	3249
916.708	3332
916.82	3329
916.932	3344
917.044	3351
917.156	3370
917.268	3268
917.38	3279
917.491	3302
917.603	3370
917.715	3447
917.826	3462
917.938	3367
918.049	3291
918.161	3428
918.272	3572
918.384	3576
918.495	3447
918.606	3351
918.717	3264
918.828	3363
918.939	3393
919.05	3291
919.161	3389
919.272	3169
919.383	3279
919.494	3488
919.604	3720
919.715	3485
919.826	3416
919.936	3477
920.047	3568
920.157	3557
920.267	3751
920.378	3587
920.488	3572
920.598	3778
920.708	3960
920.818	3812
920.928	3869
921.038	4006
921.148	4032
921.258	3705
921.368	3622
921.477	3606
921.587	3549
921.697	3458
921.806	3625
921.916	3519
922.025	3332
922.134	3336
922.244	3287
922.353	3416
922.462	3233
922.571	3222
922.68	3100
922.789	3066
922.898	3154
923.007	3100
923.116	3199
923.224	3161
923.333	3192
923.442	3070
923.55	3077
923.659	3119
923.767	3260
923.876	3100
923.984	3230
924.092	3085
924.201	3203
924.309	3192
924.417	3264
924.525	3203
924.633	3268
924.741	4204
924.849	3047
924.956	3260
925.064	3089
925.172	3020
925.279	3119
925.387	3192
925.494	3173
925.602	3367
925.709	3363
925.816	3165
925.924	3283
926.031	3367
926.138	3279
926.245	3340
926.352	3230
926.459	3370
926.566	3519
926.673	3340
926.779	3241
926.886	3241
926.993	3157
927.099	3089
927.206	3142
927.312	3108
927.419	3211
927.525	3226
927.631	3291
927.737	3119
927.843	3127
927.95	3028
928.056	3161
928.162	3157
928.267	3253
928.373	3876
928.479	3283
928.585	3062
928.69	3214
928.796	3279
928.901	3157
929.007	3093
929.112	3199
929.218	3123
929.323	3184
929.428	3108
929.533	3340
929.638	3085
929.743	3169
929.848	3230
929.953	3230
930.058	3157
930.163	3001
930.267	3066
930.372	3180
930.477	3062
930.581	3355
930.685	3180
930.79	3028
930.894	3112
930.998	3085
931.103	3317
931.207	2952
931.311	2925
931.415	2906
931.519	2796
931.623	2804
