Data from test_V78500241_1915.txt Node
Date: Fri Mar 25 16:28:28 CST 2022
User: usil
Spectrometer: V785-0024
Trigger mode: 0
Integration Time (sec): 4.000000E-1
Scans to average: 1
Nonlinearity correction enabled: false
Boxcar width: 0
Storing dark spectrum: false
XAxis mode: Wavelengths
Number of Pixels in Spectrum: 1024
>>>>>Begin Spectral Data<<<<<
801.071	2952
801.214	3020
801.356	2922
801.499	2929
801.641	2914
801.783	2937
801.926	3081
802.068	3013
802.211	2990
802.353	3047
802.496	2994
802.638	3001
802.78	3066
802.923	3081
803.065	3017
803.208	2929
803.35	2929
803.492	2975
803.635	2948
803.777	2773
803.919	2891
804.061	3214
804.204	2948
804.346	2925
804.488	2853
804.63	2998
804.773	2906
804.915	2952
805.057	3116
805.199	2933
805.341	2944
805.483	3020
805.626	2990
805.768	3013
805.91	3093
806.052	3131
806.194	3081
806.336	3245
806.478	3028
806.62	2979
806.762	2944
806.904	3077
807.046	3165
807.188	2998
807.33	2944
807.472	3005
807.614	2956
807.756	3028
807.898	2937
808.04	2933
808.182	2994
808.324	2994
808.465	2883
808.607	2906
808.749	2781
808.891	2864
809.033	2960
809.174	2971
809.316	2910
809.458	2902
809.6	2811
809.741	2800
809.883	2788
810.025	2857
810.166	2914
810.308	2868
810.45	2861
810.591	2796
810.733	2826
810.875	2872
811.016	2815
811.158	2804
811.299	2834
811.441	2906
811.582	2922
811.724	2845
811.865	2826
812.007	2906
812.148	2895
812.29	2864
812.431	2937
812.573	2941
812.714	2990
812.855	3108
812.997	3062
813.138	3116
813.279	3009
813.421	2998
813.562	2963
813.703	2891
813.845	2918
813.986	2807
814.127	2785
814.268	2861
814.41	2899
814.551	2815
814.692	2910
814.833	2826
814.974	2967
815.115	2971
815.256	2883
815.397	2819
815.539	2868
815.68	2792
815.821	2834
815.962	2956
816.103	2914
816.244	2883
816.385	2861
816.526	3013
816.666	2937
816.807	2769
816.948	2933
817.089	2929
817.23	2887
817.371	2842
817.512	2842
817.653	2796
817.793	2853
817.934	2899
818.075	3017
818.216	2979
818.356	3062
818.497	2906
818.638	2823
818.778	2845
818.919	2830
819.06	2769
819.2	2883
819.341	2864
819.481	2788
819.622	2941
819.762	3169
819.903	3043
820.043	2933
820.184	2956
820.324	2941
820.465	3028
820.605	3055
820.746	3020
820.886	2941
821.026	3108
821.167	3135
821.307	3264
821.447	3313
821.588	3287
821.728	3226
821.868	3188
822.008	3089
822.149	3188
822.289	3222
822.429	3119
822.569	3104
822.709	3211
822.849	3039
822.99	3066
823.13	3203
823.27	3192
823.41	3116
823.55	3154
823.69	3157
823.83	3173
823.97	3108
824.11	3020
824.25	3020
824.389	3093
824.529	3089
824.669	3127
824.809	3237
824.949	3249
825.089	3272
825.228	3195
825.368	3024
825.508	2986
825.648	2971
825.787	3039
825.927	3020
826.067	3001
826.206	3013
826.346	3047
826.485	3070
826.625	3116
826.765	3264
826.904	3253
827.044	3043
827.183	2933
827.323	2887
827.462	2990
827.601	2906
827.741	2963
827.88	2933
828.02	2887
828.159	2979
828.298	3081
828.437	3127
828.577	3036
828.716	3260
828.855	3085
828.994	2891
829.134	2891
829.273	2952
829.412	2853
829.551	2838
829.69	2906
829.829	2979
829.968	3127
830.107	3020
830.246	3055
830.385	2948
830.524	2876
830.663	2819
830.802	2735
830.941	2693
831.08	2689
831.219	2781
831.357	2788
831.496	2994
831.635	2727
831.774	2659
831.913	2678
832.051	2537
832.19	2590
832.329	2720
832.467	2537
832.606	2503
832.744	2590
832.883	2579
833.022	2598
833.16	2663
833.299	2686
833.437	2708
833.576	2705
833.714	2743
833.852	2773
833.991	2777
834.129	2895
834.267	2849
834.406	2819
834.544	2876
834.682	2880
834.821	2895
834.959	3077
835.097	2906
835.235	3085
835.373	3005
835.511	3028
835.65	2971
835.788	2956
835.926	2853
836.064	2811
836.202	2876
836.34	3112
836.478	3165
836.615	3066
836.753	3150
836.891	3211
837.029	3195
837.167	3119
837.305	3058
837.443	3077
837.58	2948
837.718	3123
837.856	3074
837.993	3062
838.131	3146
838.269	3131
838.406	3104
838.544	3100
838.681	2960
838.819	2933
838.956	2838
839.094	2823
839.231	2967
839.369	3028
839.506	3389
839.643	3264
839.781	3020
839.918	2979
840.055	3081
840.193	3081
840.33	3074
840.467	3116
840.604	3184
840.742	3420
840.879	3074
841.016	3089
841.153	3112
841.29	3313
841.427	3256
841.564	3264
841.701	3306
841.838	3226
841.975	3173
842.112	3211
842.249	3062
842.385	3070
842.522	3275
842.659	3081
842.796	3093
842.933	3116
843.069	3020
843.206	3066
843.343	3188
843.479	3146
843.616	3173
843.752	2933
843.889	2902
844.025	3055
844.162	2883
844.298	3100
844.435	2952
844.571	2922
844.708	3074
844.844	3233
844.98	3226
845.117	3184
845.253	3062
845.389	3028
845.525	3112
845.661	3108
845.798	3043
845.934	3150
846.07	3058
846.206	3230
846.342	3363
846.478	3237
846.614	3081
846.75	3028
846.886	3024
847.022	3283
847.158	3184
847.294	3154
847.429	3245
847.565	3207
847.701	3515
847.837	3055
847.972	2986
848.108	3180
848.244	3161
848.379	2956
848.515	2937
848.65	2899
848.786	2948
848.921	3001
849.057	3097
849.192	3142
849.328	3062
849.463	3108
849.598	3058
849.734	3070
849.869	2982
850.004	2895
850.14	2975
850.275	2880
850.41	2845
850.545	2876
850.68	2944
850.815	2975
850.95	2994
851.085	3199
851.22	3119
851.355	3009
851.49	2963
851.625	2994
851.76	2998
851.895	2948
852.03	2929
852.165	3013
852.299	3100
852.434	3176
852.569	3131
852.703	3176
852.838	3218
852.973	3348
853.107	3351
853.242	3131
853.376	3100
853.511	2937
853.645	3055
853.78	3230
853.914	3100
854.048	3089
854.183	3104
854.317	3157
854.451	3253
854.585	3104
854.72	3116
854.854	3195
854.988	3051
855.122	3119
855.256	2990
855.39	3142
855.524	3237
855.658	3188
855.792	3154
855.926	3230
856.06	3245
856.194	3268
856.327	3188
856.461	3081
856.595	3108
856.729	3074
856.862	3268
856.996	3176
857.13	3184
857.263	3207
857.397	3275
857.53	3131
857.664	3230
857.797	3256
857.931	3260
858.064	3161
858.197	3233
858.331	3176
858.464	3123
858.597	3028
858.731	3180
858.864	3188
858.997	3135
859.13	3188
859.263	3218
859.396	3279
859.529	3123
859.662	3131
859.795	3058
859.928	3173
860.061	3287
860.194	3359
860.327	3184
860.46	3142
860.592	3260
860.725	3306
860.858	3310
860.99	3146
861.123	3055
861.256	3100
861.388	3188
861.521	3880
861.653	3093
861.786	3036
861.918	3036
862.05	3070
862.183	3161
862.315	3192
862.447	3260
862.58	3119
862.712	2990
862.844	2899
862.976	3036
863.108	3051
863.24	3370
863.372	2918
863.504	3009
863.636	3013
863.768	3085
863.9	3043
864.032	2975
864.164	2982
864.296	3077
864.428	3150
864.559	3154
864.691	3119
864.823	3104
864.954	3116
865.086	3070
865.217	3055
865.349	3013
865.48	3009
865.612	3104
865.743	3188
865.875	3051
866.006	2982
866.137	3036
866.269	2986
866.4	2956
866.531	3001
866.662	2967
866.793	2944
866.924	2910
867.055	3020
867.186	2971
867.317	2929
867.448	2902
867.579	2902
867.71	2868
867.841	2895
867.972	2929
868.103	2910
868.233	2902
868.364	2937
868.495	2952
868.625	3104
868.756	3207
868.886	2975
869.017	3017
869.147	3203
869.278	3203
869.408	3093
869.539	3043
869.669	3169
869.799	3116
869.929	3123
870.06	3161
870.19	3393
870.32	3275
870.45	3344
870.58	3439
870.71	3515
870.84	3458
870.97	3310
871.1	3207
871.23	3530
871.36	3504
871.489	3409
871.619	3435
871.749	3447
871.879	3439
872.008	3496
872.138	3386
872.267	3302
872.397	3192
872.526	3108
872.656	3013
872.785	3138
872.915	3272
873.044	3344
873.173	3256
873.303	3313
873.432	3253
873.561	3272
873.69	3211
873.819	3180
873.948	3230
874.077	3176
874.206	3058
874.335	3135
874.464	3291
874.593	3382
874.722	3253
874.851	3416
874.979	3416
875.108	3336
875.237	3218
875.365	3180
875.494	3233
875.623	3253
875.751	3097
875.88	3157
876.008	3233
876.136	3272
876.265	3378
876.393	3564
876.521	3428
876.65	3401
876.778	3367
876.906	3291
877.034	3199
877.162	3211
877.29	3203
877.418	3336
877.546	3260
877.674	3272
877.802	3260
877.93	3218
878.058	3180
878.185	3146
878.313	3214
878.441	3230
878.568	3093
878.696	3165
878.824	3245
878.951	3317
879.079	3500
879.206	3637
879.333	3466
879.461	3374
879.588	3351
879.715	3515
879.842	3614
879.97	3397
880.097	3188
880.224	3188
880.351	3222
880.478	3233
880.605	3253
880.732	3180
880.859	3511
880.986	3332
881.112	3374
881.239	3249
881.366	3131
881.493	3074
881.619	3058
881.746	3093
881.872	3116
881.999	3116
882.125	3138
882.252	3313
882.378	3317
882.505	3450
882.631	3298
882.757	3176
882.883	3233
883.01	3253
883.136	3165
883.262	3127
883.388	3146
883.514	3351
883.64	3424
883.766	3306
883.892	3207
884.018	3283
884.143	3443
884.269	3526
884.395	3233
884.52	3214
884.646	3195
884.772	3142
884.897	3085
885.023	3260
885.148	3412
885.274	3496
885.399	3374
885.524	3325
885.65	3325
885.775	3355
885.9	3325
886.025	3485
886.15	3389
886.275	3302
886.4	3245
886.525	3298
886.65	3264
886.775	3306
886.9	3504
887.025	3641
887.149	3450
887.274	3279
887.399	3184
887.523	3211
887.648	3222
887.773	3218
887.897	3431
888.021	3462
888.146	3294
888.27	3507
888.395	3542
888.519	3485
888.643	3481
888.767	3466
888.891	3348
889.015	3302
889.139	3291
889.263	3256
889.387	3412
889.511	3542
889.635	3458
889.759	3313
889.883	3306
890.006	3363
890.13	3504
890.254	3291
890.377	3374
890.501	3230
890.624	3207
890.748	3332
890.871	3233
890.995	3138
891.118	3108
891.241	3180
891.364	3253
891.488	3359
891.611	3176
891.734	3237
891.857	3321
891.98	3256
892.103	3329
892.226	3294
892.349	3195
892.471	3138
892.594	3245
892.717	3306
892.839	3279
892.962	3310
893.085	3416
893.207	3359
893.33	3184
893.452	3233
893.575	3386
893.697	3302
893.819	3485
893.941	3545
894.064	3477
894.186	3268
894.308	3268
894.43	3477
894.552	3523
894.674	3485
894.796	3279
894.918	3313
895.04	3291
895.161	3450
895.283	3389
895.405	3287
895.526	3393
895.648	3443
895.769	3431
895.891	3519
896.012	3485
896.134	3500
896.255	3447
896.376	3393
896.498	3416
896.619	3492
896.74	3374
896.861	3420
896.982	3694
897.103	3869
897.224	3637
897.345	3553
897.466	3443
897.587	3504
897.708	3679
897.828	3553
897.949	3473
898.07	3332
898.19	3428
898.311	3580
898.431	3504
898.552	3519
898.672	3637
898.792	3606
898.913	3504
899.033	3439
899.153	3370
899.273	3233
899.393	3325
899.513	3287
899.633	3321
899.753	3336
899.873	3325
899.993	3393
900.113	3351
900.232	3450
900.352	3359
900.472	3302
900.591	3188
900.711	3336
900.83	3260
900.95	3450
901.069	3504
901.189	3363
901.308	3218
901.427	3146
901.546	3203
901.665	3321
901.784	3367
901.904	3218
902.023	3154
902.141	3047
902.26	3017
902.379	3142
902.498	3077
902.617	3047
902.735	3230
902.854	3287
902.973	3233
903.091	3074
903.21	3074
903.328	3169
903.446	3135
903.565	3123
903.683	3218
903.801	3169
903.919	3272
904.038	3317
904.156	3161
904.274	3287
904.392	3275
904.51	3279
904.627	3351
904.745	3443
904.863	3545
904.981	3275
905.098	3211
905.216	3230
905.334	3268
905.451	3313
905.569	3313
905.686	3420
905.803	3454
905.921	3306
906.038	3431
906.155	3367
906.272	3291
906.389	3374
906.506	3279
906.623	3272
906.74	3294
906.857	3192
906.974	3249
907.091	3435
907.208	3530
907.324	3504
907.441	3397
907.557	3260
907.674	3256
907.79	3192
907.907	3306
908.023	3412
908.139	3397
908.256	3382
908.372	3386
908.488	3351
908.604	3317
908.72	3256
908.836	3272
908.952	3291
909.068	3397
909.184	3466
909.3	3424
909.415	3477
909.531	3469
909.647	3272
909.762	3344
909.878	3279
909.993	3367
910.108	3344
910.224	3344
910.339	3420
910.454	3424
910.57	3348
910.685	3249
910.8	3591
910.915	3545
911.03	3485
911.145	3321
911.259	3302
911.374	3306
911.489	3256
911.604	3218
911.718	3157
911.833	3184
911.947	3062
912.062	3017
912.176	3157
912.291	3222
912.405	3222
912.519	3424
912.633	3492
912.748	3310
912.862	3279
912.976	3222
913.09	3058
913.204	3131
913.318	3253
913.431	3332
913.545	3336
913.659	3431
913.772	3370
913.886	3268
914	3211
914.113	3389
914.226	3420
914.34	3386
914.453	3226
914.566	3397
914.68	3294
914.793	3332
914.906	3173
915.019	3127
915.132	3081
915.245	3203
915.358	3207
915.47	3226
915.583	3287
915.696	3313
915.809	3367
915.921	3454
916.034	3310
916.146	3283
916.259	3249
916.371	3397
916.483	3378
916.595	3279
916.708	3340
916.82	3363
916.932	3329
917.044	3363
917.156	3336
917.268	3241
917.38	3355
917.491	3283
917.603	3370
917.715	3469
917.826	3481
917.938	3370
918.049	3294
918.161	3416
918.272	3610
918.384	3591
918.495	3492
918.606	3351
918.717	3245
918.828	3386
918.939	3401
919.05	3268
919.161	3428
919.272	3203
919.383	3298
919.494	3496
919.604	3675
919.715	3526
919.826	3409
919.936	3462
920.047	3561
920.157	3599
920.267	3800
920.378	3618
920.488	3580
920.598	3827
920.708	3953
920.818	3827
920.928	3873
921.038	4055
921.148	4013
921.258	3667
921.368	3641
921.477	3561
921.587	3515
921.697	3477
921.806	3648
921.916	3515
922.025	3382
922.134	3340
922.244	3298
922.353	3435
922.462	3306
922.571	3256
922.68	3123
922.789	3108
922.898	3176
923.007	3108
923.116	3157
923.224	3165
923.333	3207
923.442	3112
923.55	3119
923.659	3146
923.767	3211
923.876	3077
923.984	3245
924.092	3138
924.201	3222
924.309	3268
924.417	3268
924.525	3195
924.633	3237
924.741	4048
924.849	3051
924.956	3253
925.064	3123
925.172	3047
925.279	3131
925.387	3207
925.494	3241
925.602	3359
925.709	3302
925.816	3211
925.924	3275
926.031	3412
926.138	3310
926.245	3367
926.352	3237
926.459	3370
926.566	3485
926.673	3363
926.779	3264
926.886	3302
926.993	3127
927.099	3150
927.206	3100
927.312	3131
927.419	3241
927.525	3233
927.631	3310
927.737	3123
927.843	3123
927.95	3024
928.056	3169
928.162	3180
928.267	3275
928.373	3880
928.479	3351
928.585	3081
928.69	3188
928.796	3344
928.901	3165
929.007	3070
929.112	3226
929.218	3157
929.323	3192
929.428	3203
929.533	3302
929.638	3097
929.743	3161
929.848	3310
929.953	3256
930.058	3131
930.163	2986
930.267	3074
930.372	3195
930.477	3047
930.581	3351
930.685	3207
930.79	3077
930.894	3165
930.998	3135
931.103	3306
931.207	2952
931.311	2956
931.415	2986
931.519	2830
931.623	2804
