Data from test_V78500241_182.txt Node
Date: Fri Mar 25 16:16:27 CST 2022
User: usil
Spectrometer: V785-0024
Trigger mode: 0
Integration Time (sec): 4.000000E-1
Scans to average: 1
Nonlinearity correction enabled: false
Boxcar width: 0
Storing dark spectrum: false
XAxis mode: Wavelengths
Number of Pixels in Spectrum: 1024
>>>>>Begin Spectral Data<<<<<
801.071	2933
801.214	3005
801.356	2925
801.499	2941
801.641	2902
801.783	2967
801.926	3066
802.068	3024
802.211	3032
802.353	3077
802.496	3024
802.638	3009
802.78	3039
802.923	3070
803.065	3043
803.208	2956
803.35	2963
803.492	2941
803.635	2941
803.777	2811
803.919	2891
804.061	3218
804.204	2982
804.346	2941
804.488	2895
804.63	3009
804.773	2937
804.915	2937
805.057	3100
805.199	2982
805.341	2975
805.483	3039
805.626	3009
805.768	2963
805.91	3123
806.052	3154
806.194	3058
806.336	3226
806.478	3036
806.62	2982
806.762	2998
806.904	3039
807.046	3138
807.188	2994
807.33	2918
807.472	3020
807.614	2944
807.756	2990
807.898	2902
808.04	2956
808.182	2979
808.324	2990
808.465	2876
808.607	2883
808.749	2807
808.891	2853
809.033	2952
809.174	2986
809.316	2918
809.458	2910
809.6	2826
809.741	2788
809.883	2819
810.025	2868
810.166	2887
810.308	2876
810.45	2861
810.591	2819
810.733	2769
810.875	2857
811.016	2777
811.158	2800
811.299	2838
811.441	2910
811.582	2910
811.724	2830
811.865	2826
812.007	2933
812.148	2925
812.29	2861
812.431	2899
812.573	2929
812.714	2986
812.855	3039
812.997	3055
813.138	3146
813.279	3028
813.421	3032
813.562	2971
813.703	2895
813.845	2895
813.986	2807
814.127	2785
814.268	2864
814.41	2842
814.551	2842
814.692	2887
814.833	2845
814.974	2910
815.115	2971
815.256	2845
815.397	2819
815.539	2845
815.68	2800
815.821	2807
815.962	2960
816.103	2956
816.244	2891
816.385	2834
816.526	2967
816.666	2929
816.807	2785
816.948	2902
817.089	2918
817.23	2861
817.371	2773
817.512	2796
817.653	2876
817.793	2800
817.934	2895
818.075	3036
818.216	3020
818.356	3013
818.497	2899
818.638	2838
818.778	2849
818.919	2819
819.06	2766
819.2	2910
819.341	2800
819.481	2842
819.622	2929
819.762	3104
819.903	3051
820.043	2971
820.184	2925
820.324	2922
820.465	3020
820.605	3005
820.746	3039
820.886	2941
821.026	3123
821.167	3218
821.307	3306
821.447	3283
821.588	3287
821.728	3226
821.868	3211
822.008	3116
822.149	3195
822.289	3279
822.429	3093
822.569	3108
822.709	3188
822.849	3047
822.99	3104
823.13	3184
823.27	3222
823.41	3138
823.55	3184
823.69	3184
823.83	3256
823.97	3135
824.11	3020
824.25	3047
824.389	3085
824.529	3119
824.669	3135
824.809	3249
824.949	3329
825.089	3310
825.228	3218
825.368	3036
825.508	3020
825.648	3032
825.787	3024
825.927	3089
826.067	3032
826.206	3001
826.346	3123
826.485	3108
826.625	3176
826.765	3317
826.904	3310
827.044	3032
827.183	3009
827.323	2941
827.462	3028
827.601	2971
827.741	2994
827.88	3013
828.02	2922
828.159	3051
828.298	3108
828.437	3131
828.577	3066
828.716	3264
828.855	3154
828.994	2963
829.134	2918
829.273	2941
829.412	2941
829.551	2899
829.69	2941
829.829	3085
829.968	3131
830.107	3074
830.246	3070
830.385	2960
830.524	2971
830.663	2895
830.802	2766
830.941	2678
831.08	2697
831.219	2815
831.357	2800
831.496	3009
831.635	2750
831.774	2712
831.913	2724
832.051	2598
832.19	2621
832.329	2746
832.467	2598
832.606	2541
832.744	2648
832.883	2587
833.022	2644
833.16	2708
833.299	2743
833.437	2731
833.576	2739
833.714	2781
833.852	2800
833.991	2785
834.129	2872
834.267	2868
834.406	2849
834.544	2952
834.682	2944
834.821	2918
834.959	3104
835.097	2944
835.235	3146
835.373	3070
835.511	3093
835.65	2998
835.788	3013
835.926	2899
836.064	2872
836.202	2883
836.34	3142
836.478	3188
836.615	3100
836.753	3180
836.891	3249
837.029	3218
837.167	3165
837.305	3123
837.443	3104
837.58	3024
837.718	3146
837.856	3116
837.993	3104
838.131	3131
838.269	3157
838.406	3146
838.544	3161
838.681	2975
838.819	2960
838.956	2842
839.094	2849
839.231	2941
839.369	3100
839.506	3428
839.643	3237
839.781	3089
839.918	3032
840.055	3116
840.193	3089
840.33	3077
840.467	3119
840.604	3188
840.742	3473
840.879	3089
841.016	3119
841.153	3184
841.29	3378
841.427	3378
841.564	3336
841.701	3367
841.838	3294
841.975	3253
842.112	3283
842.249	3104
842.385	3081
842.522	3306
842.659	3157
842.796	3085
842.933	3157
843.069	3112
843.206	3085
843.343	3199
843.479	3138
843.616	3169
843.752	2929
843.889	2922
844.025	3142
844.162	2944
844.298	3104
844.435	2994
844.571	2937
844.708	3097
844.844	3218
844.98	3279
845.117	3211
845.253	3123
845.389	3036
845.525	3123
845.661	3135
845.798	3051
845.934	3203
846.07	3074
846.206	3237
846.342	3367
846.478	3279
846.614	3142
846.75	3104
846.886	3036
847.022	3302
847.158	3165
847.294	3268
847.429	3294
847.565	3230
847.701	3523
847.837	3077
847.972	3036
848.108	3188
848.244	3199
848.379	2990
848.515	2990
848.65	2960
848.786	2990
848.921	3055
849.057	3150
849.192	3199
849.328	3093
849.463	3154
849.598	3127
849.734	3074
849.869	3017
850.004	2925
850.14	3005
850.275	2944
850.41	2918
850.545	2925
850.68	2941
850.815	3013
850.95	3024
851.085	3237
851.22	3123
851.355	3058
851.49	3039
851.625	3089
851.76	3085
851.895	2975
852.03	2929
852.165	3070
852.299	3188
852.434	3218
852.569	3180
852.703	3226
852.838	3321
852.973	3386
853.107	3359
853.242	3173
853.376	3142
853.511	3005
853.645	3081
853.78	3260
853.914	3192
854.048	3150
854.183	3135
854.317	3173
854.451	3378
854.585	3173
854.72	3112
854.854	3253
854.988	3089
855.122	3131
855.256	3055
855.39	3199
855.524	3268
855.658	3192
855.792	3188
855.926	3214
856.06	3279
856.194	3272
856.327	3180
856.461	3146
856.595	3142
856.729	3131
856.862	3291
856.996	3222
857.13	3256
857.263	3256
857.397	3325
857.53	3154
857.664	3203
857.797	3310
857.931	3287
858.064	3192
858.197	3298
858.331	3165
858.464	3135
858.597	3032
858.731	3119
858.864	3154
858.997	3154
859.13	3226
859.263	3188
859.396	3268
859.529	3093
859.662	3089
859.795	3104
859.928	3173
860.061	3321
860.194	3344
860.327	3180
860.46	3131
860.592	3253
860.725	3279
860.858	3291
860.99	3165
861.123	3112
861.256	3131
861.388	3176
861.521	3793
861.653	3097
861.786	3036
861.918	3058
862.05	3116
862.183	3116
862.315	3222
862.447	3241
862.58	3127
862.712	2998
862.844	2975
862.976	3093
863.108	3032
863.24	3340
863.372	2895
863.504	3036
863.636	2986
863.768	3051
863.9	3047
864.032	2952
864.164	2990
864.296	3032
864.428	3093
864.559	3150
864.691	3085
864.823	3093
864.954	3070
865.086	3066
865.217	3013
865.349	3001
865.48	3043
865.612	3055
865.743	3233
865.875	3001
866.006	2967
866.137	2975
866.269	2948
866.4	2971
866.531	2941
866.662	2925
866.793	2944
866.924	2941
867.055	3001
867.186	2948
867.317	2918
867.448	2895
867.579	2887
867.71	2883
867.841	2861
867.972	2941
868.103	2883
868.233	2937
868.364	2933
868.495	2929
868.625	3112
868.756	3176
868.886	3005
869.017	3085
869.147	3199
869.278	3146
869.408	3081
869.539	3036
869.669	3176
869.799	3085
869.929	3165
870.06	3157
870.19	3359
870.32	3359
870.45	3351
870.58	3420
870.71	3447
870.84	3492
870.97	3374
871.1	3268
871.23	3515
871.36	3488
871.489	3393
871.619	3447
871.749	3409
871.879	3469
872.008	3542
872.138	3401
872.267	3298
872.397	3192
872.526	3161
872.656	3074
872.785	3138
872.915	3253
873.044	3340
873.173	3256
873.303	3256
873.432	3294
873.561	3264
873.69	3233
873.819	3161
873.948	3207
874.077	3150
874.206	3077
874.335	3093
874.464	3222
874.593	3370
874.722	3279
874.851	3447
874.979	3332
875.108	3351
875.237	3249
875.365	3195
875.494	3226
875.623	3283
875.751	3089
875.88	3154
876.008	3230
876.136	3241
876.265	3424
876.393	3523
876.521	3473
876.65	3447
876.778	3378
876.906	3283
877.034	3226
877.162	3268
877.29	3211
877.418	3283
877.546	3264
877.674	3279
877.802	3253
877.93	3264
878.058	3207
878.185	3123
878.313	3245
878.441	3226
878.568	3127
878.696	3154
878.824	3237
878.951	3306
879.079	3466
879.206	3614
879.333	3488
879.461	3374
879.588	3412
879.715	3542
879.842	3614
879.97	3424
880.097	3195
880.224	3165
880.351	3218
880.478	3214
880.605	3237
880.732	3218
880.859	3549
880.986	3313
881.112	3363
881.239	3226
881.366	3123
881.493	3077
881.619	3062
881.746	3089
881.872	3116
881.999	3097
882.125	3195
882.252	3264
882.378	3302
882.505	3504
882.631	3329
882.757	3169
882.883	3260
883.01	3245
883.136	3184
883.262	3119
883.388	3146
883.514	3344
883.64	3412
883.766	3367
883.892	3222
884.018	3313
884.143	3477
884.269	3591
884.395	3195
884.52	3192
884.646	3218
884.772	3192
884.897	3165
885.023	3230
885.148	3340
885.274	3454
885.399	3420
885.524	3313
885.65	3306
885.775	3405
885.9	3287
886.025	3488
886.15	3405
886.275	3313
886.4	3256
886.525	3378
886.65	3291
886.775	3317
886.9	3507
887.025	3644
887.149	3458
887.274	3275
887.399	3253
887.523	3253
887.648	3207
887.773	3226
887.897	3378
888.021	3431
888.146	3336
888.27	3458
888.395	3606
888.519	3439
888.643	3481
888.767	3481
888.891	3367
889.015	3302
889.139	3291
889.263	3256
889.387	3443
889.511	3538
889.635	3485
889.759	3298
889.883	3378
890.006	3393
890.13	3507
890.254	3310
890.377	3382
890.501	3268
890.624	3188
890.748	3329
890.871	3180
890.995	3165
891.118	3100
891.241	3241
891.364	3222
891.488	3317
891.611	3195
891.734	3272
891.857	3344
891.98	3233
892.103	3389
892.226	3310
892.349	3291
892.471	3138
892.594	3279
892.717	3329
892.839	3298
892.962	3340
893.085	3363
893.207	3302
893.33	3211
893.452	3237
893.575	3367
893.697	3272
893.819	3496
893.941	3538
894.064	3496
894.186	3272
894.308	3275
894.43	3496
894.552	3568
894.674	3458
894.796	3313
894.918	3332
895.04	3310
895.161	3477
895.283	3420
895.405	3344
895.526	3389
895.648	3492
895.769	3458
895.891	3488
896.012	3496
896.134	3485
896.255	3462
896.376	3401
896.498	3439
896.619	3477
896.74	3382
896.861	3393
896.982	3728
897.103	3903
897.224	3622
897.345	3572
897.466	3488
897.587	3507
897.708	3652
897.828	3572
897.949	3450
898.07	3340
898.19	3412
898.311	3618
898.431	3454
898.552	3580
898.672	3648
898.792	3587
898.913	3557
899.033	3447
899.153	3279
899.273	3253
899.393	3317
899.513	3340
899.633	3367
899.753	3382
899.873	3348
899.993	3420
900.113	3351
900.232	3420
900.352	3374
900.472	3332
900.591	3260
900.711	3321
900.83	3279
900.95	3428
901.069	3549
901.189	3351
901.308	3222
901.427	3173
901.546	3207
901.665	3321
901.784	3359
901.904	3218
902.023	3142
902.141	3043
902.26	3017
902.379	3161
902.498	3108
902.617	3093
902.735	3291
902.854	3245
902.973	3218
903.091	3085
903.21	3081
903.328	3119
903.446	3112
903.565	3157
903.683	3230
903.801	3169
903.919	3291
904.038	3279
904.156	3207
904.274	3313
904.392	3291
904.51	3317
904.627	3355
904.745	3435
904.863	3500
904.981	3302
905.098	3199
905.216	3268
905.334	3317
905.451	3370
905.569	3363
905.686	3450
905.803	3447
905.921	3340
906.038	3450
906.155	3370
906.272	3302
906.389	3378
906.506	3233
906.623	3291
906.74	3294
906.857	3199
906.974	3253
907.091	3492
907.208	3622
907.324	3488
907.441	3397
907.557	3253
907.674	3260
907.79	3218
907.907	3275
908.023	3386
908.139	3397
908.256	3405
908.372	3378
908.488	3424
908.604	3272
908.72	3245
908.836	3336
908.952	3275
909.068	3329
909.184	3496
909.3	3454
909.415	3538
909.531	3534
909.647	3287
909.762	3310
909.878	3264
909.993	3367
910.108	3409
910.224	3359
910.339	3462
910.454	3325
910.57	3325
910.685	3287
910.8	3614
910.915	3549
911.03	3500
911.145	3306
911.259	3325
911.374	3336
911.489	3306
911.604	3287
911.718	3176
911.833	3165
911.947	3093
912.062	3024
912.176	3176
912.291	3230
912.405	3249
912.519	3485
912.633	3492
912.748	3367
912.862	3306
912.976	3188
913.09	3097
913.204	3150
913.318	3218
913.431	3382
913.545	3378
913.659	3405
913.772	3367
913.886	3256
914	3233
914.113	3351
914.226	3469
914.34	3374
914.453	3249
914.566	3454
914.68	3306
914.793	3306
914.906	3176
915.019	3131
915.132	3093
915.245	3211
915.358	3222
915.47	3230
915.583	3287
915.696	3317
915.809	3454
915.921	3424
916.034	3268
916.146	3310
916.259	3237
916.371	3412
916.483	3412
916.595	3287
916.708	3363
916.82	3363
916.932	3409
917.044	3378
917.156	3401
917.268	3249
917.38	3344
917.491	3306
917.603	3382
917.715	3507
917.826	3511
917.938	3401
918.049	3306
918.161	3443
918.272	3572
918.384	3587
918.495	3481
918.606	3340
918.717	3348
918.828	3393
918.939	3439
919.05	3306
919.161	3435
919.272	3180
919.383	3283
919.494	3519
919.604	3660
919.715	3504
919.826	3458
919.936	3458
920.047	3591
920.157	3584
920.267	3812
920.378	3618
920.488	3580
920.598	3850
920.708	4013
920.818	3823
920.928	3903
921.038	4029
921.148	4051
921.258	3713
921.368	3644
921.477	3637
921.587	3538
921.697	3485
921.806	3667
921.916	3534
922.025	3412
922.134	3370
922.244	3359
922.353	3477
922.462	3306
922.571	3264
922.68	3123
922.789	3085
922.898	3131
923.007	3116
923.116	3211
923.224	3192
923.333	3169
923.442	3150
923.55	3127
923.659	3176
923.767	3264
923.876	3127
923.984	3245
924.092	3127
924.201	3241
924.309	3245
924.417	3264
924.525	3180
924.633	3226
924.741	4234
924.849	3055
924.956	3283
925.064	3104
925.172	3066
925.279	3112
925.387	3233
925.494	3233
925.602	3351
925.709	3340
925.816	3184
925.924	3287
926.031	3412
926.138	3340
926.245	3374
926.352	3298
926.459	3389
926.566	3473
926.673	3321
926.779	3302
926.886	3272
926.993	3161
927.099	3150
927.206	3150
927.312	3135
927.419	3226
927.525	3264
927.631	3302
927.737	3184
927.843	3123
927.95	3055
928.056	3173
928.162	3173
928.267	3256
928.373	3915
928.479	3291
928.585	3089
928.69	3226
928.796	3317
928.901	3211
929.007	3047
929.112	3226
929.218	3214
929.323	3199
929.428	3108
929.533	3329
929.638	3142
929.743	3176
929.848	3302
929.953	3256
930.058	3161
930.163	3017
930.267	3051
930.372	3199
930.477	3062
930.581	3348
930.685	3184
930.79	3036
930.894	3127
930.998	3116
931.103	3275
931.207	2990
931.311	2948
931.415	2914
931.519	2804
931.623	2823
