Data from test_V78500241_199.txt Node
Date: Fri Mar 25 16:16:34 CST 2022
User: usil
Spectrometer: V785-0024
Trigger mode: 0
Integration Time (sec): 4.000000E-1
Scans to average: 1
Nonlinearity correction enabled: false
Boxcar width: 0
Storing dark spectrum: false
XAxis mode: Wavelengths
Number of Pixels in Spectrum: 1024
>>>>>Begin Spectral Data<<<<<
801.071	2937
801.214	2975
801.356	2876
801.499	2895
801.641	2872
801.783	2941
801.926	3051
802.068	2986
802.211	2994
802.353	3058
802.496	2979
802.638	3013
802.78	3028
802.923	3077
803.065	3043
803.208	2933
803.35	2941
803.492	2971
803.635	2929
803.777	2769
803.919	2906
804.061	3245
804.204	2948
804.346	2910
804.488	2845
804.63	2979
804.773	2876
804.915	2925
805.057	3070
805.199	2944
805.341	3001
805.483	3047
805.626	2998
805.768	3009
805.91	3093
806.052	3119
806.194	3066
806.336	3207
806.478	3028
806.62	2960
806.762	2979
806.904	3036
807.046	3222
807.188	3009
807.33	2944
807.472	2982
807.614	2929
807.756	3017
807.898	2971
808.04	2883
808.182	2990
808.324	2971
808.465	2876
808.607	2899
808.749	2766
808.891	2819
809.033	2994
809.174	2998
809.316	2895
809.458	2922
809.6	2762
809.741	2811
809.883	2785
810.025	2868
810.166	2876
810.308	2842
810.45	2861
810.591	2773
810.733	2811
810.875	2826
811.016	2807
811.158	2750
811.299	2864
811.441	2933
811.582	2922
811.724	2849
811.865	2838
812.007	2887
812.148	2883
812.29	2887
812.431	2880
812.573	2956
812.714	2948
812.855	3070
812.997	3066
813.138	3135
813.279	3017
813.421	2975
813.562	2971
813.703	2895
813.845	2899
813.986	2804
814.127	2727
814.268	2819
814.41	2849
814.551	2815
814.692	2853
814.833	2834
814.974	2925
815.115	2944
815.256	2853
815.397	2826
815.539	2872
815.68	2800
815.821	2773
815.962	2975
816.103	2937
816.244	2845
816.385	2887
816.526	2990
816.666	2944
816.807	2735
816.948	2876
817.089	2899
817.23	2834
817.371	2807
817.512	2785
817.653	2868
817.793	2823
817.934	2861
818.075	2982
818.216	2994
818.356	3028
818.497	2918
818.638	2826
818.778	2823
818.919	2800
819.06	2804
819.2	2891
819.341	2815
819.481	2864
819.622	2944
819.762	3104
819.903	3032
820.043	2914
820.184	2933
820.324	2910
820.465	3043
820.605	3032
820.746	3028
820.886	2948
821.026	3100
821.167	3165
821.307	3291
821.447	3310
821.588	3249
821.728	3230
821.868	3211
822.008	3093
822.149	3211
822.289	3237
822.429	3100
822.569	3066
822.709	3184
822.849	3017
822.99	3036
823.13	3157
823.27	3180
823.41	3123
823.55	3150
823.69	3169
823.83	3218
823.97	3142
824.11	3009
824.25	3043
824.389	3081
824.529	3081
824.669	3047
824.809	3203
824.949	3241
825.089	3173
825.228	3165
825.368	3001
825.508	2979
825.648	2998
825.787	3001
825.927	3043
826.067	2994
826.206	2952
826.346	3024
826.485	3089
826.625	3119
826.765	3264
826.904	3218
827.044	3009
827.183	2929
827.323	2876
827.462	2956
827.601	2918
827.741	2944
827.88	2941
828.02	2880
828.159	2960
828.298	3055
828.437	3112
828.577	3055
828.716	3294
828.855	3138
828.994	2910
829.134	2864
829.273	2910
829.412	2864
829.551	2868
829.69	2899
829.829	3001
829.968	3123
830.107	2990
830.246	3017
830.385	2941
830.524	2895
830.663	2811
830.802	2739
830.941	2648
831.08	2640
831.219	2754
831.357	2773
831.496	2922
831.635	2739
831.774	2632
831.913	2670
832.051	2575
832.19	2613
832.329	2686
832.467	2552
832.606	2514
832.744	2549
832.883	2602
833.022	2606
833.16	2629
833.299	2659
833.437	2712
833.576	2724
833.714	2739
833.852	2735
833.991	2769
834.129	2838
834.267	2834
834.406	2762
834.544	2902
834.682	2895
834.821	2876
834.959	3066
835.097	2868
835.235	3100
835.373	3024
835.511	3020
835.65	2967
835.788	2952
835.926	2823
836.064	2815
836.202	2830
836.34	3142
836.478	3169
836.615	3055
836.753	3146
836.891	3176
837.029	3184
837.167	3127
837.305	3070
837.443	3074
837.58	2979
837.718	3150
837.856	3066
837.993	3066
838.131	3104
838.269	3123
838.406	3097
838.544	3085
838.681	2956
838.819	2963
838.956	2788
839.094	2845
839.231	2914
839.369	3055
839.506	3378
839.643	3222
839.781	3020
839.918	2975
840.055	3077
840.193	3055
840.33	3108
840.467	3146
840.604	3173
840.742	3397
840.879	3032
841.016	3024
841.153	3097
841.29	3325
841.427	3348
841.564	3275
841.701	3321
841.838	3222
841.975	3131
842.112	3245
842.249	3089
842.385	3032
842.522	3298
842.659	3119
842.796	3066
842.933	3116
843.069	3051
843.206	3028
843.343	3218
843.479	3085
843.616	3169
843.752	2948
843.889	2872
844.025	3081
844.162	2861
844.298	3123
844.435	2979
844.571	2948
844.708	3070
844.844	3188
844.98	3192
845.117	3214
845.253	3039
845.389	2994
845.525	3116
845.661	3119
845.798	3017
845.934	3176
846.07	3077
846.206	3233
846.342	3363
846.478	3214
846.614	3089
846.75	3051
846.886	3028
847.022	3245
847.158	3127
847.294	3222
847.429	3253
847.565	3264
847.701	3466
847.837	3074
847.972	3009
848.108	3150
848.244	3161
848.379	2963
848.515	2941
848.65	2902
848.786	2971
848.921	3032
849.057	3108
849.192	3165
849.328	3051
849.463	3150
849.598	3043
849.734	3062
849.869	2960
850.004	2910
850.14	3001
850.275	2902
850.41	2849
850.545	2887
850.68	2952
850.815	2952
850.95	2956
851.085	3214
851.22	3142
851.355	3066
851.49	2998
851.625	2986
851.76	3017
851.895	2929
852.03	2933
852.165	3024
852.299	3100
852.434	3203
852.569	3108
852.703	3188
852.838	3249
852.973	3291
853.107	3344
853.242	3165
853.376	3085
853.511	2937
853.645	3028
853.78	3211
853.914	3154
854.048	3135
854.183	3089
854.317	3157
854.451	3298
854.585	3135
854.72	3100
854.854	3199
854.988	3028
855.122	3077
855.256	2990
855.39	3077
855.524	3268
855.658	3195
855.792	3142
855.926	3207
856.06	3241
856.194	3283
856.327	3176
856.461	3077
856.595	3116
856.729	3112
856.862	3230
856.996	3184
857.13	3176
857.263	3245
857.397	3291
857.53	3169
857.664	3192
857.797	3222
857.931	3241
858.064	3150
858.197	3226
858.331	3119
858.464	3089
858.597	3009
858.731	3112
858.864	3112
858.997	3142
859.13	3176
859.263	3157
859.396	3249
859.529	3112
859.662	3055
859.795	3051
859.928	3123
860.061	3256
860.194	3313
860.327	3131
860.46	3119
860.592	3249
860.725	3264
860.858	3233
860.99	3108
861.123	3055
861.256	3066
861.388	3150
861.521	3838
861.653	3020
861.786	2979
861.918	2998
862.05	3058
862.183	3104
862.315	3184
862.447	3195
862.58	3085
862.712	2963
862.844	2910
862.976	3036
863.108	3024
863.24	3260
863.372	2925
863.504	3001
863.636	2971
863.768	3028
863.9	3009
864.032	2937
864.164	2982
864.296	3024
864.428	3077
864.559	3089
864.691	3085
864.823	3085
864.954	3036
865.086	3062
865.217	3028
865.349	2963
865.48	2990
865.612	3005
865.743	3169
865.875	3001
866.006	2922
866.137	3024
866.269	2933
866.4	2956
866.531	2937
866.662	2902
866.793	2941
866.924	2910
867.055	2971
867.186	2914
867.317	2902
867.448	2842
867.579	2861
867.71	2861
867.841	2849
867.972	2872
868.103	2902
868.233	2880
868.364	2899
868.495	2929
868.625	3062
868.756	3165
868.886	2986
869.017	3036
869.147	3184
869.278	3173
869.408	3066
869.539	3043
869.669	3112
869.799	3055
869.929	3154
870.06	3135
870.19	3344
870.32	3306
870.45	3344
870.58	3405
870.71	3450
870.84	3416
870.97	3272
871.1	3233
871.23	3485
871.36	3523
871.489	3344
871.619	3416
871.749	3416
871.879	3466
872.008	3492
872.138	3359
872.267	3272
872.397	3123
872.526	3108
872.656	3001
872.785	3150
872.915	3241
873.044	3344
873.173	3207
873.303	3268
873.432	3245
873.561	3226
873.69	3180
873.819	3127
873.948	3192
874.077	3100
874.206	3058
874.335	3104
874.464	3195
874.593	3348
874.722	3253
874.851	3382
874.979	3378
875.108	3351
875.237	3203
875.365	3135
875.494	3150
875.623	3249
875.751	3077
875.88	3188
876.008	3199
876.136	3233
876.265	3401
876.393	3526
876.521	3450
876.65	3443
876.778	3363
876.906	3241
877.034	3226
877.162	3260
877.29	3180
877.418	3237
877.546	3291
877.674	3241
877.802	3226
877.93	3230
878.058	3154
878.185	3119
878.313	3203
878.441	3207
878.568	3058
878.696	3165
878.824	3272
878.951	3317
879.079	3504
879.206	3648
879.333	3435
879.461	3351
879.588	3355
879.715	3466
879.842	3568
879.97	3389
880.097	3169
880.224	3131
880.351	3211
880.478	3230
880.605	3207
880.732	3203
880.859	3507
880.986	3317
881.112	3325
881.239	3256
881.366	3093
881.493	3020
881.619	3013
881.746	3055
881.872	3074
881.999	3097
882.125	3150
882.252	3241
882.378	3336
882.505	3412
882.631	3279
882.757	3165
882.883	3192
883.01	3222
883.136	3157
883.262	3123
883.388	3123
883.514	3313
883.64	3363
883.766	3359
883.892	3203
884.018	3245
884.143	3424
884.269	3511
884.395	3226
884.52	3180
884.646	3241
884.772	3138
884.897	3131
885.023	3214
885.148	3317
885.274	3386
885.399	3412
885.524	3291
885.65	3272
885.775	3329
885.9	3310
886.025	3447
886.15	3367
886.275	3332
886.4	3272
886.525	3291
886.65	3302
886.775	3325
886.9	3477
887.025	3633
887.149	3420
887.274	3291
887.399	3173
887.523	3203
887.648	3180
887.773	3211
887.897	3397
888.021	3374
888.146	3294
888.27	3466
888.395	3530
888.519	3435
888.643	3447
888.767	3439
888.891	3310
889.015	3253
889.139	3310
889.263	3268
889.387	3424
889.511	3530
889.635	3469
889.759	3291
889.883	3310
890.006	3412
890.13	3507
890.254	3306
890.377	3378
890.501	3226
890.624	3173
890.748	3332
890.871	3192
890.995	3070
891.118	3085
891.241	3233
891.364	3279
891.488	3329
891.611	3211
891.734	3188
891.857	3291
891.98	3272
892.103	3348
892.226	3272
892.349	3214
892.471	3161
892.594	3253
892.717	3283
892.839	3279
892.962	3260
893.085	3386
893.207	3306
893.33	3142
893.452	3237
893.575	3363
893.697	3245
893.819	3492
893.941	3542
894.064	3435
894.186	3268
894.308	3245
894.43	3447
894.552	3545
894.674	3526
894.796	3283
894.918	3336
895.04	3329
895.161	3382
895.283	3405
895.405	3317
895.526	3389
895.648	3443
895.769	3420
895.891	3462
896.012	3469
896.134	3462
896.255	3458
896.376	3424
896.498	3348
896.619	3416
896.74	3420
896.861	3435
896.982	3682
897.103	3804
897.224	3595
897.345	3504
897.466	3515
897.587	3481
897.708	3671
897.828	3576
897.949	3473
898.07	3329
898.19	3420
898.311	3633
898.431	3431
898.552	3500
898.672	3561
898.792	3587
898.913	3542
899.033	3431
899.153	3336
899.273	3218
899.393	3317
899.513	3332
899.633	3348
899.753	3359
899.873	3310
899.993	3393
900.113	3340
900.232	3420
900.352	3298
900.472	3291
900.591	3195
900.711	3321
900.83	3237
900.95	3435
901.069	3507
901.189	3370
901.308	3211
901.427	3165
901.546	3199
901.665	3317
901.784	3359
901.904	3264
902.023	3142
902.141	3047
902.26	2994
902.379	3150
902.498	3077
902.617	3077
902.735	3161
902.854	3245
902.973	3199
903.091	3055
903.21	3062
903.328	3127
903.446	3127
903.565	3123
903.683	3211
903.801	3135
903.919	3279
904.038	3298
904.156	3169
904.274	3317
904.392	3256
904.51	3302
904.627	3332
904.745	3439
904.863	3545
904.981	3283
905.098	3192
905.216	3283
905.334	3291
905.451	3329
905.569	3321
905.686	3424
905.803	3447
905.921	3302
906.038	3409
906.155	3348
906.272	3268
906.389	3382
906.506	3218
906.623	3291
906.74	3249
906.857	3218
906.974	3260
907.091	3466
907.208	3587
907.324	3485
907.441	3405
907.557	3264
907.674	3233
907.79	3214
907.907	3272
908.023	3370
908.139	3393
908.256	3382
908.372	3431
908.488	3336
908.604	3291
908.72	3264
908.836	3332
908.952	3287
909.068	3344
909.184	3526
909.3	3420
909.415	3561
909.531	3507
909.647	3306
909.762	3325
909.878	3306
909.993	3325
910.108	3374
910.224	3386
910.339	3443
910.454	3340
910.57	3294
910.685	3230
910.8	3629
910.915	3538
911.03	3435
911.145	3291
911.259	3298
911.374	3268
911.489	3253
911.604	3233
911.718	3100
911.833	3165
911.947	3036
912.062	2998
912.176	3195
912.291	3199
912.405	3207
912.519	3492
912.633	3466
912.748	3332
912.862	3272
912.976	3146
913.09	3119
913.204	3138
913.318	3226
913.431	3348
913.545	3329
913.659	3435
913.772	3294
913.886	3241
914	3237
914.113	3378
914.226	3409
914.34	3336
914.453	3222
914.566	3405
914.68	3321
914.793	3344
914.906	3150
915.019	3146
915.132	3100
915.245	3146
915.358	3199
915.47	3222
915.583	3268
915.696	3332
915.809	3393
915.921	3416
916.034	3256
916.146	3237
916.259	3230
916.371	3382
916.483	3378
916.595	3313
916.708	3332
916.82	3370
916.932	3332
917.044	3340
917.156	3351
917.268	3294
917.38	3287
917.491	3275
917.603	3386
917.715	3431
917.826	3473
917.938	3401
918.049	3264
918.161	3439
918.272	3584
918.384	3595
918.495	3466
918.606	3348
918.717	3245
918.828	3370
918.939	3420
919.05	3306
919.161	3363
919.272	3173
919.383	3298
919.494	3553
919.604	3644
919.715	3496
919.826	3420
919.936	3458
920.047	3606
920.157	3561
920.267	3762
920.378	3591
920.488	3568
920.598	3762
920.708	3987
920.818	3838
920.928	3873
921.038	4021
921.148	4006
921.258	3705
921.368	3629
921.477	3538
921.587	3515
921.697	3477
921.806	3629
921.916	3542
922.025	3351
922.134	3393
922.244	3294
922.353	3424
922.462	3294
922.571	3249
922.68	3100
922.789	3127
922.898	3085
923.007	3116
923.116	3218
923.224	3157
923.333	3180
923.442	3097
923.55	3089
923.659	3138
923.767	3211
923.876	3127
923.984	3218
924.092	3123
924.201	3222
924.309	3199
924.417	3245
924.525	3176
924.633	3268
924.741	4185
924.849	3062
924.956	3230
925.064	3089
925.172	3020
925.279	3093
925.387	3207
925.494	3218
925.602	3370
925.709	3344
925.816	3222
925.924	3291
926.031	3420
926.138	3321
926.245	3355
926.352	3260
926.459	3420
926.566	3488
926.673	3344
926.779	3279
926.886	3268
926.993	3192
927.099	3165
927.206	3127
927.312	3138
927.419	3237
927.525	3230
927.631	3272
927.737	3199
927.843	3161
927.95	3036
928.056	3161
928.162	3245
928.267	3313
928.373	3964
928.479	3393
928.585	3100
928.69	3287
928.796	3310
928.901	3211
929.007	3062
929.112	3268
929.218	3207
929.323	3214
929.428	3184
929.533	3420
929.638	3195
929.743	3272
929.848	3260
929.953	3230
930.058	3214
930.163	3062
930.267	3077
930.372	3260
930.477	3070
930.581	3382
930.685	3230
930.79	3093
930.894	3214
930.998	3146
931.103	3351
931.207	3047
931.311	3024
931.415	2982
931.519	2853
931.623	2880
