Data from test_V78500241_1759.txt Node
Date: Fri Mar 25 16:27:23 CST 2022
User: usil
Spectrometer: V785-0024
Trigger mode: 0
Integration Time (sec): 4.000000E-1
Scans to average: 1
Nonlinearity correction enabled: false
Boxcar width: 0
Storing dark spectrum: false
XAxis mode: Wavelengths
Number of Pixels in Spectrum: 1024
>>>>>Begin Spectral Data<<<<<
801.071	2914
801.214	2967
801.356	2872
801.499	2918
801.641	2872
801.783	2918
801.926	3028
802.068	2956
802.211	2986
802.353	3039
802.496	2948
802.638	3005
802.78	3028
802.923	3058
803.065	2982
803.208	2895
803.35	2914
803.492	2967
803.635	2895
803.777	2750
803.919	2876
804.061	3180
804.204	2948
804.346	2914
804.488	2845
804.63	3005
804.773	2887
804.915	2895
805.057	3062
805.199	2918
805.341	2990
805.483	3085
805.626	3009
805.768	2929
805.91	3085
806.052	3085
806.194	2986
806.336	3249
806.478	3036
806.62	2937
806.762	3017
806.904	3074
807.046	3138
807.188	2994
807.33	2914
807.472	2967
807.614	2883
807.756	3001
807.898	2895
808.04	2902
808.182	2971
808.324	2960
808.465	2864
808.607	2902
808.749	2804
808.891	2796
809.033	2982
809.174	2982
809.316	2891
809.458	2823
809.6	2762
809.741	2773
809.883	2788
810.025	2849
810.166	2845
810.308	2819
810.45	2853
810.591	2777
810.733	2788
810.875	2826
811.016	2788
811.158	2746
811.299	2800
811.441	2929
811.582	2868
811.724	2792
811.865	2845
812.007	2895
812.148	2887
812.29	2823
812.431	2868
812.573	2944
812.714	2952
812.855	3055
812.997	3066
813.138	3093
813.279	2982
813.421	2967
813.562	2975
813.703	2864
813.845	2861
813.986	2796
814.127	2743
814.268	2800
814.41	2845
814.551	2796
814.692	2845
814.833	2830
814.974	2849
815.115	2925
815.256	2807
815.397	2838
815.539	2845
815.68	2766
815.821	2785
815.962	2944
816.103	2941
816.244	2868
816.385	2845
816.526	2941
816.666	2922
816.807	2743
816.948	2876
817.089	2906
817.23	2876
817.371	2785
817.512	2853
817.653	2804
817.793	2796
817.934	2872
818.075	2975
818.216	2975
818.356	3017
818.497	2857
818.638	2804
818.778	2819
818.919	2792
819.06	2800
819.2	2880
819.341	2807
819.481	2785
819.622	2925
819.762	3058
819.903	2990
820.043	2937
820.184	2887
820.324	2925
820.465	3005
820.605	2994
820.746	3032
820.886	2933
821.026	3089
821.167	3150
821.307	3241
821.447	3253
821.588	3237
821.728	3161
821.868	3188
822.008	3100
822.149	3176
822.289	3222
822.429	3093
822.569	3047
822.709	3203
822.849	3013
822.99	3062
823.13	3192
823.27	3218
823.41	3093
823.55	3138
823.69	3150
823.83	3165
823.97	3116
824.11	3005
824.25	3020
824.389	3036
824.529	3104
824.669	3062
824.809	3203
824.949	3233
825.089	3188
825.228	3169
825.368	3009
825.508	2994
825.648	2956
825.787	3001
825.927	2990
826.067	2986
826.206	3005
826.346	3062
826.485	3062
826.625	3119
826.765	3253
826.904	3222
827.044	3001
827.183	2937
827.323	2838
827.462	2982
827.601	2910
827.741	2952
827.88	2941
828.02	2872
828.159	2948
828.298	3066
828.437	3119
828.577	3020
828.716	3237
828.855	3093
828.994	2902
829.134	2876
829.273	2906
829.412	2880
829.551	2849
829.69	2876
829.829	3005
829.968	3100
830.107	2998
830.246	3013
830.385	2918
830.524	2868
830.663	2811
830.802	2716
830.941	2625
831.08	2636
831.219	2777
831.357	2758
831.496	2971
831.635	2708
831.774	2655
831.913	2663
832.051	2522
832.19	2556
832.329	2686
832.467	2541
832.606	2480
832.744	2568
832.883	2579
833.022	2587
833.16	2617
833.299	2697
833.437	2689
833.576	2667
833.714	2731
833.852	2739
833.991	2743
834.129	2819
834.267	2823
834.406	2773
834.544	2861
834.682	2868
834.821	2868
834.959	3013
835.097	2872
835.235	3020
835.373	2944
835.511	3001
835.65	2937
835.788	2937
835.926	2826
836.064	2792
836.202	2834
836.34	3081
836.478	3119
836.615	3058
836.753	3123
836.891	3192
837.029	3192
837.167	3089
837.305	3036
837.443	3009
837.58	2948
837.718	3097
837.856	3089
837.993	3013
838.131	3085
838.269	3104
838.406	3058
838.544	3081
838.681	2960
838.819	2887
838.956	2815
839.094	2815
839.231	2918
839.369	3005
839.506	3397
839.643	3169
839.781	3017
839.918	2960
840.055	3017
840.193	3039
840.33	3047
840.467	3135
840.604	3146
840.742	3389
840.879	3062
841.016	3032
841.153	3047
841.29	3275
841.427	3275
841.564	3287
841.701	3317
841.838	3203
841.975	3165
842.112	3192
842.249	3100
842.385	3020
842.522	3264
842.659	3077
842.796	3039
842.933	3100
843.069	3047
843.206	3017
843.343	3173
843.479	3085
843.616	3093
843.752	2902
843.889	2830
844.025	3089
844.162	2880
844.298	3089
844.435	2918
844.571	2914
844.708	3036
844.844	3173
844.98	3226
845.117	3195
845.253	3051
845.389	2994
845.525	3089
845.661	3070
845.798	3024
845.934	3123
846.07	3055
846.206	3211
846.342	3275
846.478	3241
846.614	3093
846.75	3051
846.886	2986
847.022	3211
847.158	3123
847.294	3176
847.429	3237
847.565	3192
847.701	3477
847.837	3028
847.972	3005
848.108	3123
848.244	3131
848.379	3020
848.515	2906
848.65	2918
848.786	2944
848.921	2998
849.057	3093
849.192	3108
849.328	3047
849.463	3108
849.598	3024
849.734	3024
849.869	2975
850.004	2899
850.14	2952
850.275	2853
850.41	2849
850.545	2906
850.68	2876
850.815	2967
850.95	2963
851.085	3154
851.22	3100
851.355	3036
851.49	2967
851.625	3005
851.76	2990
851.895	2914
852.03	2872
852.165	3051
852.299	3104
852.434	3176
852.569	3135
852.703	3135
852.838	3275
852.973	3306
853.107	3298
853.242	3142
853.376	3070
853.511	2967
853.645	3024
853.78	3226
853.914	3093
854.048	3116
854.183	3062
854.317	3127
854.451	3336
854.585	3131
854.72	3062
854.854	3233
854.988	3001
855.122	3070
855.256	2986
855.39	3077
855.524	3211
855.658	3161
855.792	3100
855.926	3184
856.06	3203
856.194	3291
856.327	3138
856.461	3081
856.595	3051
856.729	3138
856.862	3195
856.996	3176
857.13	3169
857.263	3173
857.397	3283
857.53	3108
857.664	3199
857.797	3230
857.931	3294
858.064	3180
858.197	3211
858.331	3104
858.464	3100
858.597	2982
858.731	3116
858.864	3108
858.997	3070
859.13	3123
859.263	3195
859.396	3211
859.529	3123
859.662	3036
859.795	3032
859.928	3157
860.061	3298
860.194	3268
860.327	3116
860.46	3077
860.592	3245
860.725	3241
860.858	3222
860.99	3097
861.123	3020
861.256	3013
861.388	3104
861.521	3854
861.653	3043
861.786	2956
861.918	2948
862.05	3039
862.183	3077
862.315	3188
862.447	3195
862.58	3081
862.712	2952
862.844	2849
862.976	3009
863.108	3001
863.24	3291
863.372	2861
863.504	2922
863.636	2948
863.768	3051
863.9	2952
864.032	2922
864.164	2952
864.296	2971
864.428	3085
864.559	3085
864.691	3055
864.823	3058
864.954	3024
865.086	3028
865.217	3032
865.349	2929
865.48	2960
865.612	3017
865.743	3146
865.875	2963
866.006	2933
866.137	2956
866.269	2933
866.4	2914
866.531	2872
866.662	2876
866.793	2880
866.924	2876
867.055	2952
867.186	2918
867.317	2910
867.448	2857
867.579	2880
867.71	2845
867.841	2800
867.972	2895
868.103	2880
868.233	2853
868.364	2876
868.495	2899
868.625	3085
868.756	3131
868.886	2975
869.017	3032
869.147	3157
869.278	3176
869.408	3047
869.539	3032
869.669	3085
869.799	3036
869.929	3112
870.06	3085
870.19	3325
870.32	3241
870.45	3287
870.58	3363
870.71	3439
870.84	3401
870.97	3275
871.1	3222
871.23	3488
871.36	3416
871.489	3348
871.619	3370
871.749	3416
871.879	3409
872.008	3488
872.138	3405
872.267	3272
872.397	3127
872.526	3131
872.656	3009
872.785	3100
872.915	3233
873.044	3351
873.173	3237
873.303	3275
873.432	3218
873.561	3188
873.69	3146
873.819	3127
873.948	3169
874.077	3127
874.206	3036
874.335	3097
874.464	3211
874.593	3355
874.722	3253
874.851	3389
874.979	3351
875.108	3287
875.237	3180
875.365	3097
875.494	3150
875.623	3233
875.751	3051
875.88	3123
876.008	3165
876.136	3237
876.265	3348
876.393	3515
876.521	3409
876.65	3359
876.778	3317
876.906	3253
877.034	3188
877.162	3249
877.29	3184
877.418	3260
877.546	3199
877.674	3237
877.802	3207
877.93	3199
878.058	3142
878.185	3097
878.313	3192
878.441	3195
878.568	3055
878.696	3100
878.824	3192
878.951	3233
879.079	3447
879.206	3606
879.333	3443
879.461	3321
879.588	3321
879.715	3458
879.842	3587
879.97	3363
880.097	3146
880.224	3085
880.351	3165
880.478	3214
880.605	3184
880.732	3184
880.859	3507
880.986	3294
881.112	3287
881.239	3184
881.366	3077
881.493	3001
881.619	2982
881.746	3066
881.872	3055
881.999	3070
882.125	3093
882.252	3249
882.378	3283
882.505	3401
882.631	3279
882.757	3180
882.883	3203
883.01	3214
883.136	3157
883.262	3104
883.388	3116
883.514	3317
883.64	3389
883.766	3351
883.892	3150
884.018	3241
884.143	3435
884.269	3561
884.395	3230
884.52	3176
884.646	3199
884.772	3100
884.897	3108
885.023	3222
885.148	3336
885.274	3428
885.399	3363
885.524	3291
885.65	3306
885.775	3351
885.9	3348
886.025	3428
886.15	3397
886.275	3325
886.4	3211
886.525	3287
886.65	3310
886.775	3294
886.9	3462
887.025	3618
887.149	3447
887.274	3260
887.399	3214
887.523	3195
887.648	3173
887.773	3222
887.897	3393
888.021	3397
888.146	3359
888.27	3458
888.395	3568
888.519	3447
888.643	3504
888.767	3492
888.891	3355
889.015	3279
889.139	3336
889.263	3268
889.387	3462
889.511	3538
889.635	3481
889.759	3310
889.883	3348
890.006	3454
890.13	3545
890.254	3336
890.377	3374
890.501	3211
890.624	3233
890.748	3348
890.871	3226
890.995	3157
891.118	3116
891.241	3207
891.364	3283
891.488	3340
891.611	3226
891.734	3253
891.857	3321
891.98	3264
892.103	3374
892.226	3287
892.349	3241
892.471	3135
892.594	3283
892.717	3340
892.839	3260
892.962	3321
893.085	3409
893.207	3332
893.33	3211
893.452	3241
893.575	3405
893.697	3264
893.819	3439
893.941	3526
894.064	3523
894.186	3306
894.308	3298
894.43	3469
894.552	3584
894.674	3477
894.796	3310
894.918	3336
895.04	3325
895.161	3500
895.283	3428
895.405	3344
895.526	3389
895.648	3443
895.769	3458
895.891	3450
896.012	3515
896.134	3477
896.255	3424
896.376	3412
896.498	3374
896.619	3447
896.74	3367
896.861	3393
896.982	3717
897.103	3896
897.224	3641
897.345	3572
897.466	3507
897.587	3549
897.708	3629
897.828	3568
897.949	3454
898.07	3313
898.19	3409
898.311	3618
898.431	3515
898.552	3542
898.672	3663
898.792	3587
898.913	3580
899.033	3420
899.153	3336
899.273	3218
899.393	3363
899.513	3359
899.633	3344
899.753	3386
899.873	3340
899.993	3435
900.113	3389
900.232	3435
900.352	3397
900.472	3332
900.591	3253
900.711	3332
900.83	3291
900.95	3443
901.069	3511
901.189	3367
901.308	3188
901.427	3161
901.546	3233
901.665	3329
901.784	3355
901.904	3237
902.023	3165
902.141	3036
902.26	3047
902.379	3165
902.498	3097
902.617	3104
902.735	3173
902.854	3283
902.973	3184
903.091	3055
903.21	3089
903.328	3142
903.446	3112
903.565	3085
903.683	3207
903.801	3169
903.919	3249
904.038	3348
904.156	3207
904.274	3329
904.392	3287
904.51	3313
904.627	3374
904.745	3477
904.863	3545
904.981	3275
905.098	3188
905.216	3241
905.334	3306
905.451	3336
905.569	3344
905.686	3431
905.803	3447
905.921	3317
906.038	3469
906.155	3363
906.272	3336
906.389	3329
906.506	3275
906.623	3313
906.74	3344
906.857	3218
906.974	3294
907.091	3443
907.208	3603
907.324	3458
907.441	3382
907.557	3230
907.674	3260
907.79	3233
907.907	3310
908.023	3344
908.139	3401
908.256	3329
908.372	3397
908.488	3420
908.604	3287
908.72	3237
908.836	3325
908.952	3325
909.068	3386
909.184	3488
909.3	3401
909.415	3530
909.531	3466
909.647	3294
909.762	3321
909.878	3256
909.993	3389
910.108	3367
910.224	3348
910.339	3450
910.454	3348
910.57	3302
910.685	3294
910.8	3622
910.915	3549
911.03	3477
911.145	3310
911.259	3317
911.374	3317
911.489	3279
911.604	3279
911.718	3165
911.833	3199
911.947	3051
912.062	3020
912.176	3173
912.291	3222
912.405	3226
912.519	3466
912.633	3523
912.748	3359
912.862	3310
912.976	3211
913.09	3100
913.204	3142
913.318	3241
913.431	3363
913.545	3389
913.659	3439
913.772	3363
913.886	3218
914	3222
914.113	3386
914.226	3439
914.34	3351
914.453	3249
914.566	3462
914.68	3325
914.793	3313
914.906	3188
915.019	3165
915.132	3104
915.245	3165
915.358	3241
915.47	3256
915.583	3291
915.696	3287
915.809	3428
915.921	3496
916.034	3294
916.146	3283
916.259	3298
916.371	3416
916.483	3374
916.595	3291
916.708	3378
916.82	3348
916.932	3355
917.044	3351
917.156	3355
917.268	3302
917.38	3351
917.491	3321
917.603	3416
917.715	3469
917.826	3485
917.938	3363
918.049	3268
918.161	3447
918.272	3599
918.384	3633
918.495	3507
918.606	3329
918.717	3275
918.828	3367
918.939	3431
919.05	3325
919.161	3409
919.272	3161
919.383	3260
919.494	3515
919.604	3690
919.715	3530
919.826	3458
919.936	3485
920.047	3599
920.157	3561
920.267	3762
920.378	3663
920.488	3603
920.598	3827
920.708	3983
920.818	3854
920.928	3888
921.038	4059
921.148	4025
921.258	3736
921.368	3644
921.477	3622
921.587	3587
921.697	3488
921.806	3644
921.916	3542
922.025	3370
922.134	3393
922.244	3321
922.353	3412
922.462	3279
922.571	3245
922.68	3119
922.789	3108
922.898	3169
923.007	3157
923.116	3226
923.224	3184
923.333	3211
923.442	3146
923.55	3108
923.659	3154
923.767	3249
923.876	3150
923.984	3279
924.092	3127
924.201	3245
924.309	3279
924.417	3256
924.525	3226
924.633	3283
924.741	4029
924.849	3062
924.956	3317
925.064	3123
925.172	3070
925.279	3093
925.387	3218
925.494	3214
925.602	3405
925.709	3374
925.816	3241
925.924	3283
926.031	3374
926.138	3344
926.245	3382
926.352	3256
926.459	3420
926.566	3507
926.673	3367
926.779	3283
926.886	3275
926.993	3192
927.099	3169
927.206	3127
927.312	3142
927.419	3253
927.525	3245
927.631	3237
927.737	3176
927.843	3108
927.95	3062
928.056	3108
928.162	3203
928.267	3279
928.373	3880
928.479	3325
928.585	3043
928.69	3237
928.796	3298
928.901	3154
929.007	3074
929.112	3233
929.218	3218
929.323	3131
929.428	3154
929.533	3302
929.638	3116
929.743	3192
929.848	3264
929.953	3272
930.058	3150
930.163	3020
930.267	3051
930.372	3230
930.477	3058
930.581	3370
930.685	3184
930.79	3077
930.894	3127
930.998	3142
931.103	3260
931.207	2967
931.311	2944
931.415	2941
931.519	2788
931.623	2823
