Data from test_V78500241_1887.txt Node
Date: Fri Mar 25 16:28:16 CST 2022
User: usil
Spectrometer: V785-0024
Trigger mode: 0
Integration Time (sec): 4.000000E-1
Scans to average: 1
Nonlinearity correction enabled: false
Boxcar width: 0
Storing dark spectrum: false
XAxis mode: Wavelengths
Number of Pixels in Spectrum: 1024
>>>>>Begin Spectral Data<<<<<
801.071	2918
801.214	2952
801.356	2845
801.499	2880
801.641	2880
801.783	2960
801.926	3017
802.068	2944
802.211	2986
802.353	3062
802.496	2933
802.638	2986
802.78	3051
802.923	3077
803.065	2998
803.208	2895
803.35	2929
803.492	2941
803.635	2918
803.777	2746
803.919	2845
804.061	3222
804.204	2948
804.346	2902
804.488	2861
804.63	2971
804.773	2868
804.915	2933
805.057	3066
805.199	2937
805.341	3009
805.483	3032
805.626	2979
805.768	2960
805.91	3093
806.052	3077
806.194	3028
806.336	3226
806.478	3047
806.62	2941
806.762	2994
806.904	3047
807.046	3157
807.188	2960
807.33	2941
807.472	2994
807.614	2933
807.756	2975
807.898	2937
808.04	2864
808.182	2960
808.324	2960
808.465	2868
808.607	2834
808.749	2781
808.891	2830
809.033	2967
809.174	2990
809.316	2883
809.458	2922
809.6	2781
809.741	2785
809.883	2762
810.025	2830
810.166	2861
810.308	2804
810.45	2902
810.591	2796
810.733	2777
810.875	2857
811.016	2800
811.158	2750
811.299	2815
811.441	2922
811.582	2872
811.724	2823
811.865	2853
812.007	2887
812.148	2861
812.29	2861
812.431	2864
812.573	2906
812.714	2986
812.855	3028
812.997	3017
813.138	3093
813.279	3009
813.421	2956
813.562	2971
813.703	2880
813.845	2861
813.986	2769
814.127	2746
814.268	2838
814.41	2819
814.551	2796
814.692	2834
814.833	2849
814.974	2902
815.115	2944
815.256	2853
815.397	2834
815.539	2849
815.68	2781
815.821	2762
815.962	2929
816.103	2906
816.244	2868
816.385	2891
816.526	2944
816.666	2914
816.807	2754
816.948	2887
817.089	2941
817.23	2849
817.371	2769
817.512	2792
817.653	2823
817.793	2823
817.934	2861
818.075	2960
818.216	3005
818.356	3020
818.497	2872
818.638	2796
818.778	2823
818.919	2796
819.06	2769
819.2	2883
819.341	2781
819.481	2800
819.622	2910
819.762	3097
819.903	3047
820.043	2910
820.184	2876
820.324	2906
820.465	3039
820.605	3024
820.746	3039
820.886	2952
821.026	3100
821.167	3131
821.307	3237
821.447	3298
821.588	3218
821.728	3199
821.868	3180
822.008	3070
822.149	3176
822.289	3237
822.429	3085
822.569	3100
822.709	3188
822.849	3020
822.99	3017
823.13	3173
823.27	3165
823.41	3131
823.55	3157
823.69	3169
823.83	3207
823.97	3138
824.11	2994
824.25	2990
824.389	3077
824.529	3135
824.669	3089
824.809	3176
824.949	3249
825.089	3245
825.228	3207
825.368	3001
825.508	2910
825.648	2990
825.787	3036
825.927	2979
826.067	2975
826.206	2975
826.346	3028
826.485	3081
826.625	3119
826.765	3256
826.904	3222
827.044	2975
827.183	2941
827.323	2891
827.462	2960
827.601	2891
827.741	2891
827.88	2960
828.02	2876
828.159	2960
828.298	3024
828.437	3104
828.577	3013
828.716	3237
828.855	3043
828.994	2967
829.134	2880
829.273	2929
829.412	2861
829.551	2849
829.69	2902
829.829	2990
829.968	3138
830.107	2994
830.246	3020
830.385	2929
830.524	2864
830.663	2830
830.802	2750
830.941	2629
831.08	2632
831.219	2766
831.357	2754
831.496	2944
831.635	2686
831.774	2659
831.913	2659
832.051	2530
832.19	2564
832.329	2667
832.467	2518
832.606	2499
832.744	2590
832.883	2533
833.022	2575
833.16	2640
833.299	2667
833.437	2735
833.576	2667
833.714	2705
833.852	2705
833.991	2769
834.129	2811
834.267	2823
834.406	2796
834.544	2857
834.682	2864
834.821	2849
834.959	3055
835.097	2876
835.235	3032
835.373	3013
835.511	3028
835.65	2952
835.788	2967
835.926	2826
836.064	2788
836.202	2830
836.34	3081
836.478	3150
836.615	3024
836.753	3104
836.891	3226
837.029	3127
837.167	3093
837.305	3074
837.443	3039
837.58	2948
837.718	3108
837.856	3051
837.993	3036
838.131	3112
838.269	3104
838.406	3062
838.544	3074
838.681	2925
838.819	2929
838.956	2815
839.094	2845
839.231	2887
839.369	2963
839.506	3363
839.643	3195
839.781	2998
839.918	2929
840.055	3058
840.193	3028
840.33	3066
840.467	3055
840.604	3127
840.742	3428
840.879	3028
841.016	3032
841.153	3104
841.29	3287
841.427	3313
841.564	3260
841.701	3313
841.838	3211
841.975	3184
842.112	3249
842.249	3127
842.385	3013
842.522	3260
842.659	3119
842.796	3066
842.933	3089
843.069	3032
843.206	3020
843.343	3211
843.479	3097
843.616	3150
843.752	2891
843.889	2842
844.025	3032
844.162	2887
844.298	3051
844.435	2937
844.571	2902
844.708	3036
844.844	3207
844.98	3256
845.117	3188
845.253	3024
845.389	3020
845.525	3085
845.661	3085
845.798	2990
845.934	3112
846.07	3077
846.206	3207
846.342	3302
846.478	3207
846.614	3119
846.75	3051
846.886	3043
847.022	3233
847.158	3097
847.294	3211
847.429	3260
847.565	3260
847.701	3481
847.837	3028
847.972	3013
848.108	3161
848.244	3112
848.379	2975
848.515	2948
848.65	2933
848.786	2937
848.921	2971
849.057	3100
849.192	3100
849.328	3047
849.463	3093
849.598	3051
849.734	3058
849.869	2982
850.004	2891
850.14	2922
850.275	2910
850.41	2826
850.545	2853
850.68	2933
850.815	2933
850.95	2975
851.085	3173
851.22	3097
851.355	3009
851.49	2933
851.625	2956
851.76	3028
851.895	2941
852.03	2925
852.165	3028
852.299	3119
852.434	3161
852.569	3131
852.703	3176
852.838	3253
852.973	3340
853.107	3344
853.242	3146
853.376	3085
853.511	2982
853.645	3017
853.78	3256
853.914	3116
854.048	3085
854.183	3085
854.317	3169
854.451	3268
854.585	3108
854.72	3055
854.854	3188
854.988	3020
855.122	3085
855.256	2982
855.39	3135
855.524	3222
855.658	3192
855.792	3150
855.926	3169
856.06	3169
856.194	3226
856.327	3131
856.461	3108
856.595	3062
856.729	3081
856.862	3214
856.996	3150
857.13	3180
857.263	3218
857.397	3233
857.53	3093
857.664	3165
857.797	3245
857.931	3233
858.064	3173
858.197	3203
858.331	3131
858.464	3116
858.597	2982
858.731	3123
858.864	3142
858.997	3077
859.13	3131
859.263	3127
859.396	3218
859.529	3112
859.662	3074
859.795	3036
859.928	3135
860.061	3256
860.194	3268
860.327	3131
860.46	3070
860.592	3230
860.725	3218
860.858	3230
860.99	3112
861.123	3055
861.256	3032
861.388	3150
861.521	3793
861.653	2982
861.786	2952
861.918	3032
862.05	3089
862.183	3089
862.315	3154
862.447	3154
862.58	3089
862.712	2937
862.844	2842
862.976	2986
863.108	2986
863.24	3310
863.372	2857
863.504	2975
863.636	2956
863.768	2994
863.9	2956
864.032	2933
864.164	2922
864.296	2986
864.428	3097
864.559	3051
864.691	3055
864.823	3093
864.954	3036
865.086	3009
865.217	3005
865.349	2937
865.48	2960
865.612	3055
865.743	3123
865.875	2956
866.006	2922
866.137	2967
866.269	2948
866.4	2944
866.531	2876
866.662	2887
866.793	2891
866.924	2899
867.055	2944
867.186	2925
867.317	2887
867.448	2830
867.579	2819
867.71	2845
867.841	2834
867.972	2922
868.103	2868
868.233	2902
868.364	2883
868.495	2864
868.625	3070
868.756	3157
868.886	2933
869.017	3009
869.147	3123
869.278	3161
869.408	3013
869.539	3020
869.669	3093
869.799	3024
869.929	3123
870.06	3108
870.19	3321
870.32	3245
870.45	3298
870.58	3336
870.71	3443
870.84	3481
870.97	3275
871.1	3203
871.23	3458
871.36	3469
871.489	3317
871.619	3389
871.749	3397
871.879	3412
872.008	3477
872.138	3351
872.267	3291
872.397	3138
872.526	3100
872.656	2990
872.785	3104
872.915	3253
873.044	3321
873.173	3214
873.303	3241
873.432	3264
873.561	3230
873.69	3165
873.819	3116
873.948	3173
874.077	3142
874.206	3097
874.335	3108
874.464	3203
874.593	3355
874.722	3245
874.851	3386
874.979	3325
875.108	3329
875.237	3192
875.365	3173
875.494	3119
875.623	3222
875.751	3104
875.88	3112
876.008	3176
876.136	3146
876.265	3351
876.393	3473
876.521	3393
876.65	3439
876.778	3298
876.906	3226
877.034	3245
877.162	3203
877.29	3195
877.418	3222
877.546	3245
877.674	3241
877.802	3226
877.93	3241
878.058	3161
878.185	3131
878.313	3176
878.441	3245
878.568	3093
878.696	3142
878.824	3222
878.951	3317
879.079	3450
879.206	3618
879.333	3443
879.461	3329
879.588	3348
879.715	3504
879.842	3633
879.97	3344
880.097	3161
880.224	3089
880.351	3214
880.478	3195
880.605	3195
880.732	3214
880.859	3469
880.986	3321
881.112	3306
881.239	3154
881.366	3081
881.493	3077
881.619	3001
881.746	3070
881.872	3127
881.999	3097
882.125	3154
882.252	3249
882.378	3302
882.505	3454
882.631	3283
882.757	3161
882.883	3226
883.01	3233
883.136	3131
883.262	3100
883.388	3127
883.514	3317
883.64	3332
883.766	3294
883.892	3169
884.018	3249
884.143	3409
884.269	3526
884.395	3157
884.52	3188
884.646	3184
884.772	3108
884.897	3081
885.023	3192
885.148	3340
885.274	3424
885.399	3367
885.524	3241
885.65	3275
885.775	3317
885.9	3268
886.025	3431
886.15	3344
886.275	3275
886.4	3222
886.525	3291
886.65	3226
886.775	3268
886.9	3481
887.025	3580
887.149	3397
887.274	3275
887.399	3180
887.523	3195
887.648	3157
887.773	3214
887.897	3382
888.021	3405
888.146	3313
888.27	3435
888.395	3496
888.519	3431
888.643	3416
888.767	3450
888.891	3325
889.015	3279
889.139	3279
889.263	3264
889.387	3409
889.511	3454
889.635	3443
889.759	3275
889.883	3279
890.006	3355
890.13	3473
890.254	3298
890.377	3332
890.501	3188
890.624	3192
890.748	3317
890.871	3184
890.995	3089
891.118	3074
891.241	3192
891.364	3207
891.488	3313
891.611	3131
891.734	3237
891.857	3291
891.98	3272
892.103	3310
892.226	3272
892.349	3233
892.471	3093
892.594	3245
892.717	3317
892.839	3275
892.962	3245
893.085	3367
893.207	3287
893.33	3142
893.452	3245
893.575	3317
893.697	3218
893.819	3431
893.941	3492
894.064	3431
894.186	3253
894.308	3272
894.43	3462
894.552	3519
894.674	3473
894.796	3245
894.918	3302
895.04	3272
895.161	3424
895.283	3363
895.405	3294
895.526	3329
895.648	3409
895.769	3428
895.891	3435
896.012	3485
896.134	3462
896.255	3416
896.376	3378
896.498	3321
896.619	3389
896.74	3370
896.861	3397
896.982	3663
897.103	3854
897.224	3561
897.345	3492
897.466	3409
897.587	3496
897.708	3603
897.828	3504
897.949	3443
898.07	3348
898.19	3393
898.311	3625
898.431	3389
898.552	3496
898.672	3557
898.792	3568
898.913	3504
899.033	3416
899.153	3260
899.273	3233
899.393	3253
899.513	3291
899.633	3329
899.753	3298
899.873	3287
899.993	3344
900.113	3348
900.232	3363
900.352	3348
900.472	3264
900.591	3199
900.711	3279
900.83	3237
900.95	3374
901.069	3469
901.189	3378
901.308	3165
901.427	3116
901.546	3256
901.665	3283
901.784	3348
901.904	3184
902.023	3116
902.141	2986
902.26	3005
902.379	3165
902.498	3047
902.617	3058
902.735	3203
902.854	3207
902.973	3218
903.091	3032
903.21	3043
903.328	3138
903.446	3112
903.565	3089
903.683	3192
903.801	3108
903.919	3214
904.038	3272
904.156	3176
904.274	3302
904.392	3233
904.51	3287
904.627	3306
904.745	3454
904.863	3443
904.981	3241
905.098	3188
905.216	3180
905.334	3260
905.451	3260
905.569	3291
905.686	3424
905.803	3435
905.921	3279
906.038	3447
906.155	3348
906.272	3291
906.389	3332
906.506	3218
906.623	3249
906.74	3279
906.857	3165
906.974	3264
907.091	3462
907.208	3542
907.324	3458
907.441	3386
907.557	3241
907.674	3222
907.79	3195
907.907	3279
908.023	3401
908.139	3431
908.256	3325
908.372	3370
908.488	3355
908.604	3249
908.72	3218
908.836	3306
908.952	3268
909.068	3367
909.184	3492
909.3	3397
909.415	3500
909.531	3450
909.647	3233
909.762	3272
909.878	3253
909.993	3344
910.108	3321
910.224	3306
910.339	3412
910.454	3332
910.57	3291
910.685	3222
910.8	3576
910.915	3553
911.03	3416
911.145	3279
911.259	3275
911.374	3256
911.489	3268
911.604	3241
911.718	3097
911.833	3154
911.947	3020
912.062	2922
912.176	3195
912.291	3222
912.405	3214
912.519	3439
912.633	3488
912.748	3359
912.862	3233
912.976	3131
913.09	3024
913.204	3123
913.318	3218
913.431	3370
913.545	3336
913.659	3374
913.772	3325
913.886	3260
914	3176
914.113	3389
914.226	3378
914.34	3367
914.453	3214
914.566	3382
914.68	3268
914.793	3340
914.906	3116
915.019	3123
915.132	3074
915.245	3176
915.358	3199
915.47	3218
915.583	3268
915.696	3294
915.809	3409
915.921	3397
916.034	3249
916.146	3245
916.259	3230
916.371	3363
916.483	3329
916.595	3287
916.708	3317
916.82	3302
916.932	3313
917.044	3344
917.156	3321
917.268	3245
917.38	3313
917.491	3348
917.603	3348
917.715	3473
917.826	3477
917.938	3389
918.049	3272
918.161	3428
918.272	3542
918.384	3523
918.495	3488
918.606	3332
918.717	3268
918.828	3378
918.939	3412
919.05	3302
919.161	3351
919.272	3169
919.383	3279
919.494	3481
919.604	3690
919.715	3485
919.826	3420
919.936	3435
920.047	3545
920.157	3507
920.267	3732
920.378	3580
920.488	3591
920.598	3785
920.708	3975
920.818	3838
920.928	3819
921.038	4040
921.148	3915
921.258	3686
921.368	3587
921.477	3576
921.587	3545
921.697	3428
921.806	3618
921.916	3519
922.025	3359
922.134	3313
922.244	3283
922.353	3435
922.462	3241
922.571	3211
922.68	3100
922.789	3074
922.898	3142
923.007	3127
923.116	3207
923.224	3161
923.333	3150
923.442	3100
923.55	3104
923.659	3127
923.767	3192
923.876	3116
923.984	3222
924.092	3112
924.201	3214
924.309	3199
924.417	3214
924.525	3188
924.633	3233
924.741	3991
924.849	3028
924.956	3249
925.064	3119
925.172	3039
925.279	3066
925.387	3184
925.494	3195
925.602	3359
925.709	3340
925.816	3207
925.924	3260
926.031	3389
926.138	3313
926.245	3332
926.352	3245
926.459	3386
926.566	3431
926.673	3332
926.779	3214
926.886	3256
926.993	3161
927.099	3081
927.206	3085
927.312	3150
927.419	3199
927.525	3165
927.631	3253
927.737	3142
927.843	3108
927.95	3062
928.056	3169
928.162	3169
928.267	3214
928.373	3903
928.479	3294
928.585	3093
928.69	3237
928.796	3268
928.901	3195
929.007	3051
929.112	3211
929.218	3203
929.323	3116
929.428	3150
929.533	3325
929.638	3127
929.743	3165
929.848	3268
929.953	3165
930.058	3157
930.163	3020
930.267	3062
930.372	3207
930.477	3036
930.581	3306
930.685	3176
930.79	3062
930.894	3173
930.998	3085
931.103	3249
931.207	2956
931.311	2956
931.415	2922
931.519	2777
931.623	2823
