Data from test_V78500241_1669.txt Node
Date: Fri Mar 25 16:26:45 CST 2022
User: usil
Spectrometer: V785-0024
Trigger mode: 0
Integration Time (sec): 4.000000E-1
Scans to average: 1
Nonlinearity correction enabled: false
Boxcar width: 0
Storing dark spectrum: false
XAxis mode: Wavelengths
Number of Pixels in Spectrum: 1024
>>>>>Begin Spectral Data<<<<<
801.071	2952
801.214	2933
801.356	2857
801.499	2891
801.641	2887
801.783	2925
801.926	3032
802.068	2990
802.211	2982
802.353	3005
802.496	2948
802.638	3009
802.78	3043
802.923	3081
803.065	2998
803.208	2906
803.35	2902
803.492	2925
803.635	2922
803.777	2785
803.919	2853
804.061	3192
804.204	2944
804.346	2906
804.488	2819
804.63	2975
804.773	2872
804.915	2948
805.057	3062
805.199	2948
805.341	2944
805.483	3062
805.626	2998
805.768	2960
805.91	3077
806.052	3123
806.194	3020
806.336	3256
806.478	3028
806.62	2937
806.762	2944
806.904	3039
807.046	3161
807.188	2998
807.33	2914
807.472	2971
807.614	2899
807.756	2990
807.898	2910
808.04	2868
808.182	2986
808.324	2952
808.465	2872
808.607	2842
808.749	2804
808.891	2842
809.033	2979
809.174	2948
809.316	2929
809.458	2895
809.6	2743
809.741	2830
809.883	2731
810.025	2861
810.166	2864
810.308	2826
810.45	2864
810.591	2796
810.733	2769
810.875	2857
811.016	2769
811.158	2746
811.299	2819
811.441	2902
811.582	2876
811.724	2800
811.865	2834
812.007	2895
812.148	2853
812.29	2857
812.431	2872
812.573	2906
812.714	2986
812.855	3047
812.997	3047
813.138	3085
813.279	2986
813.421	2986
813.562	2941
813.703	2895
813.845	2914
813.986	2739
814.127	2708
814.268	2838
814.41	2819
814.551	2819
814.692	2899
814.833	2834
814.974	2906
815.115	2982
815.256	2853
815.397	2804
815.539	2842
815.68	2746
815.821	2804
815.962	2967
816.103	2933
816.244	2910
816.385	2902
816.526	2952
816.666	2914
816.807	2739
816.948	2902
817.089	2902
817.23	2906
817.371	2788
817.512	2788
817.653	2815
817.793	2792
817.934	2887
818.075	2982
818.216	2986
818.356	3070
818.497	2853
818.638	2781
818.778	2815
818.919	2777
819.06	2746
819.2	2872
819.341	2769
819.481	2819
819.622	2914
819.762	3058
819.903	3047
820.043	2910
820.184	2887
820.324	2842
820.465	2979
820.605	3020
820.746	3017
820.886	2914
821.026	3097
821.167	3142
821.307	3275
821.447	3272
821.588	3241
821.728	3195
821.868	3176
822.008	3093
822.149	3184
822.289	3264
822.429	3066
822.569	3066
822.709	3157
822.849	3013
822.99	3085
823.13	3195
823.27	3218
823.41	3085
823.55	3116
823.69	3119
823.83	3188
823.97	3112
824.11	2960
824.25	2979
824.389	3043
824.529	3104
824.669	3043
824.809	3169
824.949	3214
825.089	3184
825.228	3169
825.368	3009
825.508	2986
825.648	2982
825.787	3001
825.927	2998
826.067	2937
826.206	2952
826.346	3017
826.485	3043
826.625	3104
826.765	3268
826.904	3195
827.044	2963
827.183	2933
827.323	2891
827.462	2941
827.601	2929
827.741	2899
827.88	2971
828.02	2864
828.159	2982
828.298	3001
828.437	3116
828.577	3020
828.716	3226
828.855	3089
828.994	2910
829.134	2891
829.273	2937
829.412	2853
829.551	2823
829.69	2887
829.829	2956
829.968	3112
830.107	3017
830.246	3032
830.385	2910
830.524	2864
830.663	2792
830.802	2731
830.941	2655
831.08	2625
831.219	2758
831.357	2785
831.496	2948
831.635	2724
831.774	2636
831.913	2648
832.051	2518
832.19	2568
832.329	2689
832.467	2530
832.606	2473
832.744	2579
832.883	2590
833.022	2583
833.16	2629
833.299	2708
833.437	2705
833.576	2686
833.714	2735
833.852	2724
833.991	2739
834.129	2845
834.267	2830
834.406	2804
834.544	2845
834.682	2883
834.821	2880
834.959	3058
835.097	2883
835.235	3028
835.373	2967
835.511	2994
835.65	2971
835.788	2967
835.926	2849
836.064	2834
836.202	2807
836.34	3093
836.478	3131
836.615	3070
836.753	3104
836.891	3161
837.029	3169
837.167	3123
837.305	3081
837.443	3055
837.58	2952
837.718	3108
837.856	3039
837.993	3017
838.131	3131
838.269	3116
838.406	3085
838.544	3066
838.681	2925
838.819	2880
838.956	2800
839.094	2864
839.231	2876
839.369	3043
839.506	3374
839.643	3188
839.781	3013
839.918	2944
840.055	3055
840.193	3047
840.33	3051
840.467	3093
840.604	3127
840.742	3374
840.879	3051
841.016	3051
841.153	3104
841.29	3370
841.427	3325
841.564	3256
841.701	3302
841.838	3218
841.975	3142
842.112	3245
842.249	3085
842.385	3047
842.522	3260
842.659	3047
842.796	3051
842.933	3112
843.069	3020
843.206	3020
843.343	3184
843.479	3070
843.616	3154
843.752	2902
843.889	2823
844.025	3097
844.162	2902
844.298	3070
844.435	2937
844.571	2876
844.708	3062
844.844	3184
844.98	3226
845.117	3218
845.253	3062
845.389	3020
845.525	3123
845.661	3093
845.798	3001
845.934	3150
846.07	3028
846.206	3218
846.342	3313
846.478	3211
846.614	3089
846.75	3032
846.886	3043
847.022	3237
847.158	3085
847.294	3184
847.429	3253
847.565	3180
847.701	3504
847.837	2990
847.972	2994
848.108	3176
848.244	3142
848.379	3001
848.515	2925
848.65	2922
848.786	2914
848.921	3005
849.057	3127
849.192	3112
849.328	3081
849.463	3074
849.598	3077
849.734	3017
849.869	2963
850.004	2906
850.14	2952
850.275	2876
850.41	2792
850.545	2895
850.68	2918
850.815	2960
850.95	2929
851.085	3184
851.22	3070
851.355	2998
851.49	2975
851.625	3001
851.76	3001
851.895	2937
852.03	2880
852.165	3028
852.299	3074
852.434	3173
852.569	3108
852.703	3173
852.838	3245
852.973	3351
853.107	3313
853.242	3112
853.376	3066
853.511	2963
853.645	3077
853.78	3245
853.914	3100
854.048	3097
854.183	3039
854.317	3157
854.451	3260
854.585	3108
854.72	3062
854.854	3173
854.988	3051
855.122	3062
855.256	2944
855.39	3104
855.524	3249
855.658	3165
855.792	3100
855.926	3211
856.06	3173
856.194	3245
856.327	3138
856.461	3066
856.595	3066
856.729	3089
856.862	3176
856.996	3135
857.13	3222
857.263	3241
857.397	3275
857.53	3150
857.664	3154
857.797	3245
857.931	3245
858.064	3154
858.197	3195
858.331	3138
858.464	3112
858.597	2998
858.731	3127
858.864	3116
858.997	3051
859.13	3142
859.263	3188
859.396	3184
859.529	3058
859.662	3081
859.795	3047
859.928	3097
860.061	3275
860.194	3241
860.327	3089
860.46	3062
860.592	3249
860.725	3195
860.858	3245
860.99	3085
861.123	3039
861.256	3070
861.388	3165
861.521	3899
861.653	2986
861.786	2986
861.918	2986
862.05	3028
862.183	3085
862.315	3157
862.447	3180
862.58	3074
862.712	2925
862.844	2853
862.976	2998
863.108	2979
863.24	3393
863.372	2845
863.504	2952
863.636	2960
863.768	3013
863.9	2963
864.032	2891
864.164	2906
864.296	3001
864.428	3062
864.559	3077
864.691	3070
864.823	3028
864.954	3009
865.086	3036
865.217	2979
865.349	2971
865.48	2986
865.612	2990
865.743	3146
865.875	3005
866.006	2960
866.137	2948
866.269	2925
866.4	2922
866.531	2902
866.662	2891
866.793	2876
866.924	2876
867.055	2937
867.186	2929
867.317	2899
867.448	2830
867.579	2849
867.71	2830
867.841	2823
867.972	2914
868.103	2918
868.233	2853
868.364	2891
868.495	2868
868.625	3093
868.756	3165
868.886	2963
869.017	2994
869.147	3165
869.278	3161
869.408	3043
869.539	2994
869.669	3093
869.799	3032
869.929	3131
870.06	3097
870.19	3302
870.32	3279
870.45	3272
870.58	3340
870.71	3412
870.84	3409
870.97	3291
871.1	3214
871.23	3450
871.36	3469
871.489	3325
871.619	3367
871.749	3412
871.879	3405
872.008	3485
872.138	3313
872.267	3264
872.397	3150
872.526	3104
872.656	3005
872.785	3123
872.915	3222
873.044	3264
873.173	3192
873.303	3241
873.432	3245
873.561	3230
873.69	3131
873.819	3123
873.948	3176
874.077	3070
874.206	3036
874.335	3074
874.464	3173
874.593	3317
874.722	3237
874.851	3355
874.979	3351
875.108	3264
875.237	3173
875.365	3154
875.494	3112
875.623	3264
875.751	3089
875.88	3100
876.008	3173
876.136	3211
876.265	3329
876.393	3485
876.521	3386
876.65	3405
876.778	3294
876.906	3226
877.034	3188
877.162	3226
877.29	3150
877.418	3222
877.546	3241
877.674	3199
877.802	3218
877.93	3195
878.058	3154
878.185	3051
878.313	3173
878.441	3176
878.568	3077
878.696	3112
878.824	3264
878.951	3321
879.079	3424
879.206	3606
879.333	3412
879.461	3294
879.588	3294
879.715	3428
879.842	3606
879.97	3367
880.097	3127
880.224	3123
880.351	3184
880.478	3154
880.605	3188
880.732	3165
880.859	3454
880.986	3283
881.112	3294
881.239	3195
881.366	3039
881.493	3043
881.619	3017
881.746	3047
881.872	3058
881.999	3100
882.125	3169
882.252	3249
882.378	3268
882.505	3401
882.631	3264
882.757	3112
882.883	3192
883.01	3165
883.136	3169
883.262	3066
883.388	3089
883.514	3302
883.64	3351
883.766	3302
883.892	3184
884.018	3192
884.143	3382
884.269	3519
884.395	3218
884.52	3142
884.646	3146
884.772	3119
884.897	3089
885.023	3207
885.148	3275
885.274	3416
885.399	3401
885.524	3268
885.65	3249
885.775	3317
885.9	3279
886.025	3428
886.15	3325
886.275	3275
886.4	3260
886.525	3306
886.65	3287
886.775	3256
886.9	3496
887.025	3656
887.149	3420
887.274	3218
887.399	3184
887.523	3192
887.648	3176
887.773	3207
887.897	3409
888.021	3424
888.146	3298
888.27	3458
888.395	3561
888.519	3424
888.643	3488
888.767	3466
888.891	3340
889.015	3272
889.139	3332
889.263	3310
889.387	3454
889.511	3538
889.635	3458
889.759	3363
889.883	3306
890.006	3428
890.13	3526
890.254	3291
890.377	3363
890.501	3226
890.624	3233
890.748	3351
890.871	3230
890.995	3138
891.118	3100
891.241	3245
891.364	3272
891.488	3359
891.611	3199
891.734	3264
891.857	3298
891.98	3306
892.103	3359
892.226	3321
892.349	3237
892.471	3146
892.594	3321
892.717	3340
892.839	3321
892.962	3317
893.085	3370
893.207	3344
893.33	3165
893.452	3218
893.575	3363
893.697	3298
893.819	3462
893.941	3549
894.064	3481
894.186	3287
894.308	3313
894.43	3481
894.552	3587
894.674	3526
894.796	3310
894.918	3367
895.04	3340
895.161	3447
895.283	3401
895.405	3344
895.526	3431
895.648	3462
895.769	3485
895.891	3481
896.012	3431
896.134	3519
896.255	3450
896.376	3443
896.498	3412
896.619	3435
896.74	3386
896.861	3428
896.982	3751
897.103	3857
897.224	3641
897.345	3519
897.466	3466
897.587	3485
897.708	3652
897.828	3568
897.949	3496
898.07	3348
898.19	3405
898.311	3648
898.431	3462
898.552	3545
898.672	3652
898.792	3629
898.913	3526
899.033	3401
899.153	3332
899.273	3245
899.393	3336
899.513	3336
899.633	3325
899.753	3359
899.873	3351
899.993	3405
900.113	3363
900.232	3416
900.352	3393
900.472	3275
900.591	3272
900.711	3348
900.83	3241
900.95	3485
901.069	3538
901.189	3382
901.308	3203
901.427	3146
901.546	3287
901.665	3313
901.784	3363
901.904	3226
902.023	3173
902.141	3036
902.26	3013
902.379	3154
902.498	3093
902.617	3116
902.735	3245
902.854	3245
902.973	3211
903.091	3062
903.21	3138
903.328	3176
903.446	3112
903.565	3070
903.683	3245
903.801	3093
903.919	3268
904.038	3317
904.156	3184
904.274	3317
904.392	3287
904.51	3233
904.627	3329
904.745	3481
904.863	3477
904.981	3230
905.098	3203
905.216	3237
905.334	3294
905.451	3329
905.569	3317
905.686	3416
905.803	3458
905.921	3329
906.038	3424
906.155	3382
906.272	3336
906.389	3363
906.506	3253
906.623	3272
906.74	3325
906.857	3222
906.974	3313
907.091	3485
907.208	3599
907.324	3530
907.441	3420
907.557	3207
907.674	3253
907.79	3218
907.907	3302
908.023	3424
908.139	3374
908.256	3332
908.372	3416
908.488	3393
908.604	3294
908.72	3272
908.836	3325
908.952	3306
909.068	3367
909.184	3507
909.3	3428
909.415	3515
909.531	3526
909.647	3298
909.762	3348
909.878	3279
909.993	3412
910.108	3393
910.224	3340
910.339	3424
910.454	3336
910.57	3329
910.685	3275
910.8	3614
910.915	3591
911.03	3458
911.145	3332
911.259	3329
911.374	3306
911.489	3256
911.604	3264
911.718	3195
911.833	3230
911.947	3032
912.062	3020
912.176	3218
912.291	3214
912.405	3249
912.519	3450
912.633	3485
912.748	3367
912.862	3294
912.976	3169
913.09	3081
913.204	3199
913.318	3207
913.431	3359
913.545	3378
913.659	3405
913.772	3332
913.886	3256
914	3218
914.113	3397
914.226	3435
914.34	3401
914.453	3245
914.566	3428
914.68	3298
914.793	3355
914.906	3176
915.019	3135
915.132	3093
915.245	3195
915.358	3245
915.47	3264
915.583	3264
915.696	3321
915.809	3439
915.921	3450
916.034	3291
916.146	3302
916.259	3199
916.371	3382
916.483	3386
916.595	3283
916.708	3397
916.82	3386
916.932	3367
917.044	3351
917.156	3401
917.268	3291
917.38	3321
917.491	3332
917.603	3405
917.715	3469
917.826	3481
917.938	3412
918.049	3279
918.161	3428
918.272	3633
918.384	3584
918.495	3507
918.606	3393
918.717	3275
918.828	3378
918.939	3458
919.05	3348
919.161	3389
919.272	3207
919.383	3287
919.494	3523
919.604	3736
919.715	3511
919.826	3447
919.936	3447
920.047	3606
920.157	3561
920.267	3770
920.378	3614
920.488	3545
920.598	3800
920.708	3994
920.818	3873
920.928	3823
921.038	4040
921.148	3949
921.258	3751
921.368	3679
921.477	3580
921.587	3587
921.697	3477
921.806	3682
921.916	3538
922.025	3355
922.134	3378
922.244	3332
922.353	3447
922.462	3275
922.571	3264
922.68	3138
922.789	3112
922.898	3176
923.007	3104
923.116	3241
923.224	3199
923.333	3203
923.442	3116
923.55	3135
923.659	3165
923.767	3256
923.876	3135
923.984	3279
924.092	3127
924.201	3188
924.309	3283
924.417	3264
924.525	3218
924.633	3275
924.741	4227
924.849	3062
924.956	3268
925.064	3112
925.172	3077
925.279	3123
925.387	3222
925.494	3226
925.602	3409
925.709	3340
925.816	3203
925.924	3340
926.031	3378
926.138	3359
926.245	3412
926.352	3275
926.459	3462
926.566	3526
926.673	3317
926.779	3287
926.886	3287
926.993	3195
927.099	3188
927.206	3165
927.312	3146
927.419	3253
927.525	3214
927.631	3294
927.737	3173
927.843	3161
927.95	3017
928.056	3127
928.162	3176
928.267	3230
928.373	3903
928.479	3332
928.585	3051
928.69	3207
928.796	3283
928.901	3169
929.007	3119
929.112	3218
929.218	3192
929.323	3195
929.428	3173
929.533	3321
929.638	3161
929.743	3218
929.848	3279
929.953	3237
930.058	3142
930.163	3001
930.267	3081
930.372	3222
930.477	3074
930.581	3336
930.685	3165
930.79	3058
930.894	3154
930.998	3138
931.103	3321
931.207	3001
931.311	2952
931.415	2941
931.519	2823
931.623	2830
