Data from test_V78500241_1413.txt Node
Date: Fri Mar 25 16:24:59 CST 2022
User: usil
Spectrometer: V785-0024
Trigger mode: 0
Integration Time (sec): 4.000000E-1
Scans to average: 1
Nonlinearity correction enabled: false
Boxcar width: 0
Storing dark spectrum: false
XAxis mode: Wavelengths
Number of Pixels in Spectrum: 1024
>>>>>Begin Spectral Data<<<<<
801.071	2925
801.214	2929
801.356	2838
801.499	2929
801.641	2853
801.783	2910
801.926	3043
802.068	2990
802.211	2990
802.353	3009
802.496	2982
802.638	2998
802.78	3032
802.923	3081
803.065	3013
803.208	2887
803.35	2902
803.492	2929
803.635	2952
803.777	2735
803.919	2895
804.061	3188
804.204	2975
804.346	2922
804.488	2834
804.63	2971
804.773	2868
804.915	2933
805.057	3104
805.199	2933
805.341	2971
805.483	3081
805.626	2960
805.768	2960
805.91	3085
806.052	3093
806.194	3032
806.336	3218
806.478	3028
806.62	2922
806.762	2982
806.904	3051
807.046	3173
807.188	3001
807.33	2914
807.472	2982
807.614	2948
807.756	2994
807.898	2925
808.04	2895
808.182	2998
808.324	2975
808.465	2876
808.607	2883
808.749	2777
808.891	2819
809.033	2963
809.174	2979
809.316	2883
809.458	2861
809.6	2769
809.741	2754
809.883	2739
810.025	2853
810.166	2845
810.308	2811
810.45	2853
810.591	2785
810.733	2777
810.875	2807
811.016	2785
811.158	2735
811.299	2777
811.441	2952
811.582	2906
811.724	2792
811.865	2819
812.007	2883
812.148	2895
812.29	2849
812.431	2872
812.573	2948
812.714	3001
812.855	3001
812.997	3051
813.138	3116
813.279	2979
813.421	2948
813.562	2929
813.703	2853
813.845	2883
813.986	2769
814.127	2716
814.268	2800
814.41	2815
814.551	2830
814.692	2857
814.833	2868
814.974	2845
815.115	2975
815.256	2830
815.397	2796
815.539	2864
815.68	2754
815.821	2766
815.962	2929
816.103	2899
816.244	2861
816.385	2883
816.526	2979
816.666	2883
816.807	2754
816.948	2891
817.089	2914
817.23	2834
817.371	2758
817.512	2819
817.653	2834
817.793	2830
817.934	2895
818.075	2941
818.216	3013
818.356	3058
818.497	2914
818.638	2792
818.778	2796
818.919	2758
819.06	2800
819.2	2872
819.341	2777
819.481	2834
819.622	2933
819.762	3085
819.903	3062
820.043	2922
820.184	2891
820.324	2887
820.465	3024
820.605	3009
820.746	3013
820.886	2914
821.026	3070
821.167	3138
821.307	3233
821.447	3249
821.588	3233
821.728	3180
821.868	3199
822.008	3112
822.149	3203
822.289	3241
822.429	3085
822.569	3127
822.709	3188
822.849	3013
822.99	3081
823.13	3161
823.27	3188
823.41	3077
823.55	3131
823.69	3142
823.83	3173
823.97	3100
824.11	2990
824.25	2982
824.389	3104
824.529	3062
824.669	3062
824.809	3226
824.949	3233
825.089	3214
825.228	3123
825.368	3009
825.508	2929
825.648	2979
825.787	2986
825.927	3028
826.067	2963
826.206	2975
826.346	3005
826.485	3043
826.625	3123
826.765	3294
826.904	3192
827.044	2982
827.183	2902
827.323	2849
827.462	2986
827.601	2899
827.741	2937
827.88	2952
828.02	2849
828.159	2990
828.298	3028
828.437	3104
828.577	3062
828.716	3241
828.855	3062
828.994	2941
829.134	2872
829.273	2922
829.412	2807
829.551	2838
829.69	2887
829.829	2960
829.968	3131
830.107	3001
830.246	3017
830.385	2929
830.524	2842
830.663	2773
830.802	2739
830.941	2659
831.08	2636
831.219	2731
831.357	2750
831.496	2944
831.635	2693
831.774	2621
831.913	2670
832.051	2560
832.19	2598
832.329	2659
832.467	2495
832.606	2495
832.744	2598
832.883	2629
833.022	2579
833.16	2617
833.299	2708
833.437	2689
833.576	2716
833.714	2701
833.852	2739
833.991	2746
834.129	2804
834.267	2807
834.406	2777
834.544	2880
834.682	2872
834.821	2876
834.959	3062
835.097	2895
835.235	3020
835.373	3005
835.511	2998
835.65	2929
835.788	2929
835.926	2845
836.064	2792
836.202	2853
836.34	3104
836.478	3127
836.615	3024
836.753	3104
836.891	3180
837.029	3119
837.167	3074
837.305	3055
837.443	3032
837.58	2994
837.718	3127
837.856	3032
837.993	3013
838.131	3131
838.269	3055
838.406	3089
838.544	3058
838.681	2933
838.819	2861
838.956	2792
839.094	2826
839.231	2910
839.369	3009
839.506	3351
839.643	3188
839.781	3028
839.918	2971
840.055	3009
840.193	3058
840.33	3043
840.467	3066
840.604	3119
840.742	3401
840.879	3047
841.016	3017
841.153	3119
841.29	3321
841.427	3253
841.564	3306
841.701	3306
841.838	3245
841.975	3161
842.112	3192
842.249	3108
842.385	3017
842.522	3264
842.659	3039
842.796	3055
842.933	3112
843.069	3074
843.206	3005
843.343	3180
843.479	3116
843.616	3157
843.752	2861
843.889	2876
844.025	3047
844.162	2864
844.298	3089
844.435	2925
844.571	2948
844.708	3043
844.844	3150
844.98	3226
845.117	3176
845.253	3036
845.389	3009
845.525	3058
845.661	3051
845.798	3009
845.934	3108
846.07	3058
846.206	3222
846.342	3287
846.478	3226
846.614	3077
846.75	3085
846.886	3005
847.022	3253
847.158	3138
847.294	3146
847.429	3260
847.565	3180
847.701	3507
847.837	3032
847.972	3001
848.108	3169
848.244	3104
848.379	2982
848.515	2925
848.65	2937
848.786	2982
848.921	2986
849.057	3074
849.192	3161
849.328	3058
849.463	3081
849.598	3047
849.734	3028
849.869	2986
850.004	2918
850.14	2967
850.275	2914
850.41	2811
850.545	2883
850.68	2922
850.815	2956
850.95	2971
851.085	3157
851.22	3100
851.355	3005
851.49	2952
851.625	3005
851.76	3013
851.895	2933
852.03	2906
852.165	3017
852.299	3108
852.434	3150
852.569	3146
852.703	3180
852.838	3218
852.973	3329
853.107	3287
853.242	3146
853.376	3093
853.511	3013
853.645	3036
853.78	3207
853.914	3116
854.048	3100
854.183	3100
854.317	3108
854.451	3249
854.585	3116
854.72	3089
854.854	3176
854.988	3047
855.122	3058
855.256	2979
855.39	3157
855.524	3253
855.658	3203
855.792	3146
855.926	3203
856.06	3176
856.194	3268
856.327	3138
856.461	3116
856.595	3077
856.729	3051
856.862	3188
856.996	3173
857.13	3199
857.263	3237
857.397	3283
857.53	3116
857.664	3195
857.797	3176
857.931	3237
858.064	3169
858.197	3195
858.331	3093
858.464	3081
858.597	3009
858.731	3085
858.864	3138
858.997	3085
859.13	3157
859.263	3169
859.396	3195
859.529	3043
859.662	3085
859.795	3055
859.928	3157
860.061	3287
860.194	3279
860.327	3077
860.46	3058
860.592	3256
860.725	3233
860.858	3260
860.99	3112
861.123	3047
861.256	3028
861.388	3131
861.521	3751
861.653	3039
861.786	2994
861.918	3001
862.05	3066
862.183	3043
862.315	3127
862.447	3169
862.58	3066
862.712	2937
862.844	2887
862.976	3017
863.108	2967
863.24	3336
863.372	2876
863.504	2967
863.636	2922
863.768	3028
863.9	2994
864.032	2883
864.164	2914
864.296	3009
864.428	3081
864.559	3093
864.691	3047
864.823	3062
864.954	3036
865.086	3032
865.217	2960
865.349	2967
865.48	2967
865.612	2971
865.743	3127
865.875	2967
866.006	2925
866.137	2963
866.269	2910
866.4	2929
866.531	2922
866.662	2868
866.793	2880
866.924	2910
867.055	2952
867.186	2922
867.317	2868
867.448	2834
867.579	2868
867.71	2819
867.841	2788
867.972	2929
868.103	2895
868.233	2902
868.364	2880
868.495	2891
868.625	3085
868.756	3157
868.886	2986
869.017	3047
869.147	3150
869.278	3226
869.408	3028
869.539	3032
869.669	3077
869.799	3051
869.929	3142
870.06	3104
870.19	3291
870.32	3249
870.45	3298
870.58	3359
870.71	3405
870.84	3405
870.97	3283
871.1	3211
871.23	3450
871.36	3450
871.489	3351
871.619	3401
871.749	3431
871.879	3405
872.008	3447
872.138	3378
872.267	3211
872.397	3138
872.526	3104
872.656	3017
872.785	3070
872.915	3218
873.044	3336
873.173	3218
873.303	3226
873.432	3218
873.561	3214
873.69	3131
873.819	3104
873.948	3188
874.077	3146
874.206	3005
874.335	3062
874.464	3188
874.593	3336
874.722	3226
874.851	3409
874.979	3363
875.108	3329
875.237	3241
875.365	3199
875.494	3146
875.623	3226
875.751	3036
875.88	3104
876.008	3184
876.136	3195
876.265	3355
876.393	3511
876.521	3405
876.65	3401
876.778	3340
876.906	3268
877.034	3180
877.162	3237
877.29	3192
877.418	3218
877.546	3249
877.674	3245
877.802	3233
877.93	3169
878.058	3146
878.185	3100
878.313	3169
878.441	3176
878.568	3108
878.696	3131
878.824	3230
878.951	3264
879.079	3458
879.206	3629
879.333	3477
879.461	3313
879.588	3325
879.715	3466
879.842	3519
879.97	3351
880.097	3176
880.224	3169
880.351	3146
880.478	3222
880.605	3176
880.732	3199
880.859	3492
880.986	3321
881.112	3298
881.239	3184
881.366	3089
881.493	3024
881.619	3009
881.746	3077
881.872	3066
881.999	3131
882.125	3127
882.252	3253
882.378	3291
882.505	3431
882.631	3287
882.757	3131
882.883	3184
883.01	3195
883.136	3154
883.262	3077
883.388	3119
883.514	3310
883.64	3348
883.766	3283
883.892	3154
884.018	3249
884.143	3409
884.269	3542
884.395	3180
884.52	3116
884.646	3176
884.772	3123
884.897	3119
885.023	3195
885.148	3348
885.274	3420
885.399	3389
885.524	3253
885.65	3264
885.775	3306
885.9	3268
886.025	3416
886.15	3355
886.275	3298
886.4	3218
886.525	3310
886.65	3275
886.775	3287
886.9	3458
887.025	3629
887.149	3439
887.274	3237
887.399	3199
887.523	3211
887.648	3161
887.773	3184
887.897	3412
888.021	3370
888.146	3249
888.27	3435
888.395	3504
888.519	3450
888.643	3447
888.767	3466
888.891	3325
889.015	3180
889.139	3283
889.263	3260
889.387	3378
889.511	3481
889.635	3420
889.759	3291
889.883	3283
890.006	3363
890.13	3477
890.254	3249
890.377	3321
890.501	3165
890.624	3195
890.748	3294
890.871	3161
890.995	3081
891.118	3039
891.241	3169
891.364	3272
891.488	3275
891.611	3195
891.734	3226
891.857	3291
891.98	3226
892.103	3351
892.226	3260
892.349	3195
892.471	3097
892.594	3214
892.717	3260
892.839	3253
892.962	3310
893.085	3386
893.207	3302
893.33	3150
893.452	3211
893.575	3355
893.697	3218
893.819	3473
893.941	3504
894.064	3454
894.186	3256
894.308	3241
894.43	3405
894.552	3488
894.674	3496
894.796	3253
894.918	3275
895.04	3245
895.161	3409
895.283	3344
895.405	3336
895.526	3336
895.648	3409
895.769	3424
895.891	3439
896.012	3485
896.134	3473
896.255	3393
896.376	3374
896.498	3370
896.619	3424
896.74	3359
896.861	3416
896.982	3667
897.103	3842
897.224	3622
897.345	3542
897.466	3428
897.587	3504
897.708	3610
897.828	3549
897.949	3485
898.07	3329
898.19	3416
898.311	3599
898.431	3424
898.552	3507
898.672	3580
898.792	3568
898.913	3530
899.033	3405
899.153	3321
899.273	3226
899.393	3283
899.513	3332
899.633	3363
899.753	3329
899.873	3310
899.993	3359
900.113	3348
900.232	3367
900.352	3340
900.472	3264
900.591	3176
900.711	3298
900.83	3188
900.95	3443
901.069	3462
901.189	3321
901.308	3169
901.427	3142
901.546	3180
901.665	3249
901.784	3268
901.904	3207
902.023	3127
902.141	3009
902.26	3028
902.379	3150
902.498	3077
902.617	3036
902.735	3169
902.854	3211
902.973	3226
903.091	3055
903.21	3036
903.328	3142
903.446	3097
903.565	3081
903.683	3207
903.801	3154
903.919	3230
904.038	3298
904.156	3146
904.274	3291
904.392	3226
904.51	3249
904.627	3332
904.745	3393
904.863	3485
904.981	3237
905.098	3119
905.216	3207
905.334	3294
905.451	3317
905.569	3317
905.686	3409
905.803	3412
905.921	3279
906.038	3405
906.155	3355
906.272	3291
906.389	3321
906.506	3211
906.623	3253
906.74	3279
906.857	3184
906.974	3241
907.091	3473
907.208	3587
907.324	3462
907.441	3405
907.557	3211
907.674	3211
907.79	3214
907.907	3279
908.023	3367
908.139	3405
908.256	3298
908.372	3378
908.488	3348
908.604	3237
908.72	3211
908.836	3275
908.952	3283
909.068	3359
909.184	3481
909.3	3351
909.415	3492
909.531	3477
909.647	3275
909.762	3283
909.878	3260
909.993	3351
910.108	3351
910.224	3298
910.339	3374
910.454	3344
910.57	3298
910.685	3260
910.8	3603
910.915	3466
911.03	3431
911.145	3253
911.259	3283
911.374	3310
911.489	3287
911.604	3222
911.718	3108
911.833	3146
911.947	3020
912.062	3024
912.176	3176
912.291	3203
912.405	3195
912.519	3424
912.633	3447
912.748	3363
912.862	3287
912.976	3161
913.09	3066
913.204	3135
913.318	3199
913.431	3355
913.545	3306
913.659	3409
913.772	3321
913.886	3188
914	3203
914.113	3351
914.226	3397
914.34	3351
914.453	3203
914.566	3435
914.68	3275
914.793	3313
914.906	3135
915.019	3089
915.132	3047
915.245	3218
915.358	3184
915.47	3245
915.583	3253
915.696	3253
915.809	3420
915.921	3397
916.034	3294
916.146	3260
916.259	3256
916.371	3397
916.483	3367
916.595	3264
916.708	3329
916.82	3351
916.932	3348
917.044	3325
917.156	3321
917.268	3283
917.38	3264
917.491	3310
917.603	3378
917.715	3416
917.826	3469
917.938	3370
918.049	3298
918.161	3435
918.272	3599
918.384	3553
918.495	3481
918.606	3359
918.717	3253
918.828	3401
918.939	3428
919.05	3264
919.161	3355
919.272	3211
919.383	3241
919.494	3462
919.604	3660
919.715	3488
919.826	3409
919.936	3492
920.047	3564
920.157	3526
920.267	3766
920.378	3618
920.488	3530
920.598	3766
920.708	3987
920.818	3816
920.928	3857
921.038	4044
921.148	3972
921.258	3713
921.368	3622
921.477	3557
921.587	3595
921.697	3488
921.806	3629
921.916	3515
922.025	3332
922.134	3325
922.244	3302
922.353	3416
922.462	3317
922.571	3233
922.68	3077
922.789	3058
922.898	3108
923.007	3085
923.116	3173
923.224	3180
923.333	3165
923.442	3116
923.55	3047
923.659	3131
923.767	3203
923.876	3138
923.984	3237
924.092	3108
924.201	3195
924.309	3226
924.417	3287
924.525	3214
924.633	3169
924.741	4188
924.849	3043
924.956	3256
925.064	3062
925.172	3039
925.279	3093
925.387	3199
925.494	3203
925.602	3378
925.709	3344
925.816	3214
925.924	3264
926.031	3382
926.138	3336
926.245	3363
926.352	3203
926.459	3397
926.566	3466
926.673	3317
926.779	3249
926.886	3222
926.993	3135
927.099	3112
927.206	3108
927.312	3108
927.419	3203
927.525	3195
927.631	3283
927.737	3127
927.843	3154
927.95	2998
928.056	3108
928.162	3180
928.267	3283
928.373	3857
928.479	3291
928.585	3085
928.69	3222
928.796	3283
928.901	3184
929.007	3055
929.112	3214
929.218	3207
929.323	3127
929.428	3131
929.533	3310
929.638	3119
929.743	3131
929.848	3245
929.953	3214
930.058	3161
930.163	3024
930.267	3024
930.372	3192
930.477	3043
930.581	3291
930.685	3199
930.79	3051
930.894	3108
930.998	3085
931.103	3268
931.207	2944
931.311	2937
931.415	2956
931.519	2800
931.623	2796
