Data from test_V78500241_1003.txt Node
Date: Fri Mar 25 16:22:09 CST 2022
User: usil
Spectrometer: V785-0024
Trigger mode: 0
Integration Time (sec): 4.000000E-1
Scans to average: 1
Nonlinearity correction enabled: false
Boxcar width: 0
Storing dark spectrum: false
XAxis mode: Wavelengths
Number of Pixels in Spectrum: 1024
>>>>>Begin Spectral Data<<<<<
801.071	2880
801.214	2925
801.356	2880
801.499	2857
801.641	2857
801.783	2944
801.926	3013
802.068	2971
802.211	2986
802.353	3058
802.496	2941
802.638	3020
802.78	3047
802.923	3047
803.065	2986
803.208	2887
803.35	2929
803.492	2910
803.635	2956
803.777	2773
803.919	2857
804.061	3237
804.204	2941
804.346	2929
804.488	2853
804.63	3009
804.773	2902
804.915	2956
805.057	3058
805.199	2902
805.341	2975
805.483	3039
805.626	3017
805.768	2941
805.91	3093
806.052	3116
806.194	3032
806.336	3233
806.478	3039
806.62	2941
806.762	2944
806.904	3062
807.046	3169
807.188	2982
807.33	2891
807.472	2998
807.614	2918
807.756	3001
807.898	2922
808.04	2910
808.182	2963
808.324	2948
808.465	2891
808.607	2880
808.749	2785
808.891	2857
809.033	2967
809.174	2967
809.316	2910
809.458	2906
809.6	2777
809.741	2777
809.883	2785
810.025	2792
810.166	2849
810.308	2830
810.45	2842
810.591	2777
810.733	2754
810.875	2849
811.016	2766
811.158	2788
811.299	2800
811.441	2956
811.582	2891
811.724	2819
811.865	2807
812.007	2910
812.148	2864
812.29	2849
812.431	2922
812.573	2960
812.714	2944
812.855	3055
812.997	3028
813.138	3100
813.279	2986
813.421	2971
813.562	2971
813.703	2868
813.845	2910
813.986	2773
814.127	2754
814.268	2834
814.41	2811
814.551	2796
814.692	2887
814.833	2834
814.974	2891
815.115	2994
815.256	2868
815.397	2800
815.539	2895
815.68	2743
815.821	2773
815.962	2941
816.103	2944
816.244	2861
816.385	2864
816.526	2975
816.666	2933
816.807	2743
816.948	2883
817.089	2887
817.23	2876
817.371	2815
817.512	2834
817.653	2807
817.793	2849
817.934	2910
818.075	3001
818.216	2990
818.356	3047
818.497	2902
818.638	2826
818.778	2853
818.919	2804
819.06	2758
819.2	2868
819.341	2788
819.481	2773
819.622	2937
819.762	3131
819.903	3062
820.043	2937
820.184	2925
820.324	2861
820.465	2994
820.605	3020
820.746	3028
820.886	2929
821.026	3097
821.167	3127
821.307	3249
821.447	3268
821.588	3253
821.728	3192
821.868	3207
822.008	3085
822.149	3199
822.289	3230
822.429	3104
822.569	3062
822.709	3176
822.849	3028
822.99	3036
823.13	3150
823.27	3173
823.41	3135
823.55	3112
823.69	3154
823.83	3157
823.97	3138
824.11	3036
824.25	3009
824.389	3081
824.529	3127
824.669	3066
824.809	3184
824.949	3268
825.089	3226
825.228	3169
825.368	2979
825.508	2971
825.648	2963
825.787	2994
825.927	3009
826.067	2986
826.206	2971
826.346	3058
826.485	3066
826.625	3108
826.765	3260
826.904	3230
827.044	2990
827.183	2929
827.323	2883
827.462	2956
827.601	2902
827.741	2933
827.88	2956
828.02	2823
828.159	2982
828.298	3043
828.437	3116
828.577	3020
828.716	3226
828.855	3039
828.994	2963
829.134	2868
829.273	2941
829.412	2876
829.551	2823
829.69	2906
829.829	2986
829.968	3123
830.107	3017
830.246	2990
830.385	2937
830.524	2864
830.663	2773
830.802	2731
830.941	2682
831.08	2629
831.219	2743
831.357	2766
831.496	2956
831.635	2693
831.774	2663
831.913	2686
832.051	2533
832.19	2549
832.329	2674
832.467	2499
832.606	2488
832.744	2564
832.883	2575
833.022	2549
833.16	2663
833.299	2705
833.437	2701
833.576	2701
833.714	2678
833.852	2689
833.991	2769
834.129	2823
834.267	2815
834.406	2750
834.544	2872
834.682	2876
834.821	2891
834.959	3055
835.097	2880
835.235	3036
835.373	3020
835.511	3039
835.65	2982
835.788	2960
835.926	2792
836.064	2781
836.202	2842
836.34	3058
836.478	3165
836.615	3039
836.753	3070
836.891	3180
837.029	3154
837.167	3089
837.305	3081
837.443	3024
837.58	2952
837.718	3142
837.856	3055
837.993	3051
838.131	3123
838.269	3142
838.406	3123
838.544	3070
838.681	2922
838.819	2910
838.956	2826
839.094	2842
839.231	2906
839.369	3024
839.506	3416
839.643	3211
839.781	2998
839.918	2956
840.055	3047
840.193	3047
840.33	3039
840.467	3074
840.604	3146
840.742	3401
840.879	3017
841.016	3074
841.153	3138
841.29	3275
841.427	3348
841.564	3218
841.701	3256
841.838	3188
841.975	3203
842.112	3173
842.249	3070
842.385	3085
842.522	3279
842.659	3074
842.796	3051
842.933	3142
843.069	3043
843.206	3013
843.343	3188
843.479	3116
843.616	3123
843.752	2902
843.889	2853
844.025	3062
844.162	2861
844.298	3051
844.435	2963
844.571	2929
844.708	3070
844.844	3169
844.98	3287
845.117	3207
845.253	3024
845.389	3017
845.525	3131
845.661	3123
845.798	3020
845.934	3085
846.07	3039
846.206	3203
846.342	3340
846.478	3214
846.614	3081
846.75	3074
846.886	3017
847.022	3256
847.158	3138
847.294	3195
847.429	3241
847.565	3214
847.701	3473
847.837	3009
847.972	2975
848.108	3157
848.244	3150
848.379	2982
848.515	2937
848.65	2933
848.786	2975
848.921	3009
849.057	3123
849.192	3146
849.328	3081
849.463	3112
849.598	3051
849.734	3058
849.869	2963
850.004	2902
850.14	2960
850.275	2906
850.41	2826
850.545	2899
850.68	2891
850.815	2941
850.95	2960
851.085	3222
851.22	3070
851.355	3036
851.49	2975
851.625	2998
851.76	3005
851.895	2937
852.03	2914
852.165	2986
852.299	3112
852.434	3192
852.569	3119
852.703	3195
852.838	3245
852.973	3325
853.107	3325
853.242	3154
853.376	3070
853.511	2963
853.645	3036
853.78	3218
853.914	3135
854.048	3089
854.183	3108
854.317	3180
854.451	3256
854.585	3146
854.72	3085
854.854	3188
854.988	3020
855.122	3100
855.256	2948
855.39	3081
855.524	3211
855.658	3188
855.792	3131
855.926	3173
856.06	3199
856.194	3275
856.327	3161
856.461	3058
856.595	3104
856.729	3100
856.862	3253
856.996	3165
857.13	3169
857.263	3211
857.397	3249
857.53	3119
857.664	3192
857.797	3233
857.931	3233
858.064	3195
858.197	3211
858.331	3108
858.464	3093
858.597	2982
858.731	3108
858.864	3077
858.997	3131
859.13	3138
859.263	3173
859.396	3195
859.529	3089
859.662	3074
859.795	3013
859.928	3161
860.061	3264
860.194	3249
860.327	3176
860.46	3074
860.592	3256
860.725	3241
860.858	3245
860.99	3089
861.123	3047
861.256	3036
861.388	3097
861.521	3816
861.653	3032
861.786	3009
861.918	3001
862.05	3085
862.183	3093
862.315	3150
862.447	3203
862.58	3097
862.712	2918
862.844	2899
862.976	2986
863.108	2952
863.24	3393
863.372	2929
863.504	2963
863.636	2929
863.768	3013
863.9	2979
864.032	2876
864.164	2956
864.296	3039
864.428	3055
864.559	3085
864.691	3066
864.823	3066
864.954	3051
865.086	3009
865.217	2979
865.349	2925
865.48	2982
865.612	3017
865.743	3112
865.875	2963
866.006	2918
866.137	2998
866.269	2914
866.4	2937
866.531	2891
866.662	2883
866.793	2906
866.924	2876
867.055	2967
867.186	2918
867.317	2902
867.448	2807
867.579	2868
867.71	2864
867.841	2811
867.972	2910
868.103	2902
868.233	2887
868.364	2891
868.495	2891
868.625	3085
868.756	3165
868.886	2963
869.017	2975
869.147	3135
869.278	3150
869.408	3017
869.539	2971
869.669	3089
869.799	3047
869.929	3123
870.06	3100
870.19	3332
870.32	3256
870.45	3279
870.58	3340
870.71	3428
870.84	3447
870.97	3237
871.1	3237
871.23	3492
871.36	3466
871.489	3317
871.619	3367
871.749	3393
871.879	3443
872.008	3500
872.138	3329
872.267	3256
872.397	3131
872.526	3112
872.656	2998
872.785	3116
872.915	3226
873.044	3313
873.173	3192
873.303	3237
873.432	3264
873.561	3256
873.69	3123
873.819	3169
873.948	3184
874.077	3100
874.206	3036
874.335	3089
874.464	3272
874.593	3325
874.722	3233
874.851	3397
874.979	3359
875.108	3279
875.237	3123
875.365	3176
875.494	3154
875.623	3260
875.751	3066
875.88	3161
876.008	3188
876.136	3188
876.265	3378
876.393	3515
876.521	3382
876.65	3447
876.778	3340
876.906	3249
877.034	3195
877.162	3207
877.29	3165
877.418	3245
877.546	3249
877.674	3241
877.802	3230
877.93	3214
878.058	3135
878.185	3116
878.313	3192
878.441	3184
878.568	3036
878.696	3150
878.824	3211
878.951	3306
879.079	3454
879.206	3564
879.333	3431
879.461	3340
879.588	3351
879.715	3485
879.842	3580
879.97	3363
880.097	3165
880.224	3123
880.351	3184
880.478	3241
880.605	3195
880.732	3169
880.859	3511
880.986	3336
881.112	3336
881.239	3222
881.366	3058
881.493	3024
881.619	3005
881.746	3085
881.872	3089
881.999	3066
882.125	3097
882.252	3233
882.378	3321
882.505	3397
882.631	3241
882.757	3119
882.883	3199
883.01	3199
883.136	3157
883.262	3108
883.388	3119
883.514	3336
883.64	3424
883.766	3306
883.892	3192
884.018	3260
884.143	3409
884.269	3534
884.395	3230
884.52	3142
884.646	3154
884.772	3127
884.897	3100
885.023	3226
885.148	3306
885.274	3420
885.399	3363
885.524	3283
885.65	3264
885.775	3283
885.9	3310
886.025	3428
886.15	3393
886.275	3294
886.4	3214
886.525	3283
886.65	3237
886.775	3256
886.9	3462
887.025	3633
887.149	3393
887.274	3249
887.399	3192
887.523	3180
887.648	3203
887.773	3188
887.897	3370
888.021	3382
888.146	3321
888.27	3397
888.395	3523
888.519	3412
888.643	3420
888.767	3416
888.891	3317
889.015	3249
889.139	3294
889.263	3264
889.387	3428
889.511	3500
889.635	3420
889.759	3302
889.883	3313
890.006	3351
890.13	3500
890.254	3253
890.377	3351
890.501	3195
890.624	3199
890.748	3291
890.871	3161
890.995	3081
891.118	3074
891.241	3184
891.364	3214
891.488	3294
891.611	3161
891.734	3237
891.857	3294
891.98	3218
892.103	3363
892.226	3294
892.349	3195
892.471	3131
892.594	3218
892.717	3313
892.839	3283
892.962	3260
893.085	3340
893.207	3268
893.33	3161
893.452	3214
893.575	3378
893.697	3256
893.819	3477
893.941	3530
894.064	3458
894.186	3287
894.308	3253
894.43	3428
894.552	3504
894.674	3481
894.796	3241
894.918	3306
895.04	3287
895.161	3409
895.283	3370
895.405	3287
895.526	3355
895.648	3420
895.769	3439
895.891	3488
896.012	3447
896.134	3420
896.255	3367
896.376	3321
896.498	3382
896.619	3397
896.74	3313
896.861	3405
896.982	3641
897.103	3842
897.224	3561
897.345	3477
897.466	3424
897.587	3473
897.708	3591
897.828	3561
897.949	3431
898.07	3321
898.19	3382
898.311	3584
898.431	3454
898.552	3500
898.672	3595
898.792	3591
898.913	3492
899.033	3409
899.153	3291
899.273	3222
899.393	3256
899.513	3313
899.633	3313
899.753	3355
899.873	3306
899.993	3405
900.113	3336
900.232	3348
900.352	3332
900.472	3294
900.591	3222
900.711	3325
900.83	3211
900.95	3393
901.069	3473
901.189	3340
901.308	3188
901.427	3116
901.546	3188
901.665	3287
901.784	3291
901.904	3157
902.023	3146
902.141	3001
902.26	3009
902.379	3150
902.498	3070
902.617	3028
902.735	3211
902.854	3180
902.973	3214
903.091	3055
903.21	3051
903.328	3108
903.446	3112
903.565	3093
903.683	3207
903.801	3154
903.919	3226
904.038	3237
904.156	3161
904.274	3302
904.392	3222
904.51	3287
904.627	3317
904.745	3450
904.863	3469
904.981	3241
905.098	3203
905.216	3222
905.334	3253
905.451	3291
905.569	3317
905.686	3389
905.803	3416
905.921	3310
906.038	3431
906.155	3344
906.272	3241
906.389	3310
906.506	3253
906.623	3275
906.74	3256
906.857	3188
906.974	3249
907.091	3443
907.208	3587
907.324	3466
907.441	3367
907.557	3249
907.674	3230
907.79	3241
907.907	3313
908.023	3393
908.139	3367
908.256	3298
908.372	3359
908.488	3321
908.604	3256
908.72	3214
908.836	3275
908.952	3287
909.068	3306
909.184	3496
909.3	3363
909.415	3492
909.531	3447
909.647	3275
909.762	3298
909.878	3226
909.993	3393
910.108	3336
910.224	3340
910.339	3416
910.454	3329
910.57	3294
910.685	3268
910.8	3603
910.915	3538
911.03	3431
911.145	3245
911.259	3294
911.374	3272
911.489	3245
911.604	3214
911.718	3123
911.833	3135
911.947	3070
912.062	2960
912.176	3127
912.291	3207
912.405	3222
912.519	3428
912.633	3485
912.748	3340
912.862	3260
912.976	3176
913.09	3081
913.204	3135
913.318	3184
913.431	3321
913.545	3351
913.659	3367
913.772	3310
913.886	3195
914	3199
914.113	3332
914.226	3378
914.34	3351
914.453	3173
914.566	3382
914.68	3264
914.793	3313
914.906	3112
915.019	3138
915.132	3066
915.245	3173
915.358	3207
915.47	3188
915.583	3279
915.696	3302
915.809	3382
915.921	3405
916.034	3249
916.146	3249
916.259	3222
916.371	3351
916.483	3329
916.595	3275
916.708	3367
916.82	3329
916.932	3321
917.044	3321
917.156	3332
917.268	3214
917.38	3279
917.491	3310
917.603	3332
917.715	3450
917.826	3443
917.938	3378
918.049	3233
918.161	3416
918.272	3538
918.384	3576
918.495	3534
918.606	3313
918.717	3233
918.828	3378
918.939	3416
919.05	3329
919.161	3367
919.272	3173
919.383	3283
919.494	3443
919.604	3690
919.715	3469
919.826	3397
919.936	3462
920.047	3549
920.157	3542
920.267	3759
920.378	3595
920.488	3553
920.598	3732
920.708	3956
920.818	3816
920.928	3865
921.038	4032
921.148	3998
921.258	3743
921.368	3614
921.477	3534
921.587	3492
921.697	3435
921.806	3652
921.916	3469
922.025	3344
922.134	3397
922.244	3325
922.353	3428
922.462	3249
922.571	3218
922.68	3089
922.789	3039
922.898	3150
923.007	3104
923.116	3203
923.224	3131
923.333	3138
923.442	3123
923.55	3108
923.659	3127
923.767	3218
923.876	3116
923.984	3218
924.092	3077
924.201	3161
924.309	3245
924.417	3226
924.525	3230
924.633	3279
924.741	4128
924.849	3032
924.956	3302
925.064	3089
925.172	3055
925.279	3119
925.387	3195
925.494	3207
925.602	3332
925.709	3336
925.816	3154
925.924	3264
926.031	3367
926.138	3294
926.245	3367
926.352	3214
926.459	3458
926.566	3454
926.673	3287
926.779	3214
926.886	3230
926.993	3135
927.099	3100
927.206	3131
927.312	3123
927.419	3188
927.525	3195
927.631	3253
927.737	3127
927.843	3119
927.95	3013
928.056	3131
928.162	3157
928.267	3218
928.373	3911
928.479	3283
928.585	3047
928.69	3222
928.796	3256
928.901	3154
929.007	3036
929.112	3180
929.218	3146
929.323	3135
929.428	3116
929.533	3329
929.638	3131
929.743	3161
929.848	3260
929.953	3188
930.058	3104
930.163	2994
930.267	3055
930.372	3211
930.477	3032
930.581	3275
930.685	3138
930.79	3074
930.894	3135
930.998	3108
931.103	3237
931.207	2933
931.311	2914
931.415	2918
931.519	2781
931.623	2769
