Data from test_V78500241_1340.txt Node
Date: Fri Mar 25 16:24:29 CST 2022
User: usil
Spectrometer: V785-0024
Trigger mode: 0
Integration Time (sec): 4.000000E-1
Scans to average: 1
Nonlinearity correction enabled: false
Boxcar width: 0
Storing dark spectrum: false
XAxis mode: Wavelengths
Number of Pixels in Spectrum: 1024
>>>>>Begin Spectral Data<<<<<
801.071	2944
801.214	2948
801.356	2914
801.499	2941
801.641	2864
801.783	2933
801.926	3097
802.068	2982
802.211	3039
802.353	3020
802.496	3013
802.638	3009
802.78	3043
802.923	3119
803.065	2986
803.208	2918
803.35	2929
803.492	2952
803.635	2922
803.777	2766
803.919	2880
804.061	3253
804.204	2986
804.346	2963
804.488	2872
804.63	2948
804.773	2876
804.915	2925
805.057	3074
805.199	2910
805.341	2952
805.483	3055
805.626	2998
805.768	2952
805.91	3066
806.052	3150
806.194	3028
806.336	3241
806.478	3051
806.62	2952
806.762	2982
806.904	3047
807.046	3169
807.188	2979
807.33	2925
807.472	2979
807.614	2941
807.756	2982
807.898	2918
808.04	2906
808.182	2937
808.324	2941
808.465	2880
808.607	2880
808.749	2804
808.891	2868
809.033	2960
809.174	2971
809.316	2895
809.458	2887
809.6	2762
809.741	2811
809.883	2781
810.025	2849
810.166	2887
810.308	2864
810.45	2880
810.591	2758
810.733	2758
810.875	2826
811.016	2773
811.158	2785
811.299	2830
811.441	2941
811.582	2895
811.724	2864
811.865	2876
812.007	2891
812.148	2899
812.29	2845
812.431	2910
812.573	2982
812.714	2982
812.855	3081
812.997	3070
813.138	3123
813.279	3013
813.421	3017
813.562	2986
813.703	2899
813.845	2918
813.986	2819
814.127	2762
814.268	2842
814.41	2849
814.551	2823
814.692	2887
814.833	2815
814.974	2902
815.115	2994
815.256	2857
815.397	2842
815.539	2880
815.68	2769
815.821	2769
815.962	2986
816.103	2944
816.244	2902
816.385	2872
816.526	2971
816.666	2902
816.807	2773
816.948	2918
817.089	2895
817.23	2853
817.371	2796
817.512	2807
817.653	2838
817.793	2830
817.934	2891
818.075	2960
818.216	2982
818.356	3051
818.497	2891
818.638	2766
818.778	2796
818.919	2845
819.06	2746
819.2	2872
819.341	2792
819.481	2766
819.622	2868
819.762	3108
819.903	3093
820.043	2922
820.184	2918
820.324	2914
820.465	3024
820.605	3043
820.746	3028
820.886	2952
821.026	3138
821.167	3165
821.307	3275
821.447	3287
821.588	3272
821.728	3233
821.868	3188
822.008	3100
822.149	3169
822.289	3253
822.429	3104
822.569	3112
822.709	3188
822.849	3028
822.99	3077
823.13	3176
823.27	3203
823.41	3135
823.55	3176
823.69	3169
823.83	3226
823.97	3127
824.11	3001
824.25	2986
824.389	3089
824.529	3119
824.669	3039
824.809	3222
824.949	3264
825.089	3211
825.228	3154
825.368	2998
825.508	2960
825.648	2963
825.787	3024
825.927	3032
826.067	2975
826.206	2982
826.346	3036
826.485	3074
826.625	3135
826.765	3260
826.904	3237
827.044	2975
827.183	2937
827.323	2876
827.462	3024
827.601	2952
827.741	2902
827.88	2994
828.02	2868
828.159	2979
828.298	3070
828.437	3097
828.577	3055
828.716	3237
828.855	3112
828.994	2944
829.134	2914
829.273	2963
829.412	2891
829.551	2834
829.69	2902
829.829	2990
829.968	3131
830.107	3024
830.246	2994
830.385	2906
830.524	2868
830.663	2811
830.802	2712
830.941	2686
831.08	2640
831.219	2743
831.357	2788
831.496	2960
831.635	2743
831.774	2686
831.913	2659
832.051	2590
832.19	2587
832.329	2686
832.467	2549
832.606	2469
832.744	2590
832.883	2587
833.022	2564
833.16	2659
833.299	2674
833.437	2716
833.576	2724
833.714	2746
833.852	2731
833.991	2800
834.129	2861
834.267	2815
834.406	2777
834.544	2853
834.682	2918
834.821	2883
834.959	3051
835.097	2922
835.235	3058
835.373	3020
835.511	3020
835.65	2952
835.788	2990
835.926	2864
836.064	2838
836.202	2864
836.34	3058
836.478	3154
836.615	3032
836.753	3150
836.891	3180
837.029	3176
837.167	3112
837.305	3108
837.443	3028
837.58	2941
837.718	3119
837.856	3070
837.993	3097
838.131	3116
838.269	3097
838.406	3104
838.544	3077
838.681	2956
838.819	2880
838.956	2811
839.094	2823
839.231	2933
839.369	3020
839.506	3348
839.643	3222
839.781	2986
839.918	2948
840.055	3039
840.193	3028
840.33	3058
840.467	3108
840.604	3169
840.742	3370
840.879	3032
841.016	3108
841.153	3131
841.29	3344
841.427	3294
841.564	3272
841.701	3321
841.838	3203
841.975	3176
842.112	3207
842.249	3089
842.385	3032
842.522	3272
842.659	3108
842.796	3089
842.933	3112
843.069	3058
843.206	3039
843.343	3165
843.479	3112
843.616	3100
843.752	2868
843.889	2887
844.025	3085
844.162	2883
844.298	3116
844.435	2948
844.571	2944
844.708	3051
844.844	3188
844.98	3203
845.117	3214
845.253	3047
845.389	3032
845.525	3093
845.661	3108
845.798	3017
845.934	3116
846.07	3055
846.206	3214
846.342	3306
846.478	3199
846.614	3055
846.75	3074
846.886	3047
847.022	3207
847.158	3142
847.294	3188
847.429	3237
847.565	3218
847.701	3504
847.837	3028
847.972	2986
848.108	3180
848.244	3123
848.379	2986
848.515	2952
848.65	2902
848.786	2937
848.921	3036
849.057	3062
849.192	3142
849.328	3058
849.463	3081
849.598	3062
849.734	3036
849.869	2994
850.004	2899
850.14	2960
850.275	2906
850.41	2845
850.545	2857
850.68	2918
850.815	2979
850.95	2975
851.085	3184
851.22	3097
851.355	3032
851.49	3001
851.625	2998
851.76	3043
851.895	2918
852.03	2880
852.165	3032
852.299	3062
852.434	3180
852.569	3123
852.703	3173
852.838	3233
852.973	3340
853.107	3332
853.242	3192
853.376	3119
853.511	2952
853.645	3028
853.78	3233
853.914	3127
854.048	3097
854.183	3066
854.317	3127
854.451	3310
854.585	3119
854.72	3081
854.854	3192
854.988	3051
855.122	3108
855.256	2963
855.39	3119
855.524	3207
855.658	3135
855.792	3150
855.926	3165
856.06	3180
856.194	3291
856.327	3184
856.461	3047
856.595	3077
856.729	3089
856.862	3203
856.996	3138
857.13	3211
857.263	3211
857.397	3298
857.53	3108
857.664	3192
857.797	3253
857.931	3275
858.064	3173
858.197	3214
858.331	3142
858.464	3119
858.597	3017
858.731	3108
858.864	3154
858.997	3085
859.13	3169
859.263	3169
859.396	3176
859.529	3104
859.662	3066
859.795	3055
859.928	3127
860.061	3249
860.194	3294
860.327	3138
860.46	3070
860.592	3233
860.725	3214
860.858	3230
860.99	3097
861.123	3013
861.256	3043
861.388	3157
861.521	3694
861.653	3036
861.786	2944
861.918	2963
862.05	3077
862.183	3089
862.315	3138
862.447	3203
862.58	3085
862.712	2933
862.844	2849
862.976	3055
863.108	3013
863.24	3298
863.372	2895
863.504	2952
863.636	2929
863.768	3009
863.9	3024
864.032	2891
864.164	2910
864.296	2986
864.428	3081
864.559	3100
864.691	3051
864.823	3081
864.954	3043
865.086	3055
865.217	2990
865.349	2948
865.48	2990
865.612	3039
865.743	3138
865.875	2956
866.006	2918
866.137	2986
866.269	2933
866.4	2933
866.531	2941
866.662	2899
866.793	2899
866.924	2933
867.055	2971
867.186	2922
867.317	2906
867.448	2842
867.579	2823
867.71	2861
867.841	2800
867.972	2872
868.103	2906
868.233	2864
868.364	2895
868.495	2925
868.625	3108
868.756	3119
868.886	2960
869.017	3036
869.147	3146
869.278	3184
869.408	3020
869.539	3043
869.669	3089
869.799	3062
869.929	3169
870.06	3074
870.19	3302
870.32	3294
870.45	3279
870.58	3363
870.71	3462
870.84	3447
870.97	3294
871.1	3214
871.23	3469
871.36	3485
871.489	3348
871.619	3431
871.749	3462
871.879	3382
872.008	3511
872.138	3336
872.267	3268
872.397	3142
872.526	3097
872.656	3032
872.785	3112
872.915	3275
873.044	3302
873.173	3230
873.303	3230
873.432	3222
873.561	3237
873.69	3157
873.819	3127
873.948	3199
874.077	3112
874.206	3024
874.335	3104
874.464	3211
874.593	3348
874.722	3184
874.851	3401
874.979	3348
875.108	3302
875.237	3241
875.365	3131
875.494	3180
875.623	3214
875.751	3119
875.88	3081
876.008	3176
876.136	3222
876.265	3348
876.393	3530
876.521	3397
876.65	3374
876.778	3351
876.906	3279
877.034	3207
877.162	3184
877.29	3207
877.418	3245
877.546	3260
877.674	3249
877.802	3245
877.93	3222
878.058	3199
878.185	3100
878.313	3230
878.441	3180
878.568	3058
878.696	3165
878.824	3260
878.951	3325
879.079	3450
879.206	3591
879.333	3439
879.461	3344
879.588	3348
879.715	3469
879.842	3580
879.97	3351
880.097	3161
880.224	3142
880.351	3123
880.478	3211
880.605	3207
880.732	3195
880.859	3481
880.986	3298
881.112	3291
881.239	3226
881.366	3085
881.493	3032
881.619	3032
881.746	3070
881.872	3093
881.999	3081
882.125	3119
882.252	3264
882.378	3298
882.505	3435
882.631	3279
882.757	3127
882.883	3241
883.01	3256
883.136	3142
883.262	3077
883.388	3097
883.514	3306
883.64	3355
883.766	3313
883.892	3188
884.018	3264
884.143	3416
884.269	3534
884.395	3207
884.52	3150
884.646	3135
884.772	3108
884.897	3116
885.023	3203
885.148	3302
885.274	3439
885.399	3340
885.524	3260
885.65	3260
885.775	3348
885.9	3237
886.025	3416
886.15	3370
886.275	3317
886.4	3237
886.525	3275
886.65	3253
886.775	3241
886.9	3492
887.025	3656
887.149	3405
887.274	3233
887.399	3176
887.523	3203
887.648	3154
887.773	3184
887.897	3355
888.021	3382
888.146	3275
888.27	3405
888.395	3549
888.519	3454
888.643	3447
888.767	3488
888.891	3283
889.015	3222
889.139	3291
889.263	3237
889.387	3416
889.511	3485
889.635	3447
889.759	3287
889.883	3264
890.006	3401
890.13	3481
890.254	3230
890.377	3302
890.501	3222
890.624	3154
890.748	3268
890.871	3131
890.995	3085
891.118	3066
891.241	3214
891.364	3199
891.488	3313
891.611	3192
891.734	3214
891.857	3253
891.98	3253
892.103	3329
892.226	3275
892.349	3207
892.471	3066
892.594	3249
892.717	3294
892.839	3249
892.962	3253
893.085	3359
893.207	3294
893.33	3138
893.452	3184
893.575	3374
893.697	3245
893.819	3469
893.941	3458
894.064	3431
894.186	3249
894.308	3272
894.43	3439
894.552	3553
894.674	3469
894.796	3279
894.918	3313
895.04	3310
895.161	3420
895.283	3382
895.405	3313
895.526	3393
895.648	3409
895.769	3367
895.891	3458
896.012	3515
896.134	3469
896.255	3420
896.376	3359
896.498	3332
896.619	3424
896.74	3321
896.861	3370
896.982	3679
897.103	3842
897.224	3557
897.345	3523
897.466	3412
897.587	3466
897.708	3618
897.828	3530
897.949	3405
898.07	3310
898.19	3424
898.311	3610
898.431	3439
898.552	3466
898.672	3622
898.792	3587
898.913	3515
899.033	3412
899.153	3272
899.273	3226
899.393	3291
899.513	3313
899.633	3298
899.753	3348
899.873	3317
899.993	3389
900.113	3325
900.232	3428
900.352	3344
900.472	3260
900.591	3169
900.711	3302
900.83	3226
900.95	3397
901.069	3481
901.189	3325
901.308	3169
901.427	3131
901.546	3165
901.665	3260
901.784	3321
901.904	3138
902.023	3157
902.141	3009
902.26	3005
902.379	3112
902.498	3085
902.617	3047
902.735	3188
902.854	3222
902.973	3173
903.091	3036
903.21	3036
903.328	3135
903.446	3150
903.565	3077
903.683	3161
903.801	3123
903.919	3294
904.038	3268
904.156	3176
904.274	3279
904.392	3268
904.51	3287
904.627	3321
904.745	3435
904.863	3473
904.981	3233
905.098	3142
905.216	3245
905.334	3283
905.451	3298
905.569	3302
905.686	3439
905.803	3435
905.921	3249
906.038	3435
906.155	3336
906.272	3256
906.389	3298
906.506	3233
906.623	3249
906.74	3310
906.857	3150
906.974	3253
907.091	3412
907.208	3545
907.324	3450
907.441	3374
907.557	3241
907.674	3188
907.79	3211
907.907	3253
908.023	3355
908.139	3359
908.256	3329
908.372	3340
908.488	3386
908.604	3287
908.72	3233
908.836	3253
908.952	3264
909.068	3329
909.184	3458
909.3	3367
909.415	3511
909.531	3473
909.647	3275
909.762	3283
909.878	3233
909.993	3325
910.108	3306
910.224	3332
910.339	3370
910.454	3340
910.57	3294
910.685	3253
910.8	3549
910.915	3542
911.03	3435
911.145	3268
911.259	3275
911.374	3241
911.489	3249
911.604	3207
911.718	3146
911.833	3154
911.947	3017
912.062	3001
912.176	3154
912.291	3169
912.405	3199
912.519	3439
912.633	3458
912.748	3351
912.862	3256
912.976	3184
913.09	3070
913.204	3135
913.318	3218
913.431	3302
913.545	3306
913.659	3428
913.772	3355
913.886	3188
914	3207
914.113	3378
914.226	3367
914.34	3355
914.453	3192
914.566	3405
914.68	3291
914.793	3291
914.906	3154
915.019	3123
915.132	3047
915.245	3188
915.358	3192
915.47	3233
915.583	3249
915.696	3321
915.809	3416
915.921	3397
916.034	3241
916.146	3226
916.259	3230
916.371	3389
916.483	3332
916.595	3256
916.708	3332
916.82	3340
916.932	3367
917.044	3325
917.156	3310
917.268	3241
917.38	3321
917.491	3294
917.603	3344
917.715	3431
917.826	3431
917.938	3374
918.049	3264
918.161	3393
918.272	3568
918.384	3549
918.495	3477
918.606	3332
918.717	3298
918.828	3401
918.939	3447
919.05	3294
919.161	3401
919.272	3180
919.383	3241
919.494	3439
919.604	3663
919.715	3507
919.826	3405
919.936	3477
920.047	3603
920.157	3504
920.267	3755
920.378	3618
920.488	3549
920.598	3831
920.708	3934
920.818	3804
920.928	3838
921.038	4010
921.148	3983
921.258	3686
921.368	3629
921.477	3599
921.587	3545
921.697	3481
921.806	3591
921.916	3496
922.025	3321
922.134	3363
922.244	3310
922.353	3416
922.462	3253
922.571	3237
922.68	3097
922.789	3066
922.898	3146
923.007	3119
923.116	3211
923.224	3173
923.333	3195
923.442	3100
923.55	3085
923.659	3131
923.767	3226
923.876	3127
923.984	3230
924.092	3104
924.201	3184
924.309	3230
924.417	3264
924.525	3169
924.633	3245
924.741	4010
924.849	3039
924.956	3264
925.064	3100
925.172	3017
925.279	3112
925.387	3214
925.494	3180
925.602	3310
925.709	3313
925.816	3176
925.924	3298
926.031	3363
926.138	3275
926.245	3336
926.352	3264
926.459	3405
926.566	3443
926.673	3325
926.779	3249
926.886	3233
926.993	3135
927.099	3108
927.206	3135
927.312	3138
927.419	3222
927.525	3203
927.631	3317
927.737	3165
927.843	3165
927.95	3009
928.056	3112
928.162	3135
928.267	3245
928.373	3873
928.479	3272
928.585	3081
928.69	3264
928.796	3264
928.901	3176
929.007	3055
929.112	3195
929.218	3222
929.323	3176
929.428	3138
929.533	3348
929.638	3138
929.743	3195
929.848	3218
929.953	3222
930.058	3184
930.163	3005
930.267	3070
930.372	3207
930.477	2998
930.581	3340
930.685	3173
930.79	3036
930.894	3112
930.998	3097
931.103	3279
931.207	2941
931.311	2982
931.415	2925
931.519	2792
931.623	2788
