Data from test_V78500241_1398.txt Node
Date: Fri Mar 25 16:24:53 CST 2022
User: usil
Spectrometer: V785-0024
Trigger mode: 0
Integration Time (sec): 4.000000E-1
Scans to average: 1
Nonlinearity correction enabled: false
Boxcar width: 0
Storing dark spectrum: false
XAxis mode: Wavelengths
Number of Pixels in Spectrum: 1024
>>>>>Begin Spectral Data<<<<<
801.071	2902
801.214	2944
801.356	2849
801.499	2872
801.641	2895
801.783	2922
801.926	3024
802.068	2956
802.211	2971
802.353	3017
802.496	2910
802.638	2979
802.78	3020
802.923	3070
803.065	3013
803.208	2876
803.35	2918
803.492	2899
803.635	2933
803.777	2769
803.919	2830
804.061	3180
804.204	2963
804.346	2925
804.488	2823
804.63	3013
804.773	2876
804.915	2922
805.057	3085
805.199	2929
805.341	2967
805.483	3062
805.626	2986
805.768	2941
805.91	3036
806.052	3112
806.194	2986
806.336	3264
806.478	3039
806.62	2952
806.762	2960
806.904	3043
807.046	3146
807.188	2998
807.33	2887
807.472	2986
807.614	2948
807.756	3055
807.898	2918
808.04	2887
808.182	2948
808.324	2941
808.465	2906
808.607	2861
808.749	2804
808.891	2823
809.033	2937
809.174	2960
809.316	2891
809.458	2891
809.6	2804
809.741	2788
809.883	2735
810.025	2868
810.166	2845
810.308	2861
810.45	2830
810.591	2811
810.733	2735
810.875	2811
811.016	2773
811.158	2762
811.299	2842
811.441	2895
811.582	2906
811.724	2796
811.865	2823
812.007	2933
812.148	2868
812.29	2868
812.431	2910
812.573	2925
812.714	2948
812.855	3039
812.997	3039
813.138	3116
813.279	2982
813.421	2982
813.562	2967
813.703	2845
813.845	2906
813.986	2777
814.127	2720
814.268	2781
814.41	2826
814.551	2842
814.692	2849
814.833	2830
814.974	2883
815.115	2963
815.256	2796
815.397	2826
815.539	2842
815.68	2781
815.821	2785
815.962	2902
816.103	2902
816.244	2849
816.385	2853
816.526	2944
816.666	2918
816.807	2766
816.948	2895
817.089	2918
817.23	2842
817.371	2762
817.512	2777
817.653	2792
817.793	2811
817.934	2891
818.075	2937
818.216	3005
818.356	3036
818.497	2895
818.638	2781
818.778	2796
818.919	2785
819.06	2754
819.2	2853
819.341	2834
819.481	2773
819.622	2925
819.762	3093
819.903	3024
820.043	2944
820.184	2895
820.324	2925
820.465	2971
820.605	2990
820.746	3017
820.886	2967
821.026	3119
821.167	3150
821.307	3256
821.447	3268
821.588	3249
821.728	3207
821.868	3180
822.008	3062
822.149	3135
822.289	3195
822.429	3066
822.569	3077
822.709	3161
822.849	2986
822.99	3077
823.13	3165
823.27	3161
823.41	3074
823.55	3138
823.69	3157
823.83	3169
823.97	3062
824.11	3001
824.25	2982
824.389	3043
824.529	3081
824.669	3093
824.809	3207
824.949	3207
825.089	3233
825.228	3135
825.368	2998
825.508	2910
825.648	2937
825.787	2979
825.927	3032
826.067	2944
826.206	2929
826.346	3009
826.485	3043
826.625	3108
826.765	3260
826.904	3233
827.044	2990
827.183	2967
827.323	2845
827.462	2994
827.601	2899
827.741	2910
827.88	2963
828.02	2864
828.159	2952
828.298	3036
828.437	3085
828.577	3058
828.716	3264
828.855	3066
828.994	2918
829.134	2861
829.273	2922
829.412	2876
829.551	2819
829.69	2902
829.829	2986
829.968	3150
830.107	2986
830.246	3013
830.385	2906
830.524	2864
830.663	2788
830.802	2705
830.941	2663
831.08	2667
831.219	2743
831.357	2773
831.496	2944
831.635	2705
831.774	2640
831.913	2663
832.051	2526
832.19	2568
832.329	2636
832.467	2541
832.606	2488
832.744	2552
832.883	2579
833.022	2587
833.16	2655
833.299	2697
833.437	2705
833.576	2670
833.714	2708
833.852	2739
833.991	2773
834.129	2834
834.267	2792
834.406	2785
834.544	2853
834.682	2864
834.821	2880
834.959	3028
835.097	2906
835.235	3043
835.373	3009
835.511	3043
835.65	2948
835.788	2971
835.926	2807
836.064	2769
836.202	2807
836.34	3070
836.478	3146
836.615	3036
836.753	3157
836.891	3195
837.029	3131
837.167	3093
837.305	3043
837.443	3005
837.58	2960
837.718	3085
837.856	3047
837.993	3047
838.131	3108
838.269	3081
838.406	3077
838.544	3081
838.681	2933
838.819	2895
838.956	2815
839.094	2838
839.231	2891
839.369	3005
839.506	3325
839.643	3199
839.781	3005
839.918	2979
840.055	3051
840.193	3066
840.33	3085
840.467	3093
840.604	3173
840.742	3359
840.879	3093
841.016	3066
841.153	3104
841.29	3294
841.427	3272
841.564	3237
841.701	3272
841.838	3207
841.975	3157
842.112	3218
842.249	3077
842.385	3032
842.522	3268
842.659	3066
842.796	3043
842.933	3093
843.069	3043
843.206	3028
843.343	3157
843.479	3058
843.616	3112
843.752	2876
843.889	2823
844.025	3100
844.162	2872
844.298	3070
844.435	2933
844.571	2883
844.708	3089
844.844	3169
844.98	3199
845.117	3154
845.253	3043
845.389	3024
845.525	3108
845.661	3081
845.798	3028
845.934	3123
846.07	3024
846.206	3211
846.342	3336
846.478	3222
846.614	3100
846.75	3047
846.886	3001
847.022	3253
847.158	3161
847.294	3207
847.429	3230
847.565	3192
847.701	3473
847.837	3039
847.972	3005
848.108	3142
848.244	3173
848.379	2990
848.515	2948
848.65	2864
848.786	2952
848.921	3001
849.057	3074
849.192	3157
849.328	3070
849.463	3093
849.598	3013
849.734	3047
849.869	2986
850.004	2929
850.14	2971
850.275	2922
850.41	2830
850.545	2861
850.68	2887
850.815	2963
850.95	2944
851.085	3226
851.22	3104
851.355	3017
851.49	2956
851.625	2971
851.76	2975
851.895	2906
852.03	2895
852.165	3017
852.299	3116
852.434	3142
852.569	3123
852.703	3180
852.838	3287
852.973	3317
853.107	3298
853.242	3135
853.376	3074
853.511	2986
853.645	3036
853.78	3272
853.914	3119
854.048	3085
854.183	3097
854.317	3131
854.451	3264
854.585	3119
854.72	3089
854.854	3211
854.988	3043
855.122	3051
855.256	2979
855.39	3142
855.524	3226
855.658	3169
855.792	3150
855.926	3146
856.06	3184
856.194	3253
856.327	3112
856.461	3051
856.595	3089
856.729	3081
856.862	3214
856.996	3142
857.13	3192
857.263	3184
857.397	3287
857.53	3104
857.664	3173
857.797	3226
857.931	3237
858.064	3138
858.197	3207
858.331	3154
858.464	3070
858.597	3020
858.731	3081
858.864	3085
858.997	3089
859.13	3123
859.263	3154
859.396	3188
859.529	3070
859.662	3074
859.795	3024
859.928	3108
860.061	3245
860.194	3268
860.327	3104
860.46	3051
860.592	3253
860.725	3237
860.858	3241
860.99	3070
861.123	3043
861.256	3028
861.388	3169
861.521	3876
861.653	2982
861.786	2971
861.918	2963
862.05	3043
862.183	3077
862.315	3154
862.447	3199
862.58	3066
862.712	2963
862.844	2861
862.976	2990
863.108	2982
863.24	3321
863.372	2872
863.504	2929
863.636	2986
863.768	3047
863.9	2975
864.032	2944
864.164	2914
864.296	2933
864.428	3085
864.559	3093
864.691	3051
864.823	3043
864.954	2994
865.086	3013
865.217	2971
865.349	2979
865.48	2971
865.612	2994
865.743	3169
865.875	2990
866.006	2933
866.137	2941
866.269	2937
866.4	2933
866.531	2929
866.662	2887
866.793	2883
866.924	2910
867.055	2982
867.186	2891
867.317	2891
867.448	2826
867.579	2823
867.71	2838
867.841	2826
867.972	2925
868.103	2891
868.233	2891
868.364	2868
868.495	2880
868.625	3043
868.756	3112
868.886	2967
869.017	3001
869.147	3180
869.278	3138
869.408	3051
869.539	2986
869.669	3100
869.799	3001
869.929	3123
870.06	3085
870.19	3294
870.32	3249
870.45	3294
870.58	3386
870.71	3462
870.84	3466
870.97	3268
871.1	3230
871.23	3488
871.36	3466
871.489	3336
871.619	3397
871.749	3454
871.879	3420
872.008	3515
872.138	3332
872.267	3253
872.397	3104
872.526	3077
872.656	2986
872.785	3100
872.915	3256
873.044	3332
873.173	3237
873.303	3268
873.432	3218
873.561	3264
873.69	3173
873.819	3127
873.948	3203
874.077	3070
874.206	3028
874.335	3108
874.464	3211
874.593	3329
874.722	3233
874.851	3374
874.979	3355
875.108	3317
875.237	3192
875.365	3169
875.494	3165
875.623	3241
875.751	3081
875.88	3093
876.008	3203
876.136	3188
876.265	3374
876.393	3504
876.521	3473
876.65	3401
876.778	3351
876.906	3260
877.034	3203
877.162	3214
877.29	3131
877.418	3253
877.546	3245
877.674	3256
877.802	3218
877.93	3222
878.058	3142
878.185	3108
878.313	3226
878.441	3230
878.568	3093
878.696	3123
878.824	3272
878.951	3287
879.079	3485
879.206	3584
879.333	3420
879.461	3306
879.588	3359
879.715	3466
879.842	3564
879.97	3355
880.097	3146
880.224	3142
880.351	3184
880.478	3199
880.605	3165
880.732	3154
880.859	3473
880.986	3283
881.112	3321
881.239	3203
881.366	3093
881.493	3039
881.619	3001
881.746	3062
881.872	3058
881.999	3093
882.125	3123
882.252	3256
882.378	3313
882.505	3443
882.631	3272
882.757	3127
882.883	3157
883.01	3207
883.136	3173
883.262	3127
883.388	3127
883.514	3332
883.64	3389
883.766	3302
883.892	3180
884.018	3253
884.143	3386
884.269	3534
884.395	3199
884.52	3146
884.646	3199
884.772	3127
884.897	3097
885.023	3222
885.148	3325
885.274	3386
885.399	3374
885.524	3256
885.65	3222
885.775	3329
885.9	3256
886.025	3420
886.15	3355
886.275	3298
886.4	3218
886.525	3306
886.65	3272
886.775	3302
886.9	3450
887.025	3652
887.149	3389
887.274	3272
887.399	3184
887.523	3237
887.648	3161
887.773	3222
887.897	3348
888.021	3401
888.146	3294
888.27	3405
888.395	3530
888.519	3424
888.643	3454
888.767	3462
888.891	3256
889.015	3230
889.139	3279
889.263	3260
889.387	3397
889.511	3530
889.635	3450
889.759	3291
889.883	3332
890.006	3405
890.13	3473
890.254	3253
890.377	3310
890.501	3218
890.624	3195
890.748	3306
890.871	3150
890.995	3127
891.118	3043
891.241	3173
891.364	3245
891.488	3310
891.611	3169
891.734	3192
891.857	3253
891.98	3222
892.103	3302
892.226	3275
892.349	3237
892.471	3100
892.594	3245
892.717	3283
892.839	3245
892.962	3287
893.085	3355
893.207	3249
893.33	3119
893.452	3211
893.575	3374
893.697	3214
893.819	3431
893.941	3488
894.064	3416
894.186	3256
894.308	3302
894.43	3462
894.552	3564
894.674	3466
894.796	3245
894.918	3344
895.04	3275
895.161	3428
895.283	3386
895.405	3336
895.526	3329
895.648	3389
895.769	3439
895.891	3447
896.012	3496
896.134	3500
896.255	3351
896.376	3420
896.498	3359
896.619	3401
896.74	3363
896.861	3424
896.982	3667
897.103	3838
897.224	3572
897.345	3439
897.466	3397
897.587	3492
897.708	3618
897.828	3591
897.949	3435
898.07	3298
898.19	3420
898.311	3603
898.431	3447
898.552	3561
898.672	3557
898.792	3542
898.913	3538
899.033	3439
899.153	3279
899.273	3214
899.393	3253
899.513	3302
899.633	3302
899.753	3310
899.873	3317
899.993	3370
900.113	3329
900.232	3382
900.352	3344
900.472	3291
900.591	3161
900.711	3302
900.83	3283
900.95	3355
901.069	3477
901.189	3329
901.308	3154
901.427	3100
901.546	3150
901.665	3283
901.784	3355
901.904	3211
902.023	3150
902.141	3028
902.26	2975
902.379	3131
902.498	3089
902.617	3039
902.735	3180
902.854	3249
902.973	3169
903.091	3013
903.21	3024
903.328	3146
903.446	3093
903.565	3123
903.683	3195
903.801	3116
903.919	3245
904.038	3260
904.156	3180
904.274	3222
904.392	3256
904.51	3268
904.627	3359
904.745	3416
904.863	3500
904.981	3272
905.098	3195
905.216	3199
905.334	3291
905.451	3313
905.569	3306
905.686	3424
905.803	3435
905.921	3355
906.038	3424
906.155	3363
906.272	3260
906.389	3329
906.506	3237
906.623	3237
906.74	3237
906.857	3214
906.974	3249
907.091	3447
907.208	3572
907.324	3511
907.441	3382
907.557	3233
907.674	3222
907.79	3249
907.907	3256
908.023	3397
908.139	3348
908.256	3386
908.372	3397
908.488	3355
908.604	3275
908.72	3237
908.836	3230
908.952	3275
909.068	3310
909.184	3504
909.3	3382
909.415	3485
909.531	3523
909.647	3260
909.762	3291
909.878	3233
909.993	3317
910.108	3317
910.224	3298
910.339	3382
910.454	3321
910.57	3313
910.685	3275
910.8	3561
910.915	3519
911.03	3435
911.145	3237
911.259	3272
911.374	3348
911.489	3283
911.604	3241
911.718	3097
911.833	3146
911.947	3005
912.062	2971
912.176	3180
912.291	3180
912.405	3226
912.519	3454
912.633	3481
912.748	3325
912.862	3291
912.976	3184
913.09	3058
913.204	3097
913.318	3230
913.431	3363
913.545	3302
913.659	3405
913.772	3332
913.886	3222
914	3218
914.113	3359
914.226	3420
914.34	3344
914.453	3226
914.566	3409
914.68	3294
914.793	3287
914.906	3184
915.019	3131
915.132	3085
915.245	3165
915.358	3199
915.47	3207
915.583	3241
915.696	3302
915.809	3378
915.921	3401
916.034	3233
916.146	3249
916.259	3203
916.371	3363
916.483	3359
916.595	3306
916.708	3359
916.82	3336
916.932	3291
917.044	3374
917.156	3325
917.268	3275
917.38	3294
917.491	3279
917.603	3348
917.715	3450
917.826	3435
917.938	3348
918.049	3287
918.161	3416
918.272	3523
918.384	3584
918.495	3481
918.606	3287
918.717	3264
918.828	3351
918.939	3412
919.05	3294
919.161	3386
919.272	3180
919.383	3249
919.494	3496
919.604	3682
919.715	3488
919.826	3424
919.936	3447
920.047	3614
920.157	3587
920.267	3759
920.378	3622
920.488	3549
920.598	3720
920.708	3983
920.818	3797
920.928	3816
921.038	4040
921.148	3994
921.258	3682
921.368	3603
921.477	3610
921.587	3564
921.697	3488
921.806	3637
921.916	3504
922.025	3363
922.134	3355
922.244	3344
922.353	3431
922.462	3275
922.571	3192
922.68	3081
922.789	3131
922.898	3116
923.007	3135
923.116	3218
923.224	3157
923.333	3195
923.442	3104
923.55	3070
923.659	3146
923.767	3180
923.876	3116
923.984	3245
924.092	3093
924.201	3195
924.309	3226
924.417	3245
924.525	3180
924.633	3233
924.741	4013
924.849	3036
924.956	3237
925.064	3081
925.172	3047
925.279	3085
925.387	3135
925.494	3165
925.602	3359
925.709	3367
925.816	3184
925.924	3272
926.031	3401
926.138	3359
926.245	3317
926.352	3249
926.459	3401
926.566	3450
926.673	3275
926.779	3249
926.886	3199
926.993	3157
927.099	3142
927.206	3135
927.312	3104
927.419	3214
927.525	3195
927.631	3306
927.737	3112
927.843	3119
927.95	3036
928.056	3131
928.162	3188
928.267	3218
928.373	3888
928.479	3317
928.585	3097
928.69	3207
928.796	3256
928.901	3173
929.007	3032
929.112	3222
929.218	3176
929.323	3127
929.428	3154
929.533	3298
929.638	3070
929.743	3150
929.848	3249
929.953	3207
930.058	3138
930.163	3001
930.267	3062
930.372	3207
930.477	3047
930.581	3291
930.685	3176
930.79	3036
930.894	3119
930.998	3085
931.103	3260
931.207	2952
931.311	2956
931.415	2944
931.519	2773
931.623	2819
