Data from test_V78500241_541.txt Node
Date: Fri Mar 25 16:18:57 CST 2022
User: usil
Spectrometer: V785-0024
Trigger mode: 0
Integration Time (sec): 4.000000E-1
Scans to average: 1
Nonlinearity correction enabled: false
Boxcar width: 0
Storing dark spectrum: false
XAxis mode: Wavelengths
Number of Pixels in Spectrum: 1024
>>>>>Begin Spectral Data<<<<<
801.071	2918
801.214	2937
801.356	2845
801.499	2899
801.641	2895
801.783	2914
801.926	3036
802.068	2971
802.211	2986
802.353	2998
802.496	2910
802.638	3009
802.78	3039
802.923	3062
803.065	2990
803.208	2891
803.35	2899
803.492	2906
803.635	2929
803.777	2773
803.919	2845
804.061	3150
804.204	2922
804.346	2902
804.488	2823
804.63	2952
804.773	2868
804.915	2899
805.057	3112
805.199	2929
805.341	2967
805.483	3036
805.626	2960
805.768	2979
805.91	3047
806.052	3100
806.194	3043
806.336	3214
806.478	3017
806.62	2937
806.762	2960
806.904	3058
807.046	3176
807.188	2956
807.33	2883
807.472	2956
807.614	2895
807.756	2952
807.898	2918
808.04	2891
808.182	2971
808.324	2941
808.465	2872
808.607	2876
808.749	2769
808.891	2811
809.033	2948
809.174	2975
809.316	2868
809.458	2876
809.6	2743
809.741	2724
809.883	2708
810.025	2849
810.166	2891
810.308	2834
810.45	2880
810.591	2788
810.733	2758
810.875	2811
811.016	2766
811.158	2712
811.299	2853
811.441	2914
811.582	2887
811.724	2834
811.865	2849
812.007	2895
812.148	2845
812.29	2880
812.431	2883
812.573	2948
812.714	2948
812.855	3070
812.997	3047
813.138	3089
813.279	3024
813.421	2967
813.562	2960
813.703	2876
813.845	2883
813.986	2773
814.127	2735
814.268	2838
814.41	2838
814.551	2819
814.692	2887
814.833	2830
814.974	2910
815.115	2963
815.256	2849
815.397	2800
815.539	2883
815.68	2724
815.821	2815
815.962	2944
816.103	2937
816.244	2868
816.385	2815
816.526	3001
816.666	2933
816.807	2754
816.948	2842
817.089	2887
817.23	2845
817.371	2792
817.512	2788
817.653	2838
817.793	2811
817.934	2883
818.075	2941
818.216	2986
818.356	3013
818.497	2895
818.638	2762
818.778	2830
818.919	2796
819.06	2750
819.2	2853
819.341	2781
819.481	2823
819.622	2933
819.762	3093
819.903	3055
820.043	2941
820.184	2925
820.324	2914
820.465	2975
820.605	3028
820.746	3039
820.886	2925
821.026	3100
821.167	3127
821.307	3218
821.447	3268
821.588	3260
821.728	3150
821.868	3146
822.008	3085
822.149	3165
822.289	3260
822.429	3077
822.569	3081
822.709	3199
822.849	3005
822.99	3058
823.13	3169
823.27	3195
823.41	3119
823.55	3154
823.69	3138
823.83	3192
823.97	3077
824.11	2975
824.25	2979
824.389	3058
824.529	3089
824.669	3043
824.809	3180
824.949	3249
825.089	3233
825.228	3131
825.368	2990
825.508	3001
825.648	2963
825.787	3028
825.927	2982
826.067	2933
826.206	2967
826.346	3017
826.485	3013
826.625	3070
826.765	3253
826.904	3180
827.044	2982
827.183	2929
827.323	2883
827.462	3001
827.601	2891
827.741	2933
827.88	2933
828.02	2842
828.159	2982
828.298	3089
828.437	3074
828.577	3058
828.716	3230
828.855	3108
828.994	2910
829.134	2861
829.273	2910
829.412	2864
829.551	2845
829.69	2899
829.829	2998
829.968	3108
830.107	3032
830.246	3058
830.385	2895
830.524	2864
830.663	2811
830.802	2716
830.941	2686
831.08	2613
831.219	2750
831.357	2720
831.496	2967
831.635	2743
831.774	2632
831.913	2678
832.051	2556
832.19	2579
832.329	2655
832.467	2549
832.606	2480
832.744	2541
832.883	2594
833.022	2594
833.16	2636
833.299	2682
833.437	2682
833.576	2682
833.714	2708
833.852	2766
833.991	2785
834.129	2826
834.267	2823
834.406	2788
834.544	2861
834.682	2883
834.821	2819
834.959	3070
835.097	2933
835.235	3032
835.373	2990
835.511	3036
835.65	2960
835.788	2933
835.926	2838
836.064	2807
836.202	2823
836.34	3093
836.478	3131
836.615	3020
836.753	3154
836.891	3207
837.029	3184
837.167	3085
837.305	3043
837.443	3062
837.58	3001
837.718	3184
837.856	3062
837.993	3058
838.131	3123
838.269	3051
838.406	3077
838.544	3104
838.681	2952
838.819	2937
838.956	2792
839.094	2826
839.231	2929
839.369	2990
839.506	3382
839.643	3180
839.781	2986
839.918	2963
840.055	3051
840.193	3024
840.33	3089
840.467	3070
840.604	3142
840.742	3416
840.879	3036
841.016	3055
841.153	3093
841.29	3306
841.427	3283
841.564	3230
841.701	3283
841.838	3192
841.975	3127
842.112	3188
842.249	3070
842.385	3051
842.522	3264
842.659	3116
842.796	3047
842.933	3104
843.069	3058
843.206	3085
843.343	3192
843.479	3070
843.616	3119
843.752	2876
843.889	2853
844.025	3036
844.162	2883
844.298	3097
844.435	2937
844.571	2910
844.708	3077
844.844	3188
844.98	3230
845.117	3211
845.253	3066
845.389	2982
845.525	3127
845.661	3104
845.798	2990
845.934	3085
846.07	3051
846.206	3222
846.342	3306
846.478	3188
846.614	3081
846.75	3028
846.886	2990
847.022	3256
847.158	3135
847.294	3203
847.429	3256
847.565	3192
847.701	3473
847.837	3058
847.972	2998
848.108	3169
848.244	3131
848.379	2956
848.515	2918
848.65	2941
848.786	2967
848.921	3017
849.057	3097
849.192	3131
849.328	3047
849.463	3097
849.598	3032
849.734	3001
849.869	2941
850.004	2918
850.14	2967
850.275	2918
850.41	2830
850.545	2842
850.68	2941
850.815	2952
850.95	2941
851.085	3218
851.22	3104
851.355	2990
851.49	2971
851.625	3005
851.76	2956
851.895	2925
852.03	2891
852.165	3020
852.299	3097
852.434	3180
852.569	3138
852.703	3207
852.838	3211
852.973	3336
853.107	3344
853.242	3188
853.376	3058
853.511	3013
853.645	3047
853.78	3192
853.914	3112
854.048	3097
854.183	3070
854.317	3161
854.451	3264
854.585	3089
854.72	3131
854.854	3180
854.988	3017
855.122	3055
855.256	3001
855.39	3146
855.524	3211
855.658	3150
855.792	3161
855.926	3142
856.06	3245
856.194	3249
856.327	3104
856.461	3100
856.595	3077
856.729	3043
856.862	3180
856.996	3150
857.13	3192
857.263	3188
857.397	3279
857.53	3123
857.664	3169
857.797	3241
857.931	3253
858.064	3142
858.197	3218
858.331	3127
858.464	3085
858.597	3013
858.731	3100
858.864	3119
858.997	3089
859.13	3138
859.263	3142
859.396	3146
859.529	3112
859.662	3055
859.795	3043
859.928	3150
860.061	3253
860.194	3264
860.327	3108
860.46	3066
860.592	3214
860.725	3207
860.858	3203
860.99	3066
861.123	3062
861.256	3013
861.388	3150
861.521	3888
861.653	2994
861.786	2956
861.918	2971
862.05	3066
862.183	3070
862.315	3119
862.447	3157
862.58	3108
862.712	2933
862.844	2887
862.976	3028
863.108	2967
863.24	3405
863.372	2880
863.504	2979
863.636	2960
863.768	2979
863.9	2975
864.032	2853
864.164	2925
864.296	2963
864.428	3097
864.559	3081
864.691	3062
864.823	3032
864.954	3009
865.086	3032
865.217	2952
865.349	2956
865.48	2975
865.612	2971
865.743	3154
865.875	2990
866.006	2914
866.137	2971
866.269	2937
866.4	2925
866.531	2941
866.662	2868
866.793	2861
866.924	2880
867.055	2998
867.186	2899
867.317	2895
867.448	2834
867.579	2861
867.71	2826
867.841	2811
867.972	2914
868.103	2910
868.233	2891
868.364	2857
868.495	2918
868.625	3104
868.756	3154
868.886	2906
869.017	3043
869.147	3165
869.278	3150
869.408	3020
869.539	2990
869.669	3070
869.799	3024
869.929	3150
870.06	3085
870.19	3317
870.32	3302
870.45	3272
870.58	3393
870.71	3469
870.84	3458
870.97	3283
871.1	3260
871.23	3462
871.36	3416
871.489	3321
871.619	3351
871.749	3359
871.879	3382
872.008	3473
872.138	3382
872.267	3268
872.397	3192
872.526	3116
872.656	3005
872.785	3081
872.915	3226
873.044	3279
873.173	3283
873.303	3237
873.432	3245
873.561	3233
873.69	3150
873.819	3131
873.948	3199
874.077	3077
874.206	3058
874.335	3077
874.464	3211
874.593	3378
874.722	3249
874.851	3416
874.979	3378
875.108	3302
875.237	3157
875.365	3157
875.494	3169
875.623	3245
875.751	3089
875.88	3070
876.008	3192
876.136	3233
876.265	3336
876.393	3523
876.521	3351
876.65	3374
876.778	3321
876.906	3203
877.034	3161
877.162	3207
877.29	3199
877.418	3245
877.546	3241
877.674	3241
877.802	3226
877.93	3233
878.058	3123
878.185	3085
878.313	3207
878.441	3195
878.568	3055
878.696	3135
878.824	3207
878.951	3283
879.079	3428
879.206	3614
879.333	3443
879.461	3310
879.588	3348
879.715	3473
879.842	3595
879.97	3393
880.097	3146
880.224	3116
880.351	3207
880.478	3211
880.605	3188
880.732	3192
880.859	3492
880.986	3264
881.112	3310
881.239	3173
881.366	3077
881.493	3001
881.619	3043
881.746	3036
881.872	3093
881.999	3074
882.125	3123
882.252	3249
882.378	3321
882.505	3454
882.631	3268
882.757	3119
882.883	3207
883.01	3203
883.136	3188
883.262	3074
883.388	3074
883.514	3325
883.64	3367
883.766	3310
883.892	3161
884.018	3237
884.143	3386
884.269	3496
884.395	3161
884.52	3173
884.646	3150
884.772	3093
884.897	3123
885.023	3245
885.148	3348
885.274	3401
885.399	3363
885.524	3237
885.65	3253
885.775	3294
885.9	3279
886.025	3428
886.15	3363
886.275	3321
886.4	3218
886.525	3298
886.65	3233
886.775	3260
886.9	3466
887.025	3648
887.149	3393
887.274	3260
887.399	3173
887.523	3165
887.648	3169
887.773	3142
887.897	3344
888.021	3412
888.146	3313
888.27	3454
888.395	3530
888.519	3424
888.643	3469
888.767	3473
888.891	3321
889.015	3275
889.139	3264
889.263	3249
889.387	3393
889.511	3542
889.635	3454
889.759	3287
889.883	3291
890.006	3374
890.13	3488
890.254	3260
890.377	3332
890.501	3173
890.624	3173
890.748	3291
890.871	3195
890.995	3108
891.118	3055
891.241	3195
891.364	3192
891.488	3321
891.611	3199
891.734	3222
891.857	3306
891.98	3237
892.103	3336
892.226	3264
892.349	3230
892.471	3100
892.594	3230
892.717	3233
892.839	3260
892.962	3283
893.085	3382
893.207	3306
893.33	3169
893.452	3188
893.575	3348
893.697	3237
893.819	3473
893.941	3515
894.064	3424
894.186	3253
894.308	3283
894.43	3435
894.552	3523
894.674	3473
894.796	3211
894.918	3317
895.04	3294
895.161	3397
895.283	3355
895.405	3306
895.526	3336
895.648	3416
895.769	3412
895.891	3485
896.012	3443
896.134	3458
896.255	3386
896.376	3405
896.498	3348
896.619	3389
896.74	3359
896.861	3393
896.982	3663
897.103	3819
897.224	3576
897.345	3534
897.466	3435
897.587	3469
897.708	3618
897.828	3557
897.949	3409
898.07	3370
898.19	3363
898.311	3603
898.431	3447
898.552	3526
898.672	3564
898.792	3580
898.913	3534
899.033	3401
899.153	3302
899.273	3222
899.393	3298
899.513	3279
899.633	3310
899.753	3363
899.873	3317
899.993	3370
900.113	3355
900.232	3374
900.352	3332
900.472	3294
900.591	3173
900.711	3313
900.83	3241
900.95	3409
901.069	3447
901.189	3355
901.308	3195
901.427	3093
901.546	3157
901.665	3294
901.784	3340
901.904	3157
902.023	3184
902.141	3009
902.26	2963
902.379	3169
902.498	3058
902.617	3047
902.735	3207
902.854	3214
902.973	3195
903.091	3020
903.21	3074
903.328	3119
903.446	3135
903.565	3085
903.683	3180
903.801	3123
903.919	3214
904.038	3283
904.156	3161
904.274	3245
904.392	3279
904.51	3245
904.627	3279
904.745	3386
904.863	3443
904.981	3268
905.098	3154
905.216	3279
905.334	3275
905.451	3298
905.569	3313
905.686	3389
905.803	3420
905.921	3283
906.038	3439
906.155	3363
906.272	3264
906.389	3332
906.506	3203
906.623	3253
906.74	3272
906.857	3173
906.974	3245
907.091	3416
907.208	3549
907.324	3435
907.441	3359
907.557	3218
907.674	3207
907.79	3218
907.907	3268
908.023	3389
908.139	3351
908.256	3344
908.372	3355
908.488	3393
908.604	3256
908.72	3245
908.836	3279
908.952	3272
909.068	3359
909.184	3454
909.3	3378
909.415	3462
909.531	3469
909.647	3298
909.762	3268
909.878	3283
909.993	3321
910.108	3332
910.224	3329
910.339	3409
910.454	3336
910.57	3313
910.685	3241
910.8	3549
910.915	3534
911.03	3416
911.145	3253
911.259	3245
911.374	3317
911.489	3218
911.604	3203
911.718	3097
911.833	3135
911.947	2998
912.062	2990
912.176	3154
912.291	3188
912.405	3199
912.519	3412
912.633	3439
912.748	3359
912.862	3283
912.976	3180
913.09	3020
913.204	3157
913.318	3184
913.431	3317
913.545	3310
913.659	3389
913.772	3344
913.886	3207
914	3173
914.113	3370
914.226	3405
914.34	3340
914.453	3214
914.566	3355
914.68	3268
914.793	3268
914.906	3135
915.019	3070
915.132	3043
915.245	3188
915.358	3184
915.47	3233
915.583	3264
915.696	3272
915.809	3351
915.921	3401
916.034	3245
916.146	3275
916.259	3214
916.371	3340
916.483	3359
916.595	3249
916.708	3317
916.82	3332
916.932	3321
917.044	3306
917.156	3294
917.268	3245
917.38	3249
917.491	3264
917.603	3344
917.715	3424
917.826	3428
917.938	3363
918.049	3214
918.161	3405
918.272	3526
918.384	3538
918.495	3481
918.606	3321
918.717	3291
918.828	3355
918.939	3389
919.05	3302
919.161	3325
919.272	3184
919.383	3253
919.494	3507
919.604	3686
919.715	3435
919.826	3424
919.936	3416
920.047	3564
920.157	3542
920.267	3800
920.378	3629
920.488	3538
920.598	3797
920.708	3964
920.818	3808
920.928	3876
921.038	4029
921.148	3994
921.258	3698
921.368	3667
921.477	3603
921.587	3587
921.697	3477
921.806	3648
921.916	3534
922.025	3378
922.134	3389
922.244	3321
922.353	3435
922.462	3268
922.571	3291
922.68	3123
922.789	3104
922.898	3142
923.007	3131
923.116	3253
923.224	3192
923.333	3203
923.442	3150
923.55	3104
923.659	3199
923.767	3268
923.876	3188
923.984	3260
924.092	3146
924.201	3241
924.309	3260
924.417	3287
924.525	3222
924.633	3313
924.741	4025
924.849	3108
924.956	3313
925.064	3123
925.172	3100
925.279	3123
925.387	3245
925.494	3283
925.602	3428
925.709	3370
925.816	3249
925.924	3329
926.031	3447
926.138	3336
926.245	3374
926.352	3256
926.459	3435
926.566	3488
926.673	3363
926.779	3298
926.886	3253
926.993	3184
927.099	3142
927.206	3161
927.312	3173
927.419	3287
927.525	3233
927.631	3351
927.737	3180
927.843	3169
927.95	3055
928.056	3150
928.162	3222
928.267	3321
928.373	3846
928.479	3332
928.585	3081
928.69	3260
928.796	3340
928.901	3226
929.007	3112
929.112	3218
929.218	3241
929.323	3226
929.428	3150
929.533	3359
929.638	3131
929.743	3222
929.848	3302
929.953	3260
930.058	3211
930.163	3017
930.267	3070
930.372	3249
930.477	3070
930.581	3355
930.685	3249
930.79	3089
930.894	3150
930.998	3093
931.103	3291
931.207	2998
931.311	2971
931.415	2967
931.519	2788
931.623	2880
