Data from test_V78500241_810.txt Node
Date: Fri Mar 25 16:20:48 CST 2022
User: usil
Spectrometer: V785-0024
Trigger mode: 0
Integration Time (sec): 4.000000E-1
Scans to average: 1
Nonlinearity correction enabled: false
Boxcar width: 0
Storing dark spectrum: false
XAxis mode: Wavelengths
Number of Pixels in Spectrum: 1024
>>>>>Begin Spectral Data<<<<<
801.071	2906
801.214	2956
801.356	2876
801.499	2910
801.641	2876
801.783	2895
801.926	3043
802.068	2975
802.211	2956
802.353	3024
802.496	2975
802.638	3032
802.78	3055
802.923	3100
803.065	2979
803.208	2887
803.35	2906
803.492	2937
803.635	2933
803.777	2708
803.919	2849
804.061	3176
804.204	2967
804.346	2861
804.488	2834
804.63	2971
804.773	2853
804.915	2899
805.057	3085
805.199	2902
805.341	2963
805.483	3020
805.626	2979
805.768	2960
805.91	3081
806.052	3119
806.194	3055
806.336	3222
806.478	2986
806.62	2925
806.762	2971
806.904	3066
807.046	3180
807.188	3013
807.33	2880
807.472	3009
807.614	2887
807.756	3001
807.898	2902
808.04	2895
808.182	2960
808.324	2963
808.465	2857
808.607	2853
808.749	2804
808.891	2853
809.033	2967
809.174	2952
809.316	2887
809.458	2899
809.6	2762
809.741	2796
809.883	2796
810.025	2853
810.166	2872
810.308	2868
810.45	2887
810.591	2781
810.733	2773
810.875	2842
811.016	2781
811.158	2754
811.299	2811
811.441	2891
811.582	2849
811.724	2838
811.865	2849
812.007	2880
812.148	2845
812.29	2853
812.431	2876
812.573	2914
812.714	2971
812.855	3020
812.997	3077
813.138	3127
813.279	2990
813.421	2956
813.562	2914
813.703	2853
813.845	2902
813.986	2773
814.127	2727
814.268	2796
814.41	2811
814.551	2796
814.692	2883
814.833	2807
814.974	2876
815.115	2960
815.256	2807
815.397	2800
815.539	2857
815.68	2766
815.821	2792
815.962	2971
816.103	2933
816.244	2876
816.385	2876
816.526	2960
816.666	2922
816.807	2743
816.948	2895
817.089	2918
817.23	2864
817.371	2788
817.512	2773
817.653	2823
817.793	2868
817.934	2899
818.075	2944
818.216	2979
818.356	3009
818.497	2895
818.638	2807
818.778	2838
818.919	2845
819.06	2758
819.2	2891
819.341	2807
819.481	2800
819.622	2895
819.762	3089
819.903	3032
820.043	2933
820.184	2922
820.324	2910
820.465	3039
820.605	3036
820.746	3055
820.886	2918
821.026	3077
821.167	3169
821.307	3253
821.447	3283
821.588	3173
821.728	3214
821.868	3127
822.008	3074
822.149	3218
822.289	3192
822.429	3146
822.569	3089
822.709	3131
822.849	2963
822.99	3051
823.13	3176
823.27	3230
823.41	3127
823.55	3150
823.69	3142
823.83	3207
823.97	3104
824.11	3005
824.25	2998
824.389	3081
824.529	3108
824.669	3062
824.809	3203
824.949	3218
825.089	3230
825.228	3150
825.368	3020
825.508	2990
825.648	2990
825.787	2994
825.927	2994
826.067	2967
826.206	2925
826.346	3036
826.485	3058
826.625	3146
826.765	3233
826.904	3184
827.044	2986
827.183	2891
827.323	2861
827.462	2979
827.601	2910
827.741	2933
827.88	2944
828.02	2861
828.159	2963
828.298	3066
828.437	3123
828.577	3047
828.716	3294
828.855	3047
828.994	2899
829.134	2902
829.273	2914
829.412	2872
829.551	2842
829.69	2891
829.829	2979
829.968	3089
830.107	2975
830.246	3028
830.385	2895
830.524	2876
830.663	2792
830.802	2712
830.941	2651
831.08	2640
831.219	2750
831.357	2758
831.496	2937
831.635	2701
831.774	2625
831.913	2632
832.051	2545
832.19	2571
832.329	2693
832.467	2545
832.606	2495
832.744	2625
832.883	2552
833.022	2579
833.16	2636
833.299	2689
833.437	2667
833.576	2697
833.714	2720
833.852	2716
833.991	2788
834.129	2811
834.267	2811
834.406	2785
834.544	2849
834.682	2830
834.821	2880
834.959	3085
835.097	2883
835.235	3085
835.373	3005
835.511	3032
835.65	2975
835.788	2937
835.926	2800
836.064	2823
836.202	2845
836.34	3051
836.478	3146
836.615	3039
836.753	3131
836.891	3195
837.029	3165
837.167	3127
837.305	3051
837.443	3032
837.58	2948
837.718	3119
837.856	3077
837.993	3039
838.131	3097
838.269	3089
838.406	3081
838.544	3074
838.681	2918
838.819	2895
838.956	2804
839.094	2834
839.231	2933
839.369	3001
839.506	3351
839.643	3195
839.781	3013
839.918	2956
840.055	3013
840.193	3032
840.33	3051
840.467	3055
840.604	3108
840.742	3412
840.879	3051
841.016	3058
841.153	3108
841.29	3317
841.427	3279
841.564	3260
841.701	3298
841.838	3180
841.975	3150
842.112	3195
842.249	3066
842.385	3093
842.522	3260
842.659	3108
842.796	3039
842.933	3077
843.069	3028
843.206	3032
843.343	3157
843.479	3108
843.616	3123
843.752	2891
843.889	2880
844.025	3081
844.162	2891
844.298	3058
844.435	2971
844.571	2906
844.708	3085
844.844	3222
844.98	3253
845.117	3188
845.253	3051
845.389	3043
845.525	3123
845.661	3089
845.798	3001
845.934	3097
846.07	3062
846.206	3222
846.342	3321
846.478	3233
846.614	3085
846.75	3047
846.886	3001
847.022	3253
847.158	3104
847.294	3199
847.429	3214
847.565	3199
847.701	3485
847.837	3005
847.972	2979
848.108	3192
848.244	3146
848.379	2982
848.515	2929
848.65	2963
848.786	2967
848.921	3039
849.057	3055
849.192	3142
849.328	3081
849.463	3116
849.598	3074
849.734	3047
849.869	2933
850.004	2929
850.14	2929
850.275	2918
850.41	2815
850.545	2857
850.68	2914
850.815	2952
850.95	2971
851.085	3173
851.22	3097
851.355	3017
851.49	2948
851.625	2975
851.76	3017
851.895	2941
852.03	2895
852.165	3032
852.299	3104
852.434	3207
852.569	3138
852.703	3161
852.838	3233
852.973	3355
853.107	3321
853.242	3150
853.376	3077
853.511	2994
853.645	3058
853.78	3237
853.914	3093
854.048	3089
854.183	3074
854.317	3127
854.451	3256
854.585	3112
854.72	3093
854.854	3192
854.988	3093
855.122	3123
855.256	2963
855.39	3119
855.524	3218
855.658	3169
855.792	3157
855.926	3192
856.06	3207
856.194	3272
856.327	3161
856.461	3070
856.595	3089
856.729	3055
856.862	3211
856.996	3157
857.13	3180
857.263	3211
857.397	3310
857.53	3100
857.664	3184
857.797	3199
857.931	3275
858.064	3119
858.197	3230
858.331	3135
858.464	3089
858.597	3001
858.731	3112
858.864	3135
858.997	3108
859.13	3112
859.263	3146
859.396	3203
859.529	3108
859.662	3058
859.795	3039
859.928	3119
860.061	3233
860.194	3291
860.327	3146
860.46	3093
860.592	3203
860.725	3233
860.858	3253
860.99	3112
861.123	3024
861.256	3028
861.388	3154
861.521	3926
861.653	3005
861.786	2933
861.918	3024
862.05	3077
862.183	3108
862.315	3154
862.447	3165
862.58	3066
862.712	2933
862.844	2861
862.976	3020
863.108	2982
863.24	3294
863.372	2883
863.504	2948
863.636	2944
863.768	3028
863.9	2994
864.032	2880
864.164	2941
864.296	3024
864.428	3108
864.559	3089
864.691	3062
864.823	3039
864.954	2982
865.086	3051
865.217	2982
865.349	2899
865.48	2971
865.612	3024
865.743	3119
865.875	2967
866.006	2952
866.137	2960
866.269	2922
866.4	2944
866.531	2933
866.662	2891
866.793	2914
866.924	2880
867.055	2971
867.186	2918
867.317	2895
867.448	2834
867.579	2861
867.71	2857
867.841	2830
867.972	2902
868.103	2887
868.233	2864
868.364	2880
868.495	2895
868.625	3047
868.756	3119
868.886	2979
869.017	3009
869.147	3188
869.278	3146
869.408	3074
869.539	3001
869.669	3093
869.799	3020
869.929	3116
870.06	3093
870.19	3321
870.32	3294
870.45	3237
870.58	3355
870.71	3439
870.84	3466
870.97	3272
871.1	3253
871.23	3443
871.36	3466
871.489	3367
871.619	3363
871.749	3409
871.879	3462
872.008	3481
872.138	3340
872.267	3256
872.397	3112
872.526	3058
872.656	2967
872.785	3089
872.915	3233
873.044	3325
873.173	3245
873.303	3237
873.432	3268
873.561	3211
873.69	3157
873.819	3180
873.948	3214
874.077	3123
874.206	3062
874.335	3062
874.464	3222
874.593	3336
874.722	3249
874.851	3412
874.979	3340
875.108	3313
875.237	3207
875.365	3142
875.494	3142
875.623	3233
875.751	3077
875.88	3093
876.008	3207
876.136	3211
876.265	3374
876.393	3496
876.521	3424
876.65	3374
876.778	3317
876.906	3253
877.034	3169
877.162	3188
877.29	3157
877.418	3222
877.546	3195
877.674	3233
877.802	3230
877.93	3188
878.058	3180
878.185	3089
878.313	3203
878.441	3195
878.568	3089
878.696	3180
878.824	3298
878.951	3283
879.079	3431
879.206	3591
879.333	3416
879.461	3344
879.588	3351
879.715	3496
879.842	3599
879.97	3397
880.097	3157
880.224	3150
880.351	3192
880.478	3230
880.605	3180
880.732	3188
880.859	3519
880.986	3283
881.112	3298
881.239	3203
881.366	3055
881.493	3055
881.619	3020
881.746	3058
881.872	3070
881.999	3081
882.125	3169
882.252	3256
882.378	3313
882.505	3409
882.631	3275
882.757	3127
882.883	3207
883.01	3233
883.136	3165
883.262	3051
883.388	3112
883.514	3321
883.64	3348
883.766	3294
883.892	3173
884.018	3233
884.143	3405
884.269	3557
884.395	3222
884.52	3154
884.646	3207
884.772	3116
884.897	3085
885.023	3218
885.148	3332
885.274	3386
885.399	3367
885.524	3260
885.65	3260
885.775	3287
885.9	3302
886.025	3424
886.15	3344
886.275	3283
886.4	3249
886.525	3298
886.65	3275
886.775	3256
886.9	3466
887.025	3622
887.149	3439
887.274	3268
887.399	3199
887.523	3245
887.648	3180
887.773	3207
887.897	3332
888.021	3424
888.146	3306
888.27	3386
888.395	3553
888.519	3401
888.643	3420
888.767	3447
888.891	3283
889.015	3249
889.139	3313
889.263	3222
889.387	3386
889.511	3511
889.635	3496
889.759	3245
889.883	3317
890.006	3401
890.13	3507
890.254	3298
890.377	3332
890.501	3176
890.624	3180
890.748	3287
890.871	3165
890.995	3131
891.118	3036
891.241	3184
891.364	3233
891.488	3321
891.611	3157
891.734	3237
891.857	3291
891.98	3253
892.103	3325
892.226	3256
892.349	3176
892.471	3127
892.594	3233
892.717	3268
892.839	3264
892.962	3291
893.085	3325
893.207	3275
893.33	3112
893.452	3218
893.575	3306
893.697	3222
893.819	3488
893.941	3450
894.064	3469
894.186	3264
894.308	3245
894.43	3405
894.552	3568
894.674	3439
894.796	3260
894.918	3310
895.04	3287
895.161	3420
895.283	3378
895.405	3317
895.526	3325
895.648	3428
895.769	3424
895.891	3466
896.012	3515
896.134	3488
896.255	3409
896.376	3397
896.498	3310
896.619	3420
896.74	3374
896.861	3412
896.982	3690
897.103	3831
897.224	3576
897.345	3523
897.466	3450
897.587	3462
897.708	3629
897.828	3515
897.949	3469
898.07	3291
898.19	3416
898.311	3587
898.431	3428
898.552	3530
898.672	3584
898.792	3599
898.913	3534
899.033	3409
899.153	3298
899.273	3211
899.393	3268
899.513	3294
899.633	3272
899.753	3336
899.873	3287
899.993	3378
900.113	3367
900.232	3397
900.352	3370
900.472	3302
900.591	3230
900.711	3321
900.83	3272
900.95	3416
901.069	3473
901.189	3370
901.308	3165
901.427	3135
901.546	3154
901.665	3306
901.784	3325
901.904	3184
902.023	3180
902.141	3020
902.26	2986
902.379	3138
902.498	3104
902.617	3058
902.735	3214
902.854	3218
902.973	3207
903.091	3047
903.21	3097
903.328	3138
903.446	3127
903.565	3097
903.683	3173
903.801	3157
903.919	3260
904.038	3317
904.156	3169
904.274	3253
904.392	3272
904.51	3340
904.627	3313
904.745	3424
904.863	3481
904.981	3264
905.098	3173
905.216	3272
905.334	3272
905.451	3302
905.569	3283
905.686	3450
905.803	3473
905.921	3291
906.038	3439
906.155	3367
906.272	3272
906.389	3291
906.506	3283
906.623	3218
906.74	3249
906.857	3199
906.974	3256
907.091	3462
907.208	3561
907.324	3454
907.441	3405
907.557	3226
907.674	3222
907.79	3199
907.907	3237
908.023	3374
908.139	3378
908.256	3310
908.372	3359
908.488	3325
908.604	3291
908.72	3253
908.836	3310
908.952	3256
909.068	3294
909.184	3500
909.3	3397
909.415	3496
909.531	3469
909.647	3241
909.762	3306
909.878	3256
909.993	3351
910.108	3321
910.224	3306
910.339	3393
910.454	3355
910.57	3291
910.685	3256
910.8	3603
910.915	3545
911.03	3466
911.145	3275
911.259	3287
911.374	3298
911.489	3283
911.604	3222
911.718	3138
911.833	3173
911.947	3055
912.062	2952
912.176	3188
912.291	3195
912.405	3233
912.519	3416
912.633	3481
912.748	3317
912.862	3241
912.976	3154
913.09	3070
913.204	3085
913.318	3218
913.431	3310
913.545	3340
913.659	3416
913.772	3321
913.886	3211
914	3180
914.113	3329
914.226	3401
914.34	3363
914.453	3203
914.566	3389
914.68	3332
914.793	3329
914.906	3116
915.019	3089
915.132	3085
915.245	3192
915.358	3184
915.47	3207
915.583	3264
915.696	3294
915.809	3405
915.921	3420
916.034	3268
916.146	3249
916.259	3184
916.371	3382
916.483	3359
916.595	3287
916.708	3321
916.82	3386
916.932	3344
917.044	3332
917.156	3382
917.268	3226
917.38	3294
917.491	3298
917.603	3355
917.715	3458
917.826	3485
917.938	3359
918.049	3268
918.161	3416
918.272	3572
918.384	3629
918.495	3511
918.606	3374
918.717	3291
918.828	3359
918.939	3397
919.05	3287
919.161	3393
919.272	3173
919.383	3291
919.494	3561
919.604	3701
919.715	3492
919.826	3397
919.936	3469
920.047	3584
920.157	3561
920.267	3755
920.378	3644
920.488	3538
920.598	3743
920.708	3987
920.818	3846
920.928	3804
921.038	3975
921.148	4006
921.258	3743
921.368	3629
921.477	3572
921.587	3561
921.697	3466
921.806	3641
921.916	3542
922.025	3355
922.134	3359
922.244	3325
922.353	3435
922.462	3264
922.571	3256
922.68	3085
922.789	3104
922.898	3138
923.007	3112
923.116	3207
923.224	3211
923.333	3146
923.442	3104
923.55	3089
923.659	3142
923.767	3226
923.876	3081
923.984	3226
924.092	3081
924.201	3233
924.309	3199
924.417	3233
924.525	3203
924.633	3214
924.741	4215
924.849	3028
924.956	3283
925.064	3119
925.172	3020
925.279	3138
925.387	3188
925.494	3195
925.602	3370
925.709	3355
925.816	3192
925.924	3279
926.031	3382
926.138	3336
926.245	3397
926.352	3256
926.459	3409
926.566	3466
926.673	3317
926.779	3287
926.886	3306
926.993	3142
927.099	3093
927.206	3097
927.312	3138
927.419	3275
927.525	3211
927.631	3272
927.737	3165
927.843	3161
927.95	3039
928.056	3142
928.162	3169
928.267	3230
928.373	3751
928.479	3294
928.585	3081
928.69	3218
928.796	3249
928.901	3161
929.007	3051
929.112	3188
929.218	3188
929.323	3169
929.428	3135
929.533	3302
929.638	3131
929.743	3157
929.848	3249
929.953	3192
930.058	3199
930.163	3024
930.267	3062
930.372	3226
930.477	3024
930.581	3275
930.685	3169
930.79	3058
930.894	3104
930.998	3108
931.103	3260
931.207	2994
931.311	2948
931.415	2902
931.519	2758
931.623	2800
