Data from test_V78500241_190.txt Node
Date: Fri Mar 25 16:16:31 CST 2022
User: usil
Spectrometer: V785-0024
Trigger mode: 0
Integration Time (sec): 4.000000E-1
Scans to average: 1
Nonlinearity correction enabled: false
Boxcar width: 0
Storing dark spectrum: false
XAxis mode: Wavelengths
Number of Pixels in Spectrum: 1024
>>>>>Begin Spectral Data<<<<<
801.071	2952
801.214	2967
801.356	2872
801.499	2910
801.641	2849
801.783	2925
801.926	3081
802.068	2963
802.211	3001
802.353	3051
802.496	2975
802.638	2986
802.78	3039
802.923	3081
803.065	3013
803.208	2914
803.35	2944
803.492	2979
803.635	2971
803.777	2796
803.919	2895
804.061	3222
804.204	2971
804.346	2922
804.488	2853
804.63	2982
804.773	2918
804.915	2929
805.057	3074
805.199	2918
805.341	2990
805.483	3062
805.626	2967
805.768	2998
805.91	3100
806.052	3116
806.194	3039
806.336	3260
806.478	3024
806.62	2956
806.762	2963
806.904	3077
807.046	3173
807.188	2990
807.33	2906
807.472	2982
807.614	2918
807.756	2971
807.898	2906
808.04	2883
808.182	2937
808.324	2979
808.465	2868
808.607	2887
808.749	2773
808.891	2880
809.033	2975
809.174	2960
809.316	2925
809.458	2929
809.6	2807
809.741	2792
809.883	2785
810.025	2868
810.166	2872
810.308	2883
810.45	2887
810.591	2773
810.733	2769
810.875	2811
811.016	2766
811.158	2758
811.299	2838
811.441	2933
811.582	2933
811.724	2842
811.865	2834
812.007	2933
812.148	2895
812.29	2868
812.431	2910
812.573	2967
812.714	2971
812.855	3043
812.997	3051
813.138	3127
813.279	3017
813.421	2982
813.562	2986
813.703	2880
813.845	2906
813.986	2781
814.127	2724
814.268	2804
814.41	2804
814.551	2826
814.692	2902
814.833	2796
814.974	2922
815.115	2971
815.256	2845
815.397	2815
815.539	2842
815.68	2788
815.821	2800
815.962	2941
816.103	2925
816.244	2868
816.385	2876
816.526	2998
816.666	2902
816.807	2758
816.948	2918
817.089	2922
817.23	2872
817.371	2769
817.512	2800
817.653	2849
817.793	2845
817.934	2864
818.075	2963
818.216	2963
818.356	3009
818.497	2899
818.638	2766
818.778	2857
818.919	2815
819.06	2769
819.2	2895
819.341	2796
819.481	2861
819.622	2944
819.762	3112
819.903	3085
820.043	2967
820.184	2922
820.324	2902
820.465	3005
820.605	3055
820.746	3047
820.886	2933
821.026	3097
821.167	3169
821.307	3249
821.447	3310
821.588	3241
821.728	3207
821.868	3192
822.008	3074
822.149	3241
822.289	3233
822.429	3066
822.569	3081
822.709	3192
822.849	3055
822.99	3077
823.13	3180
823.27	3211
823.41	3135
823.55	3154
823.69	3135
823.83	3230
823.97	3127
824.11	3020
824.25	2990
824.389	3066
824.529	3119
824.669	3100
824.809	3222
824.949	3279
825.089	3233
825.228	3138
825.368	3036
825.508	2975
825.648	2967
825.787	3036
825.927	3020
826.067	2956
826.206	2975
826.346	3028
826.485	3116
826.625	3116
826.765	3298
826.904	3226
827.044	2994
827.183	2971
827.323	2861
827.462	3032
827.601	2895
827.741	2944
827.88	2971
828.02	2838
828.159	2998
828.298	3051
828.437	3116
828.577	3028
828.716	3245
828.855	3077
828.994	2944
829.134	2933
829.273	2925
829.412	2861
829.551	2849
829.69	2902
829.829	3001
829.968	3112
830.107	3028
830.246	3043
830.385	2929
830.524	2910
830.663	2830
830.802	2743
830.941	2644
831.08	2670
831.219	2762
831.357	2754
831.496	3017
831.635	2705
831.774	2644
831.913	2686
832.051	2541
832.19	2590
832.329	2708
832.467	2545
832.606	2476
832.744	2583
832.883	2590
833.022	2587
833.16	2659
833.299	2674
833.437	2705
833.576	2701
833.714	2697
833.852	2743
833.991	2788
834.129	2853
834.267	2811
834.406	2815
834.544	2861
834.682	2906
834.821	2887
834.959	3070
835.097	2941
835.235	3097
835.373	3009
835.511	3024
835.65	2990
835.788	2944
835.926	2853
836.064	2819
836.202	2861
836.34	3074
836.478	3123
836.615	3032
836.753	3135
836.891	3203
837.029	3192
837.167	3146
837.305	3028
837.443	3062
837.58	3001
837.718	3123
837.856	3043
837.993	3062
838.131	3104
838.269	3108
838.406	3142
838.544	3097
838.681	2975
838.819	2922
838.956	2830
839.094	2823
839.231	2922
839.369	3032
839.506	3370
839.643	3230
839.781	3051
839.918	2948
840.055	3066
840.193	3028
840.33	3036
840.467	3085
840.604	3131
840.742	3409
840.879	3032
841.016	3062
841.153	3131
841.29	3336
841.427	3302
841.564	3279
841.701	3332
841.838	3214
841.975	3176
842.112	3203
842.249	3058
842.385	3032
842.522	3268
842.659	3135
842.796	3074
842.933	3142
843.069	3051
843.206	3058
843.343	3173
843.479	3085
843.616	3192
843.752	2944
843.889	2899
844.025	3104
844.162	2895
844.298	3093
844.435	2967
844.571	2929
844.708	3138
844.844	3188
844.98	3241
845.117	3203
845.253	3062
845.389	3001
845.525	3066
845.661	3131
845.798	3055
845.934	3112
846.07	3062
846.206	3211
846.342	3329
846.478	3294
846.614	3062
846.75	3085
846.886	3024
847.022	3211
847.158	3123
847.294	3230
847.429	3256
847.565	3199
847.701	3481
847.837	3024
847.972	3020
848.108	3192
848.244	3142
848.379	2994
848.515	2948
848.65	2918
848.786	2975
848.921	3017
849.057	3123
849.192	3176
849.328	3085
849.463	3085
849.598	3062
849.734	3036
849.869	2971
850.004	2914
850.14	2967
850.275	2906
850.41	2853
850.545	2895
850.68	2929
850.815	2971
850.95	2990
851.085	3226
851.22	3097
851.355	3039
851.49	2956
851.625	2994
851.76	3017
851.895	2933
852.03	2906
852.165	3036
852.299	3093
852.434	3169
852.569	3157
852.703	3207
852.838	3253
852.973	3325
853.107	3325
853.242	3176
853.376	3070
853.511	2963
853.645	3066
853.78	3241
853.914	3127
854.048	3100
854.183	3085
854.317	3173
854.451	3332
854.585	3154
854.72	3085
854.854	3241
854.988	3058
855.122	3127
855.256	2986
855.39	3123
855.524	3249
855.658	3165
855.792	3173
855.926	3218
856.06	3233
856.194	3230
856.327	3180
856.461	3070
856.595	3142
856.729	3116
856.862	3218
856.996	3184
857.13	3226
857.263	3184
857.397	3241
857.53	3100
857.664	3192
857.797	3241
857.931	3253
858.064	3188
858.197	3222
858.331	3123
858.464	3089
858.597	3036
858.731	3093
858.864	3127
858.997	3070
859.13	3161
859.263	3161
859.396	3226
859.529	3093
859.662	3062
859.795	3066
859.928	3131
860.061	3275
860.194	3268
860.327	3142
860.46	3074
860.592	3245
860.725	3249
860.858	3237
860.99	3138
861.123	3070
861.256	3036
861.388	3146
861.521	3762
861.653	3005
861.786	2952
861.918	2979
862.05	3070
862.183	3085
862.315	3184
862.447	3184
862.58	3085
862.712	2952
862.844	2807
862.976	3017
863.108	2986
863.24	3298
863.372	2883
863.504	2994
863.636	2941
863.768	3013
863.9	3001
864.032	2899
864.164	2902
864.296	2994
864.428	3142
864.559	3097
864.691	3085
864.823	3036
864.954	3043
865.086	3047
865.217	2975
865.349	2956
865.48	2956
865.612	2963
865.743	3169
865.875	2994
866.006	2963
866.137	2994
866.269	2906
866.4	2952
866.531	2941
866.662	2918
866.793	2891
866.924	2887
867.055	2922
867.186	2899
867.317	2872
867.448	2853
867.579	2845
867.71	2842
867.841	2842
867.972	2929
868.103	2880
868.233	2887
868.364	2872
868.495	2883
868.625	3119
868.756	3173
868.886	2975
869.017	3032
869.147	3173
869.278	3165
869.408	3051
869.539	3039
869.669	3089
869.799	3028
869.929	3131
870.06	3123
870.19	3344
870.32	3279
870.45	3351
870.58	3378
870.71	3443
870.84	3473
870.97	3298
871.1	3256
871.23	3526
871.36	3492
871.489	3405
871.619	3439
871.749	3431
871.879	3469
872.008	3576
872.138	3386
872.267	3340
872.397	3161
872.526	3135
872.656	3081
872.785	3154
872.915	3272
873.044	3363
873.173	3249
873.303	3264
873.432	3302
873.561	3317
873.69	3199
873.819	3207
873.948	3237
874.077	3165
874.206	3108
874.335	3165
874.464	3268
874.593	3416
874.722	3275
874.851	3485
874.979	3409
875.108	3367
875.237	3264
875.365	3226
875.494	3230
875.623	3256
875.751	3119
875.88	3184
876.008	3253
876.136	3302
876.265	3447
876.393	3504
876.521	3511
876.65	3450
876.778	3355
876.906	3298
877.034	3272
877.162	3310
877.29	3249
877.418	3325
877.546	3294
877.674	3310
877.802	3302
877.93	3291
878.058	3222
878.185	3203
878.313	3275
878.441	3275
878.568	3161
878.696	3192
878.824	3302
878.951	3336
879.079	3485
879.206	3656
879.333	3530
879.461	3389
879.588	3409
879.715	3523
879.842	3648
879.97	3428
880.097	3211
880.224	3199
880.351	3272
880.478	3283
880.605	3233
880.732	3211
880.859	3530
880.986	3348
881.112	3340
881.239	3249
881.366	3154
881.493	3108
881.619	3039
881.746	3138
881.872	3127
881.999	3161
882.125	3192
882.252	3283
882.378	3329
882.505	3450
882.631	3363
882.757	3211
882.883	3241
883.01	3283
883.136	3207
883.262	3104
883.388	3135
883.514	3382
883.64	3412
883.766	3336
883.892	3279
884.018	3283
884.143	3466
884.269	3599
884.395	3260
884.52	3188
884.646	3264
884.772	3135
884.897	3138
885.023	3241
885.148	3363
885.274	3443
885.399	3428
885.524	3340
885.65	3291
885.775	3355
885.9	3313
886.025	3469
886.15	3424
886.275	3344
886.4	3275
886.525	3367
886.65	3268
886.775	3351
886.9	3519
887.025	3667
887.149	3447
887.274	3321
887.399	3233
887.523	3279
887.648	3195
887.773	3272
887.897	3389
888.021	3428
888.146	3329
888.27	3473
888.395	3606
888.519	3481
888.643	3492
888.767	3507
888.891	3332
889.015	3253
889.139	3321
889.263	3302
889.387	3409
889.511	3538
889.635	3496
889.759	3344
889.883	3378
890.006	3424
890.13	3538
890.254	3325
890.377	3393
890.501	3237
890.624	3199
890.748	3332
890.871	3211
890.995	3142
891.118	3104
891.241	3226
891.364	3275
891.488	3370
891.611	3241
891.734	3283
891.857	3401
891.98	3317
892.103	3382
892.226	3348
892.349	3272
892.471	3138
892.594	3302
892.717	3332
892.839	3317
892.962	3321
893.085	3458
893.207	3344
893.33	3135
893.452	3253
893.575	3374
893.697	3283
893.819	3526
893.941	3553
894.064	3496
894.186	3344
894.308	3313
894.43	3481
894.552	3629
894.674	3492
894.796	3367
894.918	3336
895.04	3313
895.161	3511
895.283	3412
895.405	3355
895.526	3439
895.648	3481
895.769	3485
895.891	3526
896.012	3500
896.134	3500
896.255	3488
896.376	3443
896.498	3397
896.619	3389
896.74	3359
896.861	3466
896.982	3732
897.103	3903
897.224	3629
897.345	3542
897.466	3496
897.587	3519
897.708	3663
897.828	3618
897.949	3500
898.07	3405
898.19	3519
898.311	3644
898.431	3500
898.552	3557
898.672	3648
898.792	3606
898.913	3584
899.033	3469
899.153	3321
899.273	3256
899.393	3351
899.513	3359
899.633	3363
899.753	3382
899.873	3355
899.993	3435
900.113	3382
900.232	3462
900.352	3363
900.472	3355
900.591	3218
900.711	3302
900.83	3294
900.95	3485
901.069	3538
901.189	3405
901.308	3226
901.427	3176
901.546	3226
901.665	3264
901.784	3378
901.904	3313
902.023	3142
902.141	3036
902.26	3028
902.379	3199
902.498	3135
902.617	3097
902.735	3230
902.854	3268
902.973	3268
903.091	3032
903.21	3100
903.328	3161
903.446	3138
903.565	3142
903.683	3268
903.801	3142
903.919	3291
904.038	3348
904.156	3230
904.274	3359
904.392	3294
904.51	3367
904.627	3370
904.745	3454
904.863	3564
904.981	3317
905.098	3188
905.216	3279
905.334	3359
905.451	3344
905.569	3336
905.686	3458
905.803	3428
905.921	3344
906.038	3473
906.155	3416
906.272	3306
906.389	3409
906.506	3260
906.623	3279
906.74	3344
906.857	3218
906.974	3310
907.091	3511
907.208	3622
907.324	3511
907.441	3393
907.557	3279
907.674	3294
907.79	3245
907.907	3321
908.023	3424
908.139	3409
908.256	3378
908.372	3439
908.488	3386
908.604	3272
908.72	3306
908.836	3306
908.952	3336
909.068	3374
909.184	3564
909.3	3428
909.415	3519
909.531	3530
909.647	3302
909.762	3348
909.878	3329
909.993	3401
910.108	3336
910.224	3363
910.339	3454
910.454	3367
910.57	3359
910.685	3275
910.8	3603
910.915	3553
911.03	3443
911.145	3332
911.259	3336
911.374	3340
911.489	3283
911.604	3272
911.718	3157
911.833	3233
911.947	3070
912.062	3028
912.176	3199
912.291	3222
912.405	3241
912.519	3469
912.633	3515
912.748	3351
912.862	3298
912.976	3180
913.09	3093
913.204	3169
913.318	3253
913.431	3355
913.545	3359
913.659	3447
913.772	3378
913.886	3230
914	3249
914.113	3428
914.226	3477
914.34	3424
914.453	3203
914.566	3458
914.68	3310
914.793	3363
914.906	3176
915.019	3165
915.132	3089
915.245	3176
915.358	3192
915.47	3272
915.583	3302
915.696	3329
915.809	3428
915.921	3473
916.034	3302
916.146	3241
916.259	3256
916.371	3424
916.483	3401
916.595	3287
916.708	3348
916.82	3370
916.932	3389
917.044	3401
917.156	3420
917.268	3291
917.38	3332
917.491	3382
917.603	3401
917.715	3447
917.826	3469
917.938	3428
918.049	3313
918.161	3500
918.272	3618
918.384	3591
918.495	3526
918.606	3397
918.717	3294
918.828	3389
918.939	3458
919.05	3336
919.161	3416
919.272	3226
919.383	3370
919.494	3553
919.604	3701
919.715	3469
919.826	3454
919.936	3511
920.047	3603
920.157	3603
920.267	3827
920.378	3633
920.488	3606
920.598	3812
920.708	3972
920.818	3831
920.928	3892
921.038	4059
921.148	4051
921.258	3751
921.368	3682
921.477	3595
921.587	3606
921.697	3462
921.806	3709
921.916	3538
922.025	3397
922.134	3401
922.244	3367
922.353	3420
922.462	3302
922.571	3256
922.68	3161
922.789	3138
922.898	3180
923.007	3119
923.116	3218
923.224	3256
923.333	3218
923.442	3119
923.55	3146
923.659	3161
923.767	3237
923.876	3150
923.984	3313
924.092	3142
924.201	3211
924.309	3230
924.417	3264
924.525	3199
924.633	3264
924.741	4192
924.849	3112
924.956	3256
925.064	3097
925.172	3058
925.279	3173
925.387	3253
925.494	3222
925.602	3401
925.709	3370
925.816	3199
925.924	3317
926.031	3420
926.138	3363
926.245	3405
926.352	3287
926.459	3477
926.566	3466
926.673	3355
926.779	3275
926.886	3253
926.993	3214
927.099	3173
927.206	3169
927.312	3146
927.419	3272
927.525	3253
927.631	3306
927.737	3161
927.843	3138
927.95	3028
928.056	3146
928.162	3237
928.267	3272
928.373	3941
928.479	3313
928.585	3074
928.69	3249
928.796	3306
928.901	3135
929.007	3085
929.112	3241
929.218	3245
929.323	3157
929.428	3176
929.533	3374
929.638	3131
929.743	3233
929.848	3283
929.953	3214
930.058	3176
930.163	3017
930.267	3104
930.372	3207
930.477	3066
930.581	3332
930.685	3230
930.79	3039
930.894	3176
930.998	3100
931.103	3332
931.207	3001
931.311	2971
931.415	2967
931.519	2800
931.623	2815
