Data from test_V78500241_999.txt Node
Date: Fri Mar 25 16:22:07 CST 2022
User: usil
Spectrometer: V785-0024
Trigger mode: 0
Integration Time (sec): 4.000000E-1
Scans to average: 1
Nonlinearity correction enabled: false
Boxcar width: 0
Storing dark spectrum: false
XAxis mode: Wavelengths
Number of Pixels in Spectrum: 1024
>>>>>Begin Spectral Data<<<<<
801.071	2922
801.214	2948
801.356	2891
801.499	2929
801.641	2868
801.783	2914
801.926	3024
802.068	2948
802.211	2990
802.353	3032
802.496	2887
802.638	2975
802.78	3028
802.923	3081
803.065	3001
803.208	2849
803.35	2895
803.492	2883
803.635	2910
803.777	2750
803.919	2880
804.061	3195
804.204	2944
804.346	2902
804.488	2815
804.63	2975
804.773	2872
804.915	2902
805.057	3104
805.199	2918
805.341	2967
805.483	3051
805.626	3001
805.768	2952
805.91	3108
806.052	3104
806.194	3036
806.336	3256
806.478	3001
806.62	2998
806.762	2929
806.904	3055
807.046	3165
807.188	3013
807.33	2880
807.472	2986
807.614	2883
807.756	2963
807.898	2922
808.04	2891
808.182	2952
808.324	2944
808.465	2861
808.607	2902
808.749	2800
808.891	2815
809.033	2975
809.174	2963
809.316	2872
809.458	2902
809.6	2773
809.741	2766
809.883	2796
810.025	2834
810.166	2861
810.308	2853
810.45	2853
810.591	2766
810.733	2815
810.875	2796
811.016	2762
811.158	2758
811.299	2807
811.441	2944
811.582	2914
811.724	2815
811.865	2804
812.007	2883
812.148	2887
812.29	2857
812.431	2918
812.573	2918
812.714	2975
812.855	3024
812.997	3036
813.138	3116
813.279	3001
813.421	2956
813.562	2918
813.703	2868
813.845	2876
813.986	2754
814.127	2716
814.268	2815
814.41	2849
814.551	2785
814.692	2868
814.833	2826
814.974	2868
815.115	2944
815.256	2826
815.397	2807
815.539	2857
815.68	2788
815.821	2804
815.962	2952
816.103	2933
816.244	2872
816.385	2880
816.526	2952
816.666	2891
816.807	2769
816.948	2895
817.089	2929
817.23	2868
817.371	2781
817.512	2807
817.653	2811
817.793	2811
817.934	2842
818.075	2960
818.216	2990
818.356	3013
818.497	2899
818.638	2815
818.778	2823
818.919	2811
819.06	2746
819.2	2876
819.341	2811
819.481	2804
819.622	2914
819.762	3089
819.903	3020
820.043	2922
820.184	2887
820.324	2895
820.465	2979
820.605	3009
820.746	3001
820.886	2937
821.026	3066
821.167	3142
821.307	3230
821.447	3279
821.588	3211
821.728	3199
821.868	3184
822.008	3055
822.149	3195
822.289	3214
822.429	3104
822.569	3119
822.709	3176
822.849	3005
822.99	3085
823.13	3165
823.27	3184
823.41	3085
823.55	3150
823.69	3112
823.83	3195
823.97	3112
824.11	3036
824.25	2979
824.389	3047
824.529	3119
824.669	3089
824.809	3192
824.949	3249
825.089	3253
825.228	3127
825.368	3013
825.508	2963
825.648	2986
825.787	3020
825.927	3001
826.067	2960
826.206	2967
826.346	3070
826.485	3077
826.625	3108
826.765	3245
826.904	3195
827.044	2986
827.183	2891
827.323	2849
827.462	2960
827.601	2944
827.741	2891
827.88	2941
828.02	2845
828.159	2948
828.298	3055
828.437	3119
828.577	3039
828.716	3275
828.855	3055
828.994	2929
829.134	2914
829.273	2895
829.412	2853
829.551	2845
829.69	2876
829.829	3005
829.968	3116
830.107	2990
830.246	3005
830.385	2941
830.524	2876
830.663	2807
830.802	2731
830.941	2651
831.08	2636
831.219	2781
831.357	2750
831.496	2925
831.635	2686
831.774	2621
831.913	2632
832.051	2522
832.19	2571
832.329	2670
832.467	2549
832.606	2469
832.744	2568
832.883	2537
833.022	2583
833.16	2640
833.299	2655
833.437	2693
833.576	2705
833.714	2689
833.852	2743
833.991	2754
834.129	2826
834.267	2777
834.406	2788
834.544	2864
834.682	2864
834.821	2902
834.959	3062
835.097	2895
835.235	3081
835.373	2960
835.511	2971
835.65	2933
835.788	2963
835.926	2834
836.064	2853
836.202	2849
836.34	3077
836.478	3176
836.615	3013
836.753	3116
836.891	3173
837.029	3157
837.167	3055
837.305	3051
837.443	3009
837.58	2960
837.718	3131
837.856	3070
837.993	3024
838.131	3089
838.269	3077
838.406	3089
838.544	3093
838.681	2914
838.819	2906
838.956	2834
839.094	2834
839.231	2899
839.369	3005
839.506	3370
839.643	3233
839.781	3013
839.918	2937
840.055	3051
840.193	3028
840.33	3036
840.467	3070
840.604	3157
840.742	3401
840.879	3062
841.016	3081
841.153	3097
841.29	3340
841.427	3291
841.564	3207
841.701	3317
841.838	3249
841.975	3142
842.112	3192
842.249	3077
842.385	3077
842.522	3249
842.659	3097
842.796	3043
842.933	3077
843.069	3032
843.206	2998
843.343	3199
843.479	3142
843.616	3138
843.752	2872
843.889	2887
844.025	3093
844.162	2853
844.298	3070
844.435	2925
844.571	2906
844.708	3055
844.844	3195
844.98	3203
845.117	3146
845.253	3077
845.389	3013
845.525	3097
845.661	3089
845.798	3036
845.934	3108
846.07	3043
846.206	3188
846.342	3272
846.478	3226
846.614	3051
846.75	3039
846.886	3017
847.022	3230
847.158	3127
847.294	3222
847.429	3226
847.565	3184
847.701	3443
847.837	3043
847.972	2963
848.108	3169
848.244	3154
848.379	2944
848.515	2929
848.65	2948
848.786	2929
848.921	3028
849.057	3100
849.192	3119
849.328	3081
849.463	3119
849.598	3051
849.734	3020
849.869	2994
850.004	2902
850.14	2979
850.275	2899
850.41	2804
850.545	2880
850.68	2941
850.815	2914
850.95	2956
851.085	3211
851.22	3104
851.355	3017
851.49	2967
851.625	2986
851.76	3001
851.895	2902
852.03	2902
852.165	3024
852.299	3123
852.434	3184
852.569	3138
852.703	3146
852.838	3264
852.973	3306
853.107	3313
853.242	3154
853.376	3097
853.511	2994
853.645	3005
853.78	3249
853.914	3112
854.048	3074
854.183	3058
854.317	3085
854.451	3287
854.585	3131
854.72	3062
854.854	3218
854.988	3062
855.122	3070
855.256	2975
855.39	3100
855.524	3211
855.658	3165
855.792	3146
855.926	3199
856.06	3203
856.194	3230
856.327	3108
856.461	3058
856.595	3070
856.729	3081
856.862	3214
856.996	3169
857.13	3184
857.263	3253
857.397	3253
857.53	3123
857.664	3180
857.797	3218
857.931	3237
858.064	3165
858.197	3222
858.331	3104
858.464	3058
858.597	3013
858.731	3104
858.864	3150
858.997	3074
859.13	3131
859.263	3154
859.396	3169
859.529	3093
859.662	3051
859.795	3055
859.928	3108
860.061	3264
860.194	3275
860.327	3116
860.46	3070
860.592	3211
860.725	3237
860.858	3268
860.99	3108
861.123	3028
861.256	3074
861.388	3157
861.521	3774
861.653	3024
861.786	2994
861.918	3036
862.05	3070
862.183	3062
862.315	3150
862.447	3180
862.58	3085
862.712	2910
862.844	2864
862.976	2994
863.108	2998
863.24	3386
863.372	2887
863.504	2948
863.636	2887
863.768	2998
863.9	3005
864.032	2899
864.164	2948
864.296	2979
864.428	3058
864.559	3081
864.691	3066
864.823	3062
864.954	3070
865.086	3058
865.217	3005
865.349	2937
865.48	2967
865.612	2986
865.743	3116
865.875	2971
866.006	2944
866.137	3013
866.269	2925
866.4	2906
866.531	2899
866.662	2868
866.793	2914
866.924	2891
867.055	2944
867.186	2906
867.317	2887
867.448	2804
867.579	2830
867.71	2849
867.841	2807
867.972	2891
868.103	2880
868.233	2861
868.364	2845
868.495	2895
868.625	3039
868.756	3169
868.886	2994
869.017	3024
869.147	3165
869.278	3165
869.408	3043
869.539	2990
869.669	3089
869.799	3047
869.929	3161
870.06	3108
870.19	3336
870.32	3317
870.45	3279
870.58	3370
870.71	3435
870.84	3435
870.97	3306
871.1	3256
871.23	3473
871.36	3409
871.489	3367
871.619	3378
871.749	3389
871.879	3412
872.008	3477
872.138	3332
872.267	3249
872.397	3150
872.526	3123
872.656	2990
872.785	3097
872.915	3203
873.044	3321
873.173	3207
873.303	3176
873.432	3214
873.561	3199
873.69	3173
873.819	3119
873.948	3233
874.077	3077
874.206	3047
874.335	3089
874.464	3275
874.593	3340
874.722	3180
874.851	3397
874.979	3332
875.108	3294
875.237	3146
875.365	3169
875.494	3150
875.623	3245
875.751	3104
875.88	3100
876.008	3203
876.136	3199
876.265	3367
876.393	3481
876.521	3393
876.65	3374
876.778	3363
876.906	3245
877.034	3214
877.162	3199
877.29	3211
877.418	3268
877.546	3207
877.674	3233
877.802	3233
877.93	3222
878.058	3180
878.185	3097
878.313	3161
878.441	3169
878.568	3047
878.696	3146
878.824	3226
878.951	3283
879.079	3443
879.206	3622
879.333	3428
879.461	3302
879.588	3321
879.715	3485
879.842	3580
879.97	3397
880.097	3165
880.224	3108
880.351	3154
880.478	3260
880.605	3188
880.732	3135
880.859	3462
880.986	3313
881.112	3279
881.239	3222
881.366	3100
881.493	3058
881.619	3005
881.746	3055
881.872	3089
881.999	3097
882.125	3150
882.252	3241
882.378	3291
882.505	3428
882.631	3222
882.757	3150
882.883	3214
883.01	3184
883.136	3154
883.262	3074
883.388	3135
883.514	3329
883.64	3355
883.766	3253
883.892	3184
884.018	3253
884.143	3386
884.269	3500
884.395	3195
884.52	3131
884.646	3161
884.772	3146
884.897	3093
885.023	3222
885.148	3325
885.274	3416
885.399	3367
885.524	3264
885.65	3256
885.775	3306
885.9	3291
886.025	3386
886.15	3355
886.275	3287
886.4	3226
886.525	3272
886.65	3241
886.775	3279
886.9	3492
887.025	3671
887.149	3424
887.274	3264
887.399	3188
887.523	3173
887.648	3184
887.773	3188
887.897	3386
888.021	3359
888.146	3302
888.27	3450
888.395	3572
888.519	3439
888.643	3389
888.767	3492
888.891	3291
889.015	3249
889.139	3260
889.263	3245
889.387	3405
889.511	3469
889.635	3473
889.759	3283
889.883	3310
890.006	3389
890.13	3469
890.254	3272
890.377	3325
890.501	3184
890.624	3188
890.748	3306
890.871	3199
890.995	3070
891.118	3051
891.241	3146
891.364	3218
891.488	3294
891.611	3176
891.734	3211
891.857	3264
891.98	3230
892.103	3321
892.226	3291
892.349	3195
892.471	3108
892.594	3237
892.717	3256
892.839	3253
892.962	3279
893.085	3367
893.207	3256
893.33	3112
893.452	3214
893.575	3336
893.697	3256
893.819	3439
893.941	3477
894.064	3420
894.186	3268
894.308	3256
894.43	3462
894.552	3553
894.674	3431
894.796	3275
894.918	3302
895.04	3306
895.161	3439
895.283	3370
895.405	3313
895.526	3355
895.648	3412
895.769	3405
895.891	3443
896.012	3439
896.134	3428
896.255	3428
896.376	3397
896.498	3359
896.619	3443
896.74	3351
896.861	3370
896.982	3701
897.103	3816
897.224	3584
897.345	3500
897.466	3428
897.587	3488
897.708	3622
897.828	3515
897.949	3469
898.07	3325
898.19	3401
898.311	3595
898.431	3492
898.552	3534
898.672	3595
898.792	3568
898.913	3557
899.033	3443
899.153	3260
899.273	3233
899.393	3283
899.513	3302
899.633	3306
899.753	3340
899.873	3275
899.993	3355
900.113	3321
900.232	3351
900.352	3332
900.472	3268
900.591	3192
900.711	3321
900.83	3184
900.95	3363
901.069	3492
901.189	3344
901.308	3192
901.427	3104
901.546	3188
901.665	3264
901.784	3329
901.904	3192
902.023	3127
902.141	3001
902.26	2998
902.379	3108
902.498	3070
902.617	3047
902.735	3184
902.854	3249
902.973	3195
903.091	3066
903.21	3097
903.328	3131
903.446	3127
903.565	3070
903.683	3199
903.801	3108
903.919	3214
904.038	3275
904.156	3142
904.274	3310
904.392	3264
904.51	3283
904.627	3291
904.745	3454
904.863	3473
904.981	3291
905.098	3176
905.216	3218
905.334	3298
905.451	3329
905.569	3241
905.686	3431
905.803	3450
905.921	3313
906.038	3424
906.155	3374
906.272	3275
906.389	3325
906.506	3207
906.623	3218
906.74	3279
906.857	3154
906.974	3218
907.091	3450
907.208	3557
907.324	3500
907.441	3393
907.557	3233
907.674	3249
907.79	3192
907.907	3268
908.023	3397
908.139	3340
908.256	3321
908.372	3367
908.488	3325
908.604	3218
908.72	3184
908.836	3233
908.952	3260
909.068	3344
909.184	3477
909.3	3340
909.415	3507
909.531	3439
909.647	3272
909.762	3287
909.878	3241
909.993	3332
910.108	3310
910.224	3310
910.339	3355
910.454	3344
910.57	3275
910.685	3260
910.8	3549
910.915	3523
911.03	3454
911.145	3275
911.259	3268
911.374	3287
911.489	3245
911.604	3203
911.718	3123
911.833	3150
911.947	3024
912.062	3009
912.176	3176
912.291	3188
912.405	3192
912.519	3439
912.633	3439
912.748	3306
912.862	3275
912.976	3165
913.09	3089
913.204	3142
913.318	3184
913.431	3306
913.545	3287
913.659	3401
913.772	3317
913.886	3249
914	3176
914.113	3325
914.226	3393
914.34	3397
914.453	3195
914.566	3393
914.68	3268
914.793	3294
914.906	3127
915.019	3062
915.132	3028
915.245	3127
915.358	3199
915.47	3218
915.583	3279
915.696	3268
915.809	3389
915.921	3393
916.034	3203
916.146	3291
916.259	3199
916.371	3355
916.483	3344
916.595	3260
916.708	3302
916.82	3287
916.932	3287
917.044	3329
917.156	3340
917.268	3226
917.38	3302
917.491	3287
917.603	3351
917.715	3412
917.826	3443
917.938	3329
918.049	3260
918.161	3416
918.272	3584
918.384	3530
918.495	3477
918.606	3332
918.717	3230
918.828	3389
918.939	3378
919.05	3272
919.161	3340
919.272	3146
919.383	3272
919.494	3469
919.604	3679
919.715	3473
919.826	3409
919.936	3492
920.047	3580
920.157	3507
920.267	3740
920.378	3553
920.488	3545
920.598	3774
920.708	3968
920.818	3819
920.928	3838
921.038	4036
921.148	3994
921.258	3736
921.368	3618
921.477	3595
921.587	3542
921.697	3450
921.806	3633
921.916	3564
922.025	3405
922.134	3382
922.244	3325
922.353	3424
922.462	3294
922.571	3241
922.68	3142
922.789	3074
922.898	3157
923.007	3119
923.116	3237
923.224	3192
923.333	3218
923.442	3116
923.55	3131
923.659	3203
923.767	3291
923.876	3180
923.984	3256
924.092	3165
924.201	3214
924.309	3275
924.417	3275
924.525	3226
924.633	3241
924.741	4227
924.849	3074
924.956	3283
925.064	3157
925.172	3108
925.279	3127
925.387	3230
925.494	3226
925.602	3378
925.709	3344
925.816	3222
925.924	3283
926.031	3458
926.138	3370
926.245	3393
926.352	3287
926.459	3416
926.566	3492
926.673	3359
926.779	3313
926.886	3294
926.993	3214
927.099	3154
927.206	3135
927.312	3161
927.419	3241
927.525	3218
927.631	3256
927.737	3211
927.843	3176
927.95	3036
928.056	3199
928.162	3260
928.267	3306
928.373	3930
928.479	3340
928.585	3116
928.69	3275
928.796	3283
928.901	3211
929.007	3077
929.112	3268
929.218	3207
929.323	3188
929.428	3203
929.533	3336
929.638	3207
929.743	3214
929.848	3325
929.953	3237
930.058	3184
930.163	3020
930.267	3097
930.372	3233
930.477	3077
930.581	3363
930.685	3199
930.79	3081
930.894	3123
930.998	3131
931.103	3336
931.207	2994
931.311	2956
931.415	2929
931.519	2788
931.623	2849
