Data from test_V78500241_1038.txt Node
Date: Fri Mar 25 16:22:23 CST 2022
User: usil
Spectrometer: V785-0024
Trigger mode: 0
Integration Time (sec): 4.000000E-1
Scans to average: 1
Nonlinearity correction enabled: false
Boxcar width: 0
Storing dark spectrum: false
XAxis mode: Wavelengths
Number of Pixels in Spectrum: 1024
>>>>>Begin Spectral Data<<<<<
801.071	2914
801.214	2956
801.356	2864
801.499	2895
801.641	2880
801.783	2887
801.926	3024
802.068	2948
802.211	2971
802.353	3066
802.496	2986
802.638	3043
802.78	3047
802.923	3104
803.065	3024
803.208	2891
803.35	2891
803.492	2944
803.635	2963
803.777	2762
803.919	2853
804.061	3180
804.204	2944
804.346	2914
804.488	2853
804.63	2956
804.773	2857
804.915	2914
805.057	3058
805.199	2902
805.341	2975
805.483	3051
805.626	3013
805.768	2998
805.91	3039
806.052	3066
806.194	3070
806.336	3218
806.478	3043
806.62	2971
806.762	2994
806.904	3058
807.046	3173
807.188	2960
807.33	2902
807.472	2963
807.614	2944
807.756	2990
807.898	2944
808.04	2899
808.182	2998
808.324	2982
808.465	2902
808.607	2883
808.749	2781
808.891	2842
809.033	2986
809.174	2967
809.316	2868
809.458	2906
809.6	2781
809.741	2766
809.883	2762
810.025	2845
810.166	2868
810.308	2804
810.45	2845
810.591	2762
810.733	2792
810.875	2830
811.016	2781
811.158	2727
811.299	2823
811.441	2929
811.582	2883
811.724	2815
811.865	2815
812.007	2941
812.148	2902
812.29	2876
812.431	2864
812.573	2933
812.714	2910
812.855	3036
812.997	3085
813.138	3135
813.279	3024
813.421	2990
813.562	2948
813.703	2845
813.845	2925
813.986	2769
814.127	2735
814.268	2826
814.41	2842
814.551	2834
814.692	2883
814.833	2804
814.974	2887
815.115	2971
815.256	2861
815.397	2830
815.539	2883
815.68	2746
815.821	2819
815.962	2929
816.103	2922
816.244	2880
816.385	2925
816.526	2963
816.666	2902
816.807	2750
816.948	2853
817.089	2925
817.23	2800
817.371	2800
817.512	2773
817.653	2834
817.793	2804
817.934	2864
818.075	2948
818.216	3001
818.356	3051
818.497	2895
818.638	2811
818.778	2823
818.919	2788
819.06	2781
819.2	2899
819.341	2842
819.481	2804
819.622	2941
819.762	3097
819.903	3055
820.043	2925
820.184	2910
820.324	2883
820.465	3005
820.605	3032
820.746	3013
820.886	2922
821.026	3119
821.167	3146
821.307	3287
821.447	3272
821.588	3214
821.728	3226
821.868	3188
822.008	3104
822.149	3207
822.289	3199
822.429	3043
822.569	3100
822.709	3192
822.849	2994
822.99	3074
823.13	3135
823.27	3176
823.41	3116
823.55	3169
823.69	3131
823.83	3188
823.97	3097
824.11	2960
824.25	2982
824.389	3108
824.529	3093
824.669	3074
824.809	3214
824.949	3272
825.089	3192
825.228	3146
825.368	3013
825.508	2941
825.648	2967
825.787	3013
825.927	2960
826.067	2971
826.206	2960
826.346	3005
826.485	3077
826.625	3093
826.765	3253
826.904	3203
827.044	2994
827.183	2922
827.323	2887
827.462	2967
827.601	2880
827.741	2925
827.88	2880
828.02	2842
828.159	2960
828.298	3058
828.437	3108
828.577	3039
828.716	3245
828.855	3070
828.994	2910
829.134	2887
829.273	2914
829.412	2811
829.551	2872
829.69	2922
829.829	2975
829.968	3097
830.107	3017
830.246	3024
830.385	2891
830.524	2891
830.663	2815
830.802	2705
830.941	2659
831.08	2674
831.219	2769
831.357	2758
831.496	2922
831.635	2705
831.774	2613
831.913	2651
832.051	2549
832.19	2533
832.329	2659
832.467	2518
832.606	2476
832.744	2575
832.883	2594
833.022	2598
833.16	2632
833.299	2705
833.437	2693
833.576	2678
833.714	2727
833.852	2750
833.991	2750
834.129	2864
834.267	2819
834.406	2796
834.544	2853
834.682	2872
834.821	2880
834.959	3074
835.097	2883
835.235	3116
835.373	2986
835.511	2990
835.65	2918
835.788	2952
835.926	2826
836.064	2785
836.202	2819
836.34	3077
836.478	3119
836.615	3066
836.753	3123
836.891	3199
837.029	3150
837.167	3100
837.305	3085
837.443	3028
837.58	2956
837.718	3104
837.856	3089
837.993	3036
838.131	3150
838.269	3085
838.406	3093
838.544	3066
838.681	2929
838.819	2891
838.956	2796
839.094	2815
839.231	2933
839.369	3001
839.506	3329
839.643	3192
839.781	3013
839.918	2941
840.055	3047
840.193	3036
840.33	3039
840.467	3081
840.604	3142
840.742	3401
840.879	3051
841.016	3032
841.153	3097
841.29	3287
841.427	3272
841.564	3245
841.701	3306
841.838	3180
841.975	3138
842.112	3203
842.249	3093
842.385	3009
842.522	3268
842.659	3100
842.796	3074
842.933	3116
843.069	3028
843.206	3051
843.343	3188
843.479	3093
843.616	3161
843.752	2861
843.889	2891
844.025	3055
844.162	2895
844.298	3074
844.435	2929
844.571	2906
844.708	3070
844.844	3188
844.98	3226
845.117	3184
845.253	3047
845.389	3020
845.525	3100
845.661	3058
845.798	3005
845.934	3085
846.07	3047
846.206	3226
846.342	3283
846.478	3249
846.614	3077
846.75	3070
846.886	3009
847.022	3245
847.158	3127
847.294	3165
847.429	3218
847.565	3188
847.701	3492
847.837	3013
847.972	3047
848.108	3199
848.244	3142
848.379	3009
848.515	2883
848.65	2925
848.786	2967
848.921	3036
849.057	3081
849.192	3127
849.328	3093
849.463	3097
849.598	3024
849.734	2975
849.869	2986
850.004	2929
850.14	2929
850.275	2883
850.41	2842
850.545	2876
850.68	2929
850.815	2948
850.95	2982
851.085	3199
851.22	3089
851.355	3001
851.49	2986
851.625	3028
851.76	2967
851.895	2933
852.03	2895
852.165	3039
852.299	3112
852.434	3195
852.569	3150
852.703	3199
852.838	3211
852.973	3310
853.107	3294
853.242	3157
853.376	3074
853.511	2975
853.645	3070
853.78	3230
853.914	3104
854.048	3108
854.183	3085
854.317	3127
854.451	3306
854.585	3104
854.72	3066
854.854	3195
854.988	3013
855.122	3085
855.256	2967
855.39	3085
855.524	3195
855.658	3173
855.792	3116
855.926	3180
856.06	3226
856.194	3226
856.327	3150
856.461	3055
856.595	3077
856.729	3093
856.862	3203
856.996	3119
857.13	3195
857.263	3222
857.397	3321
857.53	3112
857.664	3165
857.797	3256
857.931	3241
858.064	3138
858.197	3207
858.331	3104
858.464	3100
858.597	3024
858.731	3142
858.864	3108
858.997	3093
859.13	3154
859.263	3207
859.396	3207
859.529	3112
859.662	3112
859.795	3043
859.928	3127
860.061	3249
860.194	3245
860.327	3104
860.46	3100
860.592	3230
860.725	3241
860.858	3245
860.99	3058
861.123	3036
861.256	3001
861.388	3154
861.521	3797
861.653	3039
861.786	2948
861.918	2998
862.05	3074
862.183	3089
862.315	3161
862.447	3188
862.58	3093
862.712	2925
862.844	2872
862.976	3005
863.108	2986
863.24	3386
863.372	2910
863.504	2994
863.636	2929
863.768	3058
863.9	2986
864.032	2895
864.164	2944
864.296	3032
864.428	3104
864.559	3112
864.691	3066
864.823	3055
864.954	3020
865.086	3032
865.217	3013
865.349	2929
865.48	2971
865.612	3020
865.743	3104
865.875	2963
866.006	2918
866.137	2975
866.269	2941
866.4	2941
866.531	2918
866.662	2876
866.793	2891
866.924	2883
867.055	2971
867.186	2922
867.317	2891
867.448	2883
867.579	2857
867.71	2826
867.841	2807
867.972	2887
868.103	2883
868.233	2861
868.364	2880
868.495	2891
868.625	3085
868.756	3169
868.886	2944
869.017	2990
869.147	3173
869.278	3116
869.408	3047
869.539	3017
869.669	3093
869.799	3047
869.929	3127
870.06	3112
870.19	3279
870.32	3329
870.45	3317
870.58	3378
870.71	3428
870.84	3416
870.97	3283
871.1	3249
871.23	3500
871.36	3458
871.489	3287
871.619	3401
871.749	3420
871.879	3428
872.008	3515
872.138	3332
872.267	3253
872.397	3077
872.526	3077
872.656	3024
872.785	3093
872.915	3260
873.044	3283
873.173	3169
873.303	3207
873.432	3245
873.561	3233
873.69	3146
873.819	3173
873.948	3199
874.077	3097
874.206	3028
874.335	3097
874.464	3230
874.593	3325
874.722	3249
874.851	3393
874.979	3386
875.108	3321
875.237	3211
875.365	3142
875.494	3161
875.623	3253
875.751	3043
875.88	3108
876.008	3180
876.136	3253
876.265	3355
876.393	3534
876.521	3393
876.65	3389
876.778	3340
876.906	3272
877.034	3184
877.162	3241
877.29	3188
877.418	3192
877.546	3256
877.674	3260
877.802	3226
877.93	3161
878.058	3146
878.185	3108
878.313	3192
878.441	3188
878.568	3043
878.696	3173
878.824	3237
878.951	3310
879.079	3431
879.206	3618
879.333	3416
879.461	3340
879.588	3374
879.715	3469
879.842	3591
879.97	3344
880.097	3146
880.224	3127
880.351	3207
880.478	3173
880.605	3195
880.732	3195
880.859	3488
880.986	3310
881.112	3329
881.239	3226
881.366	3119
881.493	3039
881.619	3032
881.746	3055
881.872	3039
881.999	3089
882.125	3150
882.252	3256
882.378	3302
882.505	3450
882.631	3249
882.757	3173
882.883	3192
883.01	3237
883.136	3161
883.262	3081
883.388	3119
883.514	3348
883.64	3405
883.766	3367
883.892	3138
884.018	3268
884.143	3386
884.269	3561
884.395	3199
884.52	3165
884.646	3157
884.772	3085
884.897	3093
885.023	3184
885.148	3325
885.274	3412
885.399	3359
885.524	3283
885.65	3249
885.775	3294
885.9	3264
886.025	3397
886.15	3351
886.275	3272
886.4	3226
886.525	3302
886.65	3253
886.775	3310
886.9	3488
887.025	3614
887.149	3386
887.274	3230
887.399	3176
887.523	3211
887.648	3211
887.773	3165
887.897	3374
888.021	3386
888.146	3332
888.27	3424
888.395	3534
888.519	3443
888.643	3477
888.767	3447
888.891	3291
889.015	3218
889.139	3275
889.263	3237
889.387	3363
889.511	3530
889.635	3435
889.759	3317
889.883	3344
890.006	3382
890.13	3469
890.254	3272
890.377	3351
890.501	3195
890.624	3184
890.748	3268
890.871	3211
890.995	3119
891.118	3074
891.241	3199
891.364	3218
891.488	3317
891.611	3165
891.734	3233
891.857	3279
891.98	3237
892.103	3336
892.226	3256
892.349	3199
892.471	3089
892.594	3195
892.717	3298
892.839	3245
892.962	3287
893.085	3340
893.207	3294
893.33	3154
893.452	3233
893.575	3367
893.697	3249
893.819	3511
893.941	3549
894.064	3439
894.186	3268
894.308	3249
894.43	3424
894.552	3568
894.674	3466
894.796	3325
894.918	3302
895.04	3306
895.161	3450
895.283	3382
895.405	3302
895.526	3367
895.648	3428
895.769	3458
895.891	3473
896.012	3439
896.134	3477
896.255	3439
896.376	3363
896.498	3355
896.619	3412
896.74	3378
896.861	3378
896.982	3694
897.103	3865
897.224	3606
897.345	3523
897.466	3424
897.587	3450
897.708	3633
897.828	3534
897.949	3454
898.07	3351
898.19	3420
898.311	3599
898.431	3435
898.552	3538
898.672	3603
898.792	3595
898.913	3519
899.033	3439
899.153	3291
899.273	3218
899.393	3283
899.513	3291
899.633	3336
899.753	3329
899.873	3321
899.993	3378
900.113	3344
900.232	3416
900.352	3363
900.472	3275
900.591	3199
900.711	3313
900.83	3241
900.95	3401
901.069	3504
901.189	3340
901.308	3188
901.427	3138
901.546	3176
901.665	3264
901.784	3329
901.904	3184
902.023	3127
902.141	3009
902.26	2979
902.379	3138
902.498	3051
902.617	3039
902.735	3214
902.854	3256
902.973	3226
903.091	3047
903.21	3100
903.328	3142
903.446	3119
903.565	3100
903.683	3199
903.801	3135
903.919	3241
904.038	3306
904.156	3199
904.274	3306
904.392	3214
904.51	3249
904.627	3321
904.745	3405
904.863	3485
904.981	3237
905.098	3184
905.216	3195
905.334	3287
905.451	3306
905.569	3268
905.686	3405
905.803	3450
905.921	3268
906.038	3454
906.155	3359
906.272	3306
906.389	3302
906.506	3222
906.623	3237
906.74	3287
906.857	3169
906.974	3237
907.091	3458
907.208	3557
907.324	3477
907.441	3393
907.557	3233
907.674	3241
907.79	3203
907.907	3260
908.023	3370
908.139	3336
908.256	3313
908.372	3374
908.488	3386
908.604	3222
908.72	3218
908.836	3298
908.952	3294
909.068	3291
909.184	3485
909.3	3401
909.415	3469
909.531	3485
909.647	3241
909.762	3302
909.878	3256
909.993	3363
910.108	3351
910.224	3336
910.339	3443
910.454	3359
910.57	3298
910.685	3226
910.8	3591
910.915	3534
911.03	3412
911.145	3249
911.259	3264
911.374	3344
911.489	3264
911.604	3218
911.718	3138
911.833	3135
911.947	3020
912.062	3009
912.176	3188
912.291	3165
912.405	3226
912.519	3424
912.633	3477
912.748	3306
912.862	3283
912.976	3157
913.09	3058
913.204	3119
913.318	3203
913.431	3332
913.545	3310
913.659	3431
913.772	3355
913.886	3218
914	3211
914.113	3359
914.226	3409
914.34	3386
914.453	3211
914.566	3416
914.68	3302
914.793	3317
914.906	3116
915.019	3081
915.132	3032
915.245	3188
915.358	3222
915.47	3195
915.583	3253
915.696	3325
915.809	3424
915.921	3439
916.034	3287
916.146	3253
916.259	3233
916.371	3382
916.483	3370
916.595	3294
916.708	3321
916.82	3340
916.932	3344
917.044	3355
917.156	3367
917.268	3222
917.38	3275
917.491	3317
917.603	3393
917.715	3462
917.826	3481
917.938	3397
918.049	3302
918.161	3401
918.272	3557
918.384	3584
918.495	3496
918.606	3317
918.717	3245
918.828	3332
918.939	3431
919.05	3287
919.161	3374
919.272	3195
919.383	3294
919.494	3534
919.604	3679
919.715	3473
919.826	3409
919.936	3443
920.047	3584
920.157	3523
920.267	3762
920.378	3625
920.488	3561
920.598	3800
920.708	3941
920.818	3823
920.928	3873
921.038	3979
921.148	4013
921.258	3698
921.368	3614
921.477	3603
921.587	3519
921.697	3462
921.806	3641
921.916	3492
922.025	3348
922.134	3374
922.244	3306
922.353	3435
922.462	3260
922.571	3230
922.68	3089
922.789	3097
922.898	3169
923.007	3112
923.116	3203
923.224	3173
923.333	3180
923.442	3093
923.55	3081
923.659	3180
923.767	3207
923.876	3138
923.984	3249
924.092	3104
924.201	3180
924.309	3230
924.417	3264
924.525	3195
924.633	3237
924.741	4177
924.849	3032
924.956	3272
925.064	3077
925.172	3009
925.279	3112
925.387	3233
925.494	3173
925.602	3332
925.709	3306
925.816	3150
925.924	3306
926.031	3367
926.138	3298
926.245	3359
926.352	3233
926.459	3389
926.566	3458
926.673	3317
926.779	3249
926.886	3214
926.993	3142
927.099	3119
927.206	3104
927.312	3085
927.419	3211
927.525	3222
927.631	3298
927.737	3169
927.843	3131
927.95	3028
928.056	3097
928.162	3176
928.267	3233
928.373	3869
928.479	3268
928.585	3062
928.69	3195
928.796	3260
928.901	3150
929.007	3020
929.112	3154
929.218	3176
929.323	3138
929.428	3116
929.533	3321
929.638	3131
929.743	3173
929.848	3268
929.953	3195
930.058	3138
930.163	2998
930.267	3039
930.372	3173
930.477	3036
930.581	3325
930.685	3184
930.79	3013
930.894	3131
930.998	3085
931.103	3283
931.207	2952
931.311	2918
931.415	2891
931.519	2785
931.623	2819
