Data from test_V78500241_738.txt Node
Date: Fri Mar 25 16:20:18 CST 2022
User: usil
Spectrometer: V785-0024
Trigger mode: 0
Integration Time (sec): 4.000000E-1
Scans to average: 1
Nonlinearity correction enabled: false
Boxcar width: 0
Storing dark spectrum: false
XAxis mode: Wavelengths
Number of Pixels in Spectrum: 1024
>>>>>Begin Spectral Data<<<<<
801.071	2922
801.214	2948
801.356	2864
801.499	2887
801.641	2872
801.783	2941
801.926	3028
802.068	3005
802.211	3020
802.353	3005
802.496	3005
802.638	3001
802.78	3047
802.923	3089
803.065	3005
803.208	2864
803.35	2910
803.492	2960
803.635	2925
803.777	2796
803.919	2872
804.061	3199
804.204	2933
804.346	2902
804.488	2819
804.63	3009
804.773	2876
804.915	2914
805.057	3051
805.199	2956
805.341	2982
805.483	3062
805.626	2982
805.768	2952
805.91	3055
806.052	3097
806.194	3043
806.336	3203
806.478	3028
806.62	2975
806.762	2960
806.904	3036
807.046	3161
807.188	2952
807.33	2948
807.472	2948
807.614	2922
807.756	3001
807.898	2864
808.04	2876
808.182	2948
808.324	2929
808.465	2853
808.607	2876
808.749	2819
808.891	2826
809.033	2971
809.174	2948
809.316	2902
809.458	2914
809.6	2746
809.741	2766
809.883	2769
810.025	2838
810.166	2842
810.308	2842
810.45	2823
810.591	2739
810.733	2739
810.875	2853
811.016	2800
811.158	2746
811.299	2811
811.441	2918
811.582	2891
811.724	2830
811.865	2845
812.007	2880
812.148	2895
812.29	2826
812.431	2868
812.573	2937
812.714	2941
812.855	3013
812.997	3043
813.138	3131
813.279	3013
813.421	2982
813.562	2956
813.703	2899
813.845	2876
813.986	2777
814.127	2727
814.268	2807
814.41	2849
814.551	2785
814.692	2876
814.833	2838
814.974	2914
815.115	2933
815.256	2853
815.397	2792
815.539	2842
815.68	2762
815.821	2792
815.962	2895
816.103	2922
816.244	2868
816.385	2834
816.526	2956
816.666	2906
816.807	2724
816.948	2857
817.089	2872
817.23	2853
817.371	2773
817.512	2804
817.653	2864
817.793	2796
817.934	2842
818.075	2967
818.216	2990
818.356	3032
818.497	2883
818.638	2754
818.778	2800
818.919	2785
819.06	2766
819.2	2838
819.341	2807
819.481	2769
819.622	2925
819.762	3089
819.903	3039
820.043	2948
820.184	2880
820.324	2914
820.465	3047
820.605	2982
820.746	3013
820.886	2937
821.026	3089
821.167	3150
821.307	3272
821.447	3253
821.588	3230
821.728	3192
821.868	3184
822.008	3074
822.149	3165
822.289	3230
822.429	3081
822.569	3085
822.709	3173
822.849	3039
822.99	3070
823.13	3154
823.27	3173
823.41	3116
823.55	3161
823.69	3135
823.83	3192
823.97	3077
824.11	3020
824.25	2998
824.389	3077
824.529	3097
824.669	3055
824.809	3222
824.949	3218
825.089	3245
825.228	3116
825.368	3017
825.508	2956
825.648	2967
825.787	2986
825.927	3001
826.067	2975
826.206	2941
826.346	3024
826.485	3062
826.625	3108
826.765	3264
826.904	3176
827.044	2971
827.183	2956
827.323	2864
827.462	2944
827.601	2902
827.741	2948
827.88	2941
828.02	2861
828.159	2952
828.298	3028
828.437	3112
828.577	2994
828.716	3207
828.855	3100
828.994	2925
829.134	2853
829.273	2918
829.412	2887
829.551	2845
829.69	2906
829.829	2994
829.968	3104
830.107	3020
830.246	3036
830.385	2925
830.524	2906
830.663	2800
830.802	2720
830.941	2655
831.08	2640
831.219	2754
831.357	2758
831.496	2933
831.635	2720
831.774	2651
831.913	2648
832.051	2518
832.19	2583
832.329	2697
832.467	2518
832.606	2465
832.744	2590
832.883	2575
833.022	2560
833.16	2632
833.299	2686
833.437	2697
833.576	2678
833.714	2697
833.852	2708
833.991	2754
834.129	2792
834.267	2868
834.406	2781
834.544	2849
834.682	2891
834.821	2864
834.959	3051
835.097	2868
835.235	3058
835.373	3001
835.511	3001
835.65	2941
835.788	2944
835.926	2861
836.064	2788
836.202	2849
836.34	3066
836.478	3135
836.615	3032
836.753	3127
836.891	3192
837.029	3176
837.167	3108
837.305	3013
837.443	3036
837.58	2963
837.718	3123
837.856	3051
837.993	3013
838.131	3112
838.269	3085
838.406	3077
838.544	3074
838.681	2944
838.819	2925
838.956	2792
839.094	2815
839.231	2910
839.369	3051
839.506	3382
839.643	3150
839.781	2998
839.918	2963
840.055	3028
840.193	3032
840.33	3062
840.467	3074
840.604	3131
840.742	3355
840.879	2998
841.016	3055
841.153	3097
841.29	3344
841.427	3306
841.564	3237
841.701	3302
841.838	3226
841.975	3176
842.112	3192
842.249	3089
842.385	3017
842.522	3260
842.659	3104
842.796	3062
842.933	3055
843.069	3017
843.206	3055
843.343	3203
843.479	3119
843.616	3123
843.752	2880
843.889	2834
844.025	3081
844.162	2845
844.298	3089
844.435	2963
844.571	2876
844.708	3036
844.844	3192
844.98	3222
845.117	3188
845.253	3032
845.389	3009
845.525	3081
845.661	3055
845.798	2994
845.934	3112
846.07	3051
846.206	3195
846.342	3321
846.478	3192
846.614	3097
846.75	3028
846.886	3009
847.022	3264
847.158	3108
847.294	3218
847.429	3253
847.565	3192
847.701	3473
847.837	3062
847.972	2982
848.108	3119
848.244	3150
848.379	2975
848.515	2925
848.65	2929
848.786	2941
848.921	3001
849.057	3062
849.192	3104
849.328	3077
849.463	3135
849.598	3085
849.734	3032
849.869	2929
850.004	2933
850.14	2971
850.275	2937
850.41	2792
850.545	2918
850.68	2922
850.815	2960
850.95	2979
851.085	3173
851.22	3093
851.355	3009
851.49	2979
851.625	3013
851.76	2956
851.895	2929
852.03	2891
852.165	3024
852.299	3116
852.434	3180
852.569	3176
852.703	3176
852.838	3222
852.973	3302
853.107	3351
853.242	3127
853.376	3108
853.511	2975
853.645	3017
853.78	3214
853.914	3108
854.048	3089
854.183	3089
854.317	3112
854.451	3268
854.585	3116
854.72	3081
854.854	3192
854.988	3036
855.122	3077
855.256	2960
855.39	3116
855.524	3199
855.658	3131
855.792	3157
855.926	3161
856.06	3195
856.194	3264
856.327	3150
856.461	3066
856.595	3081
856.729	3081
856.862	3222
856.996	3146
857.13	3195
857.263	3264
857.397	3272
857.53	3108
857.664	3199
857.797	3233
857.931	3241
858.064	3161
858.197	3222
858.331	3142
858.464	3062
858.597	3024
858.731	3081
858.864	3150
858.997	3066
859.13	3119
859.263	3165
859.396	3192
859.529	3097
859.662	3119
859.795	3036
859.928	3074
860.061	3226
860.194	3275
860.327	3138
860.46	3074
860.592	3203
860.725	3245
860.858	3195
860.99	3089
861.123	3020
861.256	3013
861.388	3135
861.521	3827
861.653	2990
861.786	2956
861.918	2986
862.05	3013
862.183	3089
862.315	3123
862.447	3195
862.58	3077
862.712	2941
862.844	2883
862.976	2998
863.108	3017
863.24	3401
863.372	2849
863.504	2971
863.636	2944
863.768	3062
863.9	2960
864.032	2914
864.164	2937
864.296	2998
864.428	3070
864.559	3116
864.691	3074
864.823	3032
864.954	3032
865.086	3020
865.217	2975
865.349	2963
865.48	2960
865.612	3051
865.743	3081
865.875	2986
866.006	2941
866.137	2986
866.269	2967
866.4	2906
866.531	2895
866.662	2876
866.793	2872
866.924	2895
867.055	2948
867.186	2906
867.317	2830
867.448	2830
867.579	2849
867.71	2804
867.841	2804
867.972	2918
868.103	2899
868.233	2887
868.364	2853
868.495	2876
868.625	3070
868.756	3135
868.886	2960
869.017	2994
869.147	3142
869.278	3146
869.408	3058
869.539	2986
869.669	3074
869.799	3017
869.929	3074
870.06	3093
870.19	3329
870.32	3256
870.45	3291
870.58	3374
870.71	3458
870.84	3428
870.97	3302
871.1	3222
871.23	3469
871.36	3454
871.489	3359
871.619	3386
871.749	3389
871.879	3447
872.008	3424
872.138	3340
872.267	3279
872.397	3135
872.526	3138
872.656	2998
872.785	3077
872.915	3226
873.044	3317
873.173	3203
873.303	3237
873.432	3283
873.561	3256
873.69	3131
873.819	3131
873.948	3226
874.077	3100
874.206	3013
874.335	3077
874.464	3192
874.593	3317
874.722	3195
874.851	3409
874.979	3329
875.108	3310
875.237	3218
875.365	3131
875.494	3146
875.623	3233
875.751	3085
875.88	3119
876.008	3173
876.136	3176
876.265	3325
876.393	3488
876.521	3374
876.65	3386
876.778	3283
876.906	3188
877.034	3211
877.162	3230
877.29	3180
877.418	3256
877.546	3233
877.674	3245
877.802	3230
877.93	3203
878.058	3146
878.185	3108
878.313	3169
878.441	3188
878.568	3028
878.696	3154
878.824	3268
878.951	3325
879.079	3439
879.206	3629
879.333	3466
879.461	3355
879.588	3336
879.715	3431
879.842	3576
879.97	3367
880.097	3207
880.224	3108
880.351	3180
880.478	3169
880.605	3192
880.732	3195
880.859	3488
880.986	3260
881.112	3283
881.239	3176
881.366	3112
881.493	2998
881.619	3017
881.746	3058
881.872	3058
881.999	3043
882.125	3119
882.252	3203
882.378	3245
882.505	3435
882.631	3260
882.757	3138
882.883	3154
883.01	3207
883.136	3127
883.262	3070
883.388	3051
883.514	3283
883.64	3374
883.766	3241
883.892	3184
884.018	3233
884.143	3393
884.269	3504
884.395	3173
884.52	3138
884.646	3184
884.772	3077
884.897	3039
885.023	3180
885.148	3340
885.274	3374
885.399	3336
885.524	3264
885.65	3264
885.775	3253
885.9	3291
886.025	3443
886.15	3306
886.275	3287
886.4	3245
886.525	3268
886.65	3268
886.775	3249
886.9	3473
887.025	3610
887.149	3405
887.274	3260
887.399	3150
887.523	3192
887.648	3188
887.773	3230
887.897	3359
888.021	3439
888.146	3272
888.27	3424
888.395	3492
888.519	3458
888.643	3450
888.767	3473
888.891	3264
889.015	3241
889.139	3306
889.263	3260
889.387	3389
889.511	3523
889.635	3466
889.759	3302
889.883	3275
890.006	3439
890.13	3504
890.254	3279
890.377	3336
890.501	3222
890.624	3211
890.748	3359
890.871	3214
890.995	3104
891.118	3116
891.241	3214
891.364	3249
891.488	3329
891.611	3256
891.734	3260
891.857	3332
891.98	3294
892.103	3359
892.226	3329
892.349	3268
892.471	3138
892.594	3260
892.717	3321
892.839	3272
892.962	3321
893.085	3393
893.207	3332
893.33	3192
893.452	3279
893.575	3359
893.697	3249
893.819	3466
893.941	3466
894.064	3511
894.186	3317
894.308	3279
894.43	3477
894.552	3603
894.674	3511
894.796	3260
894.918	3340
895.04	3321
895.161	3435
895.283	3409
895.405	3348
895.526	3401
895.648	3519
895.769	3466
895.891	3469
896.012	3538
896.134	3492
896.255	3431
896.376	3409
896.498	3409
896.619	3481
896.74	3424
896.861	3466
896.982	3781
897.103	3907
897.224	3633
897.345	3545
897.466	3462
897.587	3530
897.708	3656
897.828	3599
897.949	3511
898.07	3401
898.19	3443
898.311	3603
898.431	3496
898.552	3511
898.672	3660
898.792	3614
898.913	3557
899.033	3412
899.153	3325
899.273	3249
899.393	3313
899.513	3279
899.633	3355
899.753	3336
899.873	3389
899.993	3431
900.113	3386
900.232	3405
900.352	3370
900.472	3332
900.591	3272
900.711	3325
900.83	3294
900.95	3397
901.069	3553
901.189	3363
901.308	3256
901.427	3203
901.546	3176
901.665	3332
901.784	3367
901.904	3283
902.023	3203
902.141	3058
902.26	3070
902.379	3188
902.498	3123
902.617	3093
902.735	3256
902.854	3294
902.973	3226
903.091	3074
903.21	3119
903.328	3154
903.446	3157
903.565	3154
903.683	3264
903.801	3142
903.919	3268
904.038	3310
904.156	3211
904.274	3302
904.392	3275
904.51	3382
904.627	3355
904.745	3435
904.863	3530
904.981	3283
905.098	3195
905.216	3230
905.334	3340
905.451	3344
905.569	3351
905.686	3435
905.803	3496
905.921	3348
906.038	3443
906.155	3382
906.272	3283
906.389	3329
906.506	3245
906.623	3302
906.74	3291
906.857	3226
906.974	3283
907.091	3485
907.208	3603
907.324	3515
907.441	3424
907.557	3275
907.674	3253
907.79	3260
907.907	3298
908.023	3428
908.139	3389
908.256	3367
908.372	3401
908.488	3382
908.604	3283
908.72	3260
908.836	3294
908.952	3298
909.068	3367
909.184	3515
909.3	3416
909.415	3538
909.531	3500
909.647	3302
909.762	3355
909.878	3283
909.993	3412
910.108	3393
910.224	3359
910.339	3439
910.454	3344
910.57	3317
910.685	3313
910.8	3614
910.915	3549
911.03	3466
911.145	3294
911.259	3302
911.374	3340
911.489	3306
911.604	3256
911.718	3157
911.833	3180
911.947	3028
912.062	3020
912.176	3180
912.291	3226
912.405	3245
912.519	3477
912.633	3485
912.748	3336
912.862	3268
912.976	3256
913.09	3085
913.204	3211
913.318	3233
913.431	3348
913.545	3386
913.659	3439
913.772	3378
913.886	3218
914	3226
914.113	3405
914.226	3439
914.34	3397
914.453	3294
914.566	3477
914.68	3348
914.793	3355
914.906	3195
915.019	3127
915.132	3097
915.245	3226
915.358	3249
915.47	3268
915.583	3279
915.696	3329
915.809	3469
915.921	3428
916.034	3313
916.146	3245
916.259	3264
916.371	3401
916.483	3431
916.595	3302
916.708	3367
916.82	3374
916.932	3382
917.044	3382
917.156	3397
917.268	3275
917.38	3313
917.491	3336
917.603	3428
917.715	3500
917.826	3519
917.938	3443
918.049	3264
918.161	3485
918.272	3580
918.384	3603
918.495	3523
918.606	3340
918.717	3321
918.828	3435
918.939	3447
919.05	3340
919.161	3374
919.272	3237
919.383	3287
919.494	3496
919.604	3679
919.715	3568
919.826	3462
919.936	3462
920.047	3625
920.157	3568
920.267	3789
920.378	3629
920.488	3595
920.598	3842
920.708	3994
920.818	3842
920.928	3861
921.038	4067
921.148	4032
921.258	3690
921.368	3648
921.477	3576
921.587	3595
921.697	3488
921.806	3648
921.916	3534
922.025	3363
922.134	3382
922.244	3325
922.353	3466
922.462	3283
922.571	3237
922.68	3138
922.789	3116
922.898	3165
923.007	3104
923.116	3222
923.224	3192
923.333	3218
923.442	3127
923.55	3135
923.659	3154
923.767	3279
923.876	3150
923.984	3275
924.092	3169
924.201	3256
924.309	3272
924.417	3264
924.525	3233
924.633	3249
924.741	4223
924.849	3097
924.956	3256
925.064	3104
925.172	3036
925.279	3112
925.387	3245
925.494	3192
925.602	3397
925.709	3348
925.816	3199
925.924	3313
926.031	3382
926.138	3393
926.245	3420
926.352	3260
926.459	3473
926.566	3462
926.673	3348
926.779	3272
926.886	3260
926.993	3173
927.099	3161
927.206	3165
927.312	3169
927.419	3279
927.525	3218
927.631	3260
927.737	3150
927.843	3131
927.95	3066
928.056	3127
928.162	3180
928.267	3275
928.373	3911
928.479	3336
928.585	3055
928.69	3256
928.796	3306
928.901	3173
929.007	3097
929.112	3245
929.218	3176
929.323	3161
929.428	3165
929.533	3359
929.638	3138
929.743	3249
929.848	3253
929.953	3211
930.058	3165
930.163	3020
930.267	3093
930.372	3211
930.477	3093
930.581	3332
930.685	3195
930.79	3066
930.894	3135
930.998	3108
931.103	3294
931.207	2979
931.311	2967
931.415	2952
931.519	2807
931.623	2864
