Data from test_V78500241_1816.txt Node
Date: Fri Mar 25 16:27:47 CST 2022
User: usil
Spectrometer: V785-0024
Trigger mode: 0
Integration Time (sec): 4.000000E-1
Scans to average: 1
Nonlinearity correction enabled: false
Boxcar width: 0
Storing dark spectrum: false
XAxis mode: Wavelengths
Number of Pixels in Spectrum: 1024
>>>>>Begin Spectral Data<<<<<
801.071	2944
801.214	2963
801.356	2838
801.499	2876
801.641	2891
801.783	2906
801.926	3043
802.068	2933
802.211	3024
802.353	2982
802.496	2944
802.638	3005
802.78	3024
802.923	3077
803.065	2979
803.208	2872
803.35	2933
803.492	2941
803.635	2941
803.777	2769
803.919	2864
804.061	3173
804.204	2963
804.346	2887
804.488	2868
804.63	2990
804.773	2857
804.915	2861
805.057	3043
805.199	2906
805.341	2990
805.483	3009
805.626	2975
805.768	2952
805.91	3089
806.052	3116
806.194	3013
806.336	3222
806.478	3017
806.62	2929
806.762	3005
806.904	3032
807.046	3154
807.188	2963
807.33	2933
807.472	2994
807.614	2899
807.756	2979
807.898	2929
808.04	2899
808.182	2975
808.324	2944
808.465	2883
808.607	2899
808.749	2777
808.891	2823
809.033	2933
809.174	2956
809.316	2868
809.458	2864
809.6	2746
809.741	2766
809.883	2758
810.025	2845
810.166	2842
810.308	2838
810.45	2864
810.591	2796
810.733	2754
810.875	2811
811.016	2769
811.158	2735
811.299	2804
811.441	2925
811.582	2899
811.724	2804
811.865	2819
812.007	2914
812.148	2887
812.29	2830
812.431	2880
812.573	2929
812.714	2944
812.855	3036
812.997	3055
813.138	3119
813.279	3017
813.421	2960
813.562	2960
813.703	2887
813.845	2849
813.986	2792
814.127	2746
814.268	2819
814.41	2849
814.551	2800
814.692	2876
814.833	2838
814.974	2872
815.115	2960
815.256	2826
815.397	2842
815.539	2883
815.68	2815
815.821	2796
815.962	2975
816.103	2922
816.244	2868
816.385	2876
816.526	2979
816.666	2876
816.807	2754
816.948	2826
817.089	2956
817.23	2887
817.371	2769
817.512	2788
817.653	2830
817.793	2807
817.934	2872
818.075	2967
818.216	3009
818.356	3005
818.497	2861
818.638	2781
818.778	2804
818.919	2800
819.06	2746
819.2	2880
819.341	2792
819.481	2788
819.622	2925
819.762	3089
819.903	3028
820.043	2925
820.184	2895
820.324	2891
820.465	3001
820.605	3028
820.746	3013
820.886	2918
821.026	3112
821.167	3123
821.307	3260
821.447	3287
821.588	3237
821.728	3203
821.868	3176
822.008	3097
822.149	3237
822.289	3256
822.429	3081
822.569	3058
822.709	3176
822.849	3047
822.99	3062
823.13	3150
823.27	3199
823.41	3108
823.55	3150
823.69	3142
823.83	3233
823.97	3066
824.11	3009
824.25	2979
824.389	3066
824.529	3127
824.669	3058
824.809	3199
824.949	3230
825.089	3233
825.228	3142
825.368	2998
825.508	2960
825.648	3001
825.787	3020
825.927	3032
826.067	2986
826.206	2925
826.346	3032
826.485	3039
826.625	3081
826.765	3211
826.904	3214
827.044	2994
827.183	2933
827.323	2849
827.462	2975
827.601	2899
827.741	2948
827.88	2925
828.02	2849
828.159	2967
828.298	3028
828.437	3127
828.577	3066
828.716	3222
828.855	3108
828.994	2902
829.134	2849
829.273	2944
829.412	2845
829.551	2872
829.69	2868
829.829	2979
829.968	3116
830.107	2998
830.246	3039
830.385	2948
830.524	2872
830.663	2792
830.802	2724
830.941	2667
831.08	2644
831.219	2781
831.357	2743
831.496	2925
831.635	2697
831.774	2670
831.913	2625
832.051	2545
832.19	2571
832.329	2686
832.467	2522
832.606	2469
832.744	2549
832.883	2590
833.022	2575
833.16	2659
833.299	2670
833.437	2686
833.576	2693
833.714	2739
833.852	2705
833.991	2766
834.129	2830
834.267	2838
834.406	2781
834.544	2891
834.682	2895
834.821	2864
834.959	3074
835.097	2925
835.235	3070
835.373	2990
835.511	3001
835.65	2963
835.788	2963
835.926	2807
836.064	2792
836.202	2868
836.34	3097
836.478	3161
836.615	3032
836.753	3123
836.891	3230
837.029	3138
837.167	3077
837.305	3070
837.443	3024
837.58	2952
837.718	3116
837.856	3036
837.993	3036
838.131	3104
838.269	3142
838.406	3100
838.544	3135
838.681	2925
838.819	2941
838.956	2796
839.094	2845
839.231	2925
839.369	3032
839.506	3355
839.643	3195
839.781	3009
839.918	2982
840.055	3017
840.193	3039
840.33	3066
840.467	3062
840.604	3116
840.742	3382
840.879	3062
841.016	3047
841.153	3112
841.29	3332
841.427	3310
841.564	3264
841.701	3279
841.838	3184
841.975	3184
842.112	3169
842.249	3066
842.385	3024
842.522	3256
842.659	3104
842.796	3089
842.933	3116
843.069	3055
843.206	2990
843.343	3199
843.479	3119
843.616	3195
843.752	2880
843.889	2880
844.025	3089
844.162	2876
844.298	3112
844.435	2948
844.571	2914
844.708	3024
844.844	3180
844.98	3199
845.117	3150
845.253	3028
845.389	3032
845.525	3135
845.661	3097
845.798	2998
845.934	3093
846.07	3047
846.206	3211
846.342	3291
846.478	3218
846.614	3089
846.75	3077
846.886	3028
847.022	3195
847.158	3116
847.294	3180
847.429	3249
847.565	3218
847.701	3466
847.837	3013
847.972	2963
848.108	3161
848.244	3142
848.379	2960
848.515	2918
848.65	2937
848.786	2941
848.921	3062
849.057	3112
849.192	3146
849.328	3089
849.463	3119
849.598	3051
849.734	2967
849.869	2952
850.004	2918
850.14	2956
850.275	2906
850.41	2842
850.545	2891
850.68	2914
850.815	2918
850.95	2952
851.085	3165
851.22	3119
851.355	3020
851.49	2982
851.625	3020
851.76	2982
851.895	2933
852.03	2910
852.165	3051
852.299	3119
852.434	3176
852.569	3150
852.703	3180
852.838	3253
852.973	3329
853.107	3313
853.242	3154
853.376	3100
853.511	2967
853.645	3070
853.78	3237
853.914	3093
854.048	3070
854.183	3077
854.317	3154
854.451	3275
854.585	3127
854.72	3081
854.854	3161
854.988	3074
855.122	3081
855.256	2963
855.39	3081
855.524	3249
855.658	3192
855.792	3165
855.926	3207
856.06	3203
856.194	3291
856.327	3146
856.461	3074
856.595	3058
856.729	3032
856.862	3226
856.996	3165
857.13	3203
857.263	3195
857.397	3260
857.53	3135
857.664	3150
857.797	3199
857.931	3237
858.064	3199
858.197	3203
858.331	3138
858.464	3100
858.597	2975
858.731	3097
858.864	3116
858.997	3100
859.13	3161
859.263	3176
859.396	3226
859.529	3093
859.662	3089
859.795	3051
859.928	3108
860.061	3260
860.194	3291
860.327	3108
860.46	3100
860.592	3218
860.725	3237
860.858	3226
860.99	3077
861.123	3058
861.256	3051
861.388	3154
861.521	3861
861.653	3017
861.786	2956
861.918	3013
862.05	3058
862.183	3089
862.315	3150
862.447	3207
862.58	3085
862.712	2952
862.844	2880
862.976	3032
863.108	3001
863.24	3401
863.372	2864
863.504	2952
863.636	2944
863.768	3028
863.9	2975
864.032	2861
864.164	2963
864.296	2998
864.428	3074
864.559	3089
864.691	3055
864.823	3085
864.954	3032
865.086	3051
865.217	2982
865.349	2933
865.48	3024
865.612	2975
865.743	3188
865.875	2979
866.006	2929
866.137	2990
866.269	2941
866.4	2910
866.531	2937
866.662	2925
866.793	2853
866.924	2891
867.055	2933
867.186	2918
867.317	2883
867.448	2845
867.579	2842
867.71	2823
867.841	2811
867.972	2891
868.103	2914
868.233	2876
868.364	2845
868.495	2918
868.625	3055
868.756	3104
868.886	2994
869.017	3020
869.147	3169
869.278	3173
869.408	3077
869.539	3017
869.669	3097
869.799	3013
869.929	3173
870.06	3123
870.19	3332
870.32	3275
870.45	3256
870.58	3382
870.71	3428
870.84	3431
870.97	3222
871.1	3218
871.23	3477
871.36	3447
871.489	3332
871.619	3409
871.749	3428
871.879	3458
872.008	3428
872.138	3355
872.267	3241
872.397	3123
872.526	3093
872.656	3017
872.785	3062
872.915	3230
873.044	3336
873.173	3233
873.303	3249
873.432	3245
873.561	3237
873.69	3119
873.819	3131
873.948	3157
874.077	3135
874.206	3024
874.335	3116
874.464	3199
874.593	3275
874.722	3203
874.851	3386
874.979	3344
875.108	3332
875.237	3230
875.365	3157
875.494	3188
875.623	3230
875.751	3066
875.88	3127
876.008	3161
876.136	3249
876.265	3393
876.393	3511
876.521	3393
876.65	3370
876.778	3344
876.906	3214
877.034	3180
877.162	3184
877.29	3165
877.418	3245
877.546	3214
877.674	3230
877.802	3253
877.93	3222
878.058	3169
878.185	3116
878.313	3260
878.441	3211
878.568	3070
878.696	3157
878.824	3237
878.951	3275
879.079	3466
879.206	3629
879.333	3382
879.461	3336
879.588	3378
879.715	3469
879.842	3526
879.97	3393
880.097	3176
880.224	3154
880.351	3192
880.478	3226
880.605	3203
880.732	3169
880.859	3481
880.986	3298
881.112	3313
881.239	3180
881.366	3066
881.493	3005
881.619	3013
881.746	3062
881.872	3066
881.999	3066
882.125	3127
882.252	3264
882.378	3268
882.505	3431
882.631	3279
882.757	3184
882.883	3207
883.01	3233
883.136	3169
883.262	3108
883.388	3127
883.514	3313
883.64	3393
883.766	3287
883.892	3214
884.018	3195
884.143	3393
884.269	3530
884.395	3211
884.52	3138
884.646	3203
884.772	3123
884.897	3104
885.023	3207
885.148	3306
885.274	3428
885.399	3344
885.524	3268
885.65	3272
885.775	3287
885.9	3272
886.025	3416
886.15	3370
886.275	3294
886.4	3207
886.525	3291
886.65	3253
886.775	3279
886.9	3469
887.025	3618
887.149	3409
887.274	3237
887.399	3203
887.523	3207
887.648	3180
887.773	3203
887.897	3393
888.021	3382
888.146	3302
888.27	3439
888.395	3515
888.519	3428
888.643	3462
888.767	3458
888.891	3340
889.015	3230
889.139	3245
889.263	3249
889.387	3412
889.511	3515
889.635	3485
889.759	3306
889.883	3275
890.006	3374
890.13	3515
890.254	3260
890.377	3336
890.501	3199
890.624	3161
890.748	3294
890.871	3199
890.995	3116
891.118	3058
891.241	3214
891.364	3230
891.488	3283
891.611	3169
891.734	3230
891.857	3245
891.98	3253
892.103	3325
892.226	3230
892.349	3207
892.471	3108
892.594	3214
892.717	3287
892.839	3218
892.962	3283
893.085	3348
893.207	3321
893.33	3157
893.452	3188
893.575	3313
893.697	3256
893.819	3435
893.941	3507
894.064	3431
894.186	3268
894.308	3287
894.43	3458
894.552	3530
894.674	3447
894.796	3249
894.918	3298
895.04	3233
895.161	3397
895.283	3348
895.405	3298
895.526	3351
895.648	3378
895.769	3397
895.891	3443
896.012	3466
896.134	3462
896.255	3420
896.376	3389
896.498	3348
896.619	3416
896.74	3367
896.861	3386
896.982	3686
897.103	3835
897.224	3591
897.345	3454
897.466	3428
897.587	3496
897.708	3625
897.828	3561
897.949	3462
898.07	3340
898.19	3386
898.311	3580
898.431	3462
898.552	3507
898.672	3622
898.792	3561
898.913	3545
899.033	3420
899.153	3329
899.273	3207
899.393	3264
899.513	3313
899.633	3298
899.753	3306
899.873	3306
899.993	3401
900.113	3329
900.232	3393
900.352	3336
900.472	3317
900.591	3222
900.711	3283
900.83	3287
900.95	3386
901.069	3511
901.189	3355
901.308	3157
901.427	3116
901.546	3218
901.665	3294
901.784	3325
901.904	3211
902.023	3146
902.141	2963
902.26	2975
902.379	3150
902.498	3017
902.617	3074
902.735	3199
902.854	3256
902.973	3207
903.091	3089
903.21	3085
903.328	3146
903.446	3085
903.565	3081
903.683	3203
903.801	3108
903.919	3218
904.038	3275
904.156	3176
904.274	3317
904.392	3253
904.51	3253
904.627	3283
904.745	3397
904.863	3481
904.981	3253
905.098	3157
905.216	3272
905.334	3249
905.451	3310
905.569	3272
905.686	3412
905.803	3424
905.921	3340
906.038	3397
906.155	3336
906.272	3279
906.389	3355
906.506	3230
906.623	3249
906.74	3264
906.857	3207
906.974	3245
907.091	3420
907.208	3545
907.324	3443
907.441	3420
907.557	3222
907.674	3214
907.79	3199
907.907	3272
908.023	3389
908.139	3329
908.256	3329
908.372	3348
908.488	3332
908.604	3226
908.72	3226
908.836	3264
908.952	3260
909.068	3329
909.184	3507
909.3	3393
909.415	3507
909.531	3500
909.647	3298
909.762	3283
909.878	3203
909.993	3355
910.108	3317
910.224	3321
910.339	3416
910.454	3325
910.57	3256
910.685	3253
910.8	3603
910.915	3534
911.03	3447
911.145	3264
911.259	3275
911.374	3313
911.489	3245
911.604	3233
911.718	3146
911.833	3142
911.947	3024
912.062	2994
912.176	3142
912.291	3207
912.405	3184
912.519	3450
912.633	3492
912.748	3325
912.862	3275
912.976	3157
913.09	3062
913.204	3123
913.318	3222
913.431	3317
913.545	3332
913.659	3393
913.772	3344
913.886	3253
914	3207
914.113	3355
914.226	3447
914.34	3351
914.453	3199
914.566	3412
914.68	3310
914.793	3256
914.906	3108
915.019	3089
915.132	3089
915.245	3176
915.358	3218
915.47	3226
915.583	3249
915.696	3275
915.809	3424
915.921	3401
916.034	3283
916.146	3253
916.259	3199
916.371	3378
916.483	3348
916.595	3245
916.708	3329
916.82	3367
916.932	3313
917.044	3348
917.156	3332
917.268	3230
917.38	3283
917.491	3275
917.603	3359
917.715	3428
917.826	3481
917.938	3329
918.049	3268
918.161	3393
918.272	3511
918.384	3576
918.495	3488
918.606	3313
918.717	3294
918.828	3332
918.939	3416
919.05	3302
919.161	3348
919.272	3146
919.383	3302
919.494	3488
919.604	3713
919.715	3473
919.826	3397
919.936	3466
920.047	3595
920.157	3576
920.267	3747
920.378	3622
920.488	3587
920.598	3728
920.708	3918
920.818	3854
920.928	3857
921.038	4051
921.148	4006
921.258	3667
921.368	3633
921.477	3553
921.587	3504
921.697	3469
921.806	3599
921.916	3511
922.025	3344
922.134	3340
922.244	3321
922.353	3462
922.462	3264
922.571	3233
922.68	3131
922.789	3062
922.898	3176
923.007	3051
923.116	3180
923.224	3192
923.333	3169
923.442	3062
923.55	3119
923.659	3112
923.767	3218
923.876	3127
923.984	3279
924.092	3085
924.201	3169
924.309	3176
924.417	3233
924.525	3169
924.633	3218
924.741	4169
924.849	3036
924.956	3249
925.064	3093
925.172	3039
925.279	3074
925.387	3188
925.494	3188
925.602	3378
925.709	3321
925.816	3180
925.924	3287
926.031	3378
926.138	3325
926.245	3389
926.352	3294
926.459	3405
926.566	3462
926.673	3340
926.779	3222
926.886	3298
926.993	3127
927.099	3119
927.206	3089
927.312	3123
927.419	3214
927.525	3188
927.631	3249
927.737	3154
927.843	3093
927.95	3039
928.056	3138
928.162	3161
928.267	3245
928.373	3770
928.479	3302
928.585	3051
928.69	3188
928.796	3264
928.901	3199
929.007	3043
929.112	3184
929.218	3165
929.323	3131
929.428	3138
929.533	3294
929.638	3119
929.743	3195
929.848	3294
929.953	3218
930.058	3154
930.163	3013
930.267	3055
930.372	3199
930.477	3032
930.581	3294
930.685	3195
930.79	3066
930.894	3131
930.998	3089
931.103	3272
931.207	2971
931.311	2975
931.415	2910
931.519	2788
931.623	2807
