Data from test_V78500241_553.txt Node
Date: Fri Mar 25 16:19:02 CST 2022
User: usil
Spectrometer: V785-0024
Trigger mode: 0
Integration Time (sec): 4.000000E-1
Scans to average: 1
Nonlinearity correction enabled: false
Boxcar width: 0
Storing dark spectrum: false
XAxis mode: Wavelengths
Number of Pixels in Spectrum: 1024
>>>>>Begin Spectral Data<<<<<
801.071	2918
801.214	2960
801.356	2880
801.499	2902
801.641	2845
801.783	2918
801.926	3081
802.068	2979
802.211	2982
802.353	3043
802.496	2956
802.638	3028
802.78	3036
802.923	3085
803.065	3013
803.208	2895
803.35	2914
803.492	2925
803.635	2937
803.777	2720
803.919	2880
804.061	3211
804.204	2948
804.346	2899
804.488	2876
804.63	2990
804.773	2845
804.915	2906
805.057	3070
805.199	2914
805.341	2948
805.483	3013
805.626	2994
805.768	2986
805.91	3070
806.052	3085
806.194	3032
806.336	3260
806.478	2998
806.62	2941
806.762	2963
806.904	3051
807.046	3165
807.188	3017
807.33	2899
807.472	3001
807.614	2925
807.756	2975
807.898	2922
808.04	2857
808.182	2967
808.324	2948
808.465	2861
808.607	2895
808.749	2788
808.891	2834
809.033	2960
809.174	2975
809.316	2887
809.458	2845
809.6	2766
809.741	2777
809.883	2739
810.025	2845
810.166	2845
810.308	2823
810.45	2853
810.591	2800
810.733	2773
810.875	2872
811.016	2746
811.158	2731
811.299	2804
811.441	2967
811.582	2918
811.724	2815
811.865	2811
812.007	2910
812.148	2861
812.29	2872
812.431	2895
812.573	2952
812.714	2975
812.855	3036
812.997	3058
813.138	3089
813.279	2979
813.421	2994
813.562	2941
813.703	2868
813.845	2922
813.986	2743
814.127	2727
814.268	2796
814.41	2826
814.551	2826
814.692	2868
814.833	2800
814.974	2830
815.115	2944
815.256	2842
815.397	2868
815.539	2838
815.68	2758
815.821	2823
815.962	2929
816.103	2956
816.244	2868
816.385	2876
816.526	2952
816.666	2929
816.807	2746
816.948	2853
817.089	2895
817.23	2872
817.371	2819
817.512	2796
817.653	2811
817.793	2842
817.934	2880
818.075	2975
818.216	2994
818.356	3005
818.497	2880
818.638	2792
818.778	2834
818.919	2811
819.06	2758
819.2	2861
819.341	2826
819.481	2800
819.622	2937
819.762	3074
819.903	3039
820.043	2906
820.184	2906
820.324	2880
820.465	3024
820.605	3013
820.746	3043
820.886	2899
821.026	3089
821.167	3146
821.307	3233
821.447	3275
821.588	3245
821.728	3207
821.868	3207
822.008	3051
822.149	3188
822.289	3203
822.429	3097
822.569	3085
822.709	3138
822.849	3001
822.99	3024
823.13	3176
823.27	3195
823.41	3142
823.55	3150
823.69	3135
823.83	3157
823.97	3074
824.11	2990
824.25	2982
824.389	3043
824.529	3085
824.669	3074
824.809	3199
824.949	3241
825.089	3222
825.228	3131
825.368	3017
825.508	2979
825.648	2944
825.787	3013
825.927	2998
826.067	2956
826.206	2960
826.346	3032
826.485	3077
826.625	3085
826.765	3241
826.904	3192
827.044	2994
827.183	2948
827.323	2861
827.462	2956
827.601	2899
827.741	2906
827.88	2941
828.02	2849
828.159	2994
828.298	3039
828.437	3097
828.577	3020
828.716	3275
828.855	3051
828.994	2906
829.134	2895
829.273	2906
829.412	2864
829.551	2864
829.69	2883
829.829	2971
829.968	3119
830.107	2986
830.246	2982
830.385	2922
830.524	2887
830.663	2804
830.802	2720
830.941	2636
831.08	2640
831.219	2743
831.357	2777
831.496	2925
831.635	2705
831.774	2659
831.913	2594
832.051	2556
832.19	2552
832.329	2686
832.467	2492
832.606	2431
832.744	2568
832.883	2583
833.022	2575
833.16	2636
833.299	2678
833.437	2682
833.576	2689
833.714	2693
833.852	2739
833.991	2769
834.129	2815
834.267	2785
834.406	2796
834.544	2872
834.682	2864
834.821	2872
834.959	3051
835.097	2887
835.235	3043
835.373	2986
835.511	3013
835.65	2948
835.788	2937
835.926	2853
836.064	2811
836.202	2842
836.34	3093
836.478	3173
836.615	3051
836.753	3085
836.891	3203
837.029	3154
837.167	3116
837.305	3070
837.443	3009
837.58	2929
837.718	3165
837.856	3066
837.993	3066
838.131	3119
838.269	3089
838.406	3093
838.544	3077
838.681	2941
838.819	2914
838.956	2804
839.094	2868
839.231	2883
839.369	2994
839.506	3355
839.643	3169
839.781	2952
839.918	2967
840.055	3058
840.193	3085
840.33	3058
840.467	3062
840.604	3146
840.742	3401
840.879	3051
841.016	3032
841.153	3093
841.29	3329
841.427	3329
841.564	3275
841.701	3287
841.838	3214
841.975	3157
842.112	3218
842.249	3062
842.385	3055
842.522	3256
842.659	3093
842.796	3055
842.933	3108
843.069	3055
843.206	3013
843.343	3203
843.479	3116
843.616	3138
843.752	2861
843.889	2868
844.025	3058
844.162	2864
844.298	3097
844.435	2922
844.571	2906
844.708	3058
844.844	3188
844.98	3249
845.117	3173
845.253	3032
845.389	3028
845.525	3062
845.661	3123
845.798	2998
845.934	3097
846.07	3043
846.206	3192
846.342	3283
846.478	3226
846.614	3097
846.75	3062
846.886	3024
847.022	3256
847.158	3108
847.294	3184
847.429	3275
847.565	3188
847.701	3526
847.837	3043
847.972	3009
848.108	3165
848.244	3131
848.379	2967
848.515	2922
848.65	2941
848.786	2952
848.921	2998
849.057	3074
849.192	3127
849.328	3036
849.463	3135
849.598	3047
849.734	3028
849.869	3009
850.004	2914
850.14	2933
850.275	2895
850.41	2861
850.545	2887
850.68	2948
850.815	2929
850.95	2933
851.085	3161
851.22	3119
851.355	3032
851.49	2975
851.625	2967
851.76	2998
851.895	2910
852.03	2906
852.165	3024
852.299	3123
852.434	3203
852.569	3142
852.703	3146
852.838	3256
852.973	3348
853.107	3317
853.242	3161
853.376	3089
853.511	2982
853.645	3058
853.78	3207
853.914	3085
854.048	3138
854.183	3093
854.317	3161
854.451	3291
854.585	3131
854.72	3089
854.854	3176
854.988	3070
855.122	3093
855.256	2990
855.39	3146
855.524	3264
855.658	3150
855.792	3157
855.926	3199
856.06	3207
856.194	3230
856.327	3157
856.461	3066
856.595	3058
856.729	3070
856.862	3188
856.996	3127
857.13	3214
857.263	3203
857.397	3253
857.53	3097
857.664	3173
857.797	3233
857.931	3233
858.064	3169
858.197	3203
858.331	3123
858.464	3070
858.597	3017
858.731	3062
858.864	3131
858.997	3097
859.13	3150
859.263	3146
859.396	3180
859.529	3097
859.662	3074
859.795	3009
859.928	3108
860.061	3253
860.194	3237
860.327	3093
860.46	3100
860.592	3268
860.725	3237
860.858	3241
860.99	3089
861.123	3074
861.256	3036
861.388	3154
861.521	3705
861.653	3028
861.786	2994
861.918	3013
862.05	3032
862.183	3051
862.315	3142
862.447	3207
862.58	3131
862.712	2925
862.844	2838
862.976	3017
863.108	3020
863.24	3431
863.372	2883
863.504	2944
863.636	2937
863.768	3017
863.9	2941
864.032	2906
864.164	2918
864.296	2990
864.428	3081
864.559	3077
864.691	3089
864.823	3024
864.954	3032
865.086	2994
865.217	2967
865.349	2948
865.48	2990
865.612	3043
865.743	3154
865.875	2971
866.006	2956
866.137	2986
866.269	2948
866.4	2944
866.531	2944
866.662	2868
866.793	2910
866.924	2902
867.055	2941
867.186	2914
867.317	2880
867.448	2804
867.579	2880
867.71	2819
867.841	2788
867.972	2891
868.103	2906
868.233	2906
868.364	2899
868.495	2891
868.625	3070
868.756	3161
868.886	2952
869.017	3020
869.147	3169
869.278	3161
869.408	3066
869.539	3039
869.669	3062
869.799	3058
869.929	3131
870.06	3077
870.19	3302
870.32	3313
870.45	3283
870.58	3405
870.71	3428
870.84	3439
870.97	3272
871.1	3203
871.23	3473
871.36	3450
871.489	3367
871.619	3416
871.749	3386
871.879	3443
872.008	3496
872.138	3336
872.267	3275
872.397	3123
872.526	3127
872.656	2975
872.785	3081
872.915	3260
873.044	3272
873.173	3245
873.303	3268
873.432	3199
873.561	3226
873.69	3135
873.819	3123
873.948	3226
874.077	3093
874.206	2990
874.335	3070
874.464	3199
874.593	3351
874.722	3249
874.851	3340
874.979	3386
875.108	3321
875.237	3154
875.365	3169
875.494	3157
875.623	3222
875.751	3077
875.88	3066
876.008	3199
876.136	3188
876.265	3351
876.393	3466
876.521	3409
876.65	3428
876.778	3306
876.906	3237
877.034	3192
877.162	3233
877.29	3199
877.418	3279
877.546	3207
877.674	3230
877.802	3222
877.93	3230
878.058	3192
878.185	3093
878.313	3161
878.441	3241
878.568	3051
878.696	3176
878.824	3237
878.951	3317
879.079	3447
879.206	3622
879.333	3386
879.461	3294
879.588	3340
879.715	3450
879.842	3553
879.97	3370
880.097	3161
880.224	3116
880.351	3214
880.478	3230
880.605	3176
880.732	3203
880.859	3538
880.986	3313
881.112	3355
881.239	3199
881.366	3062
881.493	3039
881.619	3013
881.746	3085
881.872	3051
881.999	3074
882.125	3119
882.252	3203
882.378	3272
882.505	3409
882.631	3275
882.757	3150
882.883	3214
883.01	3249
883.136	3150
883.262	3097
883.388	3074
883.514	3340
883.64	3359
883.766	3287
883.892	3176
884.018	3272
884.143	3424
884.269	3542
884.395	3176
884.52	3173
884.646	3169
884.772	3100
884.897	3135
885.023	3214
885.148	3313
885.274	3409
885.399	3367
885.524	3283
885.65	3283
885.775	3279
885.9	3264
886.025	3420
886.15	3359
886.275	3325
886.4	3230
886.525	3302
886.65	3336
886.775	3249
886.9	3500
887.025	3606
887.149	3382
887.274	3211
887.399	3165
887.523	3173
887.648	3222
887.773	3195
887.897	3405
888.021	3416
888.146	3287
888.27	3466
888.395	3485
888.519	3450
888.643	3431
888.767	3412
888.891	3294
889.015	3279
889.139	3279
889.263	3256
889.387	3412
889.511	3515
889.635	3424
889.759	3321
889.883	3268
890.006	3386
890.13	3428
890.254	3260
890.377	3306
890.501	3169
890.624	3199
890.748	3268
890.871	3184
890.995	3116
891.118	3074
891.241	3203
891.364	3237
891.488	3291
891.611	3192
891.734	3203
891.857	3306
891.98	3222
892.103	3325
892.226	3249
892.349	3218
892.471	3112
892.594	3245
892.717	3260
892.839	3264
892.962	3291
893.085	3344
893.207	3249
893.33	3119
893.452	3188
893.575	3340
893.697	3222
893.819	3443
893.941	3523
894.064	3462
894.186	3306
894.308	3279
894.43	3458
894.552	3492
894.674	3469
894.796	3272
894.918	3294
895.04	3332
895.161	3428
895.283	3359
895.405	3268
895.526	3401
895.648	3450
895.769	3424
895.891	3454
896.012	3466
896.134	3469
896.255	3401
896.376	3393
896.498	3389
896.619	3378
896.74	3348
896.861	3389
896.982	3644
897.103	3842
897.224	3625
897.345	3542
897.466	3458
897.587	3496
897.708	3667
897.828	3542
897.949	3458
898.07	3348
898.19	3420
898.311	3564
898.431	3454
898.552	3477
898.672	3591
898.792	3500
898.913	3542
899.033	3389
899.153	3230
899.273	3233
899.393	3249
899.513	3340
899.633	3298
899.753	3332
899.873	3294
899.993	3370
900.113	3306
900.232	3412
900.352	3336
900.472	3310
900.591	3176
900.711	3291
900.83	3291
900.95	3420
901.069	3477
901.189	3359
901.308	3184
901.427	3176
901.546	3176
901.665	3279
901.784	3272
901.904	3211
902.023	3116
902.141	3005
902.26	2967
902.379	3188
902.498	3058
902.617	3039
902.735	3203
902.854	3256
902.973	3176
903.091	3028
903.21	3070
903.328	3142
903.446	3123
903.565	3077
903.683	3260
903.801	3108
903.919	3222
904.038	3272
904.156	3184
904.274	3302
904.392	3241
904.51	3249
904.627	3317
904.745	3462
904.863	3523
904.981	3233
905.098	3165
905.216	3214
905.334	3260
905.451	3287
905.569	3256
905.686	3420
905.803	3447
905.921	3294
906.038	3420
906.155	3393
906.272	3272
906.389	3321
906.506	3249
906.623	3230
906.74	3230
906.857	3199
906.974	3279
907.091	3439
907.208	3572
907.324	3454
907.441	3420
907.557	3253
907.674	3241
907.79	3203
907.907	3275
908.023	3367
908.139	3359
908.256	3302
908.372	3332
908.488	3325
908.604	3264
908.72	3264
908.836	3298
908.952	3275
909.068	3329
909.184	3526
909.3	3416
909.415	3462
909.531	3469
909.647	3291
909.762	3302
909.878	3272
909.993	3325
910.108	3317
910.224	3348
910.339	3386
910.454	3302
910.57	3233
910.685	3230
910.8	3610
910.915	3492
911.03	3412
911.145	3275
911.259	3291
911.374	3294
911.489	3195
911.604	3237
911.718	3108
911.833	3157
911.947	3047
912.062	2956
912.176	3169
912.291	3169
912.405	3230
912.519	3481
912.633	3466
912.748	3329
912.862	3237
912.976	3211
913.09	3047
913.204	3146
913.318	3180
913.431	3340
913.545	3332
913.659	3355
913.772	3329
913.886	3222
914	3207
914.113	3370
914.226	3374
914.34	3321
914.453	3165
914.566	3401
914.68	3283
914.793	3302
914.906	3161
915.019	3100
915.132	3074
915.245	3195
915.358	3192
915.47	3233
915.583	3279
915.696	3249
915.809	3443
915.921	3424
916.034	3237
916.146	3260
916.259	3180
916.371	3382
916.483	3351
916.595	3249
916.708	3351
916.82	3321
916.932	3351
917.044	3329
917.156	3317
917.268	3245
917.38	3306
917.491	3313
917.603	3397
917.715	3401
917.826	3458
917.938	3351
918.049	3249
918.161	3424
918.272	3564
918.384	3568
918.495	3485
918.606	3325
918.717	3260
918.828	3355
918.939	3435
919.05	3275
919.161	3348
919.272	3169
919.383	3310
919.494	3477
919.604	3698
919.715	3458
919.826	3431
919.936	3458
920.047	3591
920.157	3526
920.267	3759
920.378	3618
920.488	3542
920.598	3781
920.708	3987
920.818	3812
920.928	3854
921.038	3998
921.148	3953
921.258	3694
921.368	3603
921.477	3564
921.587	3587
921.697	3435
921.806	3595
921.916	3561
922.025	3355
922.134	3313
922.244	3291
922.353	3393
922.462	3268
922.571	3188
922.68	3108
922.789	3074
922.898	3157
923.007	3070
923.116	3237
923.224	3226
923.333	3207
923.442	3104
923.55	3116
923.659	3127
923.767	3203
923.876	3112
923.984	3253
924.092	3112
924.201	3211
924.309	3214
924.417	3249
924.525	3199
924.633	3226
924.741	3956
924.849	3028
924.956	3249
925.064	3100
925.172	3009
925.279	3116
925.387	3195
925.494	3195
925.602	3329
925.709	3294
925.816	3199
925.924	3325
926.031	3382
926.138	3321
926.245	3363
926.352	3260
926.459	3428
926.566	3443
926.673	3329
926.779	3230
926.886	3237
926.993	3146
927.099	3131
927.206	3093
927.312	3055
927.419	3207
927.525	3211
927.631	3275
927.737	3161
927.843	3131
927.95	3047
928.056	3127
928.162	3161
928.267	3268
928.373	3770
928.479	3313
928.585	3051
928.69	3199
928.796	3275
928.901	3154
929.007	3081
929.112	3253
929.218	3165
929.323	3161
929.428	3142
929.533	3306
929.638	3093
929.743	3135
929.848	3275
929.953	3199
930.058	3157
930.163	2967
930.267	3055
930.372	3138
930.477	3070
930.581	3336
930.685	3138
930.79	3104
930.894	3127
930.998	3093
931.103	3268
931.207	2937
931.311	2952
931.415	2899
931.519	2766
931.623	2777
