Data from test_V78500241_185.txt Node
Date: Fri Mar 25 16:16:29 CST 2022
User: usil
Spectrometer: V785-0024
Trigger mode: 0
Integration Time (sec): 4.000000E-1
Scans to average: 1
Nonlinearity correction enabled: false
Boxcar width: 0
Storing dark spectrum: false
XAxis mode: Wavelengths
Number of Pixels in Spectrum: 1024
>>>>>Begin Spectral Data<<<<<
801.071	2933
801.214	2941
801.356	2880
801.499	2891
801.641	2910
801.783	2952
801.926	3039
802.068	2975
802.211	3020
802.353	3020
802.496	2975
802.638	3028
802.78	3055
802.923	3093
803.065	3032
803.208	2887
803.35	2960
803.492	2963
803.635	2944
803.777	2769
803.919	2826
804.061	3184
804.204	2960
804.346	2895
804.488	2826
804.63	2975
804.773	2902
804.915	2910
805.057	3062
805.199	2979
805.341	3001
805.483	3028
805.626	3009
805.768	2982
805.91	3131
806.052	3112
806.194	3081
806.336	3245
806.478	3032
806.62	2956
806.762	2952
806.904	3028
807.046	3180
807.188	2986
807.33	2922
807.472	3001
807.614	2956
807.756	2998
807.898	2937
808.04	2922
808.182	2979
808.324	2982
808.465	2876
808.607	2902
808.749	2785
808.891	2876
809.033	2967
809.174	2941
809.316	2925
809.458	2918
809.6	2792
809.741	2788
809.883	2773
810.025	2895
810.166	2876
810.308	2868
810.45	2849
810.591	2758
810.733	2773
810.875	2845
811.016	2796
811.158	2773
811.299	2830
811.441	2910
811.582	2899
811.724	2830
811.865	2792
812.007	2914
812.148	2857
812.29	2834
812.431	2925
812.573	2925
812.714	2975
812.855	3024
812.997	3066
813.138	3085
813.279	3020
813.421	2990
813.562	2979
813.703	2861
813.845	2895
813.986	2792
814.127	2743
814.268	2826
814.41	2834
814.551	2815
814.692	2872
814.833	2845
814.974	2883
815.115	2956
815.256	2834
815.397	2811
815.539	2838
815.68	2762
815.821	2792
815.962	2994
816.103	2922
816.244	2899
816.385	2864
816.526	2971
816.666	2956
816.807	2754
816.948	2902
817.089	2941
817.23	2880
817.371	2796
817.512	2796
817.653	2861
817.793	2819
817.934	2910
818.075	2975
818.216	3013
818.356	3013
818.497	2910
818.638	2830
818.778	2823
818.919	2826
819.06	2769
819.2	2906
819.341	2823
819.481	2800
819.622	2887
819.762	3131
819.903	3047
820.043	2929
820.184	2902
820.324	2922
820.465	3085
820.605	3017
820.746	3028
820.886	2944
821.026	3112
821.167	3184
821.307	3253
821.447	3317
821.588	3287
821.728	3253
821.868	3199
822.008	3070
822.149	3207
822.289	3211
822.429	3081
822.569	3077
822.709	3207
822.849	3028
822.99	3085
823.13	3146
823.27	3195
823.41	3062
823.55	3146
823.69	3184
823.83	3188
823.97	3104
824.11	3005
824.25	3013
824.389	3070
824.529	3150
824.669	3070
824.809	3203
824.949	3260
825.089	3195
825.228	3161
825.368	3043
825.508	2975
825.648	2986
825.787	2998
825.927	3005
826.067	2963
826.206	2963
826.346	3024
826.485	3085
826.625	3108
826.765	3287
826.904	3199
827.044	2990
827.183	2963
827.323	2883
827.462	3009
827.601	2918
827.741	2956
827.88	2929
828.02	2815
828.159	2956
828.298	3005
828.437	3131
828.577	3043
828.716	3241
828.855	3100
828.994	2914
829.134	2933
829.273	2918
829.412	2880
829.551	2864
829.69	2918
829.829	3009
829.968	3127
830.107	3005
830.246	3051
830.385	2922
830.524	2929
830.663	2845
830.802	2746
830.941	2670
831.08	2651
831.219	2788
831.357	2754
831.496	2994
831.635	2758
831.774	2678
831.913	2644
832.051	2556
832.19	2583
832.329	2701
832.467	2541
832.606	2454
832.744	2598
832.883	2594
833.022	2613
833.16	2640
833.299	2689
833.437	2708
833.576	2720
833.714	2716
833.852	2686
833.991	2769
834.129	2868
834.267	2819
834.406	2807
834.544	2861
834.682	2880
834.821	2864
834.959	3043
835.097	2933
835.235	3024
835.373	3009
835.511	3036
835.65	2994
835.788	2990
835.926	2838
836.064	2804
836.202	2838
836.34	3112
836.478	3150
836.615	3066
836.753	3138
836.891	3199
837.029	3184
837.167	3119
837.305	3093
837.443	3036
837.58	3005
837.718	3119
837.856	3062
837.993	3051
838.131	3127
838.269	3119
838.406	3138
838.544	3085
838.681	2963
838.819	2929
838.956	2826
839.094	2845
839.231	2925
839.369	2990
839.506	3370
839.643	3237
839.781	3036
839.918	2956
840.055	3043
840.193	3036
840.33	3089
840.467	3085
840.604	3138
840.742	3397
840.879	3055
841.016	3085
841.153	3108
841.29	3355
841.427	3317
841.564	3287
841.701	3313
841.838	3249
841.975	3131
842.112	3233
842.249	3055
842.385	3036
842.522	3249
842.659	3116
842.796	3047
842.933	3104
843.069	3032
843.206	3039
843.343	3169
843.479	3093
843.616	3169
843.752	2906
843.889	2895
844.025	3055
844.162	2895
844.298	3055
844.435	2933
844.571	2944
844.708	3074
844.844	3195
844.98	3218
845.117	3218
845.253	3062
845.389	3020
845.525	3123
845.661	3123
845.798	3005
845.934	3138
846.07	3058
846.206	3268
846.342	3306
846.478	3207
846.614	3108
846.75	3066
846.886	3009
847.022	3233
847.158	3142
847.294	3188
847.429	3253
847.565	3207
847.701	3477
847.837	3028
847.972	3005
848.108	3169
848.244	3154
848.379	2990
848.515	2941
848.65	2944
848.786	2994
848.921	3032
849.057	3108
849.192	3154
849.328	3097
849.463	3142
849.598	3081
849.734	3055
849.869	2952
850.004	2933
850.14	2960
850.275	2933
850.41	2838
850.545	2899
850.68	2918
850.815	2937
850.95	3001
851.085	3207
851.22	3127
851.355	3055
851.49	2982
851.625	2982
851.76	3024
851.895	2922
852.03	2891
852.165	3043
852.299	3123
852.434	3211
852.569	3173
852.703	3188
852.838	3249
852.973	3367
853.107	3325
853.242	3165
853.376	3108
853.511	2963
853.645	3043
853.78	3256
853.914	3104
854.048	3104
854.183	3081
854.317	3165
854.451	3302
854.585	3138
854.72	3077
854.854	3173
854.988	3043
855.122	3097
855.256	2990
855.39	3146
855.524	3249
855.658	3188
855.792	3169
855.926	3180
856.06	3218
856.194	3275
856.327	3184
856.461	3104
856.595	3085
856.729	3116
856.862	3279
856.996	3184
857.13	3150
857.263	3211
857.397	3283
857.53	3142
857.664	3188
857.797	3260
857.931	3291
858.064	3176
858.197	3222
858.331	3127
858.464	3085
858.597	3032
858.731	3138
858.864	3138
858.997	3116
859.13	3188
859.263	3150
859.396	3199
859.529	3081
859.662	3074
859.795	3058
859.928	3203
860.061	3272
860.194	3306
860.327	3154
860.46	3108
860.592	3279
860.725	3233
860.858	3283
860.99	3123
861.123	3043
861.256	3058
861.388	3142
861.521	3743
861.653	3017
861.786	2990
861.918	3009
862.05	3047
862.183	3104
862.315	3165
862.447	3161
862.58	3119
862.712	2944
862.844	2853
862.976	2986
863.108	3028
863.24	3317
863.372	2864
863.504	2986
863.636	2963
863.768	3047
863.9	2979
864.032	2902
864.164	2918
864.296	3028
864.428	3051
864.559	3097
864.691	3085
864.823	3093
864.954	3043
865.086	3058
865.217	2971
865.349	2975
865.48	3024
865.612	2971
865.743	3150
865.875	2982
866.006	2933
866.137	2971
866.269	2956
866.4	2967
866.531	2906
866.662	2914
866.793	2925
866.924	2880
867.055	2960
867.186	2925
867.317	2861
867.448	2834
867.579	2849
867.71	2838
867.841	2857
867.972	2922
868.103	2872
868.233	2849
868.364	2868
868.495	2933
868.625	3020
868.756	3184
868.886	2990
869.017	3020
869.147	3207
869.278	3138
869.408	3058
869.539	3032
869.669	3077
869.799	3028
869.929	3097
870.06	3123
870.19	3321
870.32	3245
870.45	3245
870.58	3386
870.71	3477
870.84	3454
870.97	3336
871.1	3245
871.23	3511
871.36	3500
871.489	3359
871.619	3401
871.749	3416
871.879	3454
872.008	3477
872.138	3401
872.267	3298
872.397	3157
872.526	3138
872.656	2990
872.785	3131
872.915	3264
873.044	3355
873.173	3241
873.303	3268
873.432	3253
873.561	3237
873.69	3188
873.819	3184
873.948	3173
874.077	3123
874.206	3081
874.335	3135
874.464	3260
874.593	3374
874.722	3241
874.851	3435
874.979	3454
875.108	3340
875.237	3256
875.365	3199
875.494	3192
875.623	3291
875.751	3119
875.88	3138
876.008	3211
876.136	3230
876.265	3416
876.393	3595
876.521	3466
876.65	3447
876.778	3393
876.906	3256
877.034	3241
877.162	3313
877.29	3256
877.418	3313
877.546	3325
877.674	3260
877.802	3298
877.93	3283
878.058	3226
878.185	3176
878.313	3241
878.441	3233
878.568	3135
878.696	3207
878.824	3272
878.951	3359
879.079	3462
879.206	3698
879.333	3473
879.461	3393
879.588	3431
879.715	3519
879.842	3610
879.97	3481
880.097	3165
880.224	3199
880.351	3283
880.478	3249
880.605	3268
880.732	3264
880.859	3523
880.986	3401
881.112	3367
881.239	3264
881.366	3119
881.493	3097
881.619	3055
881.746	3142
881.872	3116
881.999	3138
882.125	3176
882.252	3302
882.378	3336
882.505	3488
882.631	3321
882.757	3188
882.883	3260
883.01	3283
883.136	3214
883.262	3123
883.388	3150
883.514	3378
883.64	3435
883.766	3359
883.892	3245
884.018	3325
884.143	3412
884.269	3599
884.395	3226
884.52	3226
884.646	3218
884.772	3154
884.897	3165
885.023	3256
885.148	3359
885.274	3458
885.399	3409
885.524	3329
885.65	3325
885.775	3378
885.9	3317
886.025	3500
886.15	3393
886.275	3348
886.4	3249
886.525	3332
886.65	3344
886.775	3355
886.9	3557
887.025	3656
887.149	3458
887.274	3332
887.399	3233
887.523	3237
887.648	3260
887.773	3272
887.897	3450
888.021	3458
888.146	3401
888.27	3447
888.395	3587
888.519	3473
888.643	3504
888.767	3473
888.891	3374
889.015	3325
889.139	3374
889.263	3321
889.387	3485
889.511	3568
889.635	3458
889.759	3313
889.883	3359
890.006	3450
890.13	3553
890.254	3291
890.377	3386
890.501	3272
890.624	3218
890.748	3325
890.871	3253
890.995	3135
891.118	3104
891.241	3207
891.364	3253
891.488	3344
891.611	3214
891.734	3253
891.857	3374
891.98	3287
892.103	3359
892.226	3340
892.349	3245
892.471	3150
892.594	3287
892.717	3344
892.839	3291
892.962	3370
893.085	3382
893.207	3370
893.33	3176
893.452	3241
893.575	3420
893.697	3325
893.819	3492
893.941	3534
894.064	3500
894.186	3329
894.308	3351
894.43	3485
894.552	3587
894.674	3538
894.796	3336
894.918	3348
895.04	3355
895.161	3492
895.283	3469
895.405	3325
895.526	3439
895.648	3511
895.769	3477
895.891	3526
896.012	3549
896.134	3519
896.255	3481
896.376	3443
896.498	3428
896.619	3466
896.74	3409
896.861	3435
896.982	3743
897.103	3930
897.224	3618
897.345	3530
897.466	3511
897.587	3530
897.708	3675
897.828	3606
897.949	3466
898.07	3428
898.19	3492
898.311	3663
898.431	3485
898.552	3561
898.672	3625
898.792	3660
898.913	3599
899.033	3458
899.153	3370
899.273	3253
899.393	3336
899.513	3344
899.633	3351
899.753	3359
899.873	3329
899.993	3416
900.113	3344
900.232	3412
900.352	3370
900.472	3317
900.591	3222
900.711	3325
900.83	3275
900.95	3477
901.069	3526
901.189	3344
901.308	3245
901.427	3176
901.546	3199
901.665	3317
901.784	3378
901.904	3260
902.023	3207
902.141	3055
902.26	3028
902.379	3184
902.498	3104
902.617	3100
902.735	3203
902.854	3287
902.973	3253
903.091	3058
903.21	3146
903.328	3211
903.446	3157
903.565	3157
903.683	3264
903.801	3161
903.919	3321
904.038	3336
904.156	3222
904.274	3374
904.392	3306
904.51	3336
904.627	3351
904.745	3507
904.863	3549
904.981	3279
905.098	3218
905.216	3283
905.334	3370
905.451	3355
905.569	3325
905.686	3458
905.803	3492
905.921	3279
906.038	3469
906.155	3397
906.272	3306
906.389	3367
906.506	3275
906.623	3321
906.74	3291
906.857	3218
906.974	3298
907.091	3515
907.208	3580
907.324	3477
907.441	3416
907.557	3294
907.674	3321
907.79	3302
907.907	3351
908.023	3450
908.139	3458
908.256	3409
908.372	3401
908.488	3389
908.604	3298
908.72	3275
908.836	3355
908.952	3279
909.068	3397
909.184	3526
909.3	3435
909.415	3561
909.531	3523
909.647	3302
909.762	3340
909.878	3317
909.993	3374
910.108	3382
910.224	3386
910.339	3409
910.454	3389
910.57	3359
910.685	3310
910.8	3641
910.915	3549
911.03	3492
911.145	3298
911.259	3310
911.374	3363
911.489	3233
911.604	3256
911.718	3161
911.833	3218
911.947	3058
912.062	3036
912.176	3199
912.291	3207
912.405	3230
912.519	3443
912.633	3545
912.748	3367
912.862	3298
912.976	3222
913.09	3085
913.204	3192
913.318	3260
913.431	3378
913.545	3397
913.659	3416
913.772	3382
913.886	3245
914	3237
914.113	3405
914.226	3443
914.34	3412
914.453	3253
914.566	3462
914.68	3302
914.793	3351
914.906	3207
915.019	3180
915.132	3112
915.245	3214
915.358	3233
915.47	3256
915.583	3279
915.696	3317
915.809	3447
915.921	3473
916.034	3317
916.146	3306
916.259	3249
916.371	3405
916.483	3409
916.595	3310
916.708	3382
916.82	3393
916.932	3382
917.044	3386
917.156	3363
917.268	3294
917.38	3336
917.491	3325
917.603	3420
917.715	3488
917.826	3492
917.938	3401
918.049	3370
918.161	3462
918.272	3595
918.384	3603
918.495	3515
918.606	3386
918.717	3336
918.828	3435
918.939	3443
919.05	3359
919.161	3428
919.272	3237
919.383	3374
919.494	3557
919.604	3709
919.715	3485
919.826	3466
919.936	3466
920.047	3625
920.157	3587
920.267	3808
920.378	3629
920.488	3622
920.598	3804
920.708	3987
920.818	3857
920.928	3846
921.038	4090
921.148	4006
921.258	3766
921.368	3698
921.477	3625
921.587	3587
921.697	3519
921.806	3705
921.916	3561
922.025	3428
922.134	3393
922.244	3382
922.353	3401
922.462	3344
922.571	3310
922.68	3192
922.789	3104
922.898	3157
923.007	3138
923.116	3287
923.224	3237
923.333	3256
923.442	3146
923.55	3135
923.659	3173
923.767	3218
923.876	3195
923.984	3279
924.092	3116
924.201	3245
924.309	3287
924.417	3275
924.525	3233
924.633	3302
924.741	4215
924.849	3097
924.956	3306
925.064	3135
925.172	3055
925.279	3146
925.387	3237
925.494	3214
925.602	3405
925.709	3363
925.816	3192
925.924	3329
926.031	3389
926.138	3367
926.245	3412
926.352	3272
926.459	3458
926.566	3500
926.673	3351
926.779	3291
926.886	3306
926.993	3169
927.099	3150
927.206	3138
927.312	3157
927.419	3237
927.525	3256
927.631	3321
927.737	3195
927.843	3157
927.95	3055
928.056	3188
928.162	3180
928.267	3272
928.373	3907
928.479	3317
928.585	3097
928.69	3253
928.796	3317
928.901	3184
929.007	3089
929.112	3241
929.218	3192
929.323	3176
929.428	3173
929.533	3351
929.638	3146
929.743	3199
929.848	3275
929.953	3249
930.058	3154
930.163	3047
930.267	3112
930.372	3214
930.477	3058
930.581	3348
930.685	3165
930.79	3093
930.894	3150
930.998	3135
931.103	3275
931.207	3013
931.311	2948
931.415	2963
931.519	2815
931.623	2811
