Data from test_V78500241_1099.txt Node
Date: Fri Mar 25 16:22:48 CST 2022
User: usil
Spectrometer: V785-0024
Trigger mode: 0
Integration Time (sec): 4.000000E-1
Scans to average: 1
Nonlinearity correction enabled: false
Boxcar width: 0
Storing dark spectrum: false
XAxis mode: Wavelengths
Number of Pixels in Spectrum: 1024
>>>>>Begin Spectral Data<<<<<
801.071	2925
801.214	2975
801.356	2868
801.499	2922
801.641	2891
801.783	2937
801.926	3013
802.068	3028
802.211	3036
802.353	3077
802.496	3020
802.638	3020
802.78	3062
802.923	3093
803.065	3024
803.208	2899
803.35	2906
803.492	2937
803.635	2944
803.777	2788
803.919	2868
804.061	3222
804.204	2948
804.346	2887
804.488	2849
804.63	2990
804.773	2910
804.915	2944
805.057	3123
805.199	2937
805.341	2994
805.483	3039
805.626	3058
805.768	3001
805.91	3089
806.052	3154
806.194	3089
806.336	3287
806.478	3047
806.62	2952
806.762	3005
806.904	3062
807.046	3173
807.188	2986
807.33	2933
807.472	3032
807.614	2918
807.756	3024
807.898	2902
808.04	2941
808.182	3001
808.324	2990
808.465	2895
808.607	2880
808.749	2800
808.891	2857
809.033	3001
809.174	2994
809.316	2868
809.458	2918
809.6	2796
809.741	2777
809.883	2807
810.025	2864
810.166	2876
810.308	2857
810.45	2861
810.591	2796
810.733	2785
810.875	2826
811.016	2750
811.158	2754
811.299	2842
811.441	2925
811.582	2937
811.724	2796
811.865	2857
812.007	2914
812.148	2910
812.29	2815
812.431	2899
812.573	2922
812.714	2975
812.855	3032
812.997	3051
813.138	3138
813.279	3028
813.421	2994
813.562	2960
813.703	2918
813.845	2906
813.986	2781
814.127	2750
814.268	2868
814.41	2868
814.551	2842
814.692	2857
814.833	2819
814.974	2933
815.115	2967
815.256	2834
815.397	2842
815.539	2826
815.68	2819
815.821	2792
815.962	2986
816.103	2937
816.244	2895
816.385	2872
816.526	2967
816.666	2956
816.807	2762
816.948	2864
817.089	2895
817.23	2876
817.371	2792
817.512	2781
817.653	2834
817.793	2823
817.934	2880
818.075	2967
818.216	2998
818.356	3005
818.497	2891
818.638	2834
818.778	2826
818.919	2811
819.06	2777
819.2	2872
819.341	2826
819.481	2823
819.622	2933
819.762	3089
819.903	3055
820.043	2941
820.184	2883
820.324	2925
820.465	3001
820.605	2994
820.746	3009
820.886	2941
821.026	3097
821.167	3169
821.307	3291
821.447	3302
821.588	3245
821.728	3218
821.868	3192
822.008	3093
822.149	3184
822.289	3253
822.429	3081
822.569	3062
822.709	3165
822.849	3051
822.99	3077
823.13	3180
823.27	3211
823.41	3093
823.55	3142
823.69	3142
823.83	3207
823.97	3097
824.11	2982
824.25	2998
824.389	3036
824.529	3108
824.669	3093
824.809	3199
824.949	3268
825.089	3222
825.228	3154
825.368	3013
825.508	2967
825.648	2979
825.787	3028
825.927	3047
826.067	2982
826.206	2956
826.346	3051
826.485	3066
826.625	3097
826.765	3268
826.904	3222
827.044	2982
827.183	2925
827.323	2872
827.462	3013
827.601	2910
827.741	2929
827.88	2982
828.02	2845
828.159	2975
828.298	3066
828.437	3138
828.577	3020
828.716	3249
828.855	3097
828.994	2925
829.134	2864
829.273	2918
829.412	2880
829.551	2857
829.69	2910
829.829	3005
829.968	3146
830.107	3020
830.246	3051
830.385	2910
830.524	2880
830.663	2834
830.802	2720
830.941	2651
831.08	2640
831.219	2746
831.357	2792
831.496	2941
831.635	2705
831.774	2636
831.913	2651
832.051	2598
832.19	2556
832.329	2697
832.467	2564
832.606	2480
832.744	2594
832.883	2587
833.022	2583
833.16	2640
833.299	2724
833.437	2686
833.576	2705
833.714	2739
833.852	2750
833.991	2769
834.129	2845
834.267	2838
834.406	2788
834.544	2845
834.682	2887
834.821	2880
834.959	3066
835.097	2937
835.235	3081
835.373	3009
835.511	3013
835.65	2998
835.788	2952
835.926	2811
836.064	2823
836.202	2849
836.34	3138
836.478	3169
836.615	3039
836.753	3135
836.891	3207
837.029	3165
837.167	3100
837.305	3062
837.443	3039
837.58	2979
837.718	3184
837.856	3074
837.993	2998
838.131	3097
838.269	3093
838.406	3097
838.544	3085
838.681	2971
838.819	2891
838.956	2796
839.094	2872
839.231	2910
839.369	3043
839.506	3378
839.643	3203
839.781	3047
839.918	2979
840.055	3077
840.193	3066
840.33	3077
840.467	3070
840.604	3131
840.742	3386
840.879	3058
841.016	3043
841.153	3112
841.29	3298
841.427	3306
841.564	3275
841.701	3306
841.838	3260
841.975	3150
842.112	3195
842.249	3093
842.385	3017
842.522	3272
842.659	3066
842.796	3047
842.933	3058
843.069	3081
843.206	3024
843.343	3135
843.479	3081
843.616	3150
843.752	2899
843.889	2845
844.025	3077
844.162	2876
844.298	3085
844.435	2982
844.571	2925
844.708	3081
844.844	3169
844.98	3237
845.117	3218
845.253	3081
845.389	3047
845.525	3062
845.661	3074
845.798	3047
845.934	3146
846.07	3070
846.206	3253
846.342	3294
846.478	3237
846.614	3066
846.75	3036
846.886	3039
847.022	3226
847.158	3123
847.294	3176
847.429	3264
847.565	3203
847.701	3458
847.837	3020
847.972	3001
848.108	3131
848.244	3119
848.379	2979
848.515	2998
848.65	2937
848.786	2925
848.921	3032
849.057	3119
849.192	3138
849.328	3066
849.463	3100
849.598	3058
849.734	3051
849.869	2956
850.004	2929
850.14	2979
850.275	2952
850.41	2861
850.545	2895
850.68	2971
850.815	2948
850.95	2967
851.085	3154
851.22	3119
851.355	3051
851.49	3001
851.625	2998
851.76	2986
851.895	2933
852.03	2876
852.165	3051
852.299	3112
852.434	3192
852.569	3131
852.703	3150
852.838	3264
852.973	3363
853.107	3291
853.242	3131
853.376	3093
853.511	2967
853.645	3036
853.78	3241
853.914	3077
854.048	3089
854.183	3081
854.317	3138
854.451	3287
854.585	3138
854.72	3081
854.854	3214
854.988	3043
855.122	3070
855.256	2994
855.39	3116
855.524	3226
855.658	3161
855.792	3157
855.926	3195
856.06	3207
856.194	3241
856.327	3188
856.461	3062
856.595	3085
856.729	3097
856.862	3192
856.996	3131
857.13	3211
857.263	3245
857.397	3241
857.53	3127
857.664	3195
857.797	3256
857.931	3203
858.064	3142
858.197	3218
858.331	3142
858.464	3066
858.597	3001
858.731	3108
858.864	3154
858.997	3077
859.13	3150
859.263	3165
859.396	3192
859.529	3093
859.662	3074
859.795	3058
859.928	3169
860.061	3253
860.194	3310
860.327	3108
860.46	3119
860.592	3245
860.725	3253
860.858	3241
860.99	3070
861.123	3066
861.256	3070
861.388	3157
861.521	3717
861.653	2979
861.786	2975
861.918	2998
862.05	3047
862.183	3127
862.315	3127
862.447	3214
862.58	3097
862.712	2960
862.844	2895
862.976	2979
863.108	3013
863.24	3401
863.372	2902
863.504	2952
863.636	2937
863.768	2998
863.9	2986
864.032	2887
864.164	2876
864.296	3036
864.428	3055
864.559	3131
864.691	3062
864.823	3047
864.954	3009
865.086	3039
865.217	2975
865.349	2979
865.48	2990
865.612	3013
865.743	3131
865.875	2994
866.006	2914
866.137	2994
866.269	2944
866.4	2925
866.531	2902
866.662	2895
866.793	2906
866.924	2883
867.055	3001
867.186	2887
867.317	2883
867.448	2819
867.579	2880
867.71	2826
867.841	2823
867.972	2918
868.103	2887
868.233	2891
868.364	2883
868.495	2895
868.625	3070
868.756	3176
868.886	2925
869.017	2994
869.147	3154
869.278	3188
869.408	3032
869.539	3009
869.669	3089
869.799	3032
869.929	3169
870.06	3108
870.19	3367
870.32	3222
870.45	3313
870.58	3317
870.71	3469
870.84	3504
870.97	3275
871.1	3245
871.23	3469
871.36	3431
871.489	3359
871.619	3420
871.749	3405
871.879	3454
872.008	3462
872.138	3332
872.267	3279
872.397	3161
872.526	3104
872.656	3028
872.785	3093
872.915	3211
873.044	3344
873.173	3218
873.303	3241
873.432	3245
873.561	3233
873.69	3176
873.819	3112
873.948	3199
874.077	3093
874.206	3085
874.335	3081
874.464	3222
874.593	3317
874.722	3230
874.851	3439
874.979	3317
875.108	3313
875.237	3157
875.365	3180
875.494	3165
875.623	3253
875.751	3043
875.88	3127
876.008	3222
876.136	3218
876.265	3359
876.393	3500
876.521	3424
876.65	3382
876.778	3325
876.906	3279
877.034	3256
877.162	3233
877.29	3169
877.418	3272
877.546	3237
877.674	3218
877.802	3207
877.93	3233
878.058	3165
878.185	3089
878.313	3188
878.441	3214
878.568	3097
878.696	3135
878.824	3230
878.951	3321
879.079	3420
879.206	3660
879.333	3431
879.461	3355
879.588	3351
879.715	3481
879.842	3610
879.97	3378
880.097	3184
880.224	3142
880.351	3203
880.478	3195
880.605	3211
880.732	3184
880.859	3454
880.986	3283
881.112	3310
881.239	3188
881.366	3097
881.493	3070
881.619	3039
881.746	3066
881.872	3097
881.999	3070
882.125	3165
882.252	3237
882.378	3283
882.505	3435
882.631	3294
882.757	3169
882.883	3180
883.01	3218
883.136	3127
883.262	3058
883.388	3135
883.514	3291
883.64	3351
883.766	3302
883.892	3192
884.018	3260
884.143	3389
884.269	3473
884.395	3199
884.52	3169
884.646	3150
884.772	3138
884.897	3112
885.023	3180
885.148	3294
885.274	3431
885.399	3355
885.524	3256
885.65	3256
885.775	3310
885.9	3272
886.025	3466
886.15	3355
886.275	3283
886.4	3195
886.525	3294
886.65	3241
886.775	3275
886.9	3488
887.025	3610
887.149	3389
887.274	3264
887.399	3157
887.523	3199
887.648	3192
887.773	3199
887.897	3378
888.021	3389
888.146	3275
888.27	3401
888.395	3488
888.519	3431
888.643	3424
888.767	3488
888.891	3313
889.015	3211
889.139	3287
889.263	3249
889.387	3389
889.511	3504
889.635	3477
889.759	3256
889.883	3222
890.006	3405
890.13	3515
890.254	3260
890.377	3317
890.501	3169
890.624	3199
890.748	3291
890.871	3184
890.995	3116
891.118	3058
891.241	3173
891.364	3199
891.488	3317
891.611	3184
891.734	3241
891.857	3302
891.98	3241
892.103	3317
892.226	3302
892.349	3214
892.471	3100
892.594	3230
892.717	3275
892.839	3214
892.962	3272
893.085	3344
893.207	3283
893.33	3142
893.452	3142
893.575	3329
893.697	3226
893.819	3447
893.941	3519
894.064	3439
894.186	3268
894.308	3287
894.43	3450
894.552	3553
894.674	3458
894.796	3249
894.918	3336
895.04	3302
895.161	3435
895.283	3359
895.405	3256
895.526	3359
895.648	3447
895.769	3405
895.891	3443
896.012	3454
896.134	3424
896.255	3416
896.376	3386
896.498	3351
896.619	3439
896.74	3367
896.861	3382
896.982	3633
897.103	3857
897.224	3591
897.345	3477
897.466	3412
897.587	3450
897.708	3610
897.828	3542
897.949	3378
898.07	3302
898.19	3370
898.311	3572
898.431	3447
898.552	3507
898.672	3572
898.792	3568
898.913	3515
899.033	3416
899.153	3302
899.273	3245
899.393	3275
899.513	3321
899.633	3313
899.753	3302
899.873	3302
899.993	3405
900.113	3340
900.232	3367
900.352	3355
900.472	3302
900.591	3184
900.711	3310
900.83	3253
900.95	3420
901.069	3469
901.189	3332
901.308	3203
901.427	3135
901.546	3230
901.665	3283
901.784	3325
901.904	3195
902.023	3116
902.141	3024
902.26	2944
902.379	3104
902.498	3074
902.617	3093
902.735	3184
902.854	3272
902.973	3195
903.091	3047
903.21	3055
903.328	3138
903.446	3104
903.565	3100
903.683	3218
903.801	3119
903.919	3230
904.038	3264
904.156	3180
904.274	3264
904.392	3249
904.51	3294
904.627	3340
904.745	3443
904.863	3496
904.981	3260
905.098	3157
905.216	3241
905.334	3275
905.451	3294
905.569	3298
905.686	3412
905.803	3428
905.921	3310
906.038	3386
906.155	3359
906.272	3256
906.389	3329
906.506	3233
906.623	3264
906.74	3230
906.857	3150
906.974	3279
907.091	3428
907.208	3538
907.324	3466
907.441	3363
907.557	3264
907.674	3253
907.79	3226
907.907	3306
908.023	3370
908.139	3401
908.256	3310
908.372	3374
908.488	3386
908.604	3226
908.72	3233
908.836	3298
908.952	3310
909.068	3294
909.184	3424
909.3	3340
909.415	3466
909.531	3473
909.647	3321
909.762	3226
909.878	3253
909.993	3378
910.108	3344
910.224	3329
910.339	3443
910.454	3325
910.57	3306
910.685	3245
910.8	3603
910.915	3530
911.03	3469
911.145	3283
911.259	3260
911.374	3298
911.489	3245
911.604	3199
911.718	3123
911.833	3165
911.947	3013
912.062	2979
912.176	3157
912.291	3180
912.405	3173
912.519	3409
912.633	3447
912.748	3351
912.862	3249
912.976	3161
913.09	3036
913.204	3135
913.318	3214
913.431	3336
913.545	3336
913.659	3397
913.772	3370
913.886	3203
914	3192
914.113	3367
914.226	3431
914.34	3351
914.453	3237
914.566	3439
914.68	3298
914.793	3336
914.906	3157
915.019	3131
915.132	3058
915.245	3203
915.358	3222
915.47	3203
915.583	3253
915.696	3313
915.809	3397
915.921	3454
916.034	3230
916.146	3287
916.259	3230
916.371	3351
916.483	3378
916.595	3268
916.708	3306
916.82	3302
916.932	3310
917.044	3348
917.156	3370
917.268	3291
917.38	3317
917.491	3287
917.603	3382
917.715	3439
917.826	3496
917.938	3351
918.049	3256
918.161	3401
918.272	3618
918.384	3584
918.495	3500
918.606	3374
918.717	3279
918.828	3409
918.939	3355
919.05	3294
919.161	3329
919.272	3211
919.383	3260
919.494	3477
919.604	3660
919.715	3481
919.826	3393
919.936	3481
920.047	3584
920.157	3545
920.267	3755
920.378	3587
920.488	3545
920.598	3789
920.708	3945
920.818	3808
920.928	3850
921.038	4032
921.148	3968
921.258	3675
921.368	3625
921.477	3553
921.587	3534
921.697	3443
921.806	3603
921.916	3530
922.025	3348
922.134	3386
922.244	3325
922.353	3439
922.462	3260
922.571	3222
922.68	3112
922.789	3123
922.898	3127
923.007	3085
923.116	3203
923.224	3142
923.333	3222
923.442	3108
923.55	3123
923.659	3123
923.767	3211
923.876	3131
923.984	3203
924.092	3085
924.201	3192
924.309	3245
924.417	3256
924.525	3135
924.633	3264
924.741	4029
924.849	3013
924.956	3264
925.064	3093
925.172	3112
925.279	3108
925.387	3199
925.494	3173
925.602	3344
925.709	3294
925.816	3192
925.924	3298
926.031	3386
926.138	3313
926.245	3382
926.352	3249
926.459	3378
926.566	3477
926.673	3298
926.779	3241
926.886	3264
926.993	3123
927.099	3146
927.206	3104
927.312	3104
927.419	3230
927.525	3176
927.631	3253
927.737	3127
927.843	3097
927.95	3001
928.056	3142
928.162	3169
928.267	3272
928.373	3876
928.479	3313
928.585	3039
928.69	3203
928.796	3245
928.901	3135
929.007	3058
929.112	3199
929.218	3146
929.323	3116
929.428	3176
929.533	3325
929.638	3127
929.743	3180
929.848	3264
929.953	3241
930.058	3142
930.163	3020
930.267	3001
930.372	3154
930.477	3009
930.581	3298
930.685	3150
930.79	3081
930.894	3135
930.998	3089
931.103	3260
931.207	2971
931.311	2944
931.415	2910
931.519	2762
931.623	2773
