Data from test_V78500241_699.txt Node
Date: Fri Mar 25 16:20:02 CST 2022
User: usil
Spectrometer: V785-0024
Trigger mode: 0
Integration Time (sec): 4.000000E-1
Scans to average: 1
Nonlinearity correction enabled: false
Boxcar width: 0
Storing dark spectrum: false
XAxis mode: Wavelengths
Number of Pixels in Spectrum: 1024
>>>>>Begin Spectral Data<<<<<
801.071	2948
801.214	2990
801.356	2918
801.499	2971
801.641	2914
801.783	3009
801.926	3123
802.068	3005
802.211	3028
802.353	3081
802.496	3009
802.638	3047
802.78	3058
802.923	3100
803.065	3020
803.208	2937
803.35	2918
803.492	2933
803.635	2986
803.777	2807
803.919	2891
804.061	3241
804.204	3013
804.346	2922
804.488	2868
804.63	3028
804.773	2899
804.915	2948
805.057	3089
805.199	2941
805.341	2960
805.483	3089
805.626	3032
805.768	2982
805.91	3116
806.052	3131
806.194	3074
806.336	3260
806.478	3051
806.62	3020
806.762	2990
806.904	3062
807.046	3176
807.188	3024
807.33	2929
807.472	3036
807.614	2929
807.756	3013
807.898	2944
808.04	2967
808.182	3024
808.324	2990
808.465	2906
808.607	2918
808.749	2823
808.891	2864
809.033	2994
809.174	3001
809.316	2918
809.458	2956
809.6	2838
809.741	2823
809.883	2773
810.025	2876
810.166	2902
810.308	2891
810.45	2883
810.591	2823
810.733	2746
810.875	2883
811.016	2819
811.158	2804
811.299	2807
811.441	2975
811.582	2929
811.724	2815
811.865	2883
812.007	2948
812.148	2883
812.29	2902
812.431	2899
812.573	2979
812.714	2960
812.855	3077
812.997	3097
813.138	3157
813.279	3039
813.421	3013
813.562	3017
813.703	2887
813.845	2876
813.986	2781
814.127	2785
814.268	2823
814.41	2857
814.551	2864
814.692	2883
814.833	2819
814.974	2956
815.115	3001
815.256	2857
815.397	2811
815.539	2891
815.68	2788
815.821	2796
815.962	2929
816.103	2975
816.244	2906
816.385	2868
816.526	3001
816.666	2963
816.807	2758
816.948	2914
817.089	2971
817.23	2872
817.371	2834
817.512	2823
817.653	2853
817.793	2902
817.934	2872
818.075	2986
818.216	3001
818.356	3028
818.497	2902
818.638	2815
818.778	2868
818.919	2815
819.06	2807
819.2	2956
819.341	2845
819.481	2815
819.622	2960
819.762	3135
819.903	3074
820.043	2941
820.184	2918
820.324	2925
820.465	3055
820.605	3013
820.746	3024
820.886	2967
821.026	3093
821.167	3188
821.307	3325
821.447	3287
821.588	3260
821.728	3211
821.868	3226
822.008	3081
822.149	3203
822.289	3241
822.429	3108
822.569	3097
822.709	3203
822.849	3039
822.99	3066
823.13	3138
823.27	3207
823.41	3100
823.55	3195
823.69	3169
823.83	3230
823.97	3131
824.11	3005
824.25	3036
824.389	3074
824.529	3104
824.669	3085
824.809	3218
824.949	3253
825.089	3222
825.228	3214
825.368	3032
825.508	2960
825.648	2979
825.787	3017
825.927	3043
826.067	2979
826.206	2971
826.346	3062
826.485	3074
826.625	3135
826.765	3291
826.904	3264
827.044	3032
827.183	2952
827.323	2872
827.462	3017
827.601	2922
827.741	2979
827.88	2941
828.02	2823
828.159	3001
828.298	3074
828.437	3161
828.577	3085
828.716	3275
828.855	3108
828.994	2895
829.134	2891
829.273	2925
829.412	2895
829.551	2902
829.69	2895
829.829	2986
829.968	3127
830.107	3032
830.246	3009
830.385	2918
830.524	2902
830.663	2849
830.802	2739
830.941	2678
831.08	2689
831.219	2785
831.357	2777
831.496	2929
831.635	2720
831.774	2667
831.913	2632
832.051	2556
832.19	2613
832.329	2712
832.467	2568
832.606	2480
832.744	2587
832.883	2610
833.022	2621
833.16	2648
833.299	2712
833.437	2720
833.576	2712
833.714	2720
833.852	2746
833.991	2777
834.129	2853
834.267	2830
834.406	2826
834.544	2864
834.682	2883
834.821	2899
834.959	3089
835.097	2929
835.235	3089
835.373	3036
835.511	3017
835.65	2937
835.788	2967
835.926	2823
836.064	2823
836.202	2861
836.34	3089
836.478	3165
836.615	3081
836.753	3142
836.891	3188
837.029	3214
837.167	3135
837.305	3081
837.443	3039
837.58	2979
837.718	3165
837.856	3100
837.993	3032
838.131	3142
838.269	3116
838.406	3077
838.544	3077
838.681	2990
838.819	2914
838.956	2815
839.094	2826
839.231	2899
839.369	3051
839.506	3378
839.643	3203
839.781	3036
839.918	2960
840.055	3066
840.193	3058
840.33	3062
840.467	3093
840.604	3176
840.742	3405
840.879	3051
841.016	3081
841.153	3146
841.29	3386
841.427	3291
841.564	3283
841.701	3310
841.838	3211
841.975	3195
842.112	3249
842.249	3104
842.385	3081
842.522	3260
842.659	3104
842.796	3047
842.933	3104
843.069	3058
843.206	3036
843.343	3169
843.479	3123
843.616	3173
843.752	2899
843.889	2887
844.025	3104
844.162	2941
844.298	3081
844.435	2929
844.571	2960
844.708	3062
844.844	3211
844.98	3237
845.117	3226
845.253	3074
845.389	3039
845.525	3142
845.661	3097
845.798	3058
845.934	3142
846.07	3062
846.206	3211
846.342	3348
846.478	3279
846.614	3093
846.75	3070
846.886	3043
847.022	3253
847.158	3131
847.294	3218
847.429	3291
847.565	3192
847.701	3447
847.837	3055
847.972	3013
848.108	3157
848.244	3169
848.379	3020
848.515	2952
848.65	2933
848.786	2960
848.921	3005
849.057	3081
849.192	3138
849.328	3039
849.463	3131
849.598	3032
849.734	3055
849.869	2986
850.004	2902
850.14	2994
850.275	2918
850.41	2811
850.545	2925
850.68	2937
850.815	2937
850.95	2975
851.085	3195
851.22	3093
851.355	3013
851.49	3013
851.625	3058
851.76	3032
851.895	2979
852.03	2944
852.165	3020
852.299	3135
852.434	3173
852.569	3176
852.703	3203
852.838	3237
852.973	3317
853.107	3363
853.242	3165
853.376	3055
853.511	2960
853.645	2990
853.78	3230
853.914	3135
854.048	3100
854.183	3104
854.317	3150
854.451	3302
854.585	3131
854.72	3070
854.854	3184
854.988	3066
855.122	3112
855.256	3009
855.39	3112
855.524	3199
855.658	3184
855.792	3180
855.926	3184
856.06	3256
856.194	3260
856.327	3161
856.461	3062
856.595	3108
856.729	3112
856.862	3237
856.996	3154
857.13	3199
857.263	3241
857.397	3241
857.53	3097
857.664	3188
857.797	3230
857.931	3272
858.064	3169
858.197	3199
858.331	3157
858.464	3093
858.597	3009
858.731	3123
858.864	3119
858.997	3081
859.13	3131
859.263	3218
859.396	3176
859.529	3085
859.662	3051
859.795	3085
859.928	3142
860.061	3294
860.194	3294
860.327	3100
860.46	3085
860.592	3230
860.725	3298
860.858	3245
860.99	3104
861.123	3036
861.256	3036
861.388	3165
861.521	3907
861.653	3043
861.786	2971
861.918	3009
862.05	3100
862.183	3093
862.315	3150
862.447	3184
862.58	3089
862.712	2975
862.844	2876
862.976	3047
863.108	3001
863.24	3428
863.372	2876
863.504	2963
863.636	2948
863.768	3005
863.9	2971
864.032	2902
864.164	2979
864.296	2994
864.428	3108
864.559	3070
864.691	3058
864.823	3070
864.954	3009
865.086	3077
865.217	2971
865.349	2963
865.48	3001
865.612	3024
865.743	3150
865.875	2975
866.006	2952
866.137	2975
866.269	2963
866.4	2941
866.531	2937
866.662	2891
866.793	2906
866.924	2899
867.055	2967
867.186	2933
867.317	2922
867.448	2823
867.579	2883
867.71	2849
867.841	2853
867.972	2918
868.103	2941
868.233	2868
868.364	2887
868.495	2872
868.625	3070
868.756	3161
868.886	2960
869.017	3058
869.147	3180
869.278	3173
869.408	3055
869.539	3055
869.669	3077
869.799	3013
869.929	3100
870.06	3112
870.19	3325
870.32	3268
870.45	3310
870.58	3382
870.71	3469
870.84	3481
870.97	3313
871.1	3226
871.23	3500
871.36	3409
871.489	3363
871.619	3450
871.749	3363
871.879	3466
872.008	3477
872.138	3332
872.267	3298
872.397	3154
872.526	3085
872.656	3043
872.785	3104
872.915	3264
873.044	3310
873.173	3207
873.303	3279
873.432	3237
873.561	3237
873.69	3127
873.819	3135
873.948	3180
874.077	3097
874.206	3039
874.335	3085
874.464	3203
874.593	3336
874.722	3230
874.851	3397
874.979	3370
875.108	3317
875.237	3222
875.365	3165
875.494	3157
875.623	3233
875.751	3058
875.88	3119
876.008	3180
876.136	3264
876.265	3374
876.393	3526
876.521	3454
876.65	3409
876.778	3306
876.906	3256
877.034	3184
877.162	3241
877.29	3157
877.418	3237
877.546	3260
877.674	3256
877.802	3211
877.93	3245
878.058	3142
878.185	3123
878.313	3180
878.441	3188
878.568	3093
878.696	3127
878.824	3233
878.951	3302
879.079	3424
879.206	3633
879.333	3454
879.461	3298
879.588	3329
879.715	3454
879.842	3587
879.97	3389
880.097	3184
880.224	3108
880.351	3199
880.478	3211
880.605	3207
880.732	3188
880.859	3454
880.986	3291
881.112	3310
881.239	3154
881.366	3135
881.493	3047
881.619	2990
881.746	3062
881.872	3097
881.999	3112
882.125	3142
882.252	3268
882.378	3291
882.505	3378
882.631	3275
882.757	3127
882.883	3230
883.01	3256
883.136	3150
883.262	3085
883.388	3070
883.514	3294
883.64	3359
883.766	3306
883.892	3192
884.018	3264
884.143	3409
884.269	3523
884.395	3195
884.52	3184
884.646	3199
884.772	3127
884.897	3100
885.023	3203
885.148	3325
885.274	3424
885.399	3344
885.524	3256
885.65	3241
885.775	3272
885.9	3310
886.025	3409
886.15	3378
886.275	3294
886.4	3275
886.525	3313
886.65	3241
886.775	3256
886.9	3481
887.025	3637
887.149	3435
887.274	3218
887.399	3165
887.523	3203
887.648	3157
887.773	3203
887.897	3367
888.021	3401
888.146	3302
888.27	3439
888.395	3523
888.519	3386
888.643	3454
888.767	3481
888.891	3310
889.015	3211
889.139	3317
889.263	3268
889.387	3336
889.511	3469
889.635	3431
889.759	3291
889.883	3287
890.006	3405
890.13	3473
890.254	3260
890.377	3363
890.501	3192
890.624	3188
890.748	3294
890.871	3214
890.995	3127
891.118	3047
891.241	3192
891.364	3237
891.488	3298
891.611	3165
891.734	3188
891.857	3245
891.98	3249
892.103	3310
892.226	3275
892.349	3233
892.471	3123
892.594	3222
892.717	3294
892.839	3260
892.962	3275
893.085	3344
893.207	3298
893.33	3127
893.452	3184
893.575	3313
893.697	3264
893.819	3443
893.941	3492
894.064	3424
894.186	3264
894.308	3264
894.43	3409
894.552	3485
894.674	3458
894.796	3283
894.918	3321
895.04	3310
895.161	3435
895.283	3370
895.405	3306
895.526	3374
895.648	3412
895.769	3439
895.891	3466
896.012	3462
896.134	3462
896.255	3412
896.376	3401
896.498	3386
896.619	3420
896.74	3370
896.861	3420
896.982	3641
897.103	3838
897.224	3572
897.345	3530
897.466	3428
897.587	3481
897.708	3622
897.828	3534
897.949	3412
898.07	3325
898.19	3466
898.311	3584
898.431	3389
898.552	3511
898.672	3580
898.792	3606
898.913	3507
899.033	3378
899.153	3264
899.273	3226
899.393	3291
899.513	3294
899.633	3275
899.753	3302
899.873	3294
899.993	3374
900.113	3363
900.232	3359
900.352	3329
900.472	3264
900.591	3195
900.711	3287
900.83	3253
900.95	3431
901.069	3439
901.189	3382
901.308	3161
901.427	3123
901.546	3195
901.665	3291
901.784	3302
901.904	3207
902.023	3127
902.141	2990
902.26	2982
902.379	3119
902.498	3085
902.617	3036
902.735	3165
902.854	3249
902.973	3146
903.091	3039
903.21	3047
903.328	3157
903.446	3100
903.565	3097
903.683	3199
903.801	3138
903.919	3222
904.038	3302
904.156	3195
904.274	3249
904.392	3226
904.51	3264
904.627	3291
904.745	3428
904.863	3481
904.981	3272
905.098	3176
905.216	3214
905.334	3260
905.451	3321
905.569	3325
905.686	3454
905.803	3428
905.921	3294
906.038	3412
906.155	3321
906.272	3237
906.389	3321
906.506	3180
906.623	3283
906.74	3279
906.857	3203
906.974	3233
907.091	3466
907.208	3576
907.324	3458
907.441	3412
907.557	3253
907.674	3233
907.79	3195
907.907	3264
908.023	3382
908.139	3363
908.256	3340
908.372	3355
908.488	3348
908.604	3279
908.72	3279
908.836	3291
908.952	3302
909.068	3351
909.184	3488
909.3	3409
909.415	3500
909.531	3450
909.647	3272
909.762	3317
909.878	3268
909.993	3329
910.108	3374
910.224	3291
910.339	3443
910.454	3340
910.57	3310
910.685	3226
910.8	3572
910.915	3530
911.03	3412
911.145	3260
911.259	3275
911.374	3302
911.489	3207
911.604	3241
911.718	3131
911.833	3108
911.947	3017
912.062	2986
912.176	3165
912.291	3169
912.405	3203
912.519	3431
912.633	3477
912.748	3325
912.862	3264
912.976	3146
913.09	3062
913.204	3150
913.318	3211
913.431	3287
913.545	3332
913.659	3389
913.772	3329
913.886	3207
914	3184
914.113	3389
914.226	3382
914.34	3344
914.453	3218
914.566	3424
914.68	3264
914.793	3321
914.906	3169
915.019	3093
915.132	3058
915.245	3142
915.358	3237
915.47	3218
915.583	3272
915.696	3310
915.809	3416
915.921	3386
916.034	3233
916.146	3241
916.259	3256
916.371	3359
916.483	3397
916.595	3249
916.708	3329
916.82	3313
916.932	3340
917.044	3351
917.156	3329
917.268	3233
917.38	3313
917.491	3351
917.603	3378
917.715	3447
917.826	3466
917.938	3370
918.049	3329
918.161	3393
918.272	3572
918.384	3530
918.495	3500
918.606	3336
918.717	3260
918.828	3382
918.939	3389
919.05	3306
919.161	3367
919.272	3192
919.383	3279
919.494	3515
919.604	3675
919.715	3492
919.826	3401
919.936	3454
920.047	3564
920.157	3530
920.267	3762
920.378	3625
920.488	3595
920.598	3793
920.708	3964
920.818	3827
920.928	3842
921.038	4010
921.148	3964
921.258	3705
921.368	3652
921.477	3595
921.587	3530
921.697	3424
921.806	3644
921.916	3492
922.025	3351
922.134	3332
922.244	3344
922.353	3447
922.462	3241
922.571	3237
922.68	3089
922.789	3085
922.898	3097
923.007	3100
923.116	3203
923.224	3226
923.333	3161
923.442	3081
923.55	3058
923.659	3150
923.767	3207
923.876	3150
923.984	3253
924.092	3066
924.201	3180
924.309	3199
924.417	3256
924.525	3176
924.633	3256
924.741	4006
924.849	3062
924.956	3230
925.064	3055
925.172	3039
925.279	3104
925.387	3184
925.494	3203
925.602	3340
925.709	3344
925.816	3188
925.924	3298
926.031	3370
926.138	3279
926.245	3348
926.352	3268
926.459	3393
926.566	3458
926.673	3317
926.779	3283
926.886	3253
926.993	3169
927.099	3138
927.206	3104
927.312	3112
927.419	3237
927.525	3207
927.631	3253
927.737	3138
927.843	3112
927.95	2998
928.056	3116
928.162	3184
928.267	3237
928.373	3918
928.479	3298
928.585	3066
928.69	3195
928.796	3256
928.901	3169
929.007	3085
929.112	3207
929.218	3180
929.323	3119
929.428	3161
929.533	3283
929.638	3085
929.743	3127
929.848	3249
929.953	3211
930.058	3146
930.163	2975
930.267	3055
930.372	3192
930.477	3032
930.581	3291
930.685	3176
930.79	3066
930.894	3150
930.998	3074
931.103	3275
931.207	2971
931.311	2914
931.415	2895
931.519	2773
931.623	2769
