Data from test_V78500241_89.txt Node
Date: Fri Mar 25 16:15:49 CST 2022
User: usil
Spectrometer: V785-0024
Trigger mode: 0
Integration Time (sec): 4.000000E-1
Scans to average: 1
Nonlinearity correction enabled: false
Boxcar width: 0
Storing dark spectrum: false
XAxis mode: Wavelengths
Number of Pixels in Spectrum: 1024
>>>>>Begin Spectral Data<<<<<
801.071	2948
801.214	2975
801.356	2861
801.499	2914
801.641	2922
801.783	2937
801.926	3104
802.068	2990
802.211	3051
802.353	3055
802.496	3009
802.638	3051
802.78	3089
802.923	3081
803.065	3005
803.208	2944
803.35	2929
803.492	2960
803.635	2986
803.777	2804
803.919	2925
804.061	3260
804.204	2948
804.346	2963
804.488	2883
804.63	2990
804.773	2891
804.915	2948
805.057	3104
805.199	2960
805.341	3009
805.483	3070
805.626	3017
805.768	2990
805.91	3100
806.052	3138
806.194	3081
806.336	3256
806.478	3104
806.62	2979
806.762	3032
806.904	3123
807.046	3188
807.188	3039
807.33	2956
807.472	3028
807.614	2906
807.756	3032
807.898	2956
808.04	2922
808.182	2986
808.324	2994
808.465	2933
808.607	2914
808.749	2811
808.891	2914
809.033	3009
809.174	3001
809.316	2899
809.458	2956
809.6	2804
809.741	2804
809.883	2777
810.025	2891
810.166	2883
810.308	2880
810.45	2906
810.591	2823
810.733	2804
810.875	2876
811.016	2792
811.158	2777
811.299	2838
811.441	2941
811.582	2960
811.724	2842
811.865	2842
812.007	2937
812.148	2925
812.29	2914
812.431	2956
812.573	2963
812.714	2956
812.855	3070
812.997	3074
813.138	3142
813.279	3032
813.421	3009
813.562	2948
813.703	2918
813.845	2941
813.986	2826
814.127	2743
814.268	2857
814.41	2883
814.551	2845
814.692	2925
814.833	2807
814.974	2929
815.115	2956
815.256	2864
815.397	2838
815.539	2925
815.68	2823
815.821	2815
815.962	2986
816.103	2944
816.244	2925
816.385	2887
816.526	3009
816.666	2910
816.807	2777
816.948	2960
817.089	2960
817.23	2891
817.371	2811
817.512	2861
817.653	2906
817.793	2861
817.934	2902
818.075	3005
818.216	3032
818.356	3013
818.497	2929
818.638	2838
818.778	2834
818.919	2819
819.06	2758
819.2	2895
819.341	2849
819.481	2853
819.622	2963
819.762	3093
819.903	3074
820.043	2960
820.184	2944
820.324	2948
820.465	3062
820.605	3062
820.746	3043
820.886	2982
821.026	3154
821.167	3176
821.307	3336
821.447	3275
821.588	3306
821.728	3211
821.868	3237
822.008	3112
822.149	3249
822.289	3294
822.429	3131
822.569	3108
822.709	3226
822.849	3058
822.99	3058
823.13	3199
823.27	3291
823.41	3131
823.55	3176
823.69	3161
823.83	3249
823.97	3112
824.11	3062
824.25	3039
824.389	3104
824.529	3142
824.669	3077
824.809	3211
824.949	3268
825.089	3241
825.228	3218
825.368	3047
825.508	3032
825.648	3036
825.787	3051
825.927	3055
826.067	3001
826.206	3001
826.346	3089
826.485	3077
826.625	3146
826.765	3321
826.904	3226
827.044	3024
827.183	2948
827.323	2864
827.462	3017
827.601	2937
827.741	2929
827.88	2982
828.02	2857
828.159	3009
828.298	3047
828.437	3135
828.577	3047
828.716	3256
828.855	3127
828.994	2941
829.134	2914
829.273	2925
829.412	2906
829.551	2910
829.69	2918
829.829	3028
829.968	3138
830.107	3051
830.246	3093
830.385	2941
830.524	2895
830.663	2853
830.802	2731
830.941	2678
831.08	2678
831.219	2785
831.357	2769
831.496	2944
831.635	2754
831.774	2640
831.913	2712
832.051	2537
832.19	2606
832.329	2724
832.467	2590
832.606	2533
832.744	2644
832.883	2625
833.022	2621
833.16	2659
833.299	2727
833.437	2720
833.576	2766
833.714	2758
833.852	2746
833.991	2769
834.129	2853
834.267	2857
834.406	2785
834.544	2849
834.682	2891
834.821	2872
834.959	3093
835.097	2937
835.235	3055
835.373	3047
835.511	3062
835.65	3024
835.788	2971
835.926	2849
836.064	2838
836.202	2883
836.34	3104
836.478	3150
836.615	3058
836.753	3154
836.891	3233
837.029	3199
837.167	3131
837.305	3108
837.443	3047
837.58	2941
837.718	3127
837.856	3100
837.993	3093
838.131	3119
838.269	3157
838.406	3104
838.544	3119
838.681	2948
838.819	2922
838.956	2845
839.094	2842
839.231	2937
839.369	3047
839.506	3412
839.643	3222
839.781	3017
839.918	3001
840.055	3066
840.193	3047
840.33	3093
840.467	3116
840.604	3184
840.742	3416
840.879	3058
841.016	3070
841.153	3154
841.29	3386
841.427	3332
841.564	3272
841.701	3344
841.838	3260
841.975	3226
842.112	3249
842.249	3108
842.385	3062
842.522	3302
842.659	3146
842.796	3138
842.933	3116
843.069	3066
843.206	3097
843.343	3195
843.479	3116
843.616	3195
843.752	2937
843.889	2902
844.025	3123
844.162	2883
844.298	3104
844.435	2990
844.571	2944
844.708	3055
844.844	3207
844.98	3245
845.117	3241
845.253	3081
845.389	3028
845.525	3119
845.661	3169
845.798	3074
845.934	3165
846.07	3077
846.206	3199
846.342	3367
846.478	3287
846.614	3089
846.75	3066
846.886	3032
847.022	3272
847.158	3188
847.294	3241
847.429	3268
847.565	3233
847.701	3492
847.837	3070
847.972	2986
848.108	3169
848.244	3176
848.379	2990
848.515	2994
848.65	2944
848.786	2971
848.921	3066
849.057	3165
849.192	3154
849.328	3070
849.463	3138
849.598	3089
849.734	3055
849.869	3039
850.004	2925
850.14	3005
850.275	2933
850.41	2864
850.545	2891
850.68	2979
850.815	2994
850.95	3009
851.085	3253
851.22	3180
851.355	3070
851.49	2975
851.625	3013
851.76	3024
851.895	2975
852.03	2971
852.165	3047
852.299	3123
852.434	3211
852.569	3146
852.703	3260
852.838	3260
852.973	3355
853.107	3351
853.242	3154
853.376	3142
853.511	2979
853.645	3036
853.78	3283
853.914	3138
854.048	3119
854.183	3108
854.317	3161
854.451	3302
854.585	3150
854.72	3127
854.854	3256
854.988	3089
855.122	3116
855.256	2960
855.39	3173
855.524	3264
855.658	3188
855.792	3157
855.926	3245
856.06	3313
856.194	3291
856.327	3180
856.461	3116
856.595	3123
856.729	3116
856.862	3230
856.996	3207
857.13	3211
857.263	3253
857.397	3321
857.53	3165
857.664	3199
857.797	3260
857.931	3283
858.064	3176
858.197	3253
858.331	3135
858.464	3157
858.597	3032
858.731	3116
858.864	3173
858.997	3123
859.13	3154
859.263	3222
859.396	3218
859.529	3074
859.662	3108
859.795	3112
859.928	3146
860.061	3294
860.194	3291
860.327	3138
860.46	3142
860.592	3256
860.725	3249
860.858	3283
860.99	3116
861.123	3066
861.256	3032
861.388	3173
861.521	3747
861.653	3013
861.786	3024
861.918	3028
862.05	3062
862.183	3116
862.315	3150
862.447	3245
862.58	3119
862.712	2956
862.844	2922
862.976	3043
863.108	2990
863.24	3431
863.372	2880
863.504	2963
863.636	2986
863.768	3058
863.9	3024
864.032	2925
864.164	2979
864.296	3013
864.428	3112
864.559	3123
864.691	3077
864.823	3077
864.954	3081
865.086	3089
865.217	3013
865.349	2994
865.48	3032
865.612	3093
865.743	3150
865.875	2990
866.006	2941
866.137	2990
866.269	2982
866.4	2982
866.531	2922
866.662	2933
866.793	2918
866.924	2937
867.055	2994
867.186	2948
867.317	2906
867.448	2857
867.579	2864
867.71	2902
867.841	2811
867.972	2910
868.103	2925
868.233	2902
868.364	2895
868.495	2933
868.625	3104
868.756	3203
868.886	2986
869.017	3032
869.147	3173
869.278	3176
869.408	3077
869.539	3058
869.669	3131
869.799	3062
869.929	3135
870.06	3131
870.19	3336
870.32	3325
870.45	3310
870.58	3409
870.71	3496
870.84	3473
870.97	3344
871.1	3287
871.23	3519
871.36	3485
871.489	3405
871.619	3450
871.749	3424
871.879	3485
872.008	3526
872.138	3382
872.267	3279
872.397	3169
872.526	3119
872.656	3020
872.785	3085
872.915	3302
873.044	3332
873.173	3272
873.303	3306
873.432	3287
873.561	3256
873.69	3135
873.819	3157
873.948	3245
874.077	3142
874.206	3028
874.335	3100
874.464	3237
874.593	3424
874.722	3249
874.851	3431
874.979	3397
875.108	3344
875.237	3272
875.365	3176
875.494	3199
875.623	3294
875.751	3089
875.88	3131
876.008	3222
876.136	3272
876.265	3435
876.393	3534
876.521	3462
876.65	3412
876.778	3378
876.906	3313
877.034	3222
877.162	3256
877.29	3176
877.418	3310
877.546	3233
877.674	3313
877.802	3260
877.93	3287
878.058	3146
878.185	3161
878.313	3241
878.441	3222
878.568	3093
878.696	3150
878.824	3275
878.951	3355
879.079	3485
879.206	3633
879.333	3454
879.461	3374
879.588	3424
879.715	3526
879.842	3606
879.97	3458
880.097	3203
880.224	3127
880.351	3237
880.478	3245
880.605	3237
880.732	3218
880.859	3530
880.986	3313
881.112	3367
881.239	3260
881.366	3112
881.493	3123
881.619	3081
881.746	3097
881.872	3097
881.999	3161
882.125	3211
882.252	3283
882.378	3321
882.505	3485
882.631	3325
882.757	3138
882.883	3214
883.01	3237
883.136	3165
883.262	3112
883.388	3119
883.514	3313
883.64	3416
883.766	3344
883.892	3245
884.018	3264
884.143	3466
884.269	3549
884.395	3256
884.52	3218
884.646	3218
884.772	3176
884.897	3089
885.023	3222
885.148	3363
885.274	3443
885.399	3348
885.524	3321
885.65	3298
885.775	3363
885.9	3336
886.025	3450
886.15	3367
886.275	3283
886.4	3302
886.525	3344
886.65	3325
886.775	3298
886.9	3557
887.025	3644
887.149	3450
887.274	3272
887.399	3199
887.523	3214
887.648	3222
887.773	3260
887.897	3409
888.021	3443
888.146	3336
888.27	3420
888.395	3591
888.519	3481
888.643	3466
888.767	3469
888.891	3363
889.015	3291
889.139	3340
889.263	3233
889.387	3458
889.511	3523
889.635	3454
889.759	3298
889.883	3355
890.006	3428
890.13	3526
890.254	3291
890.377	3336
890.501	3218
890.624	3230
890.748	3340
890.871	3169
890.995	3119
891.118	3100
891.241	3173
891.364	3245
891.488	3332
891.611	3195
891.734	3268
891.857	3306
891.98	3279
892.103	3378
892.226	3291
892.349	3241
892.471	3119
892.594	3272
892.717	3298
892.839	3275
892.962	3294
893.085	3409
893.207	3294
893.33	3214
893.452	3207
893.575	3389
893.697	3237
893.819	3488
893.941	3526
894.064	3488
894.186	3253
894.308	3336
894.43	3496
894.552	3561
894.674	3462
894.796	3317
894.918	3363
895.04	3332
895.161	3466
895.283	3401
895.405	3355
895.526	3374
895.648	3462
895.769	3485
895.891	3462
896.012	3496
896.134	3469
896.255	3462
896.376	3424
896.498	3397
896.619	3454
896.74	3412
896.861	3409
896.982	3660
897.103	3876
897.224	3606
897.345	3538
897.466	3477
897.587	3500
897.708	3633
897.828	3595
897.949	3488
898.07	3367
898.19	3405
898.311	3660
898.431	3500
898.552	3530
898.672	3610
898.792	3633
898.913	3553
899.033	3428
899.153	3302
899.273	3249
899.393	3313
899.513	3348
899.633	3310
899.753	3386
899.873	3393
899.993	3405
900.113	3359
900.232	3420
900.352	3397
900.472	3321
900.591	3241
900.711	3355
900.83	3283
900.95	3420
901.069	3538
901.189	3412
901.308	3188
901.427	3142
901.546	3237
901.665	3317
901.784	3344
901.904	3260
902.023	3135
902.141	3051
902.26	2998
902.379	3195
902.498	3097
902.617	3119
902.735	3230
902.854	3245
902.973	3199
903.091	3055
903.21	3051
903.328	3188
903.446	3135
903.565	3108
903.683	3233
903.801	3150
903.919	3249
904.038	3325
904.156	3176
904.274	3283
904.392	3260
904.51	3313
904.627	3351
904.745	3443
904.863	3557
904.981	3283
905.098	3176
905.216	3249
905.334	3287
905.451	3336
905.569	3355
905.686	3420
905.803	3473
905.921	3321
906.038	3454
906.155	3428
906.272	3344
906.389	3389
906.506	3287
906.623	3325
906.74	3298
906.857	3211
906.974	3260
907.091	3530
907.208	3603
907.324	3523
907.441	3416
907.557	3310
907.674	3275
907.79	3211
907.907	3329
908.023	3435
908.139	3416
908.256	3348
908.372	3401
908.488	3355
908.604	3264
908.72	3245
908.836	3336
908.952	3325
909.068	3367
909.184	3500
909.3	3428
909.415	3530
909.531	3485
909.647	3291
909.762	3332
909.878	3256
909.993	3370
910.108	3378
910.224	3386
910.339	3462
910.454	3317
910.57	3317
910.685	3302
910.8	3633
910.915	3542
911.03	3515
911.145	3279
911.259	3306
911.374	3348
911.489	3298
911.604	3237
911.718	3150
911.833	3169
911.947	3081
912.062	3032
912.176	3173
912.291	3188
912.405	3283
912.519	3469
912.633	3530
912.748	3393
912.862	3272
912.976	3192
913.09	3070
913.204	3142
913.318	3230
913.431	3370
913.545	3386
913.659	3431
913.772	3378
913.886	3245
914	3253
914.113	3382
914.226	3477
914.34	3420
914.453	3256
914.566	3416
914.68	3313
914.793	3367
914.906	3188
915.019	3161
915.132	3135
915.245	3188
915.358	3268
915.47	3272
915.583	3313
915.696	3279
915.809	3435
915.921	3435
916.034	3302
916.146	3279
916.259	3268
916.371	3409
916.483	3389
916.595	3283
916.708	3359
916.82	3420
916.932	3367
917.044	3359
917.156	3344
917.268	3291
917.38	3313
917.491	3355
917.603	3355
917.715	3481
917.826	3507
917.938	3363
918.049	3302
918.161	3466
918.272	3561
918.384	3587
918.495	3568
918.606	3397
918.717	3321
918.828	3363
918.939	3477
919.05	3340
919.161	3378
919.272	3199
919.383	3313
919.494	3576
919.604	3720
919.715	3538
919.826	3469
919.936	3473
920.047	3637
920.157	3564
920.267	3781
920.378	3610
920.488	3637
920.598	3804
920.708	4010
920.818	3873
920.928	3857
921.038	4051
921.148	3991
921.258	3770
921.368	3679
921.477	3622
921.587	3564
921.697	3477
921.806	3679
921.916	3553
922.025	3386
922.134	3389
922.244	3340
922.353	3431
922.462	3302
922.571	3283
922.68	3131
922.789	3085
922.898	3161
923.007	3123
923.116	3226
923.224	3230
923.333	3203
923.442	3085
923.55	3123
923.659	3157
923.767	3230
923.876	3180
923.984	3279
924.092	3116
924.201	3214
924.309	3245
924.417	3313
924.525	3222
924.633	3279
924.741	4196
924.849	3058
924.956	3302
925.064	3123
925.172	3055
925.279	3123
925.387	3226
925.494	3222
925.602	3409
925.709	3370
925.816	3214
925.924	3313
926.031	3405
926.138	3359
926.245	3355
926.352	3321
926.459	3447
926.566	3526
926.673	3374
926.779	3294
926.886	3245
926.993	3192
927.099	3207
927.206	3127
927.312	3127
927.419	3260
927.525	3233
927.631	3306
927.737	3146
927.843	3195
927.95	3032
928.056	3135
928.162	3184
928.267	3241
928.373	3812
928.479	3367
928.585	3119
928.69	3230
928.796	3275
928.901	3195
929.007	3089
929.112	3256
929.218	3214
929.323	3142
929.428	3226
929.533	3340
929.638	3157
929.743	3165
929.848	3298
929.953	3241
930.058	3150
930.163	3017
930.267	3043
930.372	3230
930.477	3100
930.581	3351
930.685	3161
930.79	3089
930.894	3142
930.998	3157
931.103	3287
931.207	2967
931.311	2971
931.415	2929
931.519	2785
931.623	2861
