Data from test_V78500241_441.txt Node
Date: Fri Mar 25 16:18:15 CST 2022
User: usil
Spectrometer: V785-0024
Trigger mode: 0
Integration Time (sec): 4.000000E-1
Scans to average: 1
Nonlinearity correction enabled: false
Boxcar width: 0
Storing dark spectrum: false
XAxis mode: Wavelengths
Number of Pixels in Spectrum: 1024
>>>>>Begin Spectral Data<<<<<
801.071	2956
801.214	2944
801.356	2910
801.499	2902
801.641	2948
801.783	2944
801.926	3043
802.068	3009
802.211	2986
802.353	3062
802.496	2952
802.638	3077
802.78	3058
802.923	3093
803.065	3020
803.208	2906
803.35	2929
803.492	2967
803.635	2941
803.777	2807
803.919	2891
804.061	3214
804.204	2990
804.346	2910
804.488	2880
804.63	3032
804.773	2887
804.915	2925
805.057	3108
805.199	2937
805.341	2990
805.483	3112
805.626	2994
805.768	2956
805.91	3100
806.052	3138
806.194	3093
806.336	3218
806.478	3020
806.62	2971
806.762	3009
806.904	3089
807.046	3203
807.188	2986
807.33	2948
807.472	2986
807.614	2925
807.756	3005
807.898	2963
808.04	2910
808.182	3001
808.324	2971
808.465	2883
808.607	2868
808.749	2769
808.891	2845
809.033	2975
809.174	2967
809.316	2872
809.458	2933
809.6	2792
809.741	2769
809.883	2769
810.025	2868
810.166	2853
810.308	2842
810.45	2857
810.591	2773
810.733	2766
810.875	2864
811.016	2781
811.158	2750
811.299	2815
811.441	2948
811.582	2899
811.724	2804
811.865	2834
812.007	2956
812.148	2868
812.29	2857
812.431	2906
812.573	2956
812.714	2975
812.855	3055
812.997	3093
813.138	3119
813.279	3039
813.421	3001
813.562	2937
813.703	2883
813.845	2887
813.986	2800
814.127	2743
814.268	2796
814.41	2842
814.551	2811
814.692	2906
814.833	2830
814.974	2899
815.115	2948
815.256	2838
815.397	2857
815.539	2872
815.68	2792
815.821	2796
815.962	2925
816.103	2956
816.244	2899
816.385	2849
816.526	2952
816.666	2922
816.807	2788
816.948	2902
817.089	2941
817.23	2861
817.371	2785
817.512	2807
817.653	2845
817.793	2800
817.934	2883
818.075	3009
818.216	2975
818.356	3024
818.497	2876
818.638	2807
818.778	2815
818.919	2777
819.06	2792
819.2	2849
819.341	2834
819.481	2792
819.622	2891
819.762	3100
819.903	3051
820.043	2933
820.184	2944
820.324	2929
820.465	3005
820.605	3039
820.746	3013
820.886	2933
821.026	3116
821.167	3169
821.307	3245
821.447	3302
821.588	3237
821.728	3195
821.868	3169
822.008	3089
822.149	3195
822.289	3264
822.429	3089
822.569	3062
822.709	3169
822.849	3020
822.99	3051
823.13	3154
823.27	3222
823.41	3119
823.55	3195
823.69	3142
823.83	3188
823.97	3127
824.11	3013
824.25	3051
824.389	3066
824.529	3081
824.669	3093
824.809	3188
824.949	3264
825.089	3233
825.228	3138
825.368	2979
825.508	2925
825.648	2986
825.787	3036
825.927	3013
826.067	2986
826.206	2967
826.346	3039
826.485	3081
826.625	3116
826.765	3279
826.904	3241
827.044	2986
827.183	2963
827.323	2941
827.462	2986
827.601	2902
827.741	2975
827.88	2971
828.02	2876
828.159	2990
828.298	3028
828.437	3123
828.577	3032
828.716	3253
828.855	3077
828.994	2914
829.134	2902
829.273	2910
829.412	2880
829.551	2891
829.69	2895
829.829	2986
829.968	3123
830.107	2998
830.246	3039
830.385	2937
830.524	2914
830.663	2845
830.802	2712
830.941	2640
831.08	2663
831.219	2769
831.357	2800
831.496	2933
831.635	2697
831.774	2644
831.913	2636
832.051	2522
832.19	2617
832.329	2689
832.467	2541
832.606	2530
832.744	2579
832.883	2606
833.022	2587
833.16	2651
833.299	2689
833.437	2739
833.576	2693
833.714	2724
833.852	2712
833.991	2762
834.129	2857
834.267	2823
834.406	2777
834.544	2899
834.682	2887
834.821	2857
834.959	3055
835.097	2899
835.235	3070
835.373	2971
835.511	2982
835.65	2998
835.788	2952
835.926	2880
836.064	2845
836.202	2857
836.34	3089
836.478	3119
836.615	3032
836.753	3112
836.891	3176
837.029	3211
837.167	3123
837.305	3070
837.443	3032
837.58	2956
837.718	3123
837.856	3055
837.993	3005
838.131	3135
838.269	3104
838.406	3097
838.544	3074
838.681	2929
838.819	2868
838.956	2807
839.094	2834
839.231	2918
839.369	3036
839.506	3370
839.643	3226
839.781	2990
839.918	2952
840.055	3036
840.193	3055
840.33	3051
840.467	3062
840.604	3161
840.742	3401
840.879	3062
841.016	3047
841.153	3123
841.29	3355
841.427	3279
841.564	3283
841.701	3329
841.838	3264
841.975	3195
842.112	3207
842.249	3066
842.385	3058
842.522	3245
842.659	3108
842.796	3051
842.933	3119
843.069	3066
843.206	3047
843.343	3203
843.479	3085
843.616	3176
843.752	2899
843.889	2872
844.025	3058
844.162	2857
844.298	3047
844.435	2971
844.571	2941
844.708	3062
844.844	3180
844.98	3237
845.117	3184
845.253	3055
845.389	2982
845.525	3100
845.661	3127
845.798	2994
845.934	3146
846.07	3051
846.206	3241
846.342	3287
846.478	3199
846.614	3097
846.75	3066
846.886	3017
847.022	3222
847.158	3150
847.294	3165
847.429	3237
847.565	3211
847.701	3443
847.837	3032
847.972	2979
848.108	3176
848.244	3123
848.379	2979
848.515	2899
848.65	2925
848.786	2960
848.921	3009
849.057	3108
849.192	3161
849.328	3043
849.463	3165
849.598	3017
849.734	3028
849.869	2914
850.004	2887
850.14	2956
850.275	2922
850.41	2849
850.545	2861
850.68	2941
850.815	2918
850.95	2948
851.085	3192
851.22	3112
851.355	2982
851.49	2986
851.625	2998
851.76	3047
851.895	2906
852.03	2929
852.165	3032
852.299	3112
852.434	3195
852.569	3157
852.703	3173
852.838	3230
852.973	3283
853.107	3340
853.242	3176
853.376	3070
853.511	3013
853.645	3062
853.78	3260
853.914	3127
854.048	3127
854.183	3127
854.317	3150
854.451	3298
854.585	3146
854.72	3093
854.854	3230
854.988	3055
855.122	3119
855.256	2998
855.39	3123
855.524	3256
855.658	3199
855.792	3165
855.926	3233
856.06	3279
856.194	3306
856.327	3222
856.461	3116
856.595	3131
856.729	3112
856.862	3207
856.996	3161
857.13	3226
857.263	3272
857.397	3287
857.53	3135
857.664	3226
857.797	3245
857.931	3283
858.064	3188
858.197	3226
858.331	3165
858.464	3173
858.597	3024
858.731	3165
858.864	3173
858.997	3146
859.13	3199
859.263	3264
859.396	3268
859.529	3150
859.662	3093
859.795	3112
859.928	3176
860.061	3332
860.194	3313
860.327	3188
860.46	3146
860.592	3260
860.725	3313
860.858	3283
860.99	3154
861.123	3085
861.256	3104
861.388	3161
861.521	3983
861.653	3043
861.786	3005
861.918	3039
862.05	3085
862.183	3104
862.315	3169
862.447	3245
862.58	3123
862.712	2929
862.844	2899
862.976	3047
863.108	3024
863.24	3450
863.372	2899
863.504	2994
863.636	2998
863.768	3036
863.9	3013
864.032	2941
864.164	2967
864.296	3066
864.428	3131
864.559	3146
864.691	3123
864.823	3119
864.954	3032
865.086	3085
865.217	3013
865.349	2979
865.48	3032
865.612	3066
865.743	3222
865.875	3005
866.006	3013
866.137	3039
866.269	2990
866.4	2982
866.531	2944
866.662	2937
866.793	2948
866.924	2979
867.055	3017
867.186	2941
867.317	2902
867.448	2857
867.579	2914
867.71	2895
867.841	2872
867.972	2944
868.103	2948
868.233	2910
868.364	2902
868.495	2910
868.625	3116
868.756	3180
868.886	3032
869.017	3028
869.147	3199
869.278	3195
869.408	3097
869.539	3077
869.669	3097
869.799	3097
869.929	3169
870.06	3138
870.19	3332
870.32	3283
870.45	3344
870.58	3378
870.71	3447
870.84	3500
870.97	3351
871.1	3268
871.23	3504
871.36	3492
871.489	3382
871.619	3428
871.749	3428
871.879	3488
872.008	3519
872.138	3412
872.267	3283
872.397	3154
872.526	3146
872.656	3058
872.785	3119
872.915	3272
873.044	3332
873.173	3310
873.303	3268
873.432	3222
873.561	3249
873.69	3157
873.819	3146
873.948	3192
874.077	3146
874.206	3112
874.335	3119
874.464	3241
874.593	3374
874.722	3325
874.851	3420
874.979	3382
875.108	3348
875.237	3222
875.365	3192
875.494	3192
875.623	3268
875.751	3112
875.88	3173
876.008	3218
876.136	3268
876.265	3367
876.393	3545
876.521	3420
876.65	3454
876.778	3355
876.906	3283
877.034	3253
877.162	3230
877.29	3241
877.418	3260
877.546	3260
877.674	3264
877.802	3275
877.93	3268
878.058	3203
878.185	3138
878.313	3241
878.441	3264
878.568	3108
878.696	3176
878.824	3298
878.951	3287
879.079	3523
879.206	3614
879.333	3454
879.461	3355
879.588	3370
879.715	3523
879.842	3610
879.97	3393
880.097	3211
880.224	3157
880.351	3237
880.478	3302
880.605	3237
880.732	3237
880.859	3542
880.986	3359
881.112	3336
881.239	3222
881.366	3097
881.493	3058
881.619	3024
881.746	3104
881.872	3116
881.999	3119
882.125	3199
882.252	3310
882.378	3382
882.505	3450
882.631	3321
882.757	3157
882.883	3222
883.01	3230
883.136	3169
883.262	3116
883.388	3146
883.514	3348
883.64	3412
883.766	3317
883.892	3241
884.018	3260
884.143	3450
884.269	3557
884.395	3230
884.52	3192
884.646	3203
884.772	3180
884.897	3135
885.023	3233
885.148	3348
885.274	3439
885.399	3374
885.524	3275
885.65	3325
885.775	3340
885.9	3249
886.025	3443
886.15	3382
886.275	3329
886.4	3256
886.525	3359
886.65	3298
886.775	3313
886.9	3545
887.025	3644
887.149	3428
887.274	3283
887.399	3230
887.523	3245
887.648	3222
887.773	3245
887.897	3397
888.021	3435
888.146	3313
888.27	3435
888.395	3504
888.519	3435
888.643	3454
888.767	3504
888.891	3291
889.015	3264
889.139	3310
889.263	3272
889.387	3412
889.511	3504
889.635	3477
889.759	3287
889.883	3344
890.006	3389
890.13	3545
890.254	3313
890.377	3336
890.501	3222
890.624	3195
890.748	3313
890.871	3218
890.995	3154
891.118	3100
891.241	3214
891.364	3275
891.488	3348
891.611	3214
891.734	3249
891.857	3291
891.98	3268
892.103	3351
892.226	3306
892.349	3272
892.471	3138
892.594	3287
892.717	3298
892.839	3298
892.962	3332
893.085	3386
893.207	3329
893.33	3195
893.452	3222
893.575	3367
893.697	3275
893.819	3473
893.941	3542
894.064	3485
894.186	3283
894.308	3256
894.43	3500
894.552	3549
894.674	3553
894.796	3287
894.918	3329
895.04	3321
895.161	3473
895.283	3428
895.405	3283
895.526	3367
895.648	3397
895.769	3435
895.891	3500
896.012	3496
896.134	3481
896.255	3393
896.376	3393
896.498	3374
896.619	3431
896.74	3412
896.861	3401
896.982	3728
897.103	3880
897.224	3641
897.345	3477
897.466	3458
897.587	3500
897.708	3686
897.828	3530
897.949	3416
898.07	3382
898.19	3469
898.311	3641
898.431	3469
898.552	3519
898.672	3603
898.792	3599
898.913	3515
899.033	3412
899.153	3313
899.273	3245
899.393	3294
899.513	3348
899.633	3310
899.753	3329
899.873	3351
899.993	3378
900.113	3351
900.232	3389
900.352	3355
900.472	3298
900.591	3237
900.711	3336
900.83	3245
900.95	3458
901.069	3504
901.189	3397
901.308	3211
901.427	3135
901.546	3222
901.665	3317
901.784	3355
901.904	3230
902.023	3165
902.141	3024
902.26	2998
902.379	3188
902.498	3058
902.617	3074
902.735	3230
902.854	3245
902.973	3233
903.091	3047
903.21	3058
903.328	3165
903.446	3138
903.565	3127
903.683	3230
903.801	3142
903.919	3253
904.038	3344
904.156	3195
904.274	3313
904.392	3275
904.51	3291
904.627	3351
904.745	3450
904.863	3515
904.981	3287
905.098	3154
905.216	3291
905.334	3302
905.451	3321
905.569	3313
905.686	3431
905.803	3424
905.921	3287
906.038	3435
906.155	3386
906.272	3275
906.389	3344
906.506	3218
906.623	3291
906.74	3294
906.857	3237
906.974	3287
907.091	3450
907.208	3568
907.324	3504
907.441	3389
907.557	3272
907.674	3279
907.79	3180
907.907	3260
908.023	3378
908.139	3374
908.256	3306
908.372	3397
908.488	3397
908.604	3272
908.72	3253
908.836	3283
908.952	3268
909.068	3332
909.184	3485
909.3	3435
909.415	3488
909.531	3507
909.647	3321
909.762	3302
909.878	3253
909.993	3344
910.108	3359
910.224	3359
910.339	3431
910.454	3359
910.57	3272
910.685	3253
910.8	3591
910.915	3545
911.03	3462
911.145	3253
911.259	3310
911.374	3340
911.489	3226
911.604	3245
911.718	3135
911.833	3154
911.947	3043
912.062	3005
912.176	3203
912.291	3214
912.405	3214
912.519	3454
912.633	3473
912.748	3317
912.862	3294
912.976	3142
913.09	3108
913.204	3173
913.318	3233
913.431	3310
913.545	3329
913.659	3424
913.772	3355
913.886	3245
914	3207
914.113	3344
914.226	3447
914.34	3378
914.453	3264
914.566	3424
914.68	3256
914.793	3336
914.906	3154
915.019	3161
915.132	3085
915.245	3222
915.358	3264
915.47	3230
915.583	3256
915.696	3283
915.809	3412
915.921	3469
916.034	3279
916.146	3298
916.259	3218
916.371	3401
916.483	3367
916.595	3268
916.708	3355
916.82	3355
916.932	3348
917.044	3332
917.156	3393
917.268	3237
917.38	3298
917.491	3302
917.603	3378
917.715	3447
917.826	3450
917.938	3351
918.049	3283
918.161	3458
918.272	3603
918.384	3591
918.495	3496
918.606	3355
918.717	3268
918.828	3382
918.939	3389
919.05	3348
919.161	3344
919.272	3214
919.383	3321
919.494	3492
919.604	3679
919.715	3511
919.826	3412
919.936	3477
920.047	3576
920.157	3561
920.267	3778
920.378	3606
920.488	3564
920.598	3781
920.708	3968
920.818	3884
920.928	3816
921.038	4021
921.148	3975
921.258	3686
921.368	3622
921.477	3595
921.587	3511
921.697	3477
921.806	3595
921.916	3519
922.025	3355
922.134	3344
922.244	3306
922.353	3485
922.462	3291
922.571	3249
922.68	3093
922.789	3089
922.898	3154
923.007	3097
923.116	3260
923.224	3184
923.333	3184
923.442	3108
923.55	3123
923.659	3123
923.767	3226
923.876	3127
923.984	3237
924.092	3108
924.201	3184
924.309	3230
924.417	3237
924.525	3184
924.633	3253
924.741	4177
924.849	3047
924.956	3287
925.064	3116
925.172	3024
925.279	3123
925.387	3184
925.494	3226
925.602	3355
925.709	3351
925.816	3180
925.924	3264
926.031	3431
926.138	3302
926.245	3393
926.352	3287
926.459	3405
926.566	3462
926.673	3336
926.779	3279
926.886	3249
926.993	3157
927.099	3150
927.206	3093
927.312	3123
927.419	3199
927.525	3176
927.631	3287
927.737	3123
927.843	3138
927.95	3036
928.056	3176
928.162	3184
928.267	3226
928.373	3789
928.479	3351
928.585	3032
928.69	3253
928.796	3298
928.901	3161
929.007	3055
929.112	3226
929.218	3203
929.323	3173
929.428	3173
929.533	3325
929.638	3123
929.743	3165
929.848	3222
929.953	3214
930.058	3150
930.163	3032
930.267	3081
930.372	3233
930.477	3039
930.581	3367
930.685	3146
930.79	3070
930.894	3135
930.998	3112
931.103	3256
931.207	2960
931.311	2967
931.415	2910
931.519	2800
931.623	2781
