Data from test_V78500241_821.txt Node
Date: Fri Mar 25 16:20:53 CST 2022
User: usil
Spectrometer: V785-0024
Trigger mode: 0
Integration Time (sec): 4.000000E-1
Scans to average: 1
Nonlinearity correction enabled: false
Boxcar width: 0
Storing dark spectrum: false
XAxis mode: Wavelengths
Number of Pixels in Spectrum: 1024
>>>>>Begin Spectral Data<<<<<
801.071	2925
801.214	2929
801.356	2880
801.499	2899
801.641	2857
801.783	2906
801.926	3047
802.068	2925
802.211	2994
802.353	3005
802.496	2948
802.638	2986
802.78	3017
802.923	3089
803.065	3020
803.208	2891
803.35	2910
803.492	2941
803.635	2952
803.777	2758
803.919	2807
804.061	3199
804.204	2952
804.346	2914
804.488	2826
804.63	2937
804.773	2861
804.915	2929
805.057	3089
805.199	2922
805.341	2982
805.483	3058
805.626	3005
805.768	2925
805.91	3100
806.052	3097
806.194	3032
806.336	3233
806.478	3032
806.62	2922
806.762	2960
806.904	3043
807.046	3108
807.188	2979
807.33	2895
807.472	2990
807.614	2849
807.756	2963
807.898	2944
808.04	2887
808.182	2994
808.324	2960
808.465	2864
808.607	2883
808.749	2777
808.891	2853
809.033	2944
809.174	3005
809.316	2902
809.458	2914
809.6	2762
809.741	2777
809.883	2792
810.025	2830
810.166	2853
810.308	2864
810.45	2868
810.591	2785
810.733	2758
810.875	2849
811.016	2788
811.158	2785
811.299	2830
811.441	2929
811.582	2902
811.724	2811
811.865	2857
812.007	2899
812.148	2872
812.29	2834
812.431	2849
812.573	2941
812.714	2960
812.855	3043
812.997	3062
813.138	3131
813.279	3001
813.421	3024
813.562	2956
813.703	2872
813.845	2895
813.986	2777
814.127	2739
814.268	2834
814.41	2830
814.551	2819
814.692	2864
814.833	2815
814.974	2872
815.115	2960
815.256	2823
815.397	2826
815.539	2887
815.68	2754
815.821	2773
815.962	2895
816.103	2941
816.244	2891
816.385	2880
816.526	2941
816.666	2925
816.807	2762
816.948	2834
817.089	2914
817.23	2868
817.371	2781
817.512	2754
817.653	2853
817.793	2834
817.934	2887
818.075	2990
818.216	2979
818.356	2998
818.497	2872
818.638	2804
818.778	2834
818.919	2754
819.06	2754
819.2	2876
819.341	2819
819.481	2769
819.622	2906
819.762	3097
819.903	3032
820.043	2956
820.184	2902
820.324	2891
820.465	3005
820.605	3020
820.746	2986
820.886	2918
821.026	3070
821.167	3176
821.307	3230
821.447	3291
821.588	3233
821.728	3199
821.868	3180
822.008	3100
822.149	3207
822.289	3245
822.429	3058
822.569	3074
822.709	3157
822.849	3032
822.99	3036
823.13	3157
823.27	3180
823.41	3116
823.55	3165
823.69	3138
823.83	3184
823.97	3085
824.11	2994
824.25	2979
824.389	3039
824.529	3085
824.669	3043
824.809	3184
824.949	3264
825.089	3233
825.228	3176
825.368	3017
825.508	2914
825.648	2956
825.787	2998
825.927	3039
826.067	2933
826.206	2960
826.346	3036
826.485	3066
826.625	3112
826.765	3275
826.904	3230
827.044	2960
827.183	2937
827.323	2853
827.462	2944
827.601	2899
827.741	2960
827.88	2956
828.02	2815
828.159	2937
828.298	3009
828.437	3062
828.577	3017
828.716	3237
828.855	3089
828.994	2880
829.134	2918
829.273	2910
829.412	2872
829.551	2830
829.69	2933
829.829	2963
829.968	3097
830.107	2998
830.246	3009
830.385	2891
830.524	2845
830.663	2830
830.802	2727
830.941	2629
831.08	2644
831.219	2724
831.357	2750
831.496	2933
831.635	2724
831.774	2613
831.913	2659
832.051	2552
832.19	2560
832.329	2674
832.467	2530
832.606	2488
832.744	2594
832.883	2571
833.022	2590
833.16	2651
833.299	2712
833.437	2720
833.576	2712
833.714	2701
833.852	2720
833.991	2758
834.129	2819
834.267	2826
834.406	2754
834.544	2887
834.682	2895
834.821	2861
834.959	3036
835.097	2906
835.235	3047
835.373	2994
835.511	2948
835.65	2963
835.788	2910
835.926	2842
836.064	2804
836.202	2815
836.34	3074
836.478	3176
836.615	3051
836.753	3119
836.891	3173
837.029	3176
837.167	3135
837.305	3066
837.443	3017
837.58	2963
837.718	3150
837.856	3108
837.993	3039
838.131	3104
838.269	3062
838.406	3051
838.544	3093
838.681	2960
838.819	2925
838.956	2830
839.094	2823
839.231	2944
839.369	2975
839.506	3401
839.643	3173
839.781	3020
839.918	2925
840.055	3036
840.193	3055
840.33	3097
840.467	3093
840.604	3142
840.742	3351
840.879	3062
841.016	3017
841.153	3077
841.29	3332
841.427	3275
841.564	3298
841.701	3298
841.838	3245
841.975	3161
842.112	3195
842.249	3062
842.385	3032
842.522	3260
842.659	3089
842.796	3055
842.933	3100
843.069	3032
843.206	3066
843.343	3161
843.479	3108
843.616	3138
843.752	2891
843.889	2838
844.025	3058
844.162	2857
844.298	3047
844.435	2967
844.571	2902
844.708	3097
844.844	3176
844.98	3222
845.117	3211
845.253	3043
845.389	3013
845.525	3062
845.661	3108
845.798	3036
845.934	3104
846.07	3058
846.206	3211
846.342	3313
846.478	3230
846.614	3097
846.75	3097
846.886	3032
847.022	3253
847.158	3104
847.294	3169
847.429	3249
847.565	3218
847.701	3492
847.837	3009
847.972	3039
848.108	3161
848.244	3154
848.379	3005
848.515	2929
848.65	2899
848.786	2948
848.921	3043
849.057	3112
849.192	3131
849.328	3028
849.463	3146
849.598	3093
849.734	3017
849.869	2971
850.004	2906
850.14	2979
850.275	2929
850.41	2830
850.545	2864
850.68	2937
850.815	2925
850.95	2925
851.085	3188
851.22	3116
851.355	3043
851.49	2975
851.625	3036
851.76	2982
851.895	2922
852.03	2929
852.165	2982
852.299	3112
852.434	3173
852.569	3116
852.703	3165
852.838	3226
852.973	3302
853.107	3336
853.242	3161
853.376	3062
853.511	2975
853.645	3013
853.78	3249
853.914	3127
854.048	3104
854.183	3062
854.317	3138
854.451	3275
854.585	3138
854.72	3097
854.854	3195
854.988	3013
855.122	3093
855.256	2937
855.39	3131
855.524	3249
855.658	3165
855.792	3131
855.926	3173
856.06	3237
856.194	3245
856.327	3150
856.461	3043
856.595	3085
856.729	3085
856.862	3226
856.996	3169
857.13	3161
857.263	3222
857.397	3310
857.53	3123
857.664	3176
857.797	3184
857.931	3222
858.064	3138
858.197	3192
858.331	3138
858.464	3085
858.597	3051
858.731	3112
858.864	3112
858.997	3062
859.13	3138
859.263	3180
859.396	3165
859.529	3085
859.662	3070
859.795	3017
859.928	3146
860.061	3321
860.194	3294
860.327	3093
860.46	3089
860.592	3233
860.725	3245
860.858	3230
860.99	3112
861.123	3017
861.256	3058
861.388	3142
861.521	3911
861.653	3013
861.786	2967
861.918	3001
862.05	3032
862.183	3100
862.315	3131
862.447	3195
862.58	3119
862.712	2948
862.844	2838
862.976	3024
863.108	2998
863.24	3310
863.372	2899
863.504	2933
863.636	2941
863.768	3036
863.9	2982
864.032	2906
864.164	2925
864.296	3028
864.428	3039
864.559	3085
864.691	3020
864.823	3058
864.954	3024
865.086	3036
865.217	2994
865.349	2948
865.48	2994
865.612	3032
865.743	3131
865.875	2998
866.006	2902
866.137	2994
866.269	2929
866.4	2925
866.531	2902
866.662	2918
866.793	2899
866.924	2895
867.055	2979
867.186	2880
867.317	2861
867.448	2872
867.579	2849
867.71	2826
867.841	2826
867.972	2914
868.103	2883
868.233	2845
868.364	2883
868.495	2895
868.625	3081
868.756	3150
868.886	2941
869.017	3005
869.147	3169
869.278	3142
869.408	3066
869.539	3028
869.669	3085
869.799	3055
869.929	3127
870.06	3081
870.19	3340
870.32	3283
870.45	3279
870.58	3344
870.71	3401
870.84	3439
870.97	3283
871.1	3268
871.23	3488
871.36	3443
871.489	3336
871.619	3363
871.749	3401
871.879	3458
872.008	3412
872.138	3374
872.267	3260
872.397	3165
872.526	3108
872.656	2982
872.785	3077
872.915	3199
873.044	3317
873.173	3230
873.303	3199
873.432	3237
873.561	3203
873.69	3176
873.819	3097
873.948	3226
874.077	3070
874.206	3036
874.335	3070
874.464	3214
874.593	3363
874.722	3226
874.851	3386
874.979	3367
875.108	3332
875.237	3207
875.365	3184
875.494	3146
875.623	3279
875.751	3043
875.88	3146
876.008	3214
876.136	3241
876.265	3336
876.393	3530
876.521	3405
876.65	3370
876.778	3325
876.906	3207
877.034	3169
877.162	3207
877.29	3184
877.418	3260
877.546	3268
877.674	3260
877.802	3237
877.93	3211
878.058	3195
878.185	3089
878.313	3173
878.441	3230
878.568	3047
878.696	3157
878.824	3241
878.951	3298
879.079	3454
879.206	3603
879.333	3443
879.461	3294
879.588	3321
879.715	3488
879.842	3603
879.97	3363
880.097	3165
880.224	3089
880.351	3203
880.478	3199
880.605	3169
880.732	3199
880.859	3454
880.986	3291
881.112	3336
881.239	3195
881.366	3058
881.493	3024
881.619	3051
881.746	3066
881.872	3077
881.999	3077
882.125	3157
882.252	3260
882.378	3291
882.505	3435
882.631	3268
882.757	3135
882.883	3192
883.01	3214
883.136	3150
883.262	3081
883.388	3100
883.514	3321
883.64	3382
883.766	3275
883.892	3161
884.018	3249
884.143	3409
884.269	3523
884.395	3192
884.52	3142
884.646	3165
884.772	3093
884.897	3097
885.023	3188
885.148	3256
885.274	3424
885.399	3359
885.524	3310
885.65	3203
885.775	3313
885.9	3275
886.025	3393
886.15	3336
886.275	3279
886.4	3214
886.525	3355
886.65	3268
886.775	3268
886.9	3462
887.025	3656
887.149	3405
887.274	3249
887.399	3199
887.523	3146
887.648	3169
887.773	3157
887.897	3378
888.021	3405
888.146	3283
888.27	3485
888.395	3530
888.519	3435
888.643	3435
888.767	3450
888.891	3294
889.015	3218
889.139	3287
889.263	3233
889.387	3378
889.511	3496
889.635	3435
889.759	3283
889.883	3253
890.006	3409
890.13	3500
890.254	3283
890.377	3298
890.501	3226
890.624	3135
890.748	3306
890.871	3169
890.995	3127
891.118	3070
891.241	3192
891.364	3192
891.488	3298
891.611	3173
891.734	3233
891.857	3310
891.98	3211
892.103	3306
892.226	3245
892.349	3233
892.471	3100
892.594	3241
892.717	3302
892.839	3249
892.962	3336
893.085	3359
893.207	3279
893.33	3142
893.452	3176
893.575	3374
893.697	3226
893.819	3466
893.941	3458
894.064	3454
894.186	3218
894.308	3249
894.43	3393
894.552	3496
894.674	3492
894.796	3279
894.918	3321
895.04	3275
895.161	3435
895.283	3367
895.405	3287
895.526	3348
895.648	3443
895.769	3386
895.891	3401
896.012	3462
896.134	3458
896.255	3405
896.376	3374
896.498	3359
896.619	3386
896.74	3348
896.861	3416
896.982	3701
897.103	3819
897.224	3580
897.345	3519
897.466	3454
897.587	3481
897.708	3629
897.828	3538
897.949	3428
898.07	3351
898.19	3389
898.311	3633
898.431	3447
898.552	3526
898.672	3580
898.792	3553
898.913	3511
899.033	3386
899.153	3256
899.273	3214
899.393	3287
899.513	3332
899.633	3264
899.753	3302
899.873	3306
899.993	3363
900.113	3351
900.232	3378
900.352	3329
900.472	3272
900.591	3192
900.711	3298
900.83	3256
900.95	3435
901.069	3485
901.189	3344
901.308	3150
901.427	3123
901.546	3173
901.665	3302
901.784	3336
901.904	3157
902.023	3135
902.141	2994
902.26	2967
902.379	3127
902.498	3093
902.617	3085
902.735	3207
902.854	3199
902.973	3176
903.091	3024
903.21	3058
903.328	3154
903.446	3173
903.565	3070
903.683	3180
903.801	3142
903.919	3241
904.038	3264
904.156	3169
904.274	3294
904.392	3260
904.51	3260
904.627	3355
904.745	3435
904.863	3485
904.981	3226
905.098	3176
905.216	3226
905.334	3237
905.451	3287
905.569	3260
905.686	3416
905.803	3458
905.921	3298
906.038	3443
906.155	3348
906.272	3294
906.389	3325
906.506	3249
906.623	3230
906.74	3298
906.857	3199
906.974	3241
907.091	3447
907.208	3557
907.324	3469
907.441	3367
907.557	3199
907.674	3192
907.79	3214
907.907	3291
908.023	3370
908.139	3344
908.256	3344
908.372	3344
908.488	3370
908.604	3249
908.72	3249
908.836	3294
908.952	3260
909.068	3363
909.184	3458
909.3	3348
909.415	3515
909.531	3500
909.647	3264
909.762	3298
909.878	3283
909.993	3355
910.108	3332
910.224	3321
910.339	3435
910.454	3302
910.57	3306
910.685	3211
910.8	3542
910.915	3530
911.03	3447
911.145	3249
911.259	3264
911.374	3298
911.489	3233
911.604	3222
911.718	3138
911.833	3150
911.947	3032
912.062	2979
912.176	3169
912.291	3176
912.405	3184
912.519	3420
912.633	3416
912.748	3336
912.862	3241
912.976	3180
913.09	3070
913.204	3119
913.318	3161
913.431	3344
913.545	3329
913.659	3389
913.772	3348
913.886	3184
914	3233
914.113	3291
914.226	3393
914.34	3355
914.453	3199
914.566	3389
914.68	3256
914.793	3298
914.906	3119
915.019	3116
915.132	3058
915.245	3150
915.358	3226
915.47	3249
915.583	3241
915.696	3294
915.809	3355
915.921	3405
916.034	3207
916.146	3230
916.259	3230
916.371	3370
916.483	3329
916.595	3260
916.708	3317
916.82	3294
916.932	3313
917.044	3279
917.156	3340
917.268	3268
917.38	3317
917.491	3291
917.603	3348
917.715	3439
917.826	3477
917.938	3344
918.049	3260
918.161	3443
918.272	3564
918.384	3580
918.495	3488
918.606	3287
918.717	3260
918.828	3336
918.939	3393
919.05	3325
919.161	3386
919.272	3195
919.383	3283
919.494	3504
919.604	3675
919.715	3485
919.826	3409
919.936	3428
920.047	3557
920.157	3500
920.267	3743
920.378	3614
920.488	3580
920.598	3804
920.708	3949
920.818	3846
920.928	3842
921.038	3994
921.148	4025
921.258	3751
921.368	3667
921.477	3584
921.587	3545
921.697	3500
921.806	3667
921.916	3534
922.025	3374
922.134	3397
922.244	3336
922.353	3481
922.462	3279
922.571	3256
922.68	3131
922.789	3066
922.898	3154
923.007	3146
923.116	3184
923.224	3161
923.333	3226
923.442	3112
923.55	3116
923.659	3169
923.767	3283
923.876	3203
923.984	3253
924.092	3161
924.201	3192
924.309	3214
924.417	3291
924.525	3249
924.633	3241
924.741	4063
924.849	3116
924.956	3291
925.064	3108
925.172	3043
925.279	3142
925.387	3230
925.494	3211
925.602	3431
925.709	3378
925.816	3218
925.924	3306
926.031	3386
926.138	3340
926.245	3405
926.352	3291
926.459	3466
926.566	3507
926.673	3367
926.779	3272
926.886	3321
926.993	3188
927.099	3184
927.206	3123
927.312	3154
927.419	3268
927.525	3268
927.631	3302
927.737	3176
927.843	3161
927.95	3051
928.056	3165
928.162	3230
928.267	3275
928.373	3812
928.479	3336
928.585	3154
928.69	3291
928.796	3321
928.901	3192
929.007	3074
929.112	3249
929.218	3211
929.323	3180
929.428	3173
929.533	3386
929.638	3203
929.743	3230
929.848	3291
929.953	3226
930.058	3176
930.163	3032
930.267	3104
930.372	3253
930.477	3062
930.581	3329
930.685	3226
930.79	3089
930.894	3161
930.998	3116
931.103	3321
931.207	2971
931.311	2979
931.415	2963
931.519	2785
931.623	2807
