Data from test_V78500241_83.txt Node
Date: Fri Mar 25 16:15:46 CST 2022
User: usil
Spectrometer: V785-0024
Trigger mode: 0
Integration Time (sec): 4.000000E-1
Scans to average: 1
Nonlinearity correction enabled: false
Boxcar width: 0
Storing dark spectrum: false
XAxis mode: Wavelengths
Number of Pixels in Spectrum: 1024
>>>>>Begin Spectral Data<<<<<
801.071	2925
801.214	2986
801.356	2914
801.499	2910
801.641	2929
801.783	2963
801.926	3085
802.068	2982
802.211	3024
802.353	3055
802.496	2998
802.638	3047
802.78	3032
802.923	3093
803.065	3036
803.208	2922
803.35	2937
803.492	2956
803.635	2971
803.777	2815
803.919	2880
804.061	3203
804.204	2975
804.346	2948
804.488	2857
804.63	3013
804.773	2902
804.915	2937
805.057	3135
805.199	2952
805.341	3036
805.483	3062
805.626	3009
805.768	3001
805.91	3135
806.052	3116
806.194	3028
806.336	3294
806.478	3066
806.62	3001
806.762	3013
806.904	3085
807.046	3157
807.188	2990
807.33	2929
807.472	3032
807.614	2933
807.756	3001
807.898	2933
808.04	2929
808.182	2998
808.324	2986
808.465	2902
808.607	2883
808.749	2800
808.891	2895
809.033	3032
809.174	3036
809.316	2914
809.458	2941
809.6	2788
809.741	2804
809.883	2800
810.025	2868
810.166	2861
810.308	2857
810.45	2864
810.591	2830
810.733	2819
810.875	2800
811.016	2777
811.158	2792
811.299	2849
811.441	2967
811.582	2910
811.724	2849
811.865	2845
812.007	2941
812.148	2895
812.29	2887
812.431	2883
812.573	2971
812.714	2990
812.855	3066
812.997	3089
813.138	3138
813.279	3043
813.421	3017
813.562	3017
813.703	2925
813.845	2941
813.986	2796
814.127	2727
814.268	2815
814.41	2880
814.551	2834
814.692	2906
814.833	2834
814.974	2937
815.115	3009
815.256	2857
815.397	2853
815.539	2933
815.68	2811
815.821	2842
815.962	2937
816.103	2933
816.244	2914
816.385	2902
816.526	3020
816.666	2979
816.807	2739
816.948	2891
817.089	2880
817.23	2868
817.371	2838
817.512	2815
817.653	2872
817.793	2838
817.934	2910
818.075	2979
818.216	3009
818.356	3020
818.497	2918
818.638	2842
818.778	2868
818.919	2815
819.06	2766
819.2	2902
819.341	2864
819.481	2826
819.622	2944
819.762	3146
819.903	3036
820.043	2963
820.184	2929
820.324	2929
820.465	3043
820.605	3020
820.746	3013
820.886	2918
821.026	3123
821.167	3207
821.307	3272
821.447	3325
821.588	3260
821.728	3207
821.868	3233
822.008	3089
822.149	3214
822.289	3249
822.429	3154
822.569	3116
822.709	3253
822.849	3051
822.99	3085
823.13	3199
823.27	3222
823.41	3142
823.55	3154
823.69	3176
823.83	3241
823.97	3119
824.11	3043
824.25	3036
824.389	3112
824.529	3135
824.669	3085
824.809	3253
824.949	3253
825.089	3237
825.228	3188
825.368	3028
825.508	2998
825.648	3009
825.787	3001
825.927	3036
826.067	3017
826.206	2975
826.346	3081
826.485	3116
826.625	3135
826.765	3294
826.904	3222
827.044	3017
827.183	2960
827.323	2895
827.462	2979
827.601	2929
827.741	2975
827.88	3005
828.02	2906
828.159	3020
828.298	3146
828.437	3142
828.577	3058
828.716	3272
828.855	3077
828.994	2952
829.134	2941
829.273	2941
829.412	2857
829.551	2876
829.69	2937
829.829	2998
829.968	3161
830.107	3043
830.246	3047
830.385	2918
830.524	2899
830.663	2838
830.802	2739
830.941	2716
831.08	2686
831.219	2758
831.357	2773
831.496	2971
831.635	2773
831.774	2670
831.913	2663
832.051	2571
832.19	2598
832.329	2705
832.467	2564
832.606	2484
832.744	2621
832.883	2587
833.022	2594
833.16	2667
833.299	2739
833.437	2697
833.576	2678
833.714	2766
833.852	2731
833.991	2796
834.129	2864
834.267	2830
834.406	2804
834.544	2895
834.682	2895
834.821	2853
834.959	3081
835.097	2929
835.235	3093
835.373	3051
835.511	3028
835.65	2998
835.788	2979
835.926	2853
836.064	2807
836.202	2845
836.34	3138
836.478	3180
836.615	3058
836.753	3169
836.891	3245
837.029	3188
837.167	3112
837.305	3093
837.443	3074
837.58	2982
837.718	3173
837.856	3062
837.993	3039
838.131	3123
838.269	3112
838.406	3097
838.544	3123
838.681	2975
838.819	2918
838.956	2834
839.094	2868
839.231	2910
839.369	3081
839.506	3401
839.643	3245
839.781	3055
839.918	2979
840.055	3081
840.193	3047
840.33	3123
840.467	3131
840.604	3154
840.742	3416
840.879	3093
841.016	3058
841.153	3154
841.29	3336
841.427	3310
841.564	3294
841.701	3332
841.838	3283
841.975	3192
842.112	3249
842.249	3085
842.385	3055
842.522	3325
842.659	3119
842.796	3108
842.933	3127
843.069	3081
843.206	3070
843.343	3218
843.479	3150
843.616	3169
843.752	2929
843.889	2876
844.025	3055
844.162	2906
844.298	3062
844.435	2994
844.571	2960
844.708	3104
844.844	3222
844.98	3256
845.117	3222
845.253	3089
845.389	3066
845.525	3116
845.661	3108
845.798	3036
845.934	3165
846.07	3097
846.206	3245
846.342	3325
846.478	3294
846.614	3131
846.75	3062
846.886	3039
847.022	3272
847.158	3165
847.294	3218
847.429	3268
847.565	3192
847.701	3538
847.837	3066
847.972	3051
848.108	3188
848.244	3146
848.379	3032
848.515	2982
848.65	2963
848.786	2998
848.921	3043
849.057	3123
849.192	3184
849.328	3104
849.463	3112
849.598	3055
849.734	3070
849.869	3017
850.004	2922
850.14	3005
850.275	2922
850.41	2880
850.545	2887
850.68	2960
850.815	2933
850.95	3032
851.085	3207
851.22	3138
851.355	3077
851.49	3001
851.625	3009
851.76	2986
851.895	2952
852.03	2941
852.165	3055
852.299	3116
852.434	3211
852.569	3192
852.703	3192
852.838	3298
852.973	3420
853.107	3378
853.242	3135
853.376	3123
853.511	2967
853.645	3070
853.78	3264
853.914	3173
854.048	3119
854.183	3104
854.317	3173
854.451	3294
854.585	3154
854.72	3119
854.854	3237
854.988	3093
855.122	3146
855.256	3009
855.39	3176
855.524	3279
855.658	3203
855.792	3169
855.926	3218
856.06	3241
856.194	3264
856.327	3180
856.461	3066
856.595	3097
856.729	3123
856.862	3222
856.996	3203
857.13	3218
857.263	3268
857.397	3306
857.53	3161
857.664	3211
857.797	3253
857.931	3306
858.064	3188
858.197	3260
858.331	3154
858.464	3131
858.597	3020
858.731	3085
858.864	3150
858.997	3138
859.13	3180
859.263	3184
859.396	3245
859.529	3108
859.662	3100
859.795	3062
859.928	3135
860.061	3306
860.194	3359
860.327	3180
860.46	3131
860.592	3233
860.725	3302
860.858	3256
860.99	3116
861.123	3081
861.256	3104
861.388	3150
861.521	3743
861.653	3051
861.786	2975
861.918	3020
862.05	3112
862.183	3112
862.315	3169
862.447	3237
862.58	3112
862.712	2971
862.844	2914
862.976	3055
863.108	3009
863.24	3363
863.372	2914
863.504	2979
863.636	2963
863.768	3043
863.9	2998
864.032	2941
864.164	2963
864.296	3036
864.428	3138
864.559	3165
864.691	3097
864.823	3131
864.954	3024
865.086	3039
865.217	3009
865.349	2963
865.48	2971
865.612	3032
865.743	3169
865.875	3020
866.006	2975
866.137	3017
866.269	2982
866.4	2979
866.531	2944
866.662	2906
866.793	2914
866.924	2895
867.055	2960
867.186	2937
867.317	2941
867.448	2887
867.579	2872
867.71	2861
867.841	2868
867.972	2883
868.103	2960
868.233	2929
868.364	2876
868.495	2925
868.625	3047
868.756	3214
868.886	2990
869.017	3051
869.147	3199
869.278	3173
869.408	3093
869.539	3062
869.669	3104
869.799	3070
869.929	3169
870.06	3146
870.19	3359
870.32	3294
870.45	3340
870.58	3416
870.71	3447
870.84	3496
870.97	3287
871.1	3275
871.23	3511
871.36	3473
871.489	3397
871.619	3424
871.749	3443
871.879	3447
872.008	3538
872.138	3405
872.267	3332
872.397	3161
872.526	3142
872.656	3047
872.785	3127
872.915	3253
873.044	3355
873.173	3253
873.303	3275
873.432	3253
873.561	3283
873.69	3131
873.819	3127
873.948	3188
874.077	3161
874.206	3089
874.335	3097
874.464	3245
874.593	3367
874.722	3272
874.851	3416
874.979	3401
875.108	3302
875.237	3203
875.365	3195
875.494	3195
875.623	3249
875.751	3112
875.88	3154
876.008	3222
876.136	3241
876.265	3367
876.393	3519
876.521	3431
876.65	3401
876.778	3348
876.906	3310
877.034	3211
877.162	3272
877.29	3211
877.418	3283
877.546	3313
877.674	3291
877.802	3283
877.93	3245
878.058	3176
878.185	3150
878.313	3233
878.441	3226
878.568	3093
878.696	3199
878.824	3272
878.951	3321
879.079	3458
879.206	3671
879.333	3466
879.461	3386
879.588	3359
879.715	3488
879.842	3610
879.97	3412
880.097	3192
880.224	3142
880.351	3203
880.478	3264
880.605	3199
880.732	3173
880.859	3504
880.986	3306
881.112	3313
881.239	3249
881.366	3093
881.493	3116
881.619	3047
881.746	3100
881.872	3081
881.999	3146
882.125	3180
882.252	3245
882.378	3344
882.505	3420
882.631	3313
882.757	3211
882.883	3222
883.01	3260
883.136	3184
883.262	3146
883.388	3138
883.514	3325
883.64	3363
883.766	3329
883.892	3199
884.018	3272
884.143	3447
884.269	3549
884.395	3260
884.52	3230
884.646	3207
884.772	3165
884.897	3108
885.023	3237
885.148	3351
885.274	3447
885.399	3393
885.524	3310
885.65	3283
885.775	3348
885.9	3310
886.025	3435
886.15	3359
886.275	3340
886.4	3260
886.525	3344
886.65	3310
886.775	3283
886.9	3549
887.025	3663
887.149	3466
887.274	3310
887.399	3195
887.523	3237
887.648	3195
887.773	3207
887.897	3424
888.021	3397
888.146	3321
888.27	3454
888.395	3595
888.519	3462
888.643	3485
888.767	3458
888.891	3340
889.015	3294
889.139	3291
889.263	3253
889.387	3397
889.511	3576
889.635	3485
889.759	3336
889.883	3302
890.006	3439
890.13	3485
890.254	3264
890.377	3382
890.501	3199
890.624	3211
890.748	3370
890.871	3249
890.995	3135
891.118	3116
891.241	3222
891.364	3287
891.488	3325
891.611	3176
891.734	3275
891.857	3275
891.98	3287
892.103	3405
892.226	3340
892.349	3245
892.471	3157
892.594	3275
892.717	3302
892.839	3298
892.962	3332
893.085	3401
893.207	3321
893.33	3176
893.452	3214
893.575	3382
893.697	3279
893.819	3500
893.941	3553
894.064	3450
894.186	3275
894.308	3298
894.43	3439
894.552	3603
894.674	3519
894.796	3287
894.918	3367
895.04	3260
895.161	3473
895.283	3439
895.405	3351
895.526	3386
895.648	3443
895.769	3443
895.891	3481
896.012	3538
896.134	3477
896.255	3416
896.376	3405
896.498	3389
896.619	3469
896.74	3363
896.861	3405
896.982	3682
897.103	3850
897.224	3599
897.345	3549
897.466	3496
897.587	3523
897.708	3690
897.828	3557
897.949	3462
898.07	3302
898.19	3420
898.311	3625
898.431	3496
898.552	3545
898.672	3671
898.792	3618
898.913	3534
899.033	3450
899.153	3310
899.273	3260
899.393	3279
899.513	3393
899.633	3317
899.753	3340
899.873	3340
899.993	3431
900.113	3370
900.232	3431
900.352	3359
900.472	3306
900.591	3268
900.711	3329
900.83	3275
900.95	3447
901.069	3511
901.189	3409
901.308	3199
901.427	3161
901.546	3207
901.665	3344
901.784	3370
901.904	3241
902.023	3188
902.141	3081
902.26	2986
902.379	3173
902.498	3074
902.617	3112
902.735	3241
902.854	3253
902.973	3211
903.091	3066
903.21	3093
903.328	3184
903.446	3142
903.565	3161
903.683	3233
903.801	3165
903.919	3268
904.038	3287
904.156	3165
904.274	3325
904.392	3256
904.51	3313
904.627	3348
904.745	3488
904.863	3507
904.981	3283
905.098	3188
905.216	3264
905.334	3275
905.451	3340
905.569	3355
905.686	3469
905.803	3435
905.921	3321
906.038	3507
906.155	3424
906.272	3306
906.389	3374
906.506	3214
906.623	3294
906.74	3306
906.857	3203
906.974	3275
907.091	3450
907.208	3587
907.324	3481
907.441	3382
907.557	3253
907.674	3264
907.79	3253
907.907	3329
908.023	3393
908.139	3431
908.256	3355
908.372	3393
908.488	3397
908.604	3313
908.72	3268
908.836	3351
908.952	3332
909.068	3351
909.184	3538
909.3	3424
909.415	3568
909.531	3526
909.647	3264
909.762	3313
909.878	3302
909.993	3393
910.108	3359
910.224	3412
910.339	3420
910.454	3355
910.57	3310
910.685	3275
910.8	3614
910.915	3603
911.03	3454
911.145	3306
911.259	3275
911.374	3336
911.489	3291
911.604	3264
911.718	3142
911.833	3154
911.947	3058
912.062	3039
912.176	3195
912.291	3222
912.405	3256
912.519	3488
912.633	3511
912.748	3378
912.862	3321
912.976	3203
913.09	3074
913.204	3173
913.318	3279
913.431	3363
913.545	3386
913.659	3420
913.772	3363
913.886	3237
914	3195
914.113	3355
914.226	3431
914.34	3351
914.453	3218
914.566	3450
914.68	3351
914.793	3340
914.906	3176
915.019	3173
915.132	3097
915.245	3180
915.358	3233
915.47	3245
915.583	3294
915.696	3340
915.809	3393
915.921	3409
916.034	3283
916.146	3279
916.259	3298
916.371	3443
916.483	3393
916.595	3268
916.708	3378
916.82	3378
916.932	3401
917.044	3355
917.156	3378
917.268	3268
917.38	3306
917.491	3344
917.603	3420
917.715	3458
917.826	3492
917.938	3401
918.049	3268
918.161	3447
918.272	3618
918.384	3580
918.495	3481
918.606	3363
918.717	3336
918.828	3424
918.939	3439
919.05	3344
919.161	3393
919.272	3214
919.383	3294
919.494	3523
919.604	3709
919.715	3488
919.826	3389
919.936	3485
920.047	3622
920.157	3614
920.267	3857
920.378	3633
920.488	3637
920.598	3797
920.708	3972
920.818	3846
920.928	3838
921.038	4040
921.148	4044
921.258	3755
921.368	3644
921.477	3591
921.587	3618
921.697	3488
921.806	3652
921.916	3519
922.025	3374
922.134	3393
922.244	3348
922.353	3424
922.462	3294
922.571	3260
922.68	3108
922.789	3074
922.898	3161
923.007	3112
923.116	3237
923.224	3154
923.333	3180
923.442	3131
923.55	3081
923.659	3199
923.767	3245
923.876	3146
923.984	3253
924.092	3108
924.201	3199
924.309	3237
924.417	3275
924.525	3195
924.633	3275
924.741	4185
924.849	3081
924.956	3298
925.064	3131
925.172	3058
925.279	3108
925.387	3218
925.494	3233
925.602	3424
925.709	3313
925.816	3207
925.924	3313
926.031	3443
926.138	3340
926.245	3367
926.352	3226
926.459	3469
926.566	3507
926.673	3329
926.779	3245
926.886	3256
926.993	3176
927.099	3180
927.206	3116
927.312	3112
927.419	3222
927.525	3233
927.631	3298
927.737	3165
927.843	3135
927.95	3097
928.056	3184
928.162	3180
928.267	3256
928.373	3827
928.479	3363
928.585	3070
928.69	3226
928.796	3298
928.901	3203
929.007	3074
929.112	3241
929.218	3165
929.323	3157
929.428	3180
929.533	3321
929.638	3127
929.743	3211
929.848	3272
929.953	3256
930.058	3157
930.163	2998
930.267	3028
930.372	3207
930.477	3013
930.581	3329
930.685	3199
930.79	3043
930.894	3165
930.998	3104
931.103	3287
931.207	2990
931.311	2948
931.415	2918
931.519	2785
931.623	2845
