Data from test_V78500241_1260.txt Node
Date: Fri Mar 25 16:23:55 CST 2022
User: usil
Spectrometer: V785-0024
Trigger mode: 0
Integration Time (sec): 4.000000E-1
Scans to average: 1
Nonlinearity correction enabled: false
Boxcar width: 0
Storing dark spectrum: false
XAxis mode: Wavelengths
Number of Pixels in Spectrum: 1024
>>>>>Begin Spectral Data<<<<<
801.071	2937
801.214	3005
801.356	2845
801.499	2906
801.641	2872
801.783	2975
801.926	3047
802.068	3013
802.211	3062
802.353	3032
802.496	2971
802.638	3024
802.78	3089
802.923	3093
803.065	3020
803.208	2925
803.35	2922
803.492	2982
803.635	2952
803.777	2785
803.919	2838
804.061	3203
804.204	2971
804.346	2944
804.488	2861
804.63	3017
804.773	2891
804.915	2914
805.057	3100
805.199	2937
805.341	2960
805.483	3070
805.626	3017
805.768	2998
805.91	3131
806.052	3131
806.194	3058
806.336	3264
806.478	3062
806.62	2963
806.762	3005
806.904	3066
807.046	3184
807.188	2994
807.33	2918
807.472	3024
807.614	2933
807.756	3001
807.898	2937
808.04	2918
808.182	2975
808.324	2963
808.465	2891
808.607	2891
808.749	2849
808.891	2823
809.033	2990
809.174	2979
809.316	2922
809.458	2895
809.6	2796
809.741	2800
809.883	2792
810.025	2838
810.166	2876
810.308	2891
810.45	2895
810.591	2800
810.733	2785
810.875	2868
811.016	2800
811.158	2785
811.299	2845
811.441	2971
811.582	2891
811.724	2868
811.865	2864
812.007	2902
812.148	2929
812.29	2864
812.431	2891
812.573	2986
812.714	2994
812.855	3081
812.997	3062
813.138	3142
813.279	3036
813.421	3039
813.562	2963
813.703	2902
813.845	2880
813.986	2804
814.127	2750
814.268	2849
814.41	2880
814.551	2830
814.692	2933
814.833	2834
814.974	2933
815.115	2960
815.256	2883
815.397	2849
815.539	2914
815.68	2826
815.821	2785
815.962	2982
816.103	2963
816.244	2857
816.385	2880
816.526	2986
816.666	2941
816.807	2792
816.948	2891
817.089	2963
817.23	2868
817.371	2807
817.512	2830
817.653	2861
817.793	2834
817.934	2910
818.075	2963
818.216	3001
818.356	3051
818.497	2929
818.638	2823
818.778	2796
818.919	2800
819.06	2781
819.2	2922
819.341	2823
819.481	2853
819.622	2944
819.762	3165
819.903	3055
820.043	2960
820.184	2956
820.324	2914
820.465	3020
820.605	3062
820.746	3020
820.886	2960
821.026	3123
821.167	3173
821.307	3298
821.447	3294
821.588	3291
821.728	3264
821.868	3192
822.008	3074
822.149	3222
822.289	3233
822.429	3112
822.569	3085
822.709	3184
822.849	3036
822.99	3028
823.13	3161
823.27	3207
823.41	3131
823.55	3142
823.69	3176
823.83	3203
823.97	3127
824.11	3005
824.25	3036
824.389	3066
824.529	3100
824.669	3104
824.809	3199
824.949	3233
825.089	3245
825.228	3176
825.368	3024
825.508	2979
825.648	2982
825.787	3047
825.927	3039
826.067	2982
826.206	2986
826.346	3039
826.485	3089
826.625	3116
826.765	3260
826.904	3184
827.044	3005
827.183	2982
827.323	2918
827.462	2975
827.601	2929
827.741	2948
827.88	2956
828.02	2838
828.159	2998
828.298	3051
828.437	3142
828.577	3058
828.716	3233
828.855	3112
828.994	2948
829.134	2845
829.273	2933
829.412	2868
829.551	2868
829.69	2910
829.829	3001
829.968	3135
830.107	3039
830.246	3017
830.385	2918
830.524	2887
830.663	2830
830.802	2743
830.941	2682
831.08	2670
831.219	2796
831.357	2792
831.496	3001
831.635	2716
831.774	2686
831.913	2670
832.051	2571
832.19	2602
832.329	2670
832.467	2556
832.606	2526
832.744	2552
832.883	2579
833.022	2598
833.16	2712
833.299	2693
833.437	2716
833.576	2720
833.714	2731
833.852	2766
833.991	2781
834.129	2849
834.267	2853
834.406	2819
834.544	2906
834.682	2857
834.821	2895
834.959	3100
835.097	2944
835.235	3104
835.373	3051
835.511	3058
835.65	2960
835.788	2986
835.926	2830
836.064	2830
836.202	2864
836.34	3123
836.478	3135
836.615	3074
836.753	3150
836.891	3199
837.029	3135
837.167	3112
837.305	3081
837.443	3047
837.58	2963
837.718	3131
837.856	3097
837.993	3074
838.131	3173
838.269	3104
838.406	3112
838.544	3093
838.681	2944
838.819	2902
838.956	2834
839.094	2823
839.231	2925
839.369	3074
839.506	3389
839.643	3253
839.781	3017
839.918	2963
840.055	3062
840.193	3043
840.33	3081
840.467	3070
840.604	3154
840.742	3363
840.879	3043
841.016	3070
841.153	3108
841.29	3374
841.427	3294
841.564	3253
841.701	3340
841.838	3214
841.975	3176
842.112	3260
842.249	3089
842.385	3089
842.522	3275
842.659	3081
842.796	3097
842.933	3043
843.069	3081
843.206	3036
843.343	3180
843.479	3119
843.616	3176
843.752	2937
843.889	2864
844.025	3100
844.162	2902
844.298	3058
844.435	2956
844.571	2918
844.708	3058
844.844	3226
844.98	3253
845.117	3188
845.253	3039
845.389	3013
845.525	3119
845.661	3116
845.798	3039
845.934	3131
846.07	3081
846.206	3241
846.342	3329
846.478	3272
846.614	3093
846.75	3047
846.886	3017
847.022	3256
847.158	3157
847.294	3199
847.429	3264
847.565	3233
847.701	3500
847.837	3066
847.972	2971
848.108	3192
848.244	3123
848.379	2994
848.515	2979
848.65	2944
848.786	2998
848.921	3005
849.057	3150
849.192	3146
849.328	3131
849.463	3123
849.598	3119
849.734	3047
849.869	2986
850.004	2944
850.14	2998
850.275	2925
850.41	2834
850.545	2895
850.68	3009
850.815	2960
850.95	2967
851.085	3211
851.22	3116
851.355	3047
851.49	2998
851.625	3017
851.76	3005
851.895	2941
852.03	2887
852.165	3043
852.299	3089
852.434	3199
852.569	3165
852.703	3211
852.838	3268
852.973	3287
853.107	3313
853.242	3123
853.376	3100
853.511	2960
853.645	3043
853.78	3214
853.914	3093
854.048	3108
854.183	3116
854.317	3161
854.451	3256
854.585	3157
854.72	3074
854.854	3214
854.988	3108
855.122	3123
855.256	2975
855.39	3100
855.524	3241
855.658	3199
855.792	3154
855.926	3218
856.06	3222
856.194	3241
856.327	3169
856.461	3081
856.595	3081
856.729	3112
856.862	3230
856.996	3161
857.13	3218
857.263	3218
857.397	3291
857.53	3116
857.664	3184
857.797	3256
857.931	3264
858.064	3146
858.197	3256
858.331	3123
858.464	3100
858.597	3020
858.731	3135
858.864	3142
858.997	3085
859.13	3173
859.263	3195
859.396	3233
859.529	3074
859.662	3070
859.795	3077
859.928	3176
860.061	3298
860.194	3298
860.327	3165
860.46	3127
860.592	3192
860.725	3253
860.858	3233
860.99	3108
861.123	3077
861.256	3055
861.388	3138
861.521	3686
861.653	3032
861.786	3017
861.918	3001
862.05	3055
862.183	3112
862.315	3165
862.447	3211
862.58	3108
862.712	2944
862.844	2853
862.976	3001
863.108	2998
863.24	3294
863.372	2880
863.504	2971
863.636	2960
863.768	3005
863.9	2975
864.032	2902
864.164	2986
864.296	3024
864.428	3032
864.559	3119
864.691	3062
864.823	3058
864.954	3020
865.086	3062
865.217	3005
865.349	2952
865.48	3009
865.612	3009
865.743	3154
865.875	2975
866.006	2933
866.137	2948
866.269	2986
866.4	2944
866.531	2918
866.662	2899
866.793	2918
866.924	2887
867.055	2979
867.186	2918
867.317	2887
867.448	2845
867.579	2849
867.71	2864
867.841	2853
867.972	2868
868.103	2925
868.233	2864
868.364	2887
868.495	2895
868.625	3074
868.756	3176
868.886	2941
869.017	3013
869.147	3165
869.278	3173
869.408	3039
869.539	3036
869.669	3085
869.799	3066
869.929	3169
870.06	3104
870.19	3374
870.32	3294
870.45	3317
870.58	3378
870.71	3473
870.84	3454
870.97	3256
871.1	3226
871.23	3485
871.36	3466
871.489	3321
871.619	3374
871.749	3416
871.879	3458
872.008	3458
872.138	3374
872.267	3275
872.397	3157
872.526	3089
872.656	3009
872.785	3104
872.915	3260
873.044	3329
873.173	3237
873.303	3241
873.432	3222
873.561	3237
873.69	3142
873.819	3108
873.948	3188
874.077	3104
874.206	3043
874.335	3104
874.464	3207
874.593	3386
874.722	3226
874.851	3351
874.979	3332
875.108	3325
875.237	3207
875.365	3150
875.494	3154
875.623	3283
875.751	3097
875.88	3127
876.008	3192
876.136	3253
876.265	3374
876.393	3492
876.521	3397
876.65	3397
876.778	3329
876.906	3264
877.034	3218
877.162	3180
877.29	3173
877.418	3256
877.546	3241
877.674	3245
877.802	3275
877.93	3214
878.058	3146
878.185	3123
878.313	3180
878.441	3230
878.568	3070
878.696	3161
878.824	3226
878.951	3310
879.079	3450
879.206	3663
879.333	3466
879.461	3336
879.588	3363
879.715	3496
879.842	3542
879.97	3359
880.097	3161
880.224	3157
880.351	3173
880.478	3214
880.605	3169
880.732	3195
880.859	3500
880.986	3272
881.112	3310
881.239	3214
881.366	3070
881.493	2994
881.619	3032
881.746	3093
881.872	3066
881.999	3066
882.125	3142
882.252	3233
882.378	3260
882.505	3454
882.631	3268
882.757	3169
882.883	3180
883.01	3218
883.136	3169
883.262	3074
883.388	3104
883.514	3317
883.64	3386
883.766	3264
883.892	3173
884.018	3218
884.143	3420
884.269	3545
884.395	3218
884.52	3188
884.646	3142
884.772	3135
884.897	3123
885.023	3211
885.148	3310
885.274	3397
885.399	3370
885.524	3279
885.65	3233
885.775	3302
885.9	3306
886.025	3431
886.15	3348
886.275	3321
886.4	3249
886.525	3294
886.65	3241
886.775	3241
886.9	3477
887.025	3679
887.149	3412
887.274	3226
887.399	3165
887.523	3195
887.648	3161
887.773	3173
887.897	3351
888.021	3389
888.146	3272
888.27	3454
888.395	3545
888.519	3420
888.643	3481
888.767	3439
888.891	3310
889.015	3249
889.139	3275
889.263	3279
889.387	3370
889.511	3519
889.635	3435
889.759	3272
889.883	3291
890.006	3348
890.13	3466
890.254	3264
890.377	3355
890.501	3180
890.624	3203
890.748	3298
890.871	3180
890.995	3070
891.118	3066
891.241	3214
891.364	3203
891.488	3287
891.611	3157
891.734	3218
891.857	3275
891.98	3237
892.103	3302
892.226	3275
892.349	3237
892.471	3116
892.594	3275
892.717	3275
892.839	3351
892.962	3264
893.085	3340
893.207	3313
893.33	3146
893.452	3249
893.575	3317
893.697	3253
893.819	3443
893.941	3492
894.064	3424
894.186	3226
894.308	3272
894.43	3393
894.552	3523
894.674	3447
894.796	3222
894.918	3275
895.04	3253
895.161	3397
895.283	3393
895.405	3344
895.526	3359
895.648	3443
895.769	3450
895.891	3420
896.012	3492
896.134	3481
896.255	3416
896.376	3378
896.498	3367
896.619	3416
896.74	3344
896.861	3409
896.982	3709
897.103	3823
897.224	3618
897.345	3515
897.466	3428
897.587	3488
897.708	3671
897.828	3564
897.949	3405
898.07	3332
898.19	3416
898.311	3587
898.431	3409
898.552	3496
898.672	3618
898.792	3530
898.913	3507
899.033	3393
899.153	3287
899.273	3211
899.393	3313
899.513	3310
899.633	3325
899.753	3329
899.873	3294
899.993	3386
900.113	3348
900.232	3389
900.352	3367
900.472	3260
900.591	3199
900.711	3287
900.83	3233
900.95	3428
901.069	3496
901.189	3351
901.308	3150
901.427	3135
901.546	3169
901.665	3310
901.784	3306
901.904	3249
902.023	3138
902.141	2994
902.26	2971
902.379	3119
902.498	3055
902.617	3058
902.735	3230
902.854	3214
902.973	3176
903.091	3043
903.21	3066
903.328	3097
903.446	3119
903.565	3097
903.683	3214
903.801	3089
903.919	3233
904.038	3272
904.156	3150
904.274	3317
904.392	3264
904.51	3268
904.627	3321
904.745	3420
904.863	3507
904.981	3287
905.098	3203
905.216	3203
905.334	3272
905.451	3302
905.569	3325
905.686	3393
905.803	3435
905.921	3241
906.038	3374
906.155	3329
906.272	3264
906.389	3340
906.506	3222
906.623	3287
906.74	3222
906.857	3180
906.974	3283
907.091	3424
907.208	3584
907.324	3424
907.441	3378
907.557	3230
907.674	3241
907.79	3207
907.907	3275
908.023	3355
908.139	3374
908.256	3332
908.372	3382
908.488	3363
908.604	3275
908.72	3233
908.836	3264
908.952	3272
909.068	3313
909.184	3469
909.3	3363
909.415	3511
909.531	3485
909.647	3279
909.762	3310
909.878	3264
909.993	3370
910.108	3336
910.224	3321
910.339	3397
910.454	3359
910.57	3272
910.685	3233
910.8	3568
910.915	3500
911.03	3462
911.145	3241
911.259	3249
911.374	3287
911.489	3253
911.604	3207
911.718	3100
911.833	3199
911.947	3032
912.062	3005
912.176	3169
912.291	3222
912.405	3211
912.519	3412
912.633	3416
912.748	3298
912.862	3256
912.976	3123
913.09	3081
913.204	3135
913.318	3218
913.431	3317
913.545	3294
913.659	3409
913.772	3321
913.886	3237
914	3218
914.113	3401
914.226	3409
914.34	3359
914.453	3199
914.566	3393
914.68	3291
914.793	3325
914.906	3165
915.019	3085
915.132	3047
915.245	3165
915.358	3222
915.47	3203
915.583	3268
915.696	3264
915.809	3389
915.921	3389
916.034	3291
916.146	3249
916.259	3195
916.371	3382
916.483	3336
916.595	3256
916.708	3336
916.82	3351
916.932	3367
917.044	3367
917.156	3325
917.268	3241
917.38	3329
917.491	3264
917.603	3389
917.715	3462
917.826	3424
917.938	3412
918.049	3249
918.161	3405
918.272	3572
918.384	3557
918.495	3485
918.606	3279
918.717	3260
918.828	3405
918.939	3443
919.05	3279
919.161	3325
919.272	3165
919.383	3283
919.494	3454
919.604	3644
919.715	3481
919.826	3382
919.936	3443
920.047	3599
920.157	3564
920.267	3804
920.378	3641
920.488	3553
920.598	3793
920.708	3991
920.818	3831
920.928	3797
921.038	3998
921.148	3991
921.258	3679
921.368	3595
921.477	3549
921.587	3507
921.697	3462
921.806	3652
921.916	3545
922.025	3393
922.134	3329
922.244	3298
922.353	3389
922.462	3260
922.571	3203
922.68	3093
922.789	3043
922.898	3119
923.007	3093
923.116	3165
923.224	3180
923.333	3169
923.442	3150
923.55	3077
923.659	3138
923.767	3241
923.876	3116
923.984	3192
924.092	3097
924.201	3138
924.309	3218
924.417	3230
924.525	3123
924.633	3264
924.741	3956
924.849	3036
924.956	3218
925.064	3100
925.172	3039
925.279	3116
925.387	3226
925.494	3192
925.602	3283
925.709	3306
925.816	3157
925.924	3291
926.031	3359
926.138	3306
926.245	3348
926.352	3214
926.459	3443
926.566	3458
926.673	3279
926.779	3253
926.886	3245
926.993	3173
927.099	3074
927.206	3066
927.312	3074
927.419	3222
927.525	3161
927.631	3279
927.737	3146
927.843	3108
927.95	3024
928.056	3154
928.162	3142
928.267	3207
928.373	3865
928.479	3355
928.585	3074
928.69	3203
928.796	3302
928.901	3195
929.007	3020
929.112	3199
929.218	3192
929.323	3146
929.428	3142
929.533	3317
929.638	3100
929.743	3173
929.848	3279
929.953	3230
930.058	3142
930.163	2994
930.267	3074
930.372	3233
930.477	3028
930.581	3317
930.685	3195
930.79	3047
930.894	3154
930.998	3100
931.103	3260
931.207	2963
931.311	2933
931.415	2922
931.519	2766
931.623	2807
