Data from test_V78500241_620.txt Node
Date: Fri Mar 25 16:19:29 CST 2022
User: usil
Spectrometer: V785-0024
Trigger mode: 0
Integration Time (sec): 4.000000E-1
Scans to average: 1
Nonlinearity correction enabled: false
Boxcar width: 0
Storing dark spectrum: false
XAxis mode: Wavelengths
Number of Pixels in Spectrum: 1024
>>>>>Begin Spectral Data<<<<<
801.071	2956
801.214	2967
801.356	2883
801.499	2933
801.641	2891
801.783	3013
801.926	3070
802.068	3013
802.211	3028
802.353	3089
802.496	2998
802.638	3039
802.78	3066
802.923	3070
803.065	3089
803.208	2982
803.35	2975
803.492	2944
803.635	2941
803.777	2792
803.919	2891
804.061	3241
804.204	2971
804.346	2941
804.488	2864
804.63	3020
804.773	2902
804.915	2937
805.057	3112
805.199	2971
805.341	3009
805.483	3074
805.626	3051
805.768	2994
805.91	3104
806.052	3142
806.194	3066
806.336	3222
806.478	3039
806.62	2956
806.762	2990
806.904	3097
807.046	3199
807.188	3020
807.33	2937
807.472	3005
807.614	2925
807.756	3013
807.898	2979
808.04	2914
808.182	2982
808.324	2975
808.465	2868
808.607	2929
808.749	2842
808.891	2861
809.033	3009
809.174	2979
809.316	2906
809.458	2891
809.6	2849
809.741	2781
809.883	2785
810.025	2925
810.166	2868
810.308	2857
810.45	2872
810.591	2777
810.733	2804
810.875	2864
811.016	2807
811.158	2766
811.299	2864
811.441	2914
811.582	2914
811.724	2849
811.865	2857
812.007	2918
812.148	2872
812.29	2853
812.431	2922
812.573	2971
812.714	2963
812.855	3077
812.997	3070
813.138	3154
813.279	3024
813.421	2994
813.562	3020
813.703	2902
813.845	2914
813.986	2800
814.127	2731
814.268	2815
814.41	2845
814.551	2807
814.692	2895
814.833	2826
814.974	2861
815.115	2994
815.256	2857
815.397	2796
815.539	2922
815.68	2838
815.821	2788
815.962	2952
816.103	2933
816.244	2918
816.385	2906
816.526	2960
816.666	2929
816.807	2727
816.948	2883
817.089	2910
817.23	2883
817.371	2800
817.512	2796
817.653	2864
817.793	2819
817.934	2895
818.075	2952
818.216	2979
818.356	3051
818.497	2914
818.638	2804
818.778	2868
818.919	2842
819.06	2788
819.2	2902
819.341	2842
819.481	2815
819.622	2918
819.762	3112
819.903	3085
820.043	2948
820.184	2902
820.324	2922
820.465	3036
820.605	2998
820.746	3066
820.886	2967
821.026	3142
821.167	3173
821.307	3291
821.447	3283
821.588	3283
821.728	3237
821.868	3192
822.008	3074
822.149	3249
822.289	3222
822.429	3108
822.569	3119
822.709	3207
822.849	3036
822.99	3085
823.13	3157
823.27	3188
823.41	3116
823.55	3142
823.69	3138
823.83	3207
823.97	3142
824.11	3017
824.25	3024
824.389	3066
824.529	3100
824.669	3097
824.809	3245
824.949	3268
825.089	3199
825.228	3157
825.368	2982
825.508	2975
825.648	2960
825.787	3017
825.927	3032
826.067	2979
826.206	2929
826.346	3017
826.485	3066
826.625	3074
826.765	3245
826.904	3237
827.044	2998
827.183	2914
827.323	2864
827.462	2971
827.601	2933
827.741	2922
827.88	2990
828.02	2880
828.159	2982
828.298	3013
828.437	3100
828.577	3039
828.716	3272
828.855	3123
828.994	2929
829.134	2937
829.273	2937
829.412	2868
829.551	2876
829.69	2933
829.829	3036
829.968	3161
830.107	3024
830.246	3070
830.385	2925
830.524	2895
830.663	2792
830.802	2754
830.941	2663
831.08	2659
831.219	2758
831.357	2735
831.496	2956
831.635	2743
831.774	2670
831.913	2659
832.051	2571
832.19	2598
832.329	2674
832.467	2568
832.606	2503
832.744	2594
832.883	2587
833.022	2621
833.16	2678
833.299	2712
833.437	2708
833.576	2697
833.714	2743
833.852	2735
833.991	2769
834.129	2845
834.267	2857
834.406	2804
834.544	2861
834.682	2883
834.821	2899
834.959	3028
835.097	2895
835.235	3070
835.373	3001
835.511	3066
835.65	2937
835.788	2941
835.926	2853
836.064	2823
836.202	2842
836.34	3066
836.478	3127
836.615	3066
836.753	3154
836.891	3176
837.029	3192
837.167	3097
837.305	3062
837.443	3055
837.58	2982
837.718	3142
837.856	3066
837.993	3051
838.131	3142
838.269	3135
838.406	3108
838.544	3104
838.681	2963
838.819	2963
838.956	2823
839.094	2819
839.231	2963
839.369	3066
839.506	3386
839.643	3199
839.781	2998
839.918	2948
840.055	3020
840.193	3043
840.33	3077
840.467	3104
840.604	3157
840.742	3412
840.879	3089
841.016	3058
841.153	3123
841.29	3382
841.427	3313
841.564	3249
841.701	3310
841.838	3207
841.975	3180
842.112	3211
842.249	3074
842.385	3058
842.522	3268
842.659	3100
842.796	3047
842.933	3097
843.069	3047
843.206	3043
843.343	3211
843.479	3097
843.616	3184
843.752	2944
843.889	2872
844.025	3081
844.162	2883
844.298	3077
844.435	2975
844.571	2910
844.708	3089
844.844	3180
844.98	3256
845.117	3230
845.253	3062
845.389	3036
845.525	3116
845.661	3104
845.798	3001
845.934	3135
846.07	3077
846.206	3272
846.342	3321
846.478	3237
846.614	3093
846.75	3070
846.886	3005
847.022	3226
847.158	3154
847.294	3214
847.429	3256
847.565	3249
847.701	3526
847.837	3047
847.972	3020
848.108	3169
848.244	3165
848.379	3013
848.515	2948
848.65	2933
848.786	2937
848.921	3001
849.057	3104
849.192	3184
849.328	3047
849.463	3123
849.598	3051
849.734	3024
849.869	2979
850.004	2941
850.14	2960
850.275	2925
850.41	2815
850.545	2880
850.68	2952
850.815	2963
850.95	2960
851.085	3157
851.22	3085
851.355	3058
851.49	2994
851.625	2990
851.76	3032
851.895	2948
852.03	2914
852.165	3066
852.299	3100
852.434	3184
852.569	3161
852.703	3173
852.838	3279
852.973	3386
853.107	3348
853.242	3150
853.376	3058
853.511	2967
853.645	3028
853.78	3245
853.914	3108
854.048	3085
854.183	3036
854.317	3142
854.451	3291
854.585	3138
854.72	3081
854.854	3218
854.988	3074
855.122	3119
855.256	2971
855.39	3150
855.524	3218
855.658	3176
855.792	3169
855.926	3176
856.06	3233
856.194	3256
856.327	3123
856.461	3058
856.595	3100
856.729	3108
856.862	3241
856.996	3165
857.13	3161
857.263	3214
857.397	3283
857.53	3131
857.664	3253
857.797	3264
857.931	3264
858.064	3173
858.197	3188
858.331	3131
858.464	3066
858.597	3032
858.731	3116
858.864	3077
858.997	3093
859.13	3112
859.263	3142
859.396	3233
859.529	3093
859.662	3104
859.795	3020
859.928	3142
860.061	3253
860.194	3275
860.327	3135
860.46	3104
860.592	3233
860.725	3272
860.858	3245
860.99	3108
861.123	3066
861.256	3043
861.388	3161
861.521	3690
861.653	3036
861.786	2998
861.918	3005
862.05	3062
862.183	3108
862.315	3123
862.447	3173
862.58	3085
862.712	2937
862.844	2906
862.976	2990
863.108	3020
863.24	3412
863.372	2861
863.504	2982
863.636	2960
863.768	3013
863.9	2971
864.032	2944
864.164	2937
864.296	3013
864.428	3089
864.559	3089
864.691	3074
864.823	3070
864.954	3039
865.086	3036
865.217	2982
865.349	2937
865.48	2975
865.612	3020
865.743	3150
865.875	2982
866.006	2925
866.137	2994
866.269	2952
866.4	2948
866.531	2914
866.662	2902
866.793	2872
866.924	2880
867.055	2937
867.186	2925
867.317	2891
867.448	2864
867.579	2861
867.71	2842
867.841	2842
867.972	2895
868.103	2944
868.233	2895
868.364	2876
868.495	2922
868.625	3097
868.756	3173
868.886	2994
869.017	2982
869.147	3176
869.278	3165
869.408	3058
869.539	3024
869.669	3081
869.799	3047
869.929	3112
870.06	3131
870.19	3279
870.32	3268
870.45	3279
870.58	3313
870.71	3458
870.84	3416
870.97	3298
871.1	3245
871.23	3462
871.36	3488
871.489	3370
871.619	3359
871.749	3409
871.879	3424
872.008	3466
872.138	3355
872.267	3283
872.397	3154
872.526	3138
872.656	3017
872.785	3074
872.915	3203
873.044	3310
873.173	3188
873.303	3211
873.432	3241
873.561	3233
873.69	3138
873.819	3116
873.948	3157
874.077	3062
874.206	3055
874.335	3043
874.464	3218
874.593	3355
874.722	3245
874.851	3409
874.979	3321
875.108	3329
875.237	3211
875.365	3154
875.494	3169
875.623	3264
875.751	3100
875.88	3112
876.008	3173
876.136	3214
876.265	3355
876.393	3526
876.521	3416
876.65	3382
876.778	3340
876.906	3237
877.034	3203
877.162	3233
877.29	3192
877.418	3264
877.546	3260
877.674	3237
877.802	3199
877.93	3218
878.058	3146
878.185	3131
878.313	3203
878.441	3222
878.568	3085
878.696	3131
878.824	3226
878.951	3256
879.079	3462
879.206	3603
879.333	3447
879.461	3317
879.588	3317
879.715	3473
879.842	3606
879.97	3393
880.097	3173
880.224	3165
880.351	3207
880.478	3230
880.605	3154
880.732	3222
880.859	3435
880.986	3321
881.112	3306
881.239	3203
881.366	3093
881.493	3047
881.619	3009
881.746	3051
881.872	3081
881.999	3085
882.125	3138
882.252	3260
882.378	3283
882.505	3424
882.631	3298
882.757	3192
882.883	3203
883.01	3237
883.136	3135
883.262	3081
883.388	3108
883.514	3302
883.64	3393
883.766	3298
883.892	3176
884.018	3237
884.143	3409
884.269	3549
884.395	3207
884.52	3169
884.646	3184
884.772	3100
884.897	3119
885.023	3195
885.148	3332
885.274	3439
885.399	3310
885.524	3283
885.65	3279
885.775	3272
885.9	3256
886.025	3386
886.15	3325
886.275	3237
886.4	3203
886.525	3287
886.65	3325
886.775	3313
886.9	3469
887.025	3595
887.149	3412
887.274	3260
887.399	3214
887.523	3222
887.648	3157
887.773	3195
887.897	3344
888.021	3393
888.146	3329
888.27	3431
888.395	3530
888.519	3428
888.643	3454
888.767	3431
888.891	3329
889.015	3233
889.139	3287
889.263	3249
889.387	3363
889.511	3549
889.635	3481
889.759	3306
889.883	3310
890.006	3344
890.13	3519
890.254	3272
890.377	3332
890.501	3233
890.624	3203
890.748	3298
890.871	3184
890.995	3119
891.118	3039
891.241	3176
891.364	3218
891.488	3344
891.611	3138
891.734	3211
891.857	3283
891.98	3214
892.103	3332
892.226	3260
892.349	3207
892.471	3089
892.594	3260
892.717	3268
892.839	3245
892.962	3279
893.085	3302
893.207	3291
893.33	3146
893.452	3176
893.575	3359
893.697	3287
893.819	3485
893.941	3511
894.064	3420
894.186	3302
894.308	3272
894.43	3412
894.552	3534
894.674	3473
894.796	3214
894.918	3321
895.04	3283
895.161	3409
895.283	3367
895.405	3294
895.526	3348
895.648	3431
895.769	3416
895.891	3447
896.012	3454
896.134	3454
896.255	3416
896.376	3340
896.498	3374
896.619	3450
896.74	3363
896.861	3409
896.982	3671
897.103	3831
897.224	3530
897.345	3507
897.466	3428
897.587	3481
897.708	3618
897.828	3557
897.949	3424
898.07	3317
898.19	3401
898.311	3576
898.431	3462
898.552	3469
898.672	3561
898.792	3614
898.913	3504
899.033	3370
899.153	3317
899.273	3222
899.393	3298
899.513	3336
899.633	3275
899.753	3378
899.873	3298
899.993	3363
900.113	3283
900.232	3401
900.352	3332
900.472	3241
900.591	3184
900.711	3298
900.83	3260
900.95	3431
901.069	3462
901.189	3359
901.308	3161
901.427	3138
901.546	3184
901.665	3321
901.784	3329
901.904	3245
902.023	3161
902.141	2982
902.26	2963
902.379	3138
902.498	3093
902.617	3066
902.735	3195
902.854	3218
902.973	3165
903.091	3089
903.21	3077
903.328	3127
903.446	3081
903.565	3108
903.683	3180
903.801	3119
903.919	3264
904.038	3275
904.156	3169
904.274	3245
904.392	3283
904.51	3275
904.627	3313
904.745	3401
904.863	3454
904.981	3253
905.098	3192
905.216	3272
905.334	3272
905.451	3275
905.569	3302
905.686	3431
905.803	3443
905.921	3313
906.038	3424
906.155	3344
906.272	3287
906.389	3325
906.506	3237
906.623	3237
906.74	3283
906.857	3169
906.974	3302
907.091	3481
907.208	3542
907.324	3507
907.441	3378
907.557	3241
907.674	3264
907.79	3207
907.907	3256
908.023	3386
908.139	3386
908.256	3317
908.372	3374
908.488	3359
908.604	3253
908.72	3230
908.836	3302
908.952	3268
909.068	3359
909.184	3500
909.3	3409
909.415	3473
909.531	3466
909.647	3253
909.762	3294
909.878	3253
909.993	3340
910.108	3340
910.224	3310
910.339	3416
910.454	3332
910.57	3283
910.685	3279
910.8	3599
910.915	3545
911.03	3416
911.145	3245
911.259	3294
911.374	3344
911.489	3222
911.604	3237
911.718	3150
911.833	3135
911.947	3051
912.062	3009
912.176	3154
912.291	3199
912.405	3199
912.519	3424
912.633	3443
912.748	3329
912.862	3291
912.976	3169
913.09	3062
913.204	3142
913.318	3203
913.431	3329
913.545	3340
913.659	3363
913.772	3359
913.886	3222
914	3192
914.113	3348
914.226	3378
914.34	3351
914.453	3214
914.566	3401
914.68	3253
914.793	3298
914.906	3123
915.019	3165
915.132	3062
915.245	3184
915.358	3211
915.47	3207
915.583	3249
915.696	3283
915.809	3359
915.921	3424
916.034	3264
916.146	3256
916.259	3211
916.371	3336
916.483	3382
916.595	3260
916.708	3336
916.82	3348
916.932	3294
917.044	3367
917.156	3359
917.268	3264
917.38	3340
917.491	3287
917.603	3370
917.715	3462
917.826	3469
917.938	3401
918.049	3222
918.161	3435
918.272	3584
918.384	3564
918.495	3488
918.606	3344
918.717	3291
918.828	3367
918.939	3435
919.05	3294
919.161	3359
919.272	3199
919.383	3260
919.494	3492
919.604	3660
919.715	3485
919.826	3389
919.936	3485
920.047	3576
920.157	3542
920.267	3789
920.378	3625
920.488	3557
920.598	3770
920.708	3987
920.818	3793
920.928	3827
921.038	4002
921.148	3991
921.258	3736
921.368	3682
921.477	3557
921.587	3542
921.697	3492
921.806	3568
921.916	3496
922.025	3329
922.134	3378
922.244	3317
922.353	3431
922.462	3268
922.571	3203
922.68	3108
922.789	3093
922.898	3157
923.007	3062
923.116	3192
923.224	3184
923.333	3203
923.442	3097
923.55	3093
923.659	3131
923.767	3199
923.876	3116
923.984	3256
924.092	3127
924.201	3180
924.309	3218
924.417	3245
924.525	3184
924.633	3230
924.741	4002
924.849	3070
924.956	3313
925.064	3081
925.172	3005
925.279	3138
925.387	3188
925.494	3184
925.602	3355
925.709	3287
925.816	3180
925.924	3279
926.031	3393
926.138	3310
926.245	3329
926.352	3264
926.459	3397
926.566	3443
926.673	3340
926.779	3249
926.886	3268
926.993	3184
927.099	3116
927.206	3138
927.312	3089
927.419	3192
927.525	3199
927.631	3279
927.737	3131
927.843	3116
927.95	3020
928.056	3123
928.162	3188
928.267	3256
928.373	3759
928.479	3317
928.585	3097
928.69	3226
928.796	3237
928.901	3150
929.007	3024
929.112	3192
929.218	3199
929.323	3112
929.428	3180
929.533	3294
929.638	3112
929.743	3142
929.848	3253
929.953	3211
930.058	3108
930.163	3017
930.267	3020
930.372	3192
930.477	3013
930.581	3340
930.685	3146
930.79	3066
930.894	3077
930.998	3066
931.103	3256
931.207	2933
931.311	2929
931.415	2971
931.519	2811
931.623	2788
