Data from test_V78500241_778.txt Node
Date: Fri Mar 25 16:20:35 CST 2022
User: usil
Spectrometer: V785-0024
Trigger mode: 0
Integration Time (sec): 4.000000E-1
Scans to average: 1
Nonlinearity correction enabled: false
Boxcar width: 0
Storing dark spectrum: false
XAxis mode: Wavelengths
Number of Pixels in Spectrum: 1024
>>>>>Begin Spectral Data<<<<<
801.071	2941
801.214	2998
801.356	2910
801.499	2925
801.641	2876
801.783	2910
801.926	3058
802.068	2971
802.211	2998
802.353	3047
802.496	3001
802.638	3013
802.78	3077
802.923	3077
803.065	3032
803.208	2933
803.35	2899
803.492	2990
803.635	2906
803.777	2735
803.919	2849
804.061	3230
804.204	2982
804.346	2910
804.488	2868
804.63	2960
804.773	2872
804.915	2918
805.057	3188
805.199	2914
805.341	2975
805.483	3051
805.626	3017
805.768	2948
805.91	3085
806.052	3161
806.194	3043
806.336	3245
806.478	3039
806.62	2948
806.762	3032
806.904	3058
807.046	3173
807.188	2994
807.33	2922
807.472	2979
807.614	2887
807.756	2994
807.898	2922
808.04	2929
808.182	2994
808.324	2937
808.465	2929
808.607	2861
808.749	2792
808.891	2834
809.033	2986
809.174	3013
809.316	2922
809.458	2887
809.6	2819
809.741	2796
809.883	2815
810.025	2861
810.166	2845
810.308	2864
810.45	2876
810.591	2804
810.733	2792
810.875	2868
811.016	2785
811.158	2746
811.299	2838
811.441	2922
811.582	2910
811.724	2819
811.865	2872
812.007	2906
812.148	2868
812.29	2864
812.431	2906
812.573	2956
812.714	2994
812.855	3058
812.997	3043
813.138	3161
813.279	2994
813.421	2990
813.562	2944
813.703	2891
813.845	2910
813.986	2758
814.127	2746
814.268	2830
814.41	2826
814.551	2861
814.692	2849
814.833	2861
814.974	2922
815.115	2956
815.256	2830
815.397	2807
815.539	2857
815.68	2788
815.821	2807
815.962	2952
816.103	2933
816.244	2906
816.385	2864
816.526	2979
816.666	2925
816.807	2766
816.948	2895
817.089	2918
817.23	2918
817.371	2815
817.512	2781
817.653	2845
817.793	2823
817.934	2906
818.075	2979
818.216	3013
818.356	3001
818.497	2918
818.638	2807
818.778	2834
818.919	2804
819.06	2819
819.2	2845
819.341	2838
819.481	2826
819.622	2937
819.762	3116
819.903	3047
820.043	2941
820.184	2922
820.324	2910
820.465	3017
820.605	3009
820.746	3032
820.886	2971
821.026	3077
821.167	3150
821.307	3294
821.447	3260
821.588	3272
821.728	3230
821.868	3180
822.008	3085
822.149	3176
822.289	3211
822.429	3097
822.569	3100
822.709	3176
822.849	3039
822.99	3070
823.13	3192
823.27	3180
823.41	3100
823.55	3154
823.69	3180
823.83	3226
823.97	3104
824.11	3017
824.25	3028
824.389	3089
824.529	3138
824.669	3089
824.809	3195
824.949	3287
825.089	3188
825.228	3180
825.368	3043
825.508	2979
825.648	2971
825.787	2971
825.927	3020
826.067	2971
826.206	2948
826.346	3028
826.485	3119
826.625	3074
826.765	3302
826.904	3203
827.044	2944
827.183	2979
827.323	2880
827.462	3013
827.601	2868
827.741	2952
827.88	2941
828.02	2849
828.159	3020
828.298	3028
828.437	3116
828.577	3005
828.716	3230
828.855	3104
828.994	2910
829.134	2883
829.273	2910
829.412	2887
829.551	2864
829.69	2880
829.829	2982
829.968	3123
830.107	3005
830.246	3036
830.385	2929
830.524	2842
830.663	2823
830.802	2735
830.941	2621
831.08	2625
831.219	2781
831.357	2731
831.496	2952
831.635	2712
831.774	2663
831.913	2667
832.051	2560
832.19	2579
832.329	2689
832.467	2503
832.606	2499
832.744	2583
832.883	2598
833.022	2610
833.16	2697
833.299	2693
833.437	2686
833.576	2697
833.714	2724
833.852	2746
833.991	2781
834.129	2842
834.267	2845
834.406	2800
834.544	2849
834.682	2872
834.821	2853
834.959	3062
835.097	2857
835.235	3070
835.373	2994
835.511	3017
835.65	2941
835.788	2918
835.926	2842
836.064	2800
836.202	2849
836.34	3077
836.478	3161
836.615	3013
836.753	3116
836.891	3184
837.029	3154
837.167	3112
837.305	3074
837.443	3058
837.58	2956
837.718	3169
837.856	3051
837.993	3043
838.131	3157
838.269	3093
838.406	3089
838.544	3055
838.681	2929
838.819	2941
838.956	2819
839.094	2834
839.231	2902
839.369	3032
839.506	3386
839.643	3184
839.781	3013
839.918	2975
840.055	3058
840.193	3043
840.33	3051
840.467	3066
840.604	3146
840.742	3397
840.879	3043
841.016	3077
841.153	3100
841.29	3348
841.427	3256
841.564	3264
841.701	3294
841.838	3218
841.975	3176
842.112	3173
842.249	3093
842.385	3009
842.522	3279
842.659	3123
842.796	3066
842.933	3112
843.069	3036
843.206	3028
843.343	3176
843.479	3097
843.616	3100
843.752	2906
843.889	2849
844.025	3070
844.162	2899
844.298	3055
844.435	2967
844.571	2925
844.708	3062
844.844	3214
844.98	3211
845.117	3195
845.253	3066
845.389	3009
845.525	3074
845.661	3116
845.798	3020
845.934	3127
846.07	3081
846.206	3241
846.342	3325
846.478	3176
846.614	3097
846.75	3055
846.886	3020
847.022	3272
847.158	3142
847.294	3195
847.429	3264
847.565	3256
847.701	3530
847.837	3017
847.972	2994
848.108	3207
848.244	3135
848.379	3032
848.515	2994
848.65	2986
848.786	2967
848.921	3039
849.057	3119
849.192	3192
849.328	3104
849.463	3146
849.598	3085
849.734	3058
849.869	3020
850.004	2948
850.14	3009
850.275	2979
850.41	2842
850.545	2922
850.68	2944
850.815	2971
850.95	3036
851.085	3230
851.22	3146
851.355	3058
851.49	3024
851.625	3024
851.76	3051
851.895	3005
852.03	2925
852.165	3066
852.299	3154
852.434	3226
852.569	3176
852.703	3222
852.838	3249
852.973	3382
853.107	3363
853.242	3195
853.376	3150
853.511	3036
853.645	3074
853.78	3260
853.914	3176
854.048	3146
854.183	3138
854.317	3180
854.451	3332
854.585	3157
854.72	3131
854.854	3222
854.988	3116
855.122	3100
855.256	3013
855.39	3123
855.524	3241
855.658	3233
855.792	3222
855.926	3230
856.06	3253
856.194	3272
856.327	3199
856.461	3119
856.595	3131
856.729	3123
856.862	3272
856.996	3230
857.13	3249
857.263	3260
857.397	3275
857.53	3184
857.664	3214
857.797	3256
857.931	3279
858.064	3226
858.197	3272
858.331	3199
858.464	3150
858.597	3017
858.731	3188
858.864	3157
858.997	3119
859.13	3184
859.263	3180
859.396	3226
859.529	3100
859.662	3100
859.795	3093
859.928	3138
860.061	3275
860.194	3325
860.327	3176
860.46	3131
860.592	3268
860.725	3287
860.858	3302
860.99	3135
861.123	3100
861.256	3089
861.388	3176
861.521	3975
861.653	3036
861.786	3051
861.918	3070
862.05	3062
862.183	3142
862.315	3237
862.447	3245
862.58	3138
862.712	2971
862.844	2906
862.976	3093
863.108	3051
863.24	3454
863.372	2922
863.504	3013
863.636	2982
863.768	3062
863.9	3005
864.032	2933
864.164	2986
864.296	3024
864.428	3100
864.559	3131
864.691	3127
864.823	3070
864.954	3032
865.086	3058
865.217	3020
865.349	2994
865.48	3028
865.612	3039
865.743	3169
865.875	2998
866.006	2971
866.137	2967
866.269	2986
866.4	2975
866.531	2941
866.662	2914
866.793	2941
866.924	2967
867.055	3005
867.186	2956
867.317	2937
867.448	2891
867.579	2880
867.71	2891
867.841	2872
867.972	2933
868.103	2910
868.233	2906
868.364	2925
868.495	2933
868.625	3108
868.756	3211
868.886	3051
869.017	3020
869.147	3173
869.278	3161
869.408	3039
869.539	3032
869.669	3127
869.799	3097
869.929	3180
870.06	3142
870.19	3336
870.32	3306
870.45	3306
870.58	3409
870.71	3462
870.84	3473
870.97	3359
871.1	3306
871.23	3473
871.36	3488
871.489	3363
871.619	3409
871.749	3420
871.879	3443
872.008	3519
872.138	3382
872.267	3336
872.397	3214
872.526	3112
872.656	3043
872.785	3142
872.915	3268
873.044	3325
873.173	3253
873.303	3245
873.432	3237
873.561	3237
873.69	3226
873.819	3142
873.948	3211
874.077	3093
874.206	3005
874.335	3127
874.464	3268
874.593	3389
874.722	3222
874.851	3450
874.979	3363
875.108	3393
875.237	3237
875.365	3157
875.494	3211
875.623	3294
875.751	3123
875.88	3135
876.008	3199
876.136	3253
876.265	3370
876.393	3538
876.521	3420
876.65	3397
876.778	3363
876.906	3283
877.034	3233
877.162	3302
877.29	3218
877.418	3317
877.546	3291
877.674	3275
877.802	3275
877.93	3253
878.058	3180
878.185	3131
878.313	3195
878.441	3241
878.568	3108
878.696	3165
878.824	3283
878.951	3313
879.079	3507
879.206	3625
879.333	3458
879.461	3374
879.588	3397
879.715	3462
879.842	3610
879.97	3397
880.097	3184
880.224	3135
880.351	3218
880.478	3233
880.605	3253
880.732	3214
880.859	3526
880.986	3355
881.112	3325
881.239	3203
881.366	3138
881.493	3062
881.619	3047
881.746	3112
881.872	3100
881.999	3169
882.125	3161
882.252	3325
882.378	3294
882.505	3500
882.631	3317
882.757	3157
882.883	3237
883.01	3211
883.136	3218
883.262	3131
883.388	3154
883.514	3351
883.64	3378
883.766	3310
883.892	3203
884.018	3256
884.143	3393
884.269	3545
884.395	3203
884.52	3218
884.646	3214
884.772	3131
884.897	3081
885.023	3230
885.148	3355
885.274	3439
885.399	3378
885.524	3264
885.65	3268
885.775	3325
885.9	3317
886.025	3454
886.15	3439
886.275	3313
886.4	3249
886.525	3351
886.65	3321
886.775	3253
886.9	3500
887.025	3698
887.149	3443
887.274	3279
887.399	3245
887.523	3230
887.648	3195
887.773	3211
887.897	3378
888.021	3393
888.146	3329
888.27	3469
888.395	3542
888.519	3469
888.643	3469
888.767	3481
888.891	3351
889.015	3218
889.139	3321
889.263	3264
889.387	3412
889.511	3523
889.635	3481
889.759	3283
889.883	3302
890.006	3428
890.13	3481
890.254	3279
890.377	3401
890.501	3214
890.624	3195
890.748	3321
890.871	3161
890.995	3104
891.118	3077
891.241	3253
891.364	3253
891.488	3310
891.611	3214
891.734	3256
891.857	3294
891.98	3272
892.103	3359
892.226	3294
892.349	3233
892.471	3131
892.594	3302
892.717	3268
892.839	3298
892.962	3321
893.085	3382
893.207	3287
893.33	3169
893.452	3230
893.575	3370
893.697	3298
893.819	3450
893.941	3568
894.064	3458
894.186	3306
894.308	3291
894.43	3466
894.552	3564
894.674	3443
894.796	3294
894.918	3317
895.04	3306
895.161	3443
895.283	3382
895.405	3336
895.526	3351
895.648	3409
895.769	3439
895.891	3477
896.012	3462
896.134	3458
896.255	3435
896.376	3405
896.498	3340
896.619	3458
896.74	3397
896.861	3439
896.982	3690
897.103	3854
897.224	3599
897.345	3511
897.466	3439
897.587	3458
897.708	3660
897.828	3564
897.949	3473
898.07	3336
898.19	3454
898.311	3599
898.431	3485
898.552	3557
898.672	3633
898.792	3618
898.913	3561
899.033	3454
899.153	3310
899.273	3253
899.393	3268
899.513	3321
899.633	3355
899.753	3313
899.873	3321
899.993	3439
900.113	3363
900.232	3409
900.352	3351
900.472	3310
900.591	3230
900.711	3332
900.83	3275
900.95	3473
901.069	3507
901.189	3367
901.308	3173
901.427	3146
901.546	3180
901.665	3237
901.784	3389
901.904	3222
902.023	3169
902.141	3032
902.26	3005
902.379	3150
902.498	3138
902.617	3074
902.735	3222
902.854	3249
902.973	3176
903.091	3074
903.21	3070
903.328	3138
903.446	3142
903.565	3173
903.683	3256
903.801	3119
903.919	3226
904.038	3291
904.156	3169
904.274	3317
904.392	3260
904.51	3287
904.627	3344
904.745	3443
904.863	3492
904.981	3279
905.098	3195
905.216	3272
905.334	3317
905.451	3317
905.569	3310
905.686	3431
905.803	3454
905.921	3310
906.038	3450
906.155	3374
906.272	3317
906.389	3363
906.506	3272
906.623	3283
906.74	3298
906.857	3233
906.974	3287
907.091	3488
907.208	3591
907.324	3473
907.441	3378
907.557	3260
907.674	3279
907.79	3245
907.907	3264
908.023	3382
908.139	3397
908.256	3344
908.372	3405
908.488	3374
908.604	3302
908.72	3230
908.836	3306
908.952	3325
909.068	3340
909.184	3485
909.3	3374
909.415	3523
909.531	3469
909.647	3272
909.762	3336
909.878	3260
909.993	3317
910.108	3416
910.224	3321
910.339	3397
910.454	3382
910.57	3313
910.685	3256
910.8	3587
910.915	3572
911.03	3443
911.145	3264
911.259	3294
911.374	3313
911.489	3260
911.604	3253
911.718	3123
911.833	3161
911.947	3036
912.062	2986
912.176	3176
912.291	3214
912.405	3249
912.519	3473
912.633	3519
912.748	3340
912.862	3310
912.976	3169
913.09	3074
913.204	3165
913.318	3233
913.431	3351
913.545	3336
913.659	3424
913.772	3367
913.886	3207
914	3214
914.113	3378
914.226	3397
914.34	3367
914.453	3188
914.566	3420
914.68	3283
914.793	3317
914.906	3146
915.019	3150
915.132	3074
915.245	3165
915.358	3192
915.47	3226
915.583	3283
915.696	3363
915.809	3428
915.921	3439
916.034	3272
916.146	3272
916.259	3233
916.371	3370
916.483	3374
916.595	3268
916.708	3332
916.82	3382
916.932	3351
917.044	3363
917.156	3443
917.268	3260
917.38	3302
917.491	3310
917.603	3412
917.715	3458
917.826	3469
917.938	3401
918.049	3275
918.161	3454
918.272	3538
918.384	3584
918.495	3511
918.606	3340
918.717	3298
918.828	3370
918.939	3401
919.05	3317
919.161	3382
919.272	3214
919.383	3287
919.494	3526
919.604	3686
919.715	3504
919.826	3412
919.936	3439
920.047	3557
920.157	3568
920.267	3743
920.378	3614
920.488	3587
920.598	3789
920.708	3983
920.818	3846
920.928	3873
921.038	4032
921.148	3991
921.258	3690
921.368	3720
921.477	3625
921.587	3545
921.697	3496
921.806	3641
921.916	3538
922.025	3382
922.134	3363
922.244	3306
922.353	3401
922.462	3264
922.571	3199
922.68	3089
922.789	3077
922.898	3131
923.007	3074
923.116	3214
923.224	3169
923.333	3150
923.442	3104
923.55	3123
923.659	3116
923.767	3222
923.876	3100
923.984	3268
924.092	3100
924.201	3192
924.309	3237
924.417	3203
924.525	3195
924.633	3260
924.741	4116
924.849	3085
924.956	3264
925.064	3100
925.172	3051
925.279	3097
925.387	3199
925.494	3192
925.602	3351
925.709	3382
925.816	3188
925.924	3291
926.031	3386
926.138	3329
926.245	3367
926.352	3283
926.459	3428
926.566	3477
926.673	3317
926.779	3218
926.886	3264
926.993	3161
927.099	3131
927.206	3108
927.312	3116
927.419	3222
927.525	3211
927.631	3279
927.737	3138
927.843	3123
927.95	3051
928.056	3131
928.162	3173
928.267	3245
928.373	3766
928.479	3283
928.585	3081
928.69	3230
928.796	3249
928.901	3127
929.007	3024
929.112	3218
929.218	3184
929.323	3119
929.428	3161
929.533	3310
929.638	3142
929.743	3176
929.848	3253
929.953	3237
930.058	3142
930.163	3020
930.267	3028
930.372	3211
930.477	2971
930.581	3291
930.685	3207
930.79	3066
930.894	3116
930.998	3051
931.103	3256
931.207	2944
931.311	2922
931.415	2918
931.519	2781
931.623	2819
