Data from test_V78500241_65.txt Node
Date: Fri Mar 25 16:15:39 CST 2022
User: usil
Spectrometer: V785-0024
Trigger mode: 0
Integration Time (sec): 4.000000E-1
Scans to average: 1
Nonlinearity correction enabled: false
Boxcar width: 0
Storing dark spectrum: false
XAxis mode: Wavelengths
Number of Pixels in Spectrum: 1024
>>>>>Begin Spectral Data<<<<<
801.071	2956
801.214	2956
801.356	2914
801.499	2937
801.641	2925
801.783	2948
801.926	3055
802.068	3005
802.211	3032
802.353	3058
802.496	2986
802.638	3055
802.78	3112
802.923	3089
803.065	3028
803.208	2925
803.35	2956
803.492	2963
803.635	2994
803.777	2773
803.919	2910
804.061	3222
804.204	3005
804.346	2944
804.488	2868
804.63	3024
804.773	2883
804.915	2918
805.057	3119
805.199	2941
805.341	2967
805.483	3066
805.626	3013
805.768	3001
805.91	3100
806.052	3157
806.194	3074
806.336	3260
806.478	3028
806.62	2967
806.762	3043
806.904	3085
807.046	3222
807.188	3013
807.33	2952
807.472	3028
807.614	2948
807.756	3055
807.898	2956
808.04	2914
808.182	3024
808.324	2952
808.465	2899
808.607	2925
808.749	2845
808.891	2864
809.033	3039
809.174	2986
809.316	2899
809.458	2925
809.6	2785
809.741	2777
809.883	2838
810.025	2880
810.166	2918
810.308	2883
810.45	2891
810.591	2800
810.733	2781
810.875	2883
811.016	2785
811.158	2792
811.299	2838
811.441	2975
811.582	2925
811.724	2853
811.865	2872
812.007	2944
812.148	2914
812.29	2842
812.431	2933
812.573	2971
812.714	2971
812.855	3077
812.997	3093
813.138	3127
813.279	3077
813.421	3043
813.562	3005
813.703	2895
813.845	2906
813.986	2811
814.127	2735
814.268	2834
814.41	2872
814.551	2857
814.692	2937
814.833	2792
814.974	2922
815.115	2971
815.256	2906
815.397	2849
815.539	2906
815.68	2811
815.821	2845
815.962	2971
816.103	2941
816.244	2899
816.385	2906
816.526	3009
816.666	2982
816.807	2758
816.948	2982
817.089	2918
817.23	2887
817.371	2811
817.512	2819
817.653	2876
817.793	2845
817.934	2899
818.075	3001
818.216	3036
818.356	3028
818.497	2887
818.638	2788
818.778	2823
818.919	2804
819.06	2807
819.2	2914
819.341	2834
819.481	2811
819.622	2960
819.762	3131
819.903	3077
820.043	2952
820.184	2956
820.324	2963
820.465	3074
820.605	3077
820.746	3062
820.886	2982
821.026	3100
821.167	3211
821.307	3329
821.447	3287
821.588	3264
821.728	3226
821.868	3230
822.008	3081
822.149	3222
822.289	3275
822.429	3165
822.569	3089
822.709	3203
822.849	3051
822.99	3089
823.13	3207
823.27	3226
823.41	3161
823.55	3203
823.69	3192
823.83	3249
823.97	3127
824.11	3039
824.25	3043
824.389	3077
824.529	3154
824.669	3066
824.809	3249
824.949	3264
825.089	3253
825.228	3173
825.368	3028
825.508	2998
825.648	3024
825.787	3058
825.927	3070
826.067	3024
826.206	2963
826.346	3062
826.485	3100
826.625	3123
826.765	3272
826.904	3230
827.044	3043
827.183	2971
827.323	2895
827.462	3039
827.601	2963
827.741	2975
827.88	3005
828.02	2857
828.159	2979
828.298	3005
828.437	3154
828.577	3074
828.716	3253
828.855	3097
828.994	2944
829.134	2933
829.273	2933
829.412	2883
829.551	2895
829.69	2910
829.829	3039
829.968	3157
830.107	3081
830.246	3066
830.385	2937
830.524	2922
830.663	2872
830.802	2746
830.941	2648
831.08	2693
831.219	2773
831.357	2785
831.496	3009
831.635	2762
831.774	2667
831.913	2667
832.051	2541
832.19	2590
832.329	2712
832.467	2552
832.606	2533
832.744	2610
832.883	2598
833.022	2636
833.16	2659
833.299	2705
833.437	2712
833.576	2762
833.714	2762
833.852	2754
833.991	2781
834.129	2876
834.267	2864
834.406	2804
834.544	2918
834.682	2906
834.821	2887
834.959	3066
835.097	2906
835.235	3081
835.373	3017
835.511	3077
835.65	2971
835.788	2975
835.926	2853
836.064	2857
836.202	2872
836.34	3123
836.478	3192
836.615	3024
836.753	3184
836.891	3211
837.029	3249
837.167	3161
837.305	3097
837.443	3055
837.58	3013
837.718	3150
837.856	3089
837.993	3058
838.131	3146
838.269	3150
838.406	3116
838.544	3062
838.681	2941
838.819	2933
838.956	2842
839.094	2830
839.231	2941
839.369	3043
839.506	3412
839.643	3256
839.781	3001
839.918	2956
840.055	3089
840.193	3112
840.33	3119
840.467	3123
840.604	3161
840.742	3450
840.879	3116
841.016	3077
841.153	3142
841.29	3386
841.427	3336
841.564	3317
841.701	3348
841.838	3256
841.975	3222
842.112	3275
842.249	3119
842.385	3039
842.522	3291
842.659	3123
842.796	3089
842.933	3119
843.069	3077
843.206	3047
843.343	3237
843.479	3131
843.616	3199
843.752	2906
843.889	2922
844.025	3135
844.162	2887
844.298	3077
844.435	2982
844.571	2922
844.708	3077
844.844	3188
844.98	3237
845.117	3203
845.253	3100
845.389	3009
845.525	3108
845.661	3127
845.798	3009
845.934	3100
846.07	3089
846.206	3268
846.342	3363
846.478	3272
846.614	3112
846.75	3135
846.886	3039
847.022	3291
847.158	3146
847.294	3218
847.429	3294
847.565	3230
847.701	3561
847.837	3066
847.972	3058
848.108	3192
848.244	3157
848.379	3020
848.515	2975
848.65	2982
848.786	2982
848.921	3043
849.057	3123
849.192	3146
849.328	3108
849.463	3123
849.598	3093
849.734	3017
849.869	2994
850.004	2960
850.14	3009
850.275	2933
850.41	2868
850.545	2906
850.68	2929
850.815	2982
850.95	2979
851.085	3199
851.22	3161
851.355	3074
851.49	3024
851.625	3013
851.76	3032
851.895	2941
852.03	2918
852.165	3051
852.299	3169
852.434	3222
852.569	3169
852.703	3188
852.838	3287
852.973	3359
853.107	3359
853.242	3184
853.376	3138
853.511	2994
853.645	3077
853.78	3268
853.914	3150
854.048	3138
854.183	3093
854.317	3184
854.451	3325
854.585	3161
854.72	3104
854.854	3253
854.988	3062
855.122	3123
855.256	2986
855.39	3119
855.524	3249
855.658	3245
855.792	3184
855.926	3188
856.06	3233
856.194	3279
856.327	3180
856.461	3119
856.595	3089
856.729	3112
856.862	3233
856.996	3188
857.13	3226
857.263	3226
857.397	3283
857.53	3131
857.664	3207
857.797	3214
857.931	3279
858.064	3157
858.197	3260
858.331	3188
858.464	3119
858.597	3058
858.731	3157
858.864	3161
858.997	3108
859.13	3195
859.263	3195
859.396	3211
859.529	3074
859.662	3157
859.795	3081
859.928	3157
860.061	3317
860.194	3321
860.327	3161
860.46	3127
860.592	3226
860.725	3279
860.858	3321
860.99	3119
861.123	3081
861.256	3089
861.388	3161
861.521	3880
861.653	3051
861.786	3001
861.918	3005
862.05	3116
862.183	3116
862.315	3195
862.447	3180
862.58	3131
862.712	2963
862.844	2872
862.976	3055
863.108	3024
863.24	3363
863.372	2914
863.504	3005
863.636	2994
863.768	3032
863.9	3036
864.032	2929
864.164	2948
864.296	3013
864.428	3066
864.559	3138
864.691	3119
864.823	3116
864.954	3013
865.086	3047
865.217	3009
865.349	2979
865.48	2986
865.612	3066
865.743	3165
865.875	3017
866.006	2979
866.137	2975
866.269	2971
866.4	2982
866.531	2910
866.662	2883
866.793	2929
866.924	2918
867.055	3020
867.186	2937
867.317	2895
867.448	2845
867.579	2872
867.71	2864
867.841	2857
867.972	2944
868.103	2933
868.233	2910
868.364	2902
868.495	2910
868.625	3093
868.756	3188
868.886	3005
869.017	3074
869.147	3157
869.278	3188
869.408	3123
869.539	3081
869.669	3108
869.799	3066
869.929	3161
870.06	3135
870.19	3332
870.32	3306
870.45	3348
870.58	3420
870.71	3473
870.84	3488
870.97	3329
871.1	3302
871.23	3515
871.36	3458
871.489	3367
871.619	3389
871.749	3488
871.879	3462
872.008	3530
872.138	3389
872.267	3287
872.397	3203
872.526	3146
872.656	3017
872.785	3146
872.915	3272
873.044	3329
873.173	3256
873.303	3317
873.432	3287
873.561	3272
873.69	3165
873.819	3146
873.948	3272
874.077	3127
874.206	3051
874.335	3135
874.464	3218
874.593	3374
874.722	3272
874.851	3428
874.979	3397
875.108	3336
875.237	3230
875.365	3188
875.494	3180
875.623	3245
875.751	3100
875.88	3150
876.008	3230
876.136	3249
876.265	3458
876.393	3542
876.521	3454
876.65	3454
876.778	3382
876.906	3306
877.034	3230
877.162	3310
877.29	3211
877.418	3302
877.546	3275
877.674	3256
877.802	3245
877.93	3241
878.058	3176
878.185	3135
878.313	3237
878.441	3214
878.568	3119
878.696	3195
878.824	3268
878.951	3325
879.079	3412
879.206	3637
879.333	3481
879.461	3363
879.588	3382
879.715	3545
879.842	3656
879.97	3416
880.097	3214
880.224	3116
880.351	3253
880.478	3260
880.605	3230
880.732	3222
880.859	3523
880.986	3325
881.112	3344
881.239	3211
881.366	3108
881.493	3089
881.619	3043
881.746	3077
881.872	3097
881.999	3165
882.125	3207
882.252	3294
882.378	3317
882.505	3435
882.631	3306
882.757	3192
882.883	3256
883.01	3256
883.136	3222
883.262	3119
883.388	3176
883.514	3329
883.64	3382
883.766	3329
883.892	3230
884.018	3272
884.143	3431
884.269	3595
884.395	3237
884.52	3157
884.646	3192
884.772	3211
884.897	3123
885.023	3222
885.148	3348
885.274	3443
885.399	3401
885.524	3291
885.65	3291
885.775	3348
885.9	3302
886.025	3466
886.15	3397
886.275	3363
886.4	3268
886.525	3359
886.65	3317
886.775	3298
886.9	3534
887.025	3652
887.149	3428
887.274	3306
887.399	3226
887.523	3241
887.648	3203
887.773	3230
887.897	3428
888.021	3420
888.146	3329
888.27	3492
888.395	3587
888.519	3466
888.643	3473
888.767	3485
888.891	3340
889.015	3302
889.139	3317
889.263	3294
889.387	3416
889.511	3584
889.635	3526
889.759	3336
889.883	3340
890.006	3393
890.13	3500
890.254	3287
890.377	3382
890.501	3264
890.624	3222
890.748	3355
890.871	3203
890.995	3176
891.118	3074
891.241	3249
891.364	3226
891.488	3370
891.611	3214
891.734	3241
891.857	3329
891.98	3317
892.103	3386
892.226	3310
892.349	3275
892.471	3138
892.594	3313
892.717	3336
892.839	3340
892.962	3332
893.085	3378
893.207	3363
893.33	3199
893.452	3233
893.575	3344
893.697	3313
893.819	3504
893.941	3595
894.064	3443
894.186	3306
894.308	3306
894.43	3454
894.552	3564
894.674	3542
894.796	3306
894.918	3351
895.04	3313
895.161	3458
895.283	3454
895.405	3351
895.526	3409
895.648	3458
895.769	3469
895.891	3500
896.012	3507
896.134	3542
896.255	3458
896.376	3416
896.498	3412
896.619	3485
896.74	3409
896.861	3428
896.982	3694
897.103	3835
897.224	3656
897.345	3534
897.466	3477
897.587	3538
897.708	3686
897.828	3622
897.949	3485
898.07	3412
898.19	3469
898.311	3690
898.431	3519
898.552	3561
898.672	3606
898.792	3587
898.913	3591
899.033	3412
899.153	3348
899.273	3256
899.393	3298
899.513	3374
899.633	3348
899.753	3382
899.873	3336
899.993	3409
900.113	3393
900.232	3439
900.352	3378
900.472	3283
900.591	3199
900.711	3310
900.83	3226
900.95	3462
901.069	3515
901.189	3386
901.308	3211
901.427	3127
901.546	3214
901.665	3302
901.784	3393
901.904	3237
902.023	3203
902.141	3047
902.26	3013
902.379	3184
902.498	3097
902.617	3081
902.735	3203
902.854	3272
902.973	3222
903.091	3070
903.21	3123
903.328	3184
903.446	3161
903.565	3131
903.683	3214
903.801	3131
903.919	3260
904.038	3332
904.156	3180
904.274	3275
904.392	3233
904.51	3363
904.627	3355
904.745	3504
904.863	3545
904.981	3294
905.098	3195
905.216	3256
905.334	3310
905.451	3317
905.569	3355
905.686	3485
905.803	3454
905.921	3321
906.038	3462
906.155	3393
906.272	3279
906.389	3359
906.506	3268
906.623	3264
906.74	3298
906.857	3211
906.974	3306
907.091	3397
907.208	3587
907.324	3507
907.441	3393
907.557	3287
907.674	3260
907.79	3245
907.907	3306
908.023	3401
908.139	3389
908.256	3363
908.372	3397
908.488	3405
908.604	3279
908.72	3253
908.836	3329
908.952	3310
909.068	3344
909.184	3511
909.3	3389
909.415	3542
909.531	3488
909.647	3325
909.762	3329
909.878	3275
909.993	3428
910.108	3386
910.224	3359
910.339	3424
910.454	3401
910.57	3302
910.685	3275
910.8	3641
910.915	3564
911.03	3439
911.145	3264
911.259	3317
911.374	3344
911.489	3294
911.604	3237
911.718	3104
911.833	3176
911.947	3062
912.062	3028
912.176	3222
912.291	3256
912.405	3253
912.519	3458
912.633	3500
912.748	3351
912.862	3291
912.976	3218
913.09	3100
913.204	3176
913.318	3268
913.431	3370
913.545	3355
913.659	3428
913.772	3348
913.886	3272
914	3245
914.113	3397
914.226	3469
914.34	3439
914.453	3268
914.566	3443
914.68	3321
914.793	3351
914.906	3165
915.019	3104
915.132	3116
915.245	3264
915.358	3203
915.47	3294
915.583	3287
915.696	3340
915.809	3431
915.921	3469
916.034	3348
916.146	3317
916.259	3230
916.371	3431
916.483	3386
916.595	3294
916.708	3382
916.82	3382
916.932	3340
917.044	3367
917.156	3367
917.268	3253
917.38	3332
917.491	3325
917.603	3416
917.715	3466
917.826	3466
917.938	3416
918.049	3313
918.161	3450
918.272	3614
918.384	3633
918.495	3481
918.606	3359
918.717	3321
918.828	3466
918.939	3462
919.05	3291
919.161	3363
919.272	3241
919.383	3336
919.494	3530
919.604	3682
919.715	3534
919.826	3466
919.936	3500
920.047	3622
920.157	3557
920.267	3808
920.378	3652
920.488	3595
920.598	3766
920.708	3983
920.818	3854
920.928	3842
921.038	4051
921.148	4044
921.258	3759
921.368	3698
921.477	3614
921.587	3576
921.697	3500
921.806	3652
921.916	3534
922.025	3370
922.134	3367
922.244	3294
922.353	3431
922.462	3264
922.571	3233
922.68	3154
922.789	3100
922.898	3135
923.007	3112
923.116	3237
923.224	3176
923.333	3211
923.442	3146
923.55	3089
923.659	3157
923.767	3253
923.876	3157
923.984	3264
924.092	3142
924.201	3245
924.309	3241
924.417	3253
924.525	3256
924.633	3245
924.741	4242
924.849	3108
924.956	3298
925.064	3157
925.172	3081
925.279	3157
925.387	3233
925.494	3256
925.602	3412
925.709	3355
925.816	3264
925.924	3336
926.031	3416
926.138	3401
926.245	3447
926.352	3302
926.459	3473
926.566	3515
926.673	3378
926.779	3272
926.886	3294
926.993	3203
927.099	3199
927.206	3169
927.312	3169
927.419	3272
927.525	3272
927.631	3325
927.737	3192
927.843	3184
927.95	3058
928.056	3233
928.162	3226
928.267	3332
928.373	3831
928.479	3351
928.585	3131
928.69	3310
928.796	3374
928.901	3233
929.007	3161
929.112	3302
929.218	3233
929.323	3283
929.428	3222
929.533	3401
929.638	3184
929.743	3264
929.848	3389
929.953	3298
930.058	3233
930.163	3089
930.267	3138
930.372	3237
930.477	3131
930.581	3412
930.685	3260
930.79	3150
930.894	3218
930.998	3192
931.103	3386
931.207	3043
931.311	3062
931.415	3001
931.519	2880
931.623	2849
