Data from test_V78500241_693.txt Node
Date: Fri Mar 25 16:20:00 CST 2022
User: usil
Spectrometer: V785-0024
Trigger mode: 0
Integration Time (sec): 4.000000E-1
Scans to average: 1
Nonlinearity correction enabled: false
Boxcar width: 0
Storing dark spectrum: false
XAxis mode: Wavelengths
Number of Pixels in Spectrum: 1024
>>>>>Begin Spectral Data<<<<<
801.071	2929
801.214	2967
801.356	2853
801.499	2902
801.641	2864
801.783	2952
801.926	3062
802.068	2986
802.211	2963
802.353	3020
802.496	2990
802.638	3013
802.78	3051
802.923	3066
803.065	2994
803.208	2887
803.35	2902
803.492	2941
803.635	2925
803.777	2727
803.919	2857
804.061	3230
804.204	2918
804.346	2872
804.488	2845
804.63	2963
804.773	2876
804.915	2933
805.057	3112
805.199	2918
805.341	2960
805.483	2994
805.626	3020
805.768	2960
805.91	3093
806.052	3100
806.194	3039
806.336	3211
806.478	3001
806.62	2982
806.762	2975
806.904	3051
807.046	3192
807.188	2982
807.33	2918
807.472	2979
807.614	2918
807.756	2982
807.898	2952
808.04	2918
808.182	2967
808.324	2941
808.465	2872
808.607	2883
808.749	2762
808.891	2830
809.033	2948
809.174	3001
809.316	2857
809.458	2902
809.6	2773
809.741	2766
809.883	2826
810.025	2838
810.166	2819
810.308	2842
810.45	2880
810.591	2739
810.733	2785
810.875	2826
811.016	2773
811.158	2754
811.299	2807
811.441	2906
811.582	2895
811.724	2834
811.865	2834
812.007	2918
812.148	2880
812.29	2853
812.431	2876
812.573	2952
812.714	2975
812.855	3024
812.997	3009
813.138	3116
813.279	3020
813.421	3009
813.562	2952
813.703	2857
813.845	2922
813.986	2746
814.127	2731
814.268	2807
814.41	2834
814.551	2800
814.692	2891
814.833	2788
814.974	2845
815.115	2956
815.256	2834
815.397	2834
815.539	2891
815.68	2716
815.821	2804
815.962	2948
816.103	2899
816.244	2876
816.385	2914
816.526	2982
816.666	2918
816.807	2712
816.948	2899
817.089	2891
817.23	2872
817.371	2807
817.512	2811
817.653	2876
817.793	2823
817.934	2864
818.075	2929
818.216	3001
818.356	3005
818.497	2861
818.638	2842
818.778	2811
818.919	2800
819.06	2727
819.2	2872
819.341	2853
819.481	2785
819.622	2895
819.762	3112
819.903	3051
820.043	2944
820.184	2876
820.324	2864
820.465	3005
820.605	3074
820.746	3017
820.886	2941
821.026	3058
821.167	3127
821.307	3256
821.447	3272
821.588	3237
821.728	3199
821.868	3184
822.008	3055
822.149	3184
822.289	3214
822.429	3077
822.569	3100
822.709	3176
822.849	3017
822.99	3051
823.13	3176
823.27	3188
823.41	3089
823.55	3127
823.69	3146
823.83	3165
823.97	3089
824.11	2956
824.25	2975
824.389	3062
824.529	3123
824.669	3085
824.809	3199
824.949	3275
825.089	3241
825.228	3131
825.368	2998
825.508	2979
825.648	2963
825.787	3009
825.927	3013
826.067	2952
826.206	2902
826.346	3062
826.485	3077
826.625	3131
826.765	3294
826.904	3192
827.044	2956
827.183	2918
827.323	2868
827.462	3009
827.601	2906
827.741	2944
827.88	2918
828.02	2868
828.159	2960
828.298	3009
828.437	3085
828.577	3051
828.716	3222
828.855	3097
828.994	2910
829.134	2876
829.273	2937
829.412	2853
829.551	2872
829.69	2899
829.829	2982
829.968	3138
830.107	2998
830.246	3009
830.385	2925
830.524	2864
830.663	2811
830.802	2758
830.941	2655
831.08	2640
831.219	2750
831.357	2762
831.496	2956
831.635	2693
831.774	2606
831.913	2670
832.051	2514
832.19	2575
832.329	2682
832.467	2526
832.606	2476
832.744	2556
832.883	2594
833.022	2564
833.16	2674
833.299	2712
833.437	2686
833.576	2686
833.714	2712
833.852	2735
833.991	2743
834.129	2864
834.267	2849
834.406	2796
834.544	2872
834.682	2857
834.821	2895
834.959	3039
835.097	2914
835.235	3039
835.373	3013
835.511	3043
835.65	2963
835.788	2941
835.926	2819
836.064	2807
836.202	2819
836.34	3051
836.478	3150
836.615	3074
836.753	3169
836.891	3192
837.029	3161
837.167	3089
837.305	3093
837.443	3036
837.58	2922
837.718	3097
837.856	3047
837.993	3020
838.131	3085
838.269	3161
838.406	3108
838.544	3074
838.681	2922
838.819	2891
838.956	2807
839.094	2826
839.231	2910
839.369	3039
839.506	3363
839.643	3237
839.781	3028
839.918	2967
840.055	3055
840.193	3058
840.33	3020
840.467	3062
840.604	3154
840.742	3397
840.879	3017
841.016	3020
841.153	3131
841.29	3336
841.427	3256
841.564	3245
841.701	3321
841.838	3207
841.975	3188
842.112	3222
842.249	3062
842.385	3020
842.522	3203
842.659	3093
842.796	3051
842.933	3097
843.069	3039
843.206	3039
843.343	3173
843.479	3093
843.616	3116
843.752	2910
843.889	2845
844.025	3024
844.162	2868
844.298	3066
844.435	2982
844.571	2895
844.708	3058
844.844	3184
844.98	3230
845.117	3203
845.253	3032
845.389	2967
845.525	3093
845.661	3070
845.798	3013
845.934	3112
846.07	3051
846.206	3203
846.342	3310
846.478	3233
846.614	3043
846.75	3100
846.886	3036
847.022	3237
847.158	3146
847.294	3180
847.429	3256
847.565	3176
847.701	3496
847.837	3001
847.972	2990
848.108	3184
848.244	3116
848.379	2986
848.515	2918
848.65	2937
848.786	2933
848.921	3017
849.057	3093
849.192	3142
849.328	3028
849.463	3123
849.598	3036
849.734	3066
849.869	2960
850.004	2906
850.14	2967
850.275	2902
850.41	2842
850.545	2849
850.68	2937
850.815	2971
850.95	2986
851.085	3184
851.22	3081
851.355	3043
851.49	3005
851.625	2975
851.76	3013
851.895	2929
852.03	2895
852.165	2998
852.299	3074
852.434	3184
852.569	3108
852.703	3180
852.838	3272
852.973	3306
853.107	3321
853.242	3165
853.376	3104
853.511	2971
853.645	3020
853.78	3218
853.914	3047
854.048	3093
854.183	3112
854.317	3138
854.451	3310
854.585	3089
854.72	3043
854.854	3176
854.988	3039
855.122	3077
855.256	2967
855.39	3112
855.524	3226
855.658	3180
855.792	3199
855.926	3165
856.06	3214
856.194	3275
856.327	3123
856.461	3070
856.595	3066
856.729	3093
856.862	3230
856.996	3161
857.13	3233
857.263	3214
857.397	3272
857.53	3104
857.664	3176
857.797	3195
857.931	3233
858.064	3150
858.197	3199
858.331	3131
858.464	3077
858.597	3005
858.731	3085
858.864	3138
858.997	3074
859.13	3165
859.263	3226
859.396	3169
859.529	3104
859.662	3055
859.795	3055
859.928	3108
860.061	3287
860.194	3275
860.327	3119
860.46	3135
860.592	3188
860.725	3253
860.858	3245
860.99	3097
861.123	3051
861.256	3058
861.388	3097
861.521	3926
861.653	3020
861.786	2952
861.918	2990
862.05	3089
862.183	3077
862.315	3176
862.447	3176
862.58	3081
862.712	2933
862.844	2864
862.976	3055
863.108	3005
863.24	3428
863.372	2842
863.504	2971
863.636	2963
863.768	3001
863.9	2990
864.032	2910
864.164	2910
864.296	3028
864.428	3074
864.559	3093
864.691	3055
864.823	3062
864.954	3005
865.086	3066
865.217	2967
865.349	2960
865.48	2975
865.612	3032
865.743	3154
865.875	2967
866.006	2914
866.137	2944
866.269	2902
866.4	2952
866.531	2929
866.662	2861
866.793	2861
866.924	2899
867.055	2941
867.186	2880
867.317	2880
867.448	2804
867.579	2842
867.71	2857
867.841	2792
867.972	2906
868.103	2857
868.233	2842
868.364	2872
868.495	2895
868.625	3032
868.756	3150
868.886	2952
869.017	3028
869.147	3154
869.278	3142
869.408	3020
869.539	3005
869.669	3066
869.799	3058
869.929	3138
870.06	3097
870.19	3287
870.32	3279
870.45	3256
870.58	3348
870.71	3462
870.84	3466
870.97	3275
871.1	3211
871.23	3523
871.36	3469
871.489	3325
871.619	3374
871.749	3382
871.879	3405
872.008	3496
872.138	3367
872.267	3253
872.397	3142
872.526	3081
872.656	2986
872.785	3085
872.915	3249
873.044	3302
873.173	3211
873.303	3249
873.432	3241
873.561	3222
873.69	3131
873.819	3157
873.948	3184
874.077	3104
874.206	3020
874.335	3093
874.464	3233
874.593	3348
874.722	3237
874.851	3374
874.979	3382
875.108	3351
875.237	3214
875.365	3157
875.494	3161
875.623	3272
875.751	3070
875.88	3112
876.008	3207
876.136	3203
876.265	3378
876.393	3488
876.521	3409
876.65	3439
876.778	3321
876.906	3260
877.034	3184
877.162	3253
877.29	3138
877.418	3233
877.546	3264
877.674	3249
877.802	3222
877.93	3237
878.058	3150
878.185	3119
878.313	3226
878.441	3237
878.568	3074
878.696	3119
878.824	3230
878.951	3275
879.079	3431
879.206	3557
879.333	3401
879.461	3310
879.588	3329
879.715	3469
879.842	3568
879.97	3363
880.097	3161
880.224	3100
880.351	3195
880.478	3203
880.605	3180
880.732	3192
880.859	3496
880.986	3313
881.112	3287
881.239	3218
881.366	3104
881.493	3032
881.619	3001
881.746	3066
881.872	3097
881.999	3104
882.125	3127
882.252	3260
882.378	3279
882.505	3447
882.631	3272
882.757	3173
882.883	3207
883.01	3207
883.136	3112
883.262	3074
883.388	3093
883.514	3332
883.64	3378
883.766	3253
883.892	3116
884.018	3249
884.143	3435
884.269	3553
884.395	3199
884.52	3150
884.646	3184
884.772	3108
884.897	3104
885.023	3195
885.148	3348
885.274	3412
885.399	3363
885.524	3287
885.65	3260
885.775	3298
885.9	3268
886.025	3424
886.15	3359
886.275	3340
886.4	3233
886.525	3302
886.65	3260
886.775	3317
886.9	3492
887.025	3625
887.149	3420
887.274	3249
887.399	3173
887.523	3161
887.648	3192
887.773	3180
887.897	3355
888.021	3374
888.146	3332
888.27	3420
888.395	3553
888.519	3420
888.643	3397
888.767	3454
888.891	3302
889.015	3218
889.139	3287
889.263	3253
889.387	3393
889.511	3504
889.635	3397
889.759	3279
889.883	3329
890.006	3401
890.13	3488
890.254	3268
890.377	3310
890.501	3199
890.624	3154
890.748	3313
890.871	3180
890.995	3085
891.118	3043
891.241	3188
891.364	3226
891.488	3306
891.611	3176
891.734	3249
891.857	3272
891.98	3230
892.103	3382
892.226	3272
892.349	3169
892.471	3089
892.594	3222
892.717	3306
892.839	3298
892.962	3287
893.085	3397
893.207	3310
893.33	3157
893.452	3222
893.575	3325
893.697	3233
893.819	3439
893.941	3488
894.064	3454
894.186	3291
894.308	3230
894.43	3462
894.552	3500
894.674	3439
894.796	3268
894.918	3325
895.04	3310
895.161	3447
895.283	3386
895.405	3279
895.526	3409
895.648	3401
895.769	3405
895.891	3431
896.012	3466
896.134	3435
896.255	3409
896.376	3359
896.498	3355
896.619	3420
896.74	3351
896.861	3420
896.982	3625
897.103	3854
897.224	3610
897.345	3485
897.466	3416
897.587	3447
897.708	3644
897.828	3564
897.949	3469
898.07	3344
898.19	3397
898.311	3576
898.431	3450
898.552	3511
898.672	3553
898.792	3542
898.913	3580
899.033	3428
899.153	3310
899.273	3230
899.393	3279
899.513	3310
899.633	3283
899.753	3336
899.873	3310
899.993	3378
900.113	3291
900.232	3351
900.352	3321
900.472	3256
900.591	3180
900.711	3279
900.83	3233
900.95	3435
901.069	3500
901.189	3374
901.308	3157
901.427	3142
901.546	3192
901.665	3321
901.784	3272
901.904	3214
902.023	3138
902.141	3028
902.26	2971
902.379	3135
902.498	3085
902.617	3081
902.735	3192
902.854	3237
902.973	3188
903.091	3024
903.21	3097
903.328	3138
903.446	3089
903.565	3127
903.683	3241
903.801	3108
903.919	3249
904.038	3287
904.156	3173
904.274	3302
904.392	3275
904.51	3245
904.627	3344
904.745	3420
904.863	3469
904.981	3249
905.098	3173
905.216	3230
905.334	3275
905.451	3310
905.569	3279
905.686	3405
905.803	3412
905.921	3279
906.038	3435
906.155	3348
906.272	3302
906.389	3340
906.506	3195
906.623	3256
906.74	3294
906.857	3176
906.974	3256
907.091	3473
907.208	3568
907.324	3469
907.441	3344
907.557	3241
907.674	3211
907.79	3214
907.907	3272
908.023	3340
908.139	3374
908.256	3332
908.372	3428
908.488	3332
908.604	3268
908.72	3245
908.836	3298
908.952	3275
909.068	3348
909.184	3500
909.3	3351
909.415	3526
909.531	3488
909.647	3260
909.762	3302
909.878	3279
909.993	3359
910.108	3329
910.224	3321
910.339	3397
910.454	3348
910.57	3279
910.685	3249
910.8	3644
910.915	3538
911.03	3428
911.145	3249
911.259	3237
911.374	3321
911.489	3253
911.604	3188
911.718	3085
911.833	3150
911.947	3024
912.062	3001
912.176	3157
912.291	3203
912.405	3180
912.519	3466
912.633	3477
912.748	3317
912.862	3260
912.976	3146
913.09	3062
913.204	3161
913.318	3203
913.431	3321
913.545	3359
913.659	3405
913.772	3374
913.886	3195
914	3207
914.113	3332
914.226	3374
914.34	3378
914.453	3230
914.566	3401
914.68	3264
914.793	3329
914.906	3100
915.019	3119
915.132	3070
915.245	3146
915.358	3199
915.47	3226
915.583	3294
915.696	3298
915.809	3420
915.921	3363
916.034	3222
916.146	3272
916.259	3233
916.371	3382
916.483	3374
916.595	3283
916.708	3317
916.82	3298
916.932	3336
917.044	3359
917.156	3332
917.268	3249
917.38	3275
917.491	3306
917.603	3340
917.715	3416
917.826	3454
917.938	3428
918.049	3287
918.161	3409
918.272	3538
918.384	3591
918.495	3481
918.606	3325
918.717	3306
918.828	3393
918.939	3431
919.05	3336
919.161	3382
919.272	3188
919.383	3272
919.494	3500
919.604	3637
919.715	3454
919.826	3450
919.936	3450
920.047	3595
920.157	3526
920.267	3747
920.378	3568
920.488	3561
920.598	3797
920.708	3934
920.818	3808
920.928	3800
921.038	3994
921.148	3972
921.258	3717
921.368	3610
921.477	3584
921.587	3511
921.697	3458
921.806	3633
921.916	3545
922.025	3351
922.134	3370
922.244	3283
922.353	3409
922.462	3253
922.571	3211
922.68	3123
922.789	3077
922.898	3176
923.007	3085
923.116	3199
923.224	3176
923.333	3176
923.442	3097
923.55	3119
923.659	3138
923.767	3195
923.876	3108
923.984	3260
924.092	3146
924.201	3173
924.309	3176
924.417	3253
924.525	3192
924.633	3256
924.741	4055
924.849	3020
924.956	3241
925.064	3077
925.172	3039
925.279	3070
925.387	3192
925.494	3211
925.602	3363
925.709	3310
925.816	3165
925.924	3260
926.031	3397
926.138	3313
926.245	3336
926.352	3264
926.459	3386
926.566	3450
926.673	3275
926.779	3241
926.886	3241
926.993	3135
927.099	3135
927.206	3138
927.312	3100
927.419	3241
927.525	3192
927.631	3283
927.737	3146
927.843	3089
927.95	3017
928.056	3104
928.162	3154
928.267	3253
928.373	3899
928.479	3275
928.585	3028
928.69	3241
928.796	3268
928.901	3180
929.007	3036
929.112	3180
929.218	3161
929.323	3146
929.428	3135
929.533	3306
929.638	3104
929.743	3154
929.848	3253
929.953	3211
930.058	3116
930.163	3013
930.267	3074
930.372	3214
930.477	3009
930.581	3272
930.685	3218
930.79	3066
930.894	3100
930.998	3066
931.103	3283
931.207	2918
931.311	2941
931.415	2914
931.519	2773
931.623	2804
