Data from test_V78500241_1635.txt Node
Date: Fri Mar 25 16:26:31 CST 2022
User: usil
Spectrometer: V785-0024
Trigger mode: 0
Integration Time (sec): 4.000000E-1
Scans to average: 1
Nonlinearity correction enabled: false
Boxcar width: 0
Storing dark spectrum: false
XAxis mode: Wavelengths
Number of Pixels in Spectrum: 1024
>>>>>Begin Spectral Data<<<<<
801.071	2899
801.214	2979
801.356	2864
801.499	2944
801.641	2880
801.783	2895
801.926	3066
802.068	2982
802.211	2998
802.353	3043
802.496	2952
802.638	3001
802.78	3017
802.923	3093
803.065	3005
803.208	2899
803.35	2902
803.492	2944
803.635	2918
803.777	2724
803.919	2849
804.061	3218
804.204	2902
804.346	2918
804.488	2834
804.63	2960
804.773	2880
804.915	2914
805.057	3123
805.199	2960
805.341	2975
805.483	3047
805.626	3032
805.768	2937
805.91	3070
806.052	3081
806.194	3039
806.336	3211
806.478	3020
806.62	2956
806.762	2963
806.904	3047
807.046	3173
807.188	2956
807.33	2872
807.472	2986
807.614	2914
807.756	2960
807.898	2914
808.04	2891
808.182	2967
808.324	2902
808.465	2895
808.607	2864
808.749	2762
808.891	2823
809.033	2994
809.174	2979
809.316	2838
809.458	2819
809.6	2735
809.741	2815
809.883	2766
810.025	2826
810.166	2838
810.308	2826
810.45	2845
810.591	2788
810.733	2762
810.875	2838
811.016	2743
811.158	2758
811.299	2819
811.441	2944
811.582	2899
811.724	2819
811.865	2830
812.007	2906
812.148	2868
812.29	2838
812.431	2876
812.573	2944
812.714	2960
812.855	3028
812.997	3009
813.138	3100
813.279	3001
813.421	2979
813.562	2941
813.703	2876
813.845	2864
813.986	2754
814.127	2705
814.268	2800
814.41	2823
814.551	2758
814.692	2853
814.833	2815
814.974	2891
815.115	2933
815.256	2796
815.397	2781
815.539	2861
815.68	2754
815.821	2769
815.962	2948
816.103	2910
816.244	2872
816.385	2853
816.526	2948
816.666	2918
816.807	2735
816.948	2861
817.089	2929
817.23	2842
817.371	2769
817.512	2811
817.653	2853
817.793	2800
817.934	2864
818.075	2952
818.216	3009
818.356	3024
818.497	2849
818.638	2800
818.778	2811
818.919	2792
819.06	2724
819.2	2849
819.341	2800
819.481	2773
819.622	2948
819.762	3062
819.903	3017
820.043	2941
820.184	2922
820.324	2880
820.465	3005
820.605	3043
820.746	2986
820.886	2944
821.026	3104
821.167	3119
821.307	3256
821.447	3272
821.588	3233
821.728	3176
821.868	3180
822.008	3070
822.149	3138
822.289	3233
822.429	3123
822.569	3100
822.709	3214
822.849	2963
822.99	3112
823.13	3169
823.27	3180
823.41	3077
823.55	3150
823.69	3142
823.83	3173
823.97	3131
824.11	2990
824.25	2990
824.389	3047
824.529	3116
824.669	3062
824.809	3192
824.949	3230
825.089	3188
825.228	3165
825.368	3001
825.508	2971
825.648	2979
825.787	3043
825.927	3020
826.067	2941
826.206	2960
826.346	3032
826.485	3070
826.625	3089
826.765	3264
826.904	3184
827.044	2952
827.183	2948
827.323	2868
827.462	2986
827.601	2914
827.741	2941
827.88	2960
828.02	2804
828.159	2979
828.298	3024
828.437	3127
828.577	3036
828.716	3230
828.855	3081
828.994	2876
829.134	2887
829.273	2895
829.412	2864
829.551	2849
829.69	2918
829.829	2967
829.968	3112
830.107	2963
830.246	3013
830.385	2899
830.524	2883
830.663	2788
830.802	2754
830.941	2674
831.08	2655
831.219	2750
831.357	2739
831.496	2960
831.635	2701
831.774	2644
831.913	2674
832.051	2564
832.19	2568
832.329	2689
832.467	2560
832.606	2476
832.744	2587
832.883	2522
833.022	2556
833.16	2640
833.299	2667
833.437	2686
833.576	2686
833.714	2731
833.852	2701
833.991	2743
834.129	2838
834.267	2823
834.406	2758
834.544	2838
834.682	2857
834.821	2842
834.959	3077
835.097	2895
835.235	3039
835.373	2990
835.511	3020
835.65	2948
835.788	2982
835.926	2823
836.064	2807
836.202	2849
836.34	3070
836.478	3154
836.615	3074
836.753	3154
836.891	3173
837.029	3169
837.167	3070
837.305	3081
837.443	3013
837.58	2948
837.718	3119
837.856	3062
837.993	2990
838.131	3100
838.269	3104
838.406	3093
838.544	3074
838.681	2933
838.819	2891
838.956	2807
839.094	2861
839.231	2891
839.369	3013
839.506	3348
839.643	3222
839.781	3013
839.918	2960
840.055	3058
840.193	3047
840.33	3043
840.467	3135
840.604	3138
840.742	3382
840.879	3055
841.016	3055
841.153	3093
841.29	3302
841.427	3279
841.564	3264
841.701	3279
841.838	3222
841.975	3192
842.112	3192
842.249	3093
842.385	3047
842.522	3214
842.659	3074
842.796	3024
842.933	3066
843.069	3024
843.206	3028
843.343	3146
843.479	3097
843.616	3135
843.752	2902
843.889	2872
844.025	3051
844.162	2880
844.298	3028
844.435	2941
844.571	2872
844.708	3066
844.844	3192
844.98	3230
845.117	3195
845.253	3043
845.389	2982
845.525	3085
845.661	3081
845.798	3028
845.934	3100
846.07	3066
846.206	3214
846.342	3294
846.478	3222
846.614	3093
846.75	3028
846.886	3024
847.022	3233
847.158	3116
847.294	3199
847.429	3260
847.565	3226
847.701	3481
847.837	3005
847.972	3017
848.108	3146
848.244	3169
848.379	2979
848.515	2956
848.65	2922
848.786	2948
848.921	2986
849.057	3116
849.192	3123
849.328	3070
849.463	3100
849.598	3036
849.734	3036
849.869	2971
850.004	2895
850.14	2971
850.275	2880
850.41	2834
850.545	2918
850.68	2910
850.815	2956
850.95	2975
851.085	3188
851.22	3093
851.355	2990
851.49	2998
851.625	2998
851.76	3032
851.895	2975
852.03	2891
852.165	3036
852.299	3093
852.434	3188
852.569	3157
852.703	3176
852.838	3260
852.973	3378
853.107	3348
853.242	3142
853.376	3089
853.511	2971
853.645	3051
853.78	3218
853.914	3077
854.048	3104
854.183	3077
854.317	3119
854.451	3256
854.585	3138
854.72	3093
854.854	3176
854.988	3047
855.122	3085
855.256	2933
855.39	3116
855.524	3256
855.658	3161
855.792	3157
855.926	3146
856.06	3195
856.194	3218
856.327	3154
856.461	3089
856.595	3089
856.729	3104
856.862	3211
856.996	3150
857.13	3188
857.263	3226
857.397	3272
857.53	3146
857.664	3211
857.797	3214
857.931	3260
858.064	3142
858.197	3207
858.331	3138
858.464	3127
858.597	3020
858.731	3070
858.864	3146
858.997	3066
859.13	3180
859.263	3161
859.396	3173
859.529	3089
859.662	3077
859.795	3043
859.928	3173
860.061	3287
860.194	3279
860.327	3100
860.46	3093
860.592	3275
860.725	3218
860.858	3245
860.99	3085
861.123	3047
861.256	3024
861.388	3123
861.521	3854
861.653	3020
861.786	3017
861.918	3032
862.05	3043
862.183	3138
862.315	3165
862.447	3161
862.58	3108
862.712	2944
862.844	2857
862.976	3051
863.108	2975
863.24	3393
863.372	2895
863.504	2975
863.636	2937
863.768	3070
863.9	2990
864.032	2902
864.164	2952
864.296	3017
864.428	3024
864.559	3085
864.691	3058
864.823	3112
864.954	3009
865.086	3051
865.217	3009
865.349	2914
865.48	2994
865.612	3005
865.743	3127
865.875	2963
866.006	2948
866.137	2941
866.269	2960
866.4	2944
866.531	2895
866.662	2864
866.793	2876
866.924	2902
867.055	2941
867.186	2925
867.317	2918
867.448	2826
867.579	2864
867.71	2853
867.841	2845
867.972	2887
868.103	2872
868.233	2895
868.364	2872
868.495	2868
868.625	3055
868.756	3180
868.886	2979
869.017	3001
869.147	3135
869.278	3188
869.408	3066
869.539	2990
869.669	3070
869.799	3028
869.929	3135
870.06	3085
870.19	3310
870.32	3291
870.45	3298
870.58	3340
870.71	3428
870.84	3424
870.97	3310
871.1	3268
871.23	3481
871.36	3469
871.489	3344
871.619	3367
871.749	3409
871.879	3435
872.008	3473
872.138	3359
872.267	3249
872.397	3127
872.526	3100
872.656	2975
872.785	3081
872.915	3222
873.044	3291
873.173	3154
873.303	3256
873.432	3218
873.561	3245
873.69	3119
873.819	3135
873.948	3203
874.077	3077
874.206	3058
874.335	3058
874.464	3203
874.593	3344
874.722	3203
874.851	3382
874.979	3355
875.108	3291
875.237	3188
875.365	3116
875.494	3165
875.623	3260
875.751	3051
875.88	3104
876.008	3192
876.136	3203
876.265	3329
876.393	3473
876.521	3435
876.65	3397
876.778	3313
876.906	3275
877.034	3218
877.162	3233
877.29	3214
877.418	3291
877.546	3253
877.674	3279
877.802	3237
877.93	3214
878.058	3150
878.185	3104
878.313	3165
878.441	3211
878.568	3058
878.696	3131
878.824	3199
878.951	3275
879.079	3462
879.206	3603
879.333	3428
879.461	3313
879.588	3363
879.715	3485
879.842	3603
879.97	3370
880.097	3169
880.224	3135
880.351	3192
880.478	3226
880.605	3214
880.732	3161
880.859	3477
880.986	3306
881.112	3313
881.239	3199
881.366	3055
881.493	3036
881.619	3047
881.746	3077
881.872	3066
881.999	3104
882.125	3135
882.252	3230
882.378	3287
882.505	3450
882.631	3306
882.757	3119
882.883	3199
883.01	3241
883.136	3112
883.262	3100
883.388	3112
883.514	3306
883.64	3393
883.766	3253
883.892	3157
884.018	3218
884.143	3386
884.269	3530
884.395	3207
884.52	3192
884.646	3161
884.772	3097
884.897	3070
885.023	3199
885.148	3332
885.274	3401
885.399	3348
885.524	3294
885.65	3283
885.775	3325
885.9	3291
886.025	3454
886.15	3325
886.275	3275
886.4	3222
886.525	3237
886.65	3253
886.775	3264
886.9	3492
887.025	3595
887.149	3409
887.274	3256
887.399	3165
887.523	3188
887.648	3195
887.773	3203
887.897	3336
888.021	3397
888.146	3287
888.27	3435
888.395	3507
888.519	3435
888.643	3435
888.767	3466
888.891	3287
889.015	3188
889.139	3256
889.263	3260
889.387	3424
889.511	3500
889.635	3420
889.759	3287
889.883	3249
890.006	3393
890.13	3462
890.254	3260
890.377	3355
890.501	3203
890.624	3192
890.748	3336
890.871	3154
890.995	3070
891.118	3047
891.241	3176
891.364	3237
891.488	3302
891.611	3150
891.734	3253
891.857	3283
891.98	3218
892.103	3332
892.226	3287
892.349	3230
892.471	3085
892.594	3207
892.717	3279
892.839	3253
892.962	3256
893.085	3344
893.207	3291
893.33	3169
893.452	3214
893.575	3359
893.697	3256
893.819	3462
893.941	3504
894.064	3469
894.186	3253
894.308	3214
894.43	3401
894.552	3511
894.674	3420
894.796	3241
894.918	3294
895.04	3279
895.161	3443
895.283	3374
895.405	3298
895.526	3336
895.648	3363
895.769	3397
895.891	3420
896.012	3477
896.134	3488
896.255	3401
896.376	3367
896.498	3348
896.619	3401
896.74	3332
896.861	3367
896.982	3682
897.103	3896
897.224	3606
897.345	3496
897.466	3420
897.587	3507
897.708	3599
897.828	3519
897.949	3416
898.07	3325
898.19	3393
898.311	3553
898.431	3469
898.552	3500
898.672	3603
898.792	3557
898.913	3530
899.033	3416
899.153	3264
899.273	3195
899.393	3272
899.513	3287
899.633	3317
899.753	3340
899.873	3268
899.993	3355
900.113	3344
900.232	3363
900.352	3382
900.472	3287
900.591	3176
900.711	3283
900.83	3226
900.95	3409
901.069	3488
901.189	3313
901.308	3157
901.427	3131
901.546	3176
901.665	3268
901.784	3298
901.904	3211
902.023	3127
902.141	2979
902.26	2971
902.379	3150
902.498	3036
902.617	3077
902.735	3176
902.854	3188
902.973	3154
903.091	3017
903.21	3074
903.328	3108
903.446	3104
903.565	3112
903.683	3188
903.801	3169
903.919	3184
904.038	3291
904.156	3157
904.274	3302
904.392	3203
904.51	3325
904.627	3317
904.745	3450
904.863	3504
904.981	3275
905.098	3146
905.216	3211
905.334	3279
905.451	3287
905.569	3298
905.686	3424
905.803	3443
905.921	3256
906.038	3420
906.155	3332
906.272	3298
906.389	3332
906.506	3176
906.623	3249
906.74	3260
906.857	3142
906.974	3241
907.091	3443
907.208	3553
907.324	3439
907.441	3348
907.557	3222
907.674	3233
907.79	3184
907.907	3241
908.023	3351
908.139	3317
908.256	3272
908.372	3389
908.488	3344
908.604	3233
908.72	3226
908.836	3253
908.952	3279
909.068	3317
909.184	3435
909.3	3389
909.415	3462
909.531	3447
909.647	3275
909.762	3233
909.878	3241
909.993	3348
910.108	3306
910.224	3268
910.339	3454
910.454	3329
910.57	3279
910.685	3211
910.8	3553
910.915	3500
911.03	3405
911.145	3253
911.259	3302
911.374	3275
911.489	3203
911.604	3214
911.718	3104
911.833	3165
911.947	3005
912.062	3001
912.176	3195
912.291	3222
912.405	3176
912.519	3397
912.633	3485
912.748	3340
912.862	3275
912.976	3199
913.09	3074
913.204	3173
913.318	3249
913.431	3340
913.545	3310
913.659	3412
913.772	3340
913.886	3283
914	3199
914.113	3382
914.226	3435
914.34	3359
914.453	3256
914.566	3420
914.68	3306
914.793	3329
914.906	3188
915.019	3127
915.132	3142
915.245	3214
915.358	3245
915.47	3268
915.583	3294
915.696	3351
915.809	3412
915.921	3454
916.034	3310
916.146	3272
916.259	3283
916.371	3431
916.483	3382
916.595	3313
916.708	3374
916.82	3370
916.932	3397
917.044	3386
917.156	3386
917.268	3294
917.38	3351
917.491	3348
917.603	3382
917.715	3500
917.826	3454
917.938	3386
918.049	3306
918.161	3488
918.272	3663
918.384	3595
918.495	3538
918.606	3389
918.717	3317
918.828	3405
918.939	3443
919.05	3336
919.161	3370
919.272	3199
919.383	3336
919.494	3542
919.604	3682
919.715	3469
919.826	3439
919.936	3507
920.047	3622
920.157	3603
920.267	3850
920.378	3641
920.488	3641
920.598	3823
920.708	3998
920.818	3861
920.928	3857
921.038	4048
921.148	4067
921.258	3724
921.368	3618
921.477	3576
921.587	3561
921.697	3507
921.806	3652
921.916	3511
922.025	3370
922.134	3397
922.244	3386
922.353	3439
922.462	3298
922.571	3287
922.68	3142
922.789	3093
922.898	3180
923.007	3146
923.116	3249
923.224	3211
923.333	3226
923.442	3161
923.55	3116
923.659	3211
923.767	3249
923.876	3131
923.984	3245
924.092	3116
924.201	3287
924.309	3203
924.417	3298
924.525	3222
924.633	3253
924.741	4238
924.849	3081
924.956	3302
925.064	3108
925.172	3138
925.279	3093
925.387	3241
925.494	3230
925.602	3389
925.709	3332
925.816	3226
925.924	3321
926.031	3389
926.138	3409
926.245	3378
926.352	3302
926.459	3431
926.566	3504
926.673	3321
926.779	3294
926.886	3268
926.993	3188
927.099	3157
927.206	3135
927.312	3116
927.419	3294
927.525	3211
927.631	3310
927.737	3169
927.843	3142
927.95	3036
928.056	3165
928.162	3203
928.267	3306
928.373	3884
928.479	3355
928.585	3116
928.69	3279
928.796	3294
928.901	3199
929.007	3081
929.112	3253
929.218	3199
929.323	3173
929.428	3180
929.533	3317
929.638	3097
929.743	3195
929.848	3279
929.953	3245
930.058	3188
930.163	3017
930.267	3089
930.372	3214
930.477	3039
930.581	3351
930.685	3195
930.79	3062
930.894	3161
930.998	3157
931.103	3329
931.207	3009
931.311	2952
931.415	2944
931.519	2804
931.623	2853
