Data from test_V78500241_444.txt Node
Date: Fri Mar 25 16:18:16 CST 2022
User: usil
Spectrometer: V785-0024
Trigger mode: 0
Integration Time (sec): 4.000000E-1
Scans to average: 1
Nonlinearity correction enabled: false
Boxcar width: 0
Storing dark spectrum: false
XAxis mode: Wavelengths
Number of Pixels in Spectrum: 1024
>>>>>Begin Spectral Data<<<<<
801.071	2902
801.214	2975
801.356	2864
801.499	2883
801.641	2887
801.783	2910
801.926	3085
802.068	2963
802.211	3001
802.353	3013
802.496	2975
802.638	3036
802.78	3051
802.923	3055
803.065	2994
803.208	2906
803.35	2899
803.492	2952
803.635	2944
803.777	2773
803.919	2849
804.061	3192
804.204	2937
804.346	2899
804.488	2853
804.63	2933
804.773	2868
804.915	2914
805.057	3093
805.199	2937
805.341	2963
805.483	3039
805.626	2963
805.768	2986
805.91	3081
806.052	3074
806.194	3039
806.336	3199
806.478	3020
806.62	2990
806.762	2967
806.904	3055
807.046	3127
807.188	2998
807.33	2902
807.472	2941
807.614	2922
807.756	2960
807.898	2918
808.04	2910
808.182	2994
808.324	2963
808.465	2864
808.607	2895
808.749	2788
808.891	2838
809.033	2975
809.174	2933
809.316	2902
809.458	2895
809.6	2735
809.741	2762
809.883	2766
810.025	2845
810.166	2834
810.308	2826
810.45	2864
810.591	2807
810.733	2769
810.875	2819
811.016	2796
811.158	2788
811.299	2777
811.441	2937
811.582	2918
811.724	2788
811.865	2807
812.007	2895
812.148	2876
812.29	2819
812.431	2880
812.573	2914
812.714	2952
812.855	3039
812.997	3047
813.138	3119
813.279	3009
813.421	3009
813.562	2986
813.703	2922
813.845	2891
813.986	2788
814.127	2724
814.268	2845
814.41	2823
814.551	2819
814.692	2868
814.833	2838
814.974	2922
815.115	2960
815.256	2834
815.397	2804
815.539	2861
815.68	2788
815.821	2796
815.962	2929
816.103	2925
816.244	2868
816.385	2872
816.526	2960
816.666	2910
816.807	2746
816.948	2868
817.089	2902
817.23	2872
817.371	2815
817.512	2838
817.653	2804
817.793	2849
817.934	2883
818.075	2952
818.216	3005
818.356	3024
818.497	2868
818.638	2792
818.778	2811
818.919	2800
819.06	2735
819.2	2872
819.341	2849
819.481	2750
819.622	2899
819.762	3077
819.903	3020
820.043	2887
820.184	2872
820.324	2891
820.465	2990
820.605	3017
820.746	3009
820.886	2963
821.026	3093
821.167	3116
821.307	3283
821.447	3245
821.588	3245
821.728	3203
821.868	3161
822.008	3028
822.149	3195
822.289	3222
822.429	3077
822.569	3036
822.709	3169
822.849	3043
822.99	3070
823.13	3150
823.27	3207
823.41	3131
823.55	3142
823.69	3161
823.83	3173
823.97	3104
824.11	2960
824.25	2986
824.389	3028
824.529	3074
824.669	3039
824.809	3180
824.949	3268
825.089	3207
825.228	3142
825.368	2967
825.508	2925
825.648	2979
825.787	2994
825.927	3039
826.067	2967
826.206	2956
826.346	3055
826.485	3051
826.625	3119
826.765	3245
826.904	3195
827.044	2998
827.183	2929
827.323	2857
827.462	3013
827.601	2956
827.741	2918
827.88	2914
828.02	2842
828.159	2944
828.298	3047
828.437	3135
828.577	3028
828.716	3245
828.855	3077
828.994	2914
829.134	2910
829.273	2887
829.412	2849
829.551	2853
829.69	2883
829.829	2982
829.968	3127
830.107	2975
830.246	2994
830.385	2937
830.524	2861
830.663	2819
830.802	2708
830.941	2613
831.08	2640
831.219	2762
831.357	2735
831.496	2944
831.635	2701
831.774	2659
831.913	2640
832.051	2526
832.19	2571
832.329	2632
832.467	2545
832.606	2480
832.744	2545
832.883	2560
833.022	2568
833.16	2670
833.299	2712
833.437	2705
833.576	2705
833.714	2720
833.852	2735
833.991	2785
834.129	2823
834.267	2842
834.406	2785
834.544	2868
834.682	2842
834.821	2868
834.959	3043
835.097	2899
835.235	3089
835.373	2952
835.511	3051
835.65	2948
835.788	2952
835.926	2845
836.064	2796
836.202	2872
836.34	3119
836.478	3146
836.615	3001
836.753	3135
836.891	3233
837.029	3135
837.167	3097
837.305	3020
837.443	3074
837.58	2933
837.718	3104
837.856	3058
837.993	3017
838.131	3112
838.269	3081
838.406	3138
838.544	3081
838.681	2925
838.819	2876
838.956	2777
839.094	2804
839.231	2887
839.369	3028
839.506	3363
839.643	3237
839.781	3051
839.918	2963
840.055	3028
840.193	3051
840.33	3058
840.467	3100
840.604	3142
840.742	3431
840.879	3013
841.016	3074
841.153	3100
841.29	3325
841.427	3302
841.564	3283
841.701	3306
841.838	3169
841.975	3142
842.112	3192
842.249	3116
842.385	3013
842.522	3279
842.659	3089
842.796	3104
842.933	3135
843.069	3036
843.206	3055
843.343	3154
843.479	3081
843.616	3112
843.752	2891
843.889	2838
844.025	3089
844.162	2872
844.298	3074
844.435	2967
844.571	2929
844.708	3081
844.844	3161
844.98	3211
845.117	3207
845.253	3074
845.389	3024
845.525	3123
845.661	3108
845.798	3017
845.934	3085
846.07	3036
846.206	3211
846.342	3283
846.478	3180
846.614	3100
846.75	3047
846.886	3039
847.022	3272
847.158	3142
847.294	3199
847.429	3230
847.565	3199
847.701	3454
847.837	3013
847.972	2960
848.108	3119
848.244	3112
848.379	3005
848.515	2948
848.65	2929
848.786	2960
848.921	3009
849.057	3077
849.192	3142
849.328	3062
849.463	3108
849.598	3062
849.734	3001
849.869	2975
850.004	2956
850.14	2952
850.275	2929
850.41	2796
850.545	2880
850.68	2902
850.815	2967
850.95	2952
851.085	3154
851.22	3142
851.355	3055
851.49	2971
851.625	3032
851.76	3017
851.895	2902
852.03	2918
852.165	2986
852.299	3108
852.434	3161
852.569	3108
852.703	3161
852.838	3203
852.973	3325
853.107	3332
853.242	3161
853.376	3047
853.511	2986
853.645	3047
853.78	3180
853.914	3081
854.048	3123
854.183	3070
854.317	3142
854.451	3321
854.585	3150
854.72	3047
854.854	3203
854.988	3047
855.122	3066
855.256	2994
855.39	3119
855.524	3233
855.658	3135
855.792	3157
855.926	3169
856.06	3173
856.194	3253
856.327	3165
856.461	3058
856.595	3043
856.729	3081
856.862	3203
856.996	3184
857.13	3142
857.263	3230
857.397	3310
857.53	3131
857.664	3173
857.797	3241
857.931	3230
858.064	3123
858.197	3230
858.331	3131
858.464	3055
858.597	3017
858.731	3081
858.864	3138
858.997	3112
859.13	3127
859.263	3157
859.396	3195
859.529	3074
859.662	3032
859.795	3032
859.928	3146
860.061	3230
860.194	3264
860.327	3135
860.46	3116
860.592	3230
860.725	3256
860.858	3245
860.99	3100
861.123	3066
861.256	3055
861.388	3138
861.521	3934
861.653	3024
861.786	2971
861.918	2990
862.05	3047
862.183	3085
862.315	3169
862.447	3176
862.58	3074
862.712	2941
862.844	2872
862.976	2994
863.108	2998
863.24	3393
863.372	2902
863.504	2982
863.636	2944
863.768	3020
863.9	2941
864.032	2895
864.164	2933
864.296	2948
864.428	3070
864.559	3081
864.691	3077
864.823	3066
864.954	3039
865.086	3047
865.217	3009
865.349	2933
865.48	2994
865.612	2986
865.743	3123
865.875	2986
866.006	2948
866.137	2986
866.269	2956
866.4	2910
866.531	2887
866.662	2914
866.793	2880
866.924	2895
867.055	2986
867.186	2941
867.317	2845
867.448	2857
867.579	2842
867.71	2819
867.841	2823
867.972	2887
868.103	2906
868.233	2861
868.364	2880
868.495	2883
868.625	3043
868.756	3138
868.886	2952
869.017	3020
869.147	3131
869.278	3146
869.408	3024
869.539	3013
869.669	3135
869.799	3013
869.929	3142
870.06	3081
870.19	3329
870.32	3222
870.45	3241
870.58	3355
870.71	3416
870.84	3424
870.97	3283
871.1	3226
871.23	3496
871.36	3389
871.489	3310
871.619	3351
871.749	3397
871.879	3439
872.008	3458
872.138	3336
872.267	3275
872.397	3119
872.526	3085
872.656	3028
872.785	3131
872.915	3245
873.044	3302
873.173	3195
873.303	3230
873.432	3233
873.561	3214
873.69	3150
873.819	3119
873.948	3207
874.077	3112
874.206	3013
874.335	3062
874.464	3214
874.593	3340
874.722	3222
874.851	3386
874.979	3336
875.108	3317
875.237	3222
875.365	3142
875.494	3199
875.623	3306
875.751	3066
875.88	3135
876.008	3203
876.136	3214
876.265	3374
876.393	3492
876.521	3397
876.65	3397
876.778	3317
876.906	3272
877.034	3169
877.162	3226
877.29	3173
877.418	3237
877.546	3241
877.674	3195
877.802	3180
877.93	3188
878.058	3131
878.185	3112
878.313	3195
878.441	3233
878.568	3028
878.696	3161
878.824	3237
878.951	3264
879.079	3431
879.206	3606
879.333	3428
879.461	3268
879.588	3344
879.715	3473
879.842	3564
879.97	3363
880.097	3199
880.224	3108
880.351	3180
880.478	3173
880.605	3195
880.732	3138
880.859	3431
880.986	3359
881.112	3310
881.239	3180
881.366	3074
881.493	3028
881.619	3020
881.746	3058
881.872	3085
881.999	3119
882.125	3135
882.252	3233
882.378	3275
882.505	3412
882.631	3268
882.757	3119
882.883	3241
883.01	3226
883.136	3157
883.262	3077
883.388	3085
883.514	3321
883.64	3359
883.766	3310
883.892	3214
884.018	3256
884.143	3424
884.269	3534
884.395	3173
884.52	3150
884.646	3203
884.772	3093
884.897	3100
885.023	3207
885.148	3291
885.274	3378
885.399	3344
885.524	3256
885.65	3237
885.775	3294
885.9	3241
886.025	3370
886.15	3351
886.275	3233
886.4	3230
886.525	3325
886.65	3264
886.775	3275
886.9	3515
887.025	3606
887.149	3424
887.274	3218
887.399	3161
887.523	3188
887.648	3154
887.773	3184
887.897	3344
888.021	3393
888.146	3310
888.27	3435
888.395	3523
888.519	3466
888.643	3416
888.767	3416
888.891	3317
889.015	3199
889.139	3237
889.263	3222
889.387	3401
889.511	3466
889.635	3424
889.759	3268
889.883	3260
890.006	3359
890.13	3469
890.254	3256
890.377	3313
890.501	3222
890.624	3150
890.748	3287
890.871	3154
890.995	3074
891.118	3051
891.241	3192
891.364	3188
891.488	3313
891.611	3173
891.734	3211
891.857	3230
891.98	3207
892.103	3344
892.226	3245
892.349	3214
892.471	3116
892.594	3218
892.717	3233
892.839	3264
892.962	3279
893.085	3348
893.207	3302
893.33	3112
893.452	3214
893.575	3325
893.697	3241
893.819	3454
893.941	3526
894.064	3431
894.186	3260
894.308	3272
894.43	3420
894.552	3507
894.674	3466
894.796	3245
894.918	3279
895.04	3264
895.161	3435
895.283	3344
895.405	3279
895.526	3321
895.648	3439
895.769	3382
895.891	3466
896.012	3500
896.134	3458
896.255	3367
896.376	3344
896.498	3336
896.619	3416
896.74	3336
896.861	3382
896.982	3686
897.103	3835
897.224	3580
897.345	3488
897.466	3439
897.587	3450
897.708	3625
897.828	3568
897.949	3435
898.07	3340
898.19	3416
898.311	3584
898.431	3477
898.552	3545
898.672	3587
898.792	3568
898.913	3538
899.033	3443
899.153	3313
899.273	3237
899.393	3291
899.513	3313
899.633	3313
899.753	3348
899.873	3332
899.993	3397
900.113	3355
900.232	3367
900.352	3351
900.472	3306
900.591	3218
900.711	3348
900.83	3268
900.95	3439
901.069	3477
901.189	3386
901.308	3207
901.427	3154
901.546	3207
901.665	3336
901.784	3386
901.904	3207
902.023	3169
902.141	3017
902.26	2994
902.379	3169
902.498	3108
902.617	3081
902.735	3256
902.854	3294
902.973	3245
903.091	3066
903.21	3093
903.328	3222
903.446	3173
903.565	3138
903.683	3253
903.801	3165
903.919	3317
904.038	3329
904.156	3218
904.274	3336
904.392	3321
904.51	3359
904.627	3348
904.745	3511
904.863	3507
904.981	3329
905.098	3218
905.216	3287
905.334	3329
905.451	3332
905.569	3321
905.686	3473
905.803	3492
905.921	3367
906.038	3450
906.155	3401
906.272	3367
906.389	3374
906.506	3218
906.623	3256
906.74	3298
906.857	3218
906.974	3260
907.091	3454
907.208	3606
907.324	3542
907.441	3420
907.557	3287
907.674	3283
907.79	3245
907.907	3298
908.023	3424
908.139	3420
908.256	3355
908.372	3409
908.488	3382
908.604	3279
908.72	3253
908.836	3298
908.952	3321
909.068	3374
909.184	3534
909.3	3405
909.415	3523
909.531	3500
909.647	3294
909.762	3321
909.878	3291
909.993	3382
910.108	3412
910.224	3409
910.339	3397
910.454	3355
910.57	3306
910.685	3302
910.8	3591
910.915	3599
911.03	3492
911.145	3287
911.259	3306
911.374	3306
911.489	3298
911.604	3249
911.718	3123
911.833	3192
911.947	3039
912.062	3047
912.176	3188
912.291	3245
912.405	3241
912.519	3469
912.633	3538
912.748	3359
912.862	3306
912.976	3192
913.09	3066
913.204	3161
913.318	3253
913.431	3370
913.545	3378
913.659	3504
913.772	3401
913.886	3237
914	3260
914.113	3367
914.226	3481
914.34	3370
914.453	3233
914.566	3420
914.68	3355
914.793	3351
914.906	3199
915.019	3157
915.132	3104
915.245	3241
915.358	3199
915.47	3218
915.583	3283
915.696	3325
915.809	3447
915.921	3469
916.034	3298
916.146	3313
916.259	3260
916.371	3435
916.483	3393
916.595	3268
916.708	3367
916.82	3397
916.932	3344
917.044	3378
917.156	3367
917.268	3298
917.38	3340
917.491	3332
917.603	3378
917.715	3504
917.826	3485
917.938	3393
918.049	3268
918.161	3466
918.272	3622
918.384	3610
918.495	3488
918.606	3382
918.717	3325
918.828	3412
918.939	3496
919.05	3344
919.161	3424
919.272	3245
919.383	3306
919.494	3542
919.604	3705
919.715	3519
919.826	3462
919.936	3492
920.047	3584
920.157	3564
920.267	3838
920.378	3648
920.488	3599
920.598	3800
920.708	3968
920.818	3823
920.928	3880
921.038	4051
921.148	4021
921.258	3728
921.368	3675
921.477	3610
921.587	3591
921.697	3469
921.806	3701
921.916	3545
922.025	3363
922.134	3405
922.244	3348
922.353	3420
922.462	3332
922.571	3245
922.68	3150
922.789	3116
922.898	3169
923.007	3142
923.116	3233
923.224	3184
923.333	3230
923.442	3112
923.55	3116
923.659	3199
923.767	3275
923.876	3135
923.984	3291
924.092	3169
924.201	3233
924.309	3256
924.417	3253
924.525	3195
924.633	3245
924.741	4147
924.849	3100
924.956	3287
925.064	3119
925.172	3081
925.279	3119
925.387	3214
925.494	3188
925.602	3378
925.709	3363
925.816	3192
925.924	3310
926.031	3424
926.138	3355
926.245	3382
926.352	3279
926.459	3405
926.566	3507
926.673	3340
926.779	3298
926.886	3287
926.993	3161
927.099	3169
927.206	3157
927.312	3176
927.419	3264
927.525	3279
927.631	3294
927.737	3157
927.843	3180
927.95	3039
928.056	3131
928.162	3184
928.267	3310
928.373	3812
928.479	3386
928.585	3100
928.69	3253
928.796	3325
928.901	3237
929.007	3058
929.112	3184
929.218	3226
929.323	3150
929.428	3211
929.533	3310
929.638	3131
929.743	3176
929.848	3298
929.953	3211
930.058	3188
930.163	3005
930.267	3085
930.372	3237
930.477	3066
930.581	3363
930.685	3192
930.79	3093
930.894	3142
930.998	3104
931.103	3344
931.207	2975
931.311	2967
931.415	2979
931.519	2804
931.623	2804
