Data from test_V78500241_510.txt Node
Date: Fri Mar 25 16:18:44 CST 2022
User: usil
Spectrometer: V785-0024
Trigger mode: 0
Integration Time (sec): 4.000000E-1
Scans to average: 1
Nonlinearity correction enabled: false
Boxcar width: 0
Storing dark spectrum: false
XAxis mode: Wavelengths
Number of Pixels in Spectrum: 1024
>>>>>Begin Spectral Data<<<<<
801.071	2880
801.214	2918
801.356	2861
801.499	2868
801.641	2853
801.783	2948
801.926	3055
802.068	2963
802.211	3001
802.353	3005
802.496	2929
802.638	2986
802.78	3032
802.923	3062
803.065	3009
803.208	2880
803.35	2895
803.492	2925
803.635	2929
803.777	2769
803.919	2849
804.061	3211
804.204	2918
804.346	2910
804.488	2845
804.63	2986
804.773	2857
804.915	2906
805.057	3085
805.199	2906
805.341	2963
805.483	2998
805.626	3005
805.768	2937
805.91	3066
806.052	3112
806.194	3032
806.336	3214
806.478	3009
806.62	2948
806.762	2937
806.904	3039
807.046	3161
807.188	3028
807.33	2895
807.472	2986
807.614	2902
807.756	2975
807.898	2910
808.04	2910
808.182	2963
808.324	2941
808.465	2880
808.607	2868
808.749	2796
808.891	2830
809.033	2960
809.174	2941
809.316	2906
809.458	2864
809.6	2750
809.741	2762
809.883	2804
810.025	2864
810.166	2834
810.308	2838
810.45	2853
810.591	2754
810.733	2743
810.875	2876
811.016	2758
811.158	2743
811.299	2842
811.441	2971
811.582	2880
811.724	2819
811.865	2800
812.007	2906
812.148	2906
812.29	2842
812.431	2910
812.573	2906
812.714	2979
812.855	3066
812.997	3039
813.138	3138
813.279	2971
813.421	2979
813.562	2906
813.703	2880
813.845	2880
813.986	2781
814.127	2739
814.268	2815
814.41	2838
814.551	2838
814.692	2849
814.833	2788
814.974	2883
815.115	2952
815.256	2807
815.397	2796
815.539	2842
815.68	2792
815.821	2773
815.962	2937
816.103	2952
816.244	2857
816.385	2861
816.526	2963
816.666	2910
816.807	2777
816.948	2883
817.089	2883
817.23	2838
817.371	2800
817.512	2785
817.653	2876
817.793	2800
817.934	2899
818.075	2948
818.216	2944
818.356	2998
818.497	2902
818.638	2773
818.778	2830
818.919	2762
819.06	2754
819.2	2891
819.341	2823
819.481	2788
819.622	2910
819.762	3112
819.903	3032
820.043	2937
820.184	2902
820.324	2918
820.465	3028
820.605	2994
820.746	2986
820.886	2952
821.026	3070
821.167	3131
821.307	3287
821.447	3275
821.588	3256
821.728	3195
821.868	3165
822.008	3074
822.149	3184
822.289	3214
822.429	3085
822.569	3093
822.709	3146
822.849	3028
822.99	3047
823.13	3108
823.27	3207
823.41	3119
823.55	3146
823.69	3161
823.83	3180
823.97	3066
824.11	2990
824.25	3009
824.389	3062
824.529	3085
824.669	3077
824.809	3192
824.949	3237
825.089	3207
825.228	3188
825.368	2956
825.508	2982
825.648	2994
825.787	3013
825.927	3043
826.067	2960
826.206	2952
826.346	3024
826.485	3024
826.625	3112
826.765	3245
826.904	3184
827.044	2998
827.183	2937
827.323	2872
827.462	2982
827.601	2910
827.741	2902
827.88	2952
828.02	2838
828.159	2971
828.298	3036
828.437	3119
828.577	3024
828.716	3245
828.855	3081
828.994	2914
829.134	2861
829.273	2899
829.412	2880
829.551	2849
829.69	2933
829.829	2960
829.968	3112
830.107	3013
830.246	2971
830.385	2914
830.524	2853
830.663	2773
830.802	2743
830.941	2632
831.08	2674
831.219	2739
831.357	2743
831.496	2967
831.635	2750
831.774	2648
831.913	2651
832.051	2533
832.19	2560
832.329	2636
832.467	2556
832.606	2488
832.744	2571
832.883	2610
833.022	2594
833.16	2632
833.299	2648
833.437	2682
833.576	2678
833.714	2712
833.852	2735
833.991	2762
834.129	2849
834.267	2819
834.406	2769
834.544	2895
834.682	2883
834.821	2906
834.959	3055
835.097	2887
835.235	3062
835.373	2982
835.511	3017
835.65	2967
835.788	2918
835.926	2849
836.064	2766
836.202	2826
836.34	3089
836.478	3112
836.615	3039
836.753	3138
836.891	3195
837.029	3176
837.167	3077
837.305	3039
837.443	3017
837.58	2922
837.718	3108
837.856	3058
837.993	3009
838.131	3093
838.269	3066
838.406	3085
838.544	3062
838.681	2929
838.819	2910
838.956	2819
839.094	2895
839.231	2948
839.369	2948
839.506	3386
839.643	3253
839.781	3013
839.918	2982
840.055	3058
840.193	3013
840.33	3081
840.467	3097
840.604	3154
840.742	3416
840.879	3043
841.016	3024
841.153	3089
841.29	3329
841.427	3294
841.564	3264
841.701	3306
841.838	3203
841.975	3169
842.112	3199
842.249	3089
842.385	3032
842.522	3226
842.659	3077
842.796	3028
842.933	3123
843.069	3043
843.206	3013
843.343	3184
843.479	3100
843.616	3116
843.752	2876
843.889	2823
844.025	3081
844.162	2857
844.298	3085
844.435	2975
844.571	2906
844.708	3074
844.844	3176
844.98	3203
845.117	3184
845.253	3043
845.389	3013
845.525	3093
845.661	3085
845.798	3024
845.934	3127
846.07	3058
846.206	3241
846.342	3340
846.478	3203
846.614	3081
846.75	3036
846.886	3001
847.022	3245
847.158	3119
847.294	3222
847.429	3199
847.565	3192
847.701	3469
847.837	3039
847.972	3005
848.108	3157
848.244	3138
848.379	2960
848.515	2925
848.65	2895
848.786	2937
848.921	2982
849.057	3097
849.192	3150
849.328	3055
849.463	3119
849.598	3039
849.734	3024
849.869	2982
850.004	2922
850.14	2971
850.275	2929
850.41	2857
850.545	2864
850.68	2933
850.815	2975
850.95	2979
851.085	3173
851.22	3138
851.355	3039
851.49	2971
851.625	3009
851.76	2994
851.895	2910
852.03	2895
852.165	2998
852.299	3112
852.434	3157
852.569	3127
852.703	3173
852.838	3226
852.973	3317
853.107	3298
853.242	3150
853.376	3055
853.511	2925
853.645	3017
853.78	3214
853.914	3089
854.048	3146
854.183	3074
854.317	3142
854.451	3306
854.585	3112
854.72	3047
854.854	3161
854.988	3077
855.122	3070
855.256	2975
855.39	3100
855.524	3233
855.658	3211
855.792	3154
855.926	3154
856.06	3226
856.194	3233
856.327	3157
856.461	3058
856.595	3058
856.729	3074
856.862	3218
856.996	3142
857.13	3195
857.263	3195
857.397	3260
857.53	3127
857.664	3188
857.797	3260
857.931	3272
858.064	3157
858.197	3241
858.331	3180
858.464	3055
858.597	3036
858.731	3116
858.864	3097
858.997	3119
859.13	3173
859.263	3142
859.396	3199
859.529	3093
859.662	3039
859.795	3055
859.928	3146
860.061	3268
860.194	3241
860.327	3100
860.46	3051
860.592	3222
860.725	3230
860.858	3279
860.99	3062
861.123	3055
861.256	3055
861.388	3142
861.521	3857
861.653	3032
861.786	2971
861.918	2975
862.05	3074
862.183	3081
862.315	3157
862.447	3161
862.58	3108
862.712	2948
862.844	2876
862.976	2998
863.108	3028
863.24	3412
863.372	2887
863.504	2948
863.636	2956
863.768	3028
863.9	2990
864.032	2906
864.164	2937
864.296	3001
864.428	3066
864.559	3070
864.691	3047
864.823	3047
864.954	3043
865.086	3017
865.217	2982
865.349	2979
865.48	2948
865.612	3017
865.743	3135
865.875	2963
866.006	2914
866.137	2948
866.269	2922
866.4	2910
866.531	2910
866.662	2895
866.793	2876
866.924	2861
867.055	2971
867.186	2922
867.317	2899
867.448	2819
867.579	2849
867.71	2838
867.841	2800
867.972	2922
868.103	2906
868.233	2899
868.364	2838
868.495	2902
868.625	3070
868.756	3165
868.886	2975
869.017	3024
869.147	3142
869.278	3142
869.408	3066
869.539	3009
869.669	3070
869.799	3043
869.929	3108
870.06	3097
870.19	3325
870.32	3256
870.45	3298
870.58	3367
870.71	3477
870.84	3458
870.97	3294
871.1	3226
871.23	3466
871.36	3443
871.489	3344
871.619	3378
871.749	3405
871.879	3435
872.008	3454
872.138	3298
872.267	3249
872.397	3119
872.526	3100
872.656	3005
872.785	3070
872.915	3237
873.044	3310
873.173	3222
873.303	3241
873.432	3230
873.561	3218
873.69	3165
873.819	3123
873.948	3169
874.077	3047
874.206	3058
874.335	3058
874.464	3188
874.593	3359
874.722	3241
874.851	3370
874.979	3363
875.108	3321
875.237	3180
875.365	3154
875.494	3131
875.623	3222
875.751	3093
875.88	3055
876.008	3165
876.136	3199
876.265	3348
876.393	3473
876.521	3473
876.65	3359
876.778	3329
876.906	3249
877.034	3207
877.162	3260
877.29	3199
877.418	3253
877.546	3302
877.674	3233
877.802	3199
877.93	3237
878.058	3116
878.185	3093
878.313	3211
878.441	3184
878.568	3070
878.696	3188
878.824	3211
878.951	3275
879.079	3466
879.206	3614
879.333	3435
879.461	3340
879.588	3351
879.715	3462
879.842	3599
879.97	3386
880.097	3173
880.224	3081
880.351	3188
880.478	3207
880.605	3203
880.732	3173
880.859	3488
880.986	3279
881.112	3317
881.239	3218
881.366	3047
881.493	2979
881.619	3001
881.746	3070
881.872	3066
881.999	3100
882.125	3138
882.252	3237
882.378	3260
882.505	3424
882.631	3272
882.757	3150
882.883	3199
883.01	3214
883.136	3142
883.262	3058
883.388	3119
883.514	3329
883.64	3378
883.766	3298
883.892	3176
884.018	3249
884.143	3405
884.269	3515
884.395	3195
884.52	3184
884.646	3199
884.772	3097
884.897	3104
885.023	3180
885.148	3336
885.274	3435
885.399	3351
885.524	3287
885.65	3237
885.775	3306
885.9	3268
886.025	3409
886.15	3340
886.275	3298
886.4	3222
886.525	3302
886.65	3260
886.775	3268
886.9	3466
887.025	3637
887.149	3382
887.274	3253
887.399	3161
887.523	3180
887.648	3192
887.773	3176
887.897	3389
888.021	3409
888.146	3306
888.27	3409
888.395	3511
888.519	3416
888.643	3454
888.767	3405
888.891	3291
889.015	3241
889.139	3272
889.263	3230
889.387	3412
889.511	3542
889.635	3424
889.759	3264
889.883	3291
890.006	3420
890.13	3477
890.254	3256
890.377	3344
890.501	3230
890.624	3237
890.748	3291
890.871	3180
890.995	3135
891.118	3058
891.241	3161
891.364	3237
891.488	3279
891.611	3184
891.734	3199
891.857	3245
891.98	3199
892.103	3348
892.226	3268
892.349	3188
892.471	3127
892.594	3272
892.717	3260
892.839	3241
892.962	3253
893.085	3294
893.207	3279
893.33	3157
893.452	3199
893.575	3313
893.697	3214
893.819	3450
893.941	3492
894.064	3488
894.186	3260
894.308	3211
894.43	3389
894.552	3561
894.674	3409
894.796	3298
894.918	3298
895.04	3279
895.161	3431
895.283	3382
895.405	3344
895.526	3348
895.648	3405
895.769	3409
895.891	3443
896.012	3443
896.134	3477
896.255	3363
896.376	3374
896.498	3325
896.619	3412
896.74	3351
896.861	3416
896.982	3652
897.103	3793
897.224	3595
897.345	3466
897.466	3424
897.587	3450
897.708	3584
897.828	3515
897.949	3420
898.07	3340
898.19	3424
898.311	3584
898.431	3466
898.552	3473
898.672	3599
898.792	3576
898.913	3473
899.033	3367
899.153	3268
899.273	3233
899.393	3264
899.513	3291
899.633	3294
899.753	3363
899.873	3298
899.993	3370
900.113	3321
900.232	3340
900.352	3321
900.472	3256
900.591	3161
900.711	3249
900.83	3214
900.95	3397
901.069	3477
901.189	3325
901.308	3138
901.427	3104
901.546	3192
901.665	3264
901.784	3313
901.904	3184
902.023	3131
902.141	3017
902.26	2979
902.379	3138
902.498	3055
902.617	3020
902.735	3184
902.854	3199
902.973	3211
903.091	3028
903.21	3077
903.328	3112
903.446	3119
903.565	3104
903.683	3226
903.801	3154
903.919	3268
904.038	3302
904.156	3173
904.274	3287
904.392	3294
904.51	3344
904.627	3363
904.745	3435
904.863	3530
904.981	3298
905.098	3188
905.216	3275
905.334	3321
905.451	3302
905.569	3272
905.686	3473
905.803	3485
905.921	3348
906.038	3435
906.155	3382
906.272	3313
906.389	3386
906.506	3245
906.623	3260
906.74	3329
906.857	3230
906.974	3310
907.091	3469
907.208	3603
907.324	3485
907.441	3435
907.557	3279
907.674	3287
907.79	3237
907.907	3321
908.023	3393
908.139	3401
908.256	3393
908.372	3416
908.488	3397
908.604	3321
908.72	3260
908.836	3325
908.952	3355
909.068	3363
909.184	3523
909.3	3443
909.415	3580
909.531	3564
909.647	3325
909.762	3336
909.878	3348
909.993	3420
910.108	3317
910.224	3382
910.339	3450
910.454	3340
910.57	3378
910.685	3253
910.8	3603
910.915	3576
911.03	3473
911.145	3317
911.259	3329
911.374	3332
911.489	3245
911.604	3279
911.718	3157
911.833	3230
911.947	3093
912.062	3017
912.176	3203
912.291	3203
912.405	3253
912.519	3424
912.633	3488
912.748	3378
912.862	3348
912.976	3241
913.09	3074
913.204	3169
913.318	3253
913.431	3382
913.545	3355
913.659	3431
913.772	3344
913.886	3279
914	3207
914.113	3428
914.226	3416
914.34	3367
914.453	3230
914.566	3424
914.68	3351
914.793	3367
914.906	3138
915.019	3154
915.132	3138
915.245	3199
915.358	3207
915.47	3253
915.583	3268
915.696	3317
915.809	3420
915.921	3409
916.034	3302
916.146	3298
916.259	3230
916.371	3431
916.483	3370
916.595	3294
916.708	3359
916.82	3393
916.932	3386
917.044	3340
917.156	3389
917.268	3329
917.38	3317
917.491	3310
917.603	3412
917.715	3500
917.826	3477
917.938	3412
918.049	3291
918.161	3412
918.272	3610
918.384	3629
918.495	3519
918.606	3363
918.717	3329
918.828	3409
918.939	3450
919.05	3359
919.161	3382
919.272	3199
919.383	3344
919.494	3519
919.604	3709
919.715	3511
919.826	3488
919.936	3481
920.047	3618
920.157	3557
920.267	3774
920.378	3641
920.488	3576
920.598	3812
920.708	3953
920.818	3861
920.928	3865
921.038	3994
921.148	4006
921.258	3732
921.368	3663
921.477	3652
921.587	3545
921.697	3462
921.806	3663
921.916	3538
922.025	3367
922.134	3382
922.244	3355
922.353	3416
922.462	3283
922.571	3245
922.68	3127
922.789	3108
922.898	3184
923.007	3146
923.116	3256
923.224	3138
923.333	3226
923.442	3119
923.55	3108
923.659	3157
923.767	3268
923.876	3154
923.984	3218
924.092	3169
924.201	3222
924.309	3291
924.417	3294
924.525	3249
924.633	3275
924.741	4268
924.849	3081
924.956	3306
925.064	3112
925.172	3112
925.279	3119
925.387	3226
925.494	3214
925.602	3393
925.709	3359
925.816	3173
925.924	3321
926.031	3447
926.138	3321
926.245	3386
926.352	3245
926.459	3458
926.566	3523
926.673	3351
926.779	3291
926.886	3249
926.993	3222
927.099	3150
927.206	3119
927.312	3108
927.419	3268
927.525	3256
927.631	3321
927.737	3169
927.843	3180
927.95	3066
928.056	3161
928.162	3180
928.267	3294
928.373	3751
928.479	3336
928.585	3119
928.69	3256
928.796	3313
928.901	3207
929.007	3131
929.112	3214
929.218	3218
929.323	3154
929.428	3195
929.533	3348
929.638	3119
929.743	3195
929.848	3260
929.953	3222
930.058	3165
930.163	3020
930.267	3058
930.372	3241
930.477	3085
930.581	3340
930.685	3199
930.79	3055
930.894	3169
930.998	3131
931.103	3325
931.207	2982
931.311	2948
931.415	2929
931.519	2804
931.623	2834
