Data from test_V78500241_1612.txt Node
Date: Fri Mar 25 16:26:22 CST 2022
User: usil
Spectrometer: V785-0024
Trigger mode: 0
Integration Time (sec): 4.000000E-1
Scans to average: 1
Nonlinearity correction enabled: false
Boxcar width: 0
Storing dark spectrum: false
XAxis mode: Wavelengths
Number of Pixels in Spectrum: 1024
>>>>>Begin Spectral Data<<<<<
801.071	3013
801.214	2971
801.356	2895
801.499	2956
801.641	2922
801.783	2960
801.926	3112
802.068	3013
802.211	3013
802.353	3047
802.496	3005
802.638	2994
802.78	3070
802.923	3085
803.065	3074
803.208	2918
803.35	2933
803.492	2933
803.635	2956
803.777	2811
803.919	2872
804.061	3233
804.204	3013
804.346	2906
804.488	2868
804.63	3017
804.773	2895
804.915	2948
805.057	3097
805.199	2948
805.341	2967
805.483	3036
805.626	3039
805.768	2975
805.91	3089
806.052	3119
806.194	3100
806.336	3279
806.478	3074
806.62	2952
806.762	3005
806.904	3051
807.046	3173
807.188	3017
807.33	2933
807.472	3017
807.614	2944
807.756	2998
807.898	2956
808.04	2910
808.182	3036
808.324	2990
808.465	2899
808.607	2899
808.749	2823
808.891	2883
809.033	2998
809.174	3009
809.316	2883
809.458	2883
809.6	2804
809.741	2819
809.883	2785
810.025	2842
810.166	2895
810.308	2845
810.45	2918
810.591	2807
810.733	2788
810.875	2906
811.016	2804
811.158	2800
811.299	2800
811.441	2960
811.582	2902
811.724	2849
811.865	2868
812.007	2956
812.148	2906
812.29	2868
812.431	2895
812.573	2944
812.714	2975
812.855	3066
812.997	3051
813.138	3142
813.279	2998
813.421	3028
813.562	2990
813.703	2941
813.845	2914
813.986	2792
814.127	2758
814.268	2849
814.41	2876
814.551	2842
814.692	2895
814.833	2842
814.974	2910
815.115	2982
815.256	2830
815.397	2826
815.539	2895
815.68	2811
815.821	2788
815.962	2975
816.103	2967
816.244	2910
816.385	2880
816.526	2975
816.666	2933
816.807	2754
816.948	2910
817.089	2895
817.23	2861
817.371	2785
817.512	2849
817.653	2857
817.793	2842
817.934	2906
818.075	2963
818.216	3009
818.356	3047
818.497	2906
818.638	2819
818.778	2834
818.919	2811
819.06	2773
819.2	2891
819.341	2811
819.481	2807
819.622	2963
819.762	3100
819.903	3055
820.043	2956
820.184	2960
820.324	2933
820.465	3043
820.605	3051
820.746	3062
820.886	2956
821.026	3097
821.167	3195
821.307	3287
821.447	3344
821.588	3237
821.728	3218
821.868	3207
822.008	3097
822.149	3180
822.289	3230
822.429	3116
822.569	3104
822.709	3192
822.849	3070
822.99	3062
823.13	3199
823.27	3211
823.41	3104
823.55	3161
823.69	3165
823.83	3245
823.97	3089
824.11	3017
824.25	3043
824.389	3081
824.529	3104
824.669	3070
824.809	3218
824.949	3283
825.089	3230
825.228	3203
825.368	2998
825.508	2952
825.648	3017
825.787	3005
825.927	3081
826.067	3013
826.206	2990
826.346	3058
826.485	3089
826.625	3135
826.765	3253
826.904	3218
827.044	3013
827.183	2963
827.323	2891
827.462	3032
827.601	2929
827.741	2963
827.88	2986
828.02	2899
828.159	2990
828.298	3066
828.437	3131
828.577	3077
828.716	3249
828.855	3089
828.994	2925
829.134	2861
829.273	2918
829.412	2864
829.551	2891
829.69	2929
829.829	2971
829.968	3150
830.107	3028
830.246	3039
830.385	2922
830.524	2868
830.663	2830
830.802	2750
830.941	2670
831.08	2678
831.219	2781
831.357	2769
831.496	2975
831.635	2754
831.774	2651
831.913	2670
832.051	2583
832.19	2587
832.329	2678
832.467	2560
832.606	2495
832.744	2583
832.883	2617
833.022	2579
833.16	2686
833.299	2663
833.437	2682
833.576	2689
833.714	2743
833.852	2701
833.991	2792
834.129	2834
834.267	2845
834.406	2804
834.544	2849
834.682	2857
834.821	2864
834.959	3081
835.097	2883
835.235	3085
835.373	3013
835.511	3024
835.65	3005
835.788	2975
835.926	2811
836.064	2826
836.202	2883
836.34	3108
836.478	3146
836.615	3085
836.753	3112
836.891	3279
837.029	3173
837.167	3131
837.305	3089
837.443	3024
837.58	2986
837.718	3123
837.856	3058
837.993	3047
838.131	3127
838.269	3119
838.406	3100
838.544	3085
838.681	2918
838.819	2937
838.956	2826
839.094	2830
839.231	2918
839.369	3058
839.506	3397
839.643	3253
839.781	3039
839.918	2967
840.055	3077
840.193	3077
840.33	3089
840.467	3100
840.604	3157
840.742	3389
840.879	3070
841.016	3036
841.153	3131
841.29	3348
841.427	3287
841.564	3272
841.701	3302
841.838	3214
841.975	3184
842.112	3218
842.249	3119
842.385	3024
842.522	3283
842.659	3089
842.796	3077
842.933	3112
843.069	3066
843.206	3036
843.343	3214
843.479	3127
843.616	3123
843.752	2883
843.889	2895
844.025	3108
844.162	2910
844.298	3089
844.435	2963
844.571	2944
844.708	3081
844.844	3199
844.98	3237
845.117	3207
845.253	3097
845.389	3028
845.525	3104
845.661	3112
845.798	3005
845.934	3085
846.07	3070
846.206	3203
846.342	3363
846.478	3233
846.614	3135
846.75	3085
846.886	3051
847.022	3222
847.158	3154
847.294	3195
847.429	3211
847.565	3237
847.701	3492
847.837	3085
847.972	3009
848.108	3165
848.244	3146
848.379	3032
848.515	2967
848.65	2986
848.786	2982
848.921	3043
849.057	3116
849.192	3157
849.328	3074
849.463	3104
849.598	3066
849.734	3013
849.869	2979
850.004	2937
850.14	2937
850.275	2910
850.41	2857
850.545	2868
850.68	2971
850.815	2967
850.95	2990
851.085	3180
851.22	3127
851.355	3017
851.49	2986
851.625	3020
851.76	3047
851.895	2899
852.03	2922
852.165	3036
852.299	3116
852.434	3199
852.569	3176
852.703	3173
852.838	3249
852.973	3310
853.107	3336
853.242	3138
853.376	3055
853.511	2998
853.645	3028
853.78	3203
853.914	3123
854.048	3108
854.183	3112
854.317	3116
854.451	3336
854.585	3135
854.72	3070
854.854	3203
854.988	3047
855.122	3077
855.256	3009
855.39	3089
855.524	3249
855.658	3218
855.792	3188
855.926	3192
856.06	3230
856.194	3249
856.327	3157
856.461	3074
856.595	3066
856.729	3070
856.862	3241
856.996	3161
857.13	3195
857.263	3237
857.397	3302
857.53	3146
857.664	3184
857.797	3218
857.931	3264
858.064	3184
858.197	3230
858.331	3123
858.464	3077
858.597	3009
858.731	3127
858.864	3108
858.997	3093
859.13	3119
859.263	3146
859.396	3176
859.529	3093
859.662	3081
859.795	3024
859.928	3165
860.061	3298
860.194	3279
860.327	3154
860.46	3104
860.592	3230
860.725	3249
860.858	3230
860.99	3116
861.123	3051
861.256	3058
861.388	3138
861.521	3861
861.653	2975
861.786	2956
861.918	3024
862.05	3097
862.183	3093
862.315	3176
862.447	3203
862.58	3146
862.712	2929
862.844	2902
862.976	3070
863.108	2998
863.24	3370
863.372	2838
863.504	2982
863.636	2925
863.768	3058
863.9	3009
864.032	2914
864.164	2963
864.296	3013
864.428	3100
864.559	3058
864.691	3058
864.823	3058
864.954	3036
865.086	3032
865.217	3013
865.349	2948
865.48	2994
865.612	3039
865.743	3131
865.875	2967
866.006	2933
866.137	2960
866.269	3001
866.4	2925
866.531	2922
866.662	2906
866.793	2880
866.924	2883
867.055	2994
867.186	2937
867.317	2902
867.448	2819
867.579	2872
867.71	2853
867.841	2804
867.972	2941
868.103	2910
868.233	2849
868.364	2883
868.495	2902
868.625	3066
868.756	3169
868.886	2979
869.017	3020
869.147	3184
869.278	3142
869.408	3058
869.539	3066
869.669	3077
869.799	3081
869.929	3138
870.06	3097
870.19	3336
870.32	3279
870.45	3302
870.58	3355
870.71	3458
870.84	3447
870.97	3260
871.1	3233
871.23	3466
871.36	3488
871.489	3351
871.619	3405
871.749	3401
871.879	3439
872.008	3454
872.138	3336
872.267	3275
872.397	3146
872.526	3116
872.656	3047
872.785	3142
872.915	3230
873.044	3317
873.173	3218
873.303	3237
873.432	3245
873.561	3222
873.69	3131
873.819	3119
873.948	3211
874.077	3093
874.206	3020
874.335	3085
874.464	3245
874.593	3310
874.722	3241
874.851	3389
874.979	3348
875.108	3321
875.237	3226
875.365	3169
875.494	3127
875.623	3222
875.751	3077
875.88	3135
876.008	3195
876.136	3222
876.265	3359
876.393	3507
876.521	3401
876.65	3401
876.778	3351
876.906	3256
877.034	3230
877.162	3253
877.29	3195
877.418	3253
877.546	3253
877.674	3253
877.802	3230
877.93	3237
878.058	3135
878.185	3112
878.313	3203
878.441	3253
878.568	3066
878.696	3157
878.824	3256
878.951	3310
879.079	3469
879.206	3625
879.333	3458
879.461	3348
879.588	3378
879.715	3481
879.842	3584
879.97	3370
880.097	3157
880.224	3108
880.351	3173
880.478	3203
880.605	3211
880.732	3165
880.859	3462
880.986	3279
881.112	3321
881.239	3211
881.366	3097
881.493	3005
881.619	3036
881.746	3047
881.872	3074
881.999	3112
882.125	3161
882.252	3256
882.378	3287
882.505	3450
882.631	3336
882.757	3142
882.883	3218
883.01	3207
883.136	3203
883.262	3066
883.388	3112
883.514	3344
883.64	3378
883.766	3275
883.892	3180
884.018	3241
884.143	3439
884.269	3530
884.395	3203
884.52	3165
884.646	3169
884.772	3157
884.897	3116
885.023	3207
885.148	3321
885.274	3462
885.399	3382
885.524	3310
885.65	3245
885.775	3317
885.9	3302
886.025	3424
886.15	3351
886.275	3291
886.4	3226
886.525	3279
886.65	3298
886.775	3279
886.9	3492
887.025	3637
887.149	3428
887.274	3256
887.399	3180
887.523	3199
887.648	3176
887.773	3176
887.897	3378
888.021	3397
888.146	3321
888.27	3462
888.395	3511
888.519	3420
888.643	3435
888.767	3428
888.891	3291
889.015	3241
889.139	3321
889.263	3264
889.387	3409
889.511	3492
889.635	3462
889.759	3272
889.883	3332
890.006	3409
890.13	3500
890.254	3249
890.377	3351
890.501	3199
890.624	3199
890.748	3264
890.871	3195
890.995	3108
891.118	3085
891.241	3211
891.364	3218
891.488	3294
891.611	3176
891.734	3203
891.857	3291
891.98	3230
892.103	3344
892.226	3279
892.349	3237
892.471	3077
892.594	3233
892.717	3268
892.839	3268
892.962	3298
893.085	3325
893.207	3279
893.33	3131
893.452	3188
893.575	3367
893.697	3230
893.819	3428
893.941	3523
894.064	3450
894.186	3275
894.308	3249
894.43	3401
894.552	3534
894.674	3443
894.796	3275
894.918	3302
895.04	3268
895.161	3428
895.283	3416
895.405	3325
895.526	3393
895.648	3405
895.769	3401
895.891	3435
896.012	3469
896.134	3473
896.255	3386
896.376	3382
896.498	3367
896.619	3447
896.74	3344
896.861	3397
896.982	3648
897.103	3846
897.224	3625
897.345	3500
897.466	3439
897.587	3431
897.708	3599
897.828	3572
897.949	3424
898.07	3321
898.19	3420
898.311	3603
898.431	3450
898.552	3530
898.672	3568
898.792	3614
898.913	3511
899.033	3412
899.153	3302
899.273	3199
899.393	3291
899.513	3294
899.633	3302
899.753	3351
899.873	3332
899.993	3367
900.113	3298
900.232	3424
900.352	3344
900.472	3298
900.591	3184
900.711	3291
900.83	3207
900.95	3450
901.069	3492
901.189	3344
901.308	3195
901.427	3154
901.546	3192
901.665	3313
901.784	3294
901.904	3218
902.023	3146
902.141	3009
902.26	2971
902.379	3142
902.498	3104
902.617	3066
902.735	3195
902.854	3226
902.973	3184
903.091	3028
903.21	3055
903.328	3173
903.446	3108
903.565	3085
903.683	3211
903.801	3142
903.919	3226
904.038	3283
904.156	3199
904.274	3332
904.392	3268
904.51	3283
904.627	3321
904.745	3428
904.863	3507
904.981	3253
905.098	3195
905.216	3283
905.334	3294
905.451	3287
905.569	3302
905.686	3401
905.803	3431
905.921	3283
906.038	3447
906.155	3363
906.272	3272
906.389	3370
906.506	3226
906.623	3260
906.74	3241
906.857	3184
906.974	3260
907.091	3428
907.208	3553
907.324	3443
907.441	3363
907.557	3249
907.674	3260
907.79	3195
907.907	3272
908.023	3348
908.139	3344
908.256	3332
908.372	3367
908.488	3310
908.604	3237
908.72	3211
908.836	3275
908.952	3294
909.068	3321
909.184	3496
909.3	3336
909.415	3500
909.531	3435
909.647	3256
909.762	3306
909.878	3241
909.993	3389
910.108	3344
910.224	3348
910.339	3370
910.454	3351
910.57	3306
910.685	3256
910.8	3572
910.915	3523
911.03	3401
911.145	3256
911.259	3275
911.374	3302
911.489	3211
911.604	3233
911.718	3119
911.833	3184
911.947	3032
912.062	3005
912.176	3154
912.291	3138
912.405	3226
912.519	3428
912.633	3481
912.748	3336
912.862	3264
912.976	3165
913.09	3074
913.204	3150
913.318	3214
913.431	3313
913.545	3325
913.659	3382
913.772	3332
913.886	3214
914	3233
914.113	3344
914.226	3412
914.34	3351
914.453	3184
914.566	3412
914.68	3287
914.793	3306
914.906	3154
915.019	3146
915.132	3062
915.245	3195
915.358	3253
915.47	3233
915.583	3253
915.696	3256
915.809	3428
915.921	3412
916.034	3233
916.146	3249
916.259	3222
916.371	3382
916.483	3332
916.595	3268
916.708	3367
916.82	3321
916.932	3325
917.044	3340
917.156	3355
917.268	3230
917.38	3317
917.491	3313
917.603	3355
917.715	3462
917.826	3454
917.938	3397
918.049	3275
918.161	3443
918.272	3599
918.384	3576
918.495	3507
918.606	3344
918.717	3237
918.828	3355
918.939	3409
919.05	3272
919.161	3348
919.272	3150
919.383	3256
919.494	3507
919.604	3686
919.715	3469
919.826	3386
919.936	3462
920.047	3557
920.157	3515
920.267	3762
920.378	3656
920.488	3576
920.598	3785
920.708	3941
920.818	3781
920.928	3804
921.038	4036
921.148	4032
921.258	3717
921.368	3633
921.477	3610
921.587	3519
921.697	3458
921.806	3618
921.916	3496
922.025	3363
922.134	3367
922.244	3317
922.353	3428
922.462	3260
922.571	3222
922.68	3097
922.789	3077
922.898	3142
923.007	3085
923.116	3207
923.224	3150
923.333	3192
923.442	3070
923.55	3119
923.659	3169
923.767	3218
923.876	3112
923.984	3237
924.092	3085
924.201	3207
924.309	3249
924.417	3245
924.525	3203
924.633	3222
924.741	4143
924.849	3062
924.956	3294
925.064	3093
925.172	3032
925.279	3116
925.387	3188
925.494	3176
925.602	3344
925.709	3351
925.816	3180
925.924	3241
926.031	3355
926.138	3298
926.245	3332
926.352	3272
926.459	3374
926.566	3492
926.673	3291
926.779	3245
926.886	3241
926.993	3161
927.099	3131
927.206	3127
927.312	3089
927.419	3195
927.525	3214
927.631	3256
927.737	3192
927.843	3146
927.95	3020
928.056	3116
928.162	3165
928.267	3233
928.373	3899
928.479	3268
928.585	3043
928.69	3180
928.796	3306
928.901	3207
929.007	3051
929.112	3230
929.218	3154
929.323	3138
929.428	3127
929.533	3275
929.638	3123
929.743	3161
929.848	3272
929.953	3249
930.058	3112
930.163	3005
930.267	3058
930.372	3245
930.477	3039
930.581	3325
930.685	3184
930.79	3058
930.894	3089
930.998	3108
931.103	3310
931.207	2948
931.311	2925
931.415	2914
931.519	2754
931.623	2788
