Data from test_V78500241_12.txt Node
Date: Fri Mar 25 16:15:17 CST 2022
User: usil
Spectrometer: V785-0024
Trigger mode: 0
Integration Time (sec): 4.000000E-1
Scans to average: 1
Nonlinearity correction enabled: false
Boxcar width: 0
Storing dark spectrum: false
XAxis mode: Wavelengths
Number of Pixels in Spectrum: 1024
>>>>>Begin Spectral Data<<<<<
801.071	2994
801.214	3009
801.356	2960
801.499	2975
801.641	2918
801.783	2967
801.926	3119
802.068	3058
802.211	3039
802.353	3089
802.496	3032
802.638	3081
802.78	3081
802.923	3119
803.065	3074
803.208	2937
803.35	2990
803.492	3017
803.635	3017
803.777	2815
803.919	2925
804.061	3249
804.204	2990
804.346	2956
804.488	2910
804.63	3051
804.773	2929
804.915	2979
805.057	3180
805.199	2982
805.341	3043
805.483	3108
805.626	3093
805.768	3005
805.91	3108
806.052	3195
806.194	3112
806.336	3302
806.478	3074
806.62	3001
806.762	3032
806.904	3127
807.046	3226
807.188	3020
807.33	2982
807.472	3077
807.614	2998
807.756	3062
807.898	3024
808.04	2956
808.182	3074
808.324	3032
808.465	2933
808.607	2944
808.749	2880
808.891	2922
809.033	3039
809.174	3058
809.316	2979
809.458	2963
809.6	2853
809.741	2845
809.883	2864
810.025	2925
810.166	2925
810.308	2948
810.45	2914
810.591	2849
810.733	2853
810.875	2891
811.016	2849
811.158	2838
811.299	2895
811.441	3020
811.582	2979
811.724	2929
811.865	2899
812.007	2971
812.148	2933
812.29	2910
812.431	2941
812.573	3024
812.714	3039
812.855	3119
812.997	3116
813.138	3180
813.279	3066
813.421	3051
813.562	3055
813.703	2944
813.845	2948
813.986	2845
814.127	2819
814.268	2883
814.41	2925
814.551	2861
814.692	2948
814.833	2872
814.974	2944
815.115	3039
815.256	2880
815.397	2899
815.539	2918
815.68	2849
815.821	2845
815.962	2971
816.103	2979
816.244	2982
816.385	2937
816.526	3036
816.666	2982
816.807	2819
816.948	2971
817.089	2982
817.23	2872
817.371	2861
817.512	2842
817.653	2925
817.793	2876
817.934	2971
818.075	3032
818.216	3070
818.356	3089
818.497	2960
818.638	2849
818.778	2876
818.919	2830
819.06	2838
819.2	2918
819.341	2895
819.481	2876
819.622	2998
819.762	3142
819.903	3108
820.043	2979
820.184	2967
820.324	2956
820.465	3074
820.605	3066
820.746	3089
820.886	2998
821.026	3176
821.167	3203
821.307	3317
821.447	3336
821.588	3325
821.728	3283
821.868	3294
822.008	3135
822.149	3287
822.289	3302
822.429	3154
822.569	3119
822.709	3253
822.849	3100
822.99	3150
823.13	3245
823.27	3287
823.41	3188
823.55	3237
823.69	3222
823.83	3264
823.97	3154
824.11	3070
824.25	3066
824.389	3108
824.529	3207
824.669	3089
824.809	3287
824.949	3355
825.089	3237
825.228	3233
825.368	3089
825.508	3013
825.648	3055
825.787	3077
825.927	3108
826.067	3074
826.206	3005
826.346	3104
826.485	3123
826.625	3142
826.765	3336
826.904	3283
827.044	3055
827.183	2960
827.323	2914
827.462	3070
827.601	2967
827.741	2982
827.88	3036
828.02	2918
828.159	3043
828.298	3100
828.437	3188
828.577	3100
828.716	3294
828.855	3127
828.994	3001
829.134	2963
829.273	3001
829.412	2914
829.551	2914
829.69	2944
829.829	3036
829.968	3199
830.107	3058
830.246	3108
830.385	2960
830.524	2918
830.663	2872
830.802	2788
830.941	2727
831.08	2693
831.219	2796
831.357	2823
831.496	3036
831.635	2777
831.774	2716
831.913	2727
832.051	2590
832.19	2617
832.329	2743
832.467	2617
832.606	2549
832.744	2644
832.883	2663
833.022	2648
833.16	2708
833.299	2754
833.437	2743
833.576	2762
833.714	2811
833.852	2788
833.991	2842
834.129	2864
834.267	2906
834.406	2845
834.544	2963
834.682	2937
834.821	2937
834.959	3112
835.097	2937
835.235	3108
835.373	3055
835.511	3116
835.65	3028
835.788	3005
835.926	2891
836.064	2834
836.202	2899
836.34	3157
836.478	3199
836.615	3142
836.753	3203
836.891	3279
837.029	3241
837.167	3154
837.305	3150
837.443	3097
837.58	3024
837.718	3222
837.856	3116
837.993	3093
838.131	3226
838.269	3165
838.406	3218
838.544	3161
838.681	3024
838.819	2956
838.956	2876
839.094	2887
839.231	2982
839.369	3047
839.506	3485
839.643	3275
839.781	3081
839.918	3028
840.055	3104
840.193	3116
840.33	3165
840.467	3173
840.604	3211
840.742	3454
840.879	3123
841.016	3070
841.153	3180
841.29	3416
841.427	3397
841.564	3291
841.701	3370
841.838	3268
841.975	3237
842.112	3260
842.249	3173
842.385	3089
842.522	3298
842.659	3146
842.796	3123
842.933	3119
843.069	3100
843.206	3135
843.343	3272
843.479	3192
843.616	3230
843.752	2986
843.889	2906
844.025	3135
844.162	2933
844.298	3116
844.435	3039
844.571	2975
844.708	3100
844.844	3237
844.98	3298
845.117	3264
845.253	3104
845.389	3062
845.525	3195
845.661	3188
845.798	3051
845.934	3173
846.07	3142
846.206	3245
846.342	3397
846.478	3272
846.614	3142
846.75	3085
846.886	3081
847.022	3336
847.158	3211
847.294	3268
847.429	3283
847.565	3298
847.701	3580
847.837	3127
847.972	3104
848.108	3233
848.244	3214
848.379	3070
848.515	2967
848.65	2967
848.786	3005
848.921	3039
849.057	3165
849.192	3176
849.328	3135
849.463	3180
849.598	3131
849.734	3108
849.869	3028
850.004	3009
850.14	3047
850.275	2990
850.41	2895
850.545	2963
850.68	2960
850.815	3017
850.95	2986
851.085	3249
851.22	3157
851.355	3070
851.49	3039
851.625	3066
851.76	3066
851.895	2956
852.03	2956
852.165	3074
852.299	3192
852.434	3245
852.569	3195
852.703	3230
852.838	3310
852.973	3412
853.107	3420
853.242	3233
853.376	3135
853.511	3028
853.645	3127
853.78	3275
853.914	3211
854.048	3154
854.183	3116
854.317	3195
854.451	3359
854.585	3165
854.72	3207
854.854	3306
854.988	3142
855.122	3116
855.256	3062
855.39	3131
855.524	3298
855.658	3260
855.792	3169
855.926	3264
856.06	3298
856.194	3306
856.327	3203
856.461	3123
856.595	3142
856.729	3173
856.862	3264
856.996	3233
857.13	3279
857.263	3291
857.397	3317
857.53	3173
857.664	3249
857.797	3294
857.931	3294
858.064	3237
858.197	3241
858.331	3176
858.464	3165
858.597	3047
858.731	3188
858.864	3184
858.997	3123
859.13	3241
859.263	3195
859.396	3249
859.529	3150
859.662	3135
859.795	3135
859.928	3207
860.061	3325
860.194	3321
860.327	3192
860.46	3173
860.592	3275
860.725	3275
860.858	3298
860.99	3165
861.123	3085
861.256	3100
861.388	3199
861.521	3789
861.653	3077
861.786	3039
861.918	3020
862.05	3100
862.183	3161
862.315	3226
862.447	3249
862.58	3127
862.712	2948
862.844	2933
862.976	3093
863.108	3085
863.24	3500
863.372	2922
863.504	2979
863.636	3009
863.768	3085
863.9	3020
864.032	2960
864.164	3017
864.296	3051
864.428	3161
864.559	3150
864.691	3119
864.823	3154
864.954	3085
865.086	3081
865.217	3047
865.349	3020
865.48	3043
865.612	3085
865.743	3237
865.875	3017
866.006	3001
866.137	3028
866.269	3001
866.4	3017
866.531	2960
866.662	2941
866.793	2914
866.924	2941
867.055	3028
867.186	3013
867.317	2929
867.448	2922
867.579	2864
867.71	2883
867.841	2887
867.972	2979
868.103	2952
868.233	2944
868.364	2929
868.495	2941
868.625	3089
868.756	3264
868.886	2990
869.017	3097
869.147	3192
869.278	3260
869.408	3100
869.539	3051
869.669	3119
869.799	3085
869.929	3146
870.06	3142
870.19	3382
870.32	3378
870.45	3378
870.58	3443
870.71	3477
870.84	3526
870.97	3355
871.1	3294
871.23	3584
871.36	3500
871.489	3416
871.619	3462
871.749	3500
871.879	3481
872.008	3542
872.138	3431
872.267	3344
872.397	3218
872.526	3161
872.656	3039
872.785	3154
872.915	3321
873.044	3348
873.173	3283
873.303	3298
873.432	3287
873.561	3298
873.69	3207
873.819	3214
873.948	3253
874.077	3180
874.206	3123
874.335	3135
874.464	3253
874.593	3405
874.722	3294
874.851	3458
874.979	3389
875.108	3389
875.237	3256
875.365	3233
875.494	3211
875.623	3268
875.751	3150
875.88	3161
876.008	3192
876.136	3260
876.265	3367
876.393	3614
876.521	3473
876.65	3454
876.778	3420
876.906	3317
877.034	3241
877.162	3279
877.29	3241
877.418	3321
877.546	3325
877.674	3291
877.802	3317
877.93	3298
878.058	3188
878.185	3169
878.313	3268
878.441	3268
878.568	3123
878.696	3180
878.824	3268
878.951	3351
879.079	3488
879.206	3671
879.333	3515
879.461	3393
879.588	3389
879.715	3526
879.842	3690
879.97	3477
880.097	3218
880.224	3188
880.351	3264
880.478	3279
880.605	3268
880.732	3253
880.859	3534
880.986	3336
881.112	3378
881.239	3291
881.366	3192
881.493	3055
881.619	3070
881.746	3093
881.872	3154
881.999	3116
882.125	3203
882.252	3340
882.378	3332
882.505	3469
882.631	3325
882.757	3199
882.883	3264
883.01	3294
883.136	3207
883.262	3154
883.388	3165
883.514	3424
883.64	3454
883.766	3351
883.892	3245
884.018	3283
884.143	3477
884.269	3599
884.395	3283
884.52	3230
884.646	3287
884.772	3195
884.897	3161
885.023	3268
885.148	3367
885.274	3450
885.399	3424
885.524	3351
885.65	3325
885.775	3340
885.9	3325
886.025	3485
886.15	3454
886.275	3336
886.4	3260
886.525	3389
886.65	3310
886.775	3325
886.9	3557
887.025	3701
887.149	3477
887.274	3298
887.399	3222
887.523	3275
887.648	3241
887.773	3237
887.897	3409
888.021	3473
888.146	3332
888.27	3488
888.395	3671
888.519	3485
888.643	3507
888.767	3507
888.891	3340
889.015	3298
889.139	3378
889.263	3294
889.387	3439
889.511	3614
889.635	3507
889.759	3344
889.883	3363
890.006	3428
890.13	3523
890.254	3325
890.377	3393
890.501	3275
890.624	3245
890.748	3363
890.871	3207
890.995	3165
891.118	3127
891.241	3203
891.364	3275
891.488	3336
891.611	3275
891.734	3291
891.857	3351
891.98	3260
892.103	3420
892.226	3313
892.349	3230
892.471	3184
892.594	3226
892.717	3310
892.839	3336
892.962	3389
893.085	3443
893.207	3374
893.33	3195
893.452	3268
893.575	3409
893.697	3298
893.819	3504
893.941	3557
894.064	3504
894.186	3321
894.308	3306
894.43	3466
894.552	3603
894.674	3530
894.796	3325
894.918	3351
895.04	3325
895.161	3477
895.283	3458
895.405	3348
895.526	3397
895.648	3458
895.769	3454
895.891	3485
896.012	3526
896.134	3507
896.255	3469
896.376	3424
896.498	3382
896.619	3473
896.74	3412
896.861	3473
896.982	3698
897.103	3896
897.224	3648
897.345	3530
897.466	3504
897.587	3545
897.708	3629
897.828	3606
897.949	3477
898.07	3340
898.19	3492
898.311	3663
898.431	3523
898.552	3618
898.672	3644
898.792	3648
898.913	3587
899.033	3466
899.153	3310
899.273	3329
899.393	3351
899.513	3348
899.633	3359
899.753	3378
899.873	3370
899.993	3431
900.113	3401
900.232	3481
900.352	3424
900.472	3363
900.591	3287
900.711	3325
900.83	3329
900.95	3462
901.069	3538
901.189	3424
901.308	3272
901.427	3192
901.546	3245
901.665	3363
901.784	3409
901.904	3287
902.023	3157
902.141	3058
902.26	3062
902.379	3188
902.498	3112
902.617	3123
902.735	3264
902.854	3302
902.973	3230
903.091	3112
903.21	3116
903.328	3157
903.446	3119
903.565	3104
903.683	3253
903.801	3211
903.919	3253
904.038	3325
904.156	3207
904.274	3355
904.392	3272
904.51	3367
904.627	3393
904.745	3473
904.863	3545
904.981	3325
905.098	3249
905.216	3241
905.334	3382
905.451	3370
905.569	3336
905.686	3473
905.803	3496
905.921	3359
906.038	3454
906.155	3397
906.272	3329
906.389	3367
906.506	3279
906.623	3325
906.74	3340
906.857	3233
906.974	3332
907.091	3511
907.208	3580
907.324	3519
907.441	3454
907.557	3291
907.674	3272
907.79	3260
907.907	3325
908.023	3447
908.139	3443
908.256	3378
908.372	3431
908.488	3431
908.604	3260
908.72	3310
908.836	3321
908.952	3298
909.068	3382
909.184	3576
909.3	3466
909.415	3568
909.531	3564
909.647	3325
909.762	3359
909.878	3348
909.993	3450
910.108	3397
910.224	3450
910.339	3435
910.454	3420
910.57	3351
910.685	3313
910.8	3652
910.915	3568
911.03	3523
911.145	3317
911.259	3325
911.374	3359
911.489	3294
911.604	3279
911.718	3192
911.833	3233
911.947	3108
912.062	3001
912.176	3207
912.291	3256
912.405	3237
912.519	3542
912.633	3530
912.748	3420
912.862	3325
912.976	3211
913.09	3100
913.204	3180
913.318	3237
913.431	3409
913.545	3378
913.659	3469
913.772	3386
913.886	3279
914	3214
914.113	3405
914.226	3477
914.34	3405
914.453	3317
914.566	3477
914.68	3348
914.793	3386
914.906	3211
915.019	3154
915.132	3127
915.245	3237
915.358	3222
915.47	3283
915.583	3294
915.696	3329
915.809	3469
915.921	3473
916.034	3313
916.146	3298
916.259	3279
916.371	3431
916.483	3428
916.595	3306
916.708	3412
916.82	3386
916.932	3370
917.044	3405
917.156	3409
917.268	3313
917.38	3351
917.491	3359
917.603	3428
917.715	3519
917.826	3500
917.938	3424
918.049	3344
918.161	3466
918.272	3682
918.384	3633
918.495	3561
918.606	3424
918.717	3329
918.828	3458
918.939	3466
919.05	3359
919.161	3439
919.272	3226
919.383	3325
919.494	3534
919.604	3743
919.715	3580
919.826	3504
919.936	3481
920.047	3660
920.157	3656
920.267	3838
920.378	3663
920.488	3637
920.598	3831
920.708	3998
920.818	3899
920.928	3915
921.038	4086
921.148	4101
921.258	3800
921.368	3694
921.477	3614
921.587	3633
921.697	3545
921.806	3667
921.916	3576
922.025	3450
922.134	3420
922.244	3428
922.353	3500
922.462	3275
922.571	3279
922.68	3169
922.789	3108
922.898	3192
923.007	3138
923.116	3294
923.224	3245
923.333	3249
923.442	3150
923.55	3138
923.659	3218
923.767	3298
923.876	3157
923.984	3279
924.092	3161
924.201	3256
924.309	3294
924.417	3253
924.525	3237
924.633	3317
924.741	4246
924.849	3108
924.956	3317
925.064	3184
925.172	3077
925.279	3180
925.387	3253
925.494	3264
925.602	3412
925.709	3409
925.816	3264
925.924	3317
926.031	3431
926.138	3355
926.245	3431
926.352	3287
926.459	3492
926.566	3538
926.673	3340
926.779	3302
926.886	3317
926.993	3203
927.099	3165
927.206	3176
927.312	3192
927.419	3283
927.525	3260
927.631	3344
927.737	3169
927.843	3203
927.95	3074
928.056	3176
928.162	3279
928.267	3310
928.373	3812
928.479	3378
928.585	3123
928.69	3260
928.796	3336
928.901	3214
929.007	3100
929.112	3272
929.218	3230
929.323	3222
929.428	3203
929.533	3374
929.638	3138
929.743	3237
929.848	3321
929.953	3313
930.058	3203
930.163	3028
930.267	3085
930.372	3249
930.477	3039
930.581	3382
930.685	3237
930.79	3085
930.894	3173
930.998	3138
931.103	3310
931.207	3001
931.311	2990
931.415	2971
931.519	2849
931.623	2883
