Data from test_V78500241_1230.txt Node
Date: Fri Mar 25 16:23:43 CST 2022
User: usil
Spectrometer: V785-0024
Trigger mode: 0
Integration Time (sec): 4.000000E-1
Scans to average: 1
Nonlinearity correction enabled: false
Boxcar width: 0
Storing dark spectrum: false
XAxis mode: Wavelengths
Number of Pixels in Spectrum: 1024
>>>>>Begin Spectral Data<<<<<
801.071	2929
801.214	2910
801.356	2887
801.499	2872
801.641	2864
801.783	2868
801.926	3013
802.068	2975
802.211	3005
802.353	3028
802.496	2910
802.638	2994
802.78	3013
802.923	3047
803.065	2963
803.208	2864
803.35	2876
803.492	2944
803.635	2876
803.777	2735
803.919	2845
804.061	3180
804.204	2944
804.346	2899
804.488	2830
804.63	3017
804.773	2845
804.915	2910
805.057	3062
805.199	2937
805.341	2941
805.483	3013
805.626	2982
805.768	2929
805.91	3066
806.052	3047
806.194	3039
806.336	3203
806.478	3028
806.62	2944
806.762	2952
806.904	3051
807.046	3127
807.188	2971
807.33	2868
807.472	2944
807.614	2895
807.756	2941
807.898	2914
808.04	2895
808.182	2975
808.324	2941
808.465	2861
808.607	2857
808.749	2766
808.891	2883
809.033	2963
809.174	2967
809.316	2876
809.458	2883
809.6	2792
809.741	2762
809.883	2777
810.025	2849
810.166	2838
810.308	2857
810.45	2849
810.591	2720
810.733	2762
810.875	2811
811.016	2746
811.158	2708
811.299	2838
811.441	2944
811.582	2906
811.724	2819
811.865	2792
812.007	2914
812.148	2880
812.29	2826
812.431	2902
812.573	2948
812.714	2933
812.855	3020
812.997	3005
813.138	3112
813.279	2994
813.421	2963
813.562	2963
813.703	2887
813.845	2880
813.986	2762
814.127	2735
814.268	2811
814.41	2823
814.551	2800
814.692	2876
814.833	2853
814.974	2838
815.115	2933
815.256	2800
815.397	2804
815.539	2826
815.68	2807
815.821	2758
815.962	2952
816.103	2910
816.244	2811
816.385	2868
816.526	2941
816.666	2899
816.807	2758
816.948	2891
817.089	2880
817.23	2830
817.371	2754
817.512	2777
817.653	2845
817.793	2815
817.934	2868
818.075	2944
818.216	2990
818.356	3013
818.497	2845
818.638	2796
818.778	2834
818.919	2777
819.06	2781
819.2	2895
819.341	2800
819.481	2781
819.622	2906
819.762	3119
819.903	2998
820.043	2937
820.184	2914
820.324	2883
820.465	3028
820.605	3005
820.746	3009
820.886	2914
821.026	3047
821.167	3150
821.307	3287
821.447	3268
821.588	3199
821.728	3245
821.868	3180
822.008	3089
822.149	3150
822.289	3188
822.429	3055
822.569	3070
822.709	3157
822.849	3017
822.99	3062
823.13	3135
823.27	3218
823.41	3081
823.55	3112
823.69	3097
823.83	3180
823.97	3051
824.11	3001
824.25	2990
824.389	3036
824.529	3108
824.669	3074
824.809	3195
824.949	3230
825.089	3218
825.228	3131
825.368	2963
825.508	2922
825.648	2941
825.787	3039
825.927	2990
826.067	2956
826.206	2952
826.346	3093
826.485	3062
826.625	3108
826.765	3275
826.904	3203
827.044	2960
827.183	2918
827.323	2861
827.462	2982
827.601	2922
827.741	2963
827.88	2922
828.02	2838
828.159	2975
828.298	3043
828.437	3119
828.577	3074
828.716	3298
828.855	3066
828.994	2914
829.134	2868
829.273	2948
829.412	2872
829.551	2887
829.69	2883
829.829	2956
829.968	3146
830.107	3093
830.246	3036
830.385	2963
830.524	2918
830.663	2811
830.802	2743
830.941	2682
831.08	2693
831.219	2819
831.357	2811
831.496	2990
831.635	2758
831.774	2678
831.913	2697
832.051	2571
832.19	2602
832.329	2697
832.467	2568
832.606	2503
832.744	2602
832.883	2602
833.022	2610
833.16	2701
833.299	2727
833.437	2727
833.576	2693
833.714	2754
833.852	2735
833.991	2785
834.129	2861
834.267	2861
834.406	2819
834.544	2895
834.682	2906
834.821	2902
834.959	3085
835.097	2925
835.235	3104
835.373	3024
835.511	3085
835.65	2994
835.788	2982
835.926	2842
836.064	2834
836.202	2910
836.34	3119
836.478	3195
836.615	3085
836.753	3173
836.891	3233
837.029	3218
837.167	3135
837.305	3085
837.443	3066
837.58	2979
837.718	3161
837.856	3093
837.993	3028
838.131	3161
838.269	3146
838.406	3146
838.544	3100
838.681	3001
838.819	2971
838.956	2883
839.094	2880
839.231	2956
839.369	3081
839.506	3386
839.643	3256
839.781	3058
839.918	2990
840.055	3119
840.193	3062
840.33	3062
840.467	3135
840.604	3161
840.742	3386
840.879	3081
841.016	3081
841.153	3199
841.29	3367
841.427	3313
841.564	3348
841.701	3298
841.838	3233
841.975	3214
842.112	3268
842.249	3112
842.385	3058
842.522	3332
842.659	3116
842.796	3070
842.933	3142
843.069	3085
843.206	3085
843.343	3207
843.479	3135
843.616	3119
843.752	2891
843.889	2906
844.025	3112
844.162	2899
844.298	3119
844.435	2971
844.571	2963
844.708	3100
844.844	3230
844.98	3237
845.117	3214
845.253	3077
845.389	3017
845.525	3119
845.661	3104
845.798	3028
845.934	3131
846.07	3116
846.206	3222
846.342	3351
846.478	3249
846.614	3104
846.75	3089
846.886	3039
847.022	3241
847.158	3157
847.294	3195
847.429	3279
847.565	3218
847.701	3515
847.837	3062
847.972	3001
848.108	3176
848.244	3157
848.379	3032
848.515	2982
848.65	2941
848.786	3013
848.921	3020
849.057	3127
849.192	3138
849.328	3089
849.463	3142
849.598	3074
849.734	3074
849.869	3020
850.004	2963
850.14	3020
850.275	2944
850.41	2876
850.545	2891
850.68	2929
850.815	2990
850.95	2982
851.085	3203
851.22	3077
851.355	3047
851.49	3005
851.625	3032
851.76	3009
851.895	2967
852.03	2967
852.165	3066
852.299	3169
852.434	3214
852.569	3142
852.703	3199
852.838	3272
852.973	3370
853.107	3363
853.242	3169
853.376	3150
853.511	2998
853.645	3070
853.78	3249
853.914	3165
854.048	3154
854.183	3077
854.317	3154
854.451	3302
854.585	3165
854.72	3146
854.854	3256
854.988	3119
855.122	3135
855.256	3020
855.39	3119
855.524	3294
855.658	3218
855.792	3180
855.926	3211
856.06	3230
856.194	3275
856.327	3188
856.461	3108
856.595	3142
856.729	3123
856.862	3211
856.996	3180
857.13	3226
857.263	3253
857.397	3332
857.53	3154
857.664	3207
857.797	3253
857.931	3264
858.064	3203
858.197	3222
858.331	3161
858.464	3112
858.597	3009
858.731	3138
858.864	3135
858.997	3108
859.13	3188
859.263	3218
859.396	3256
859.529	3093
859.662	3093
859.795	3066
859.928	3188
860.061	3264
860.194	3310
860.327	3173
860.46	3131
860.592	3264
860.725	3287
860.858	3264
860.99	3119
861.123	3100
861.256	3043
861.388	3203
861.521	3755
861.653	3036
861.786	3051
861.918	3028
862.05	3123
862.183	3074
862.315	3157
862.447	3218
862.58	3127
862.712	3009
862.844	2891
862.976	3058
863.108	3020
863.24	3340
863.372	2895
863.504	3001
863.636	2941
863.768	3077
863.9	3005
864.032	2902
864.164	2986
864.296	3085
864.428	3131
864.559	3112
864.691	3097
864.823	3089
864.954	3043
865.086	3055
865.217	3009
865.349	2929
865.48	3017
865.612	3028
865.743	3192
865.875	3024
866.006	2986
866.137	3020
866.269	2975
866.4	2963
866.531	2918
866.662	2891
866.793	2906
866.924	2910
867.055	3024
867.186	2941
867.317	2910
867.448	2880
867.579	2861
867.71	2880
867.841	2857
867.972	2944
868.103	2914
868.233	2906
868.364	2853
868.495	2933
868.625	3070
868.756	3180
868.886	2994
869.017	3020
869.147	3203
869.278	3199
869.408	3055
869.539	3047
869.669	3123
869.799	3051
869.929	3146
870.06	3097
870.19	3374
870.32	3272
870.45	3306
870.58	3405
870.71	3447
870.84	3469
870.97	3306
871.1	3230
871.23	3534
871.36	3466
871.489	3359
871.619	3420
871.749	3405
871.879	3469
872.008	3496
872.138	3393
872.267	3268
872.397	3131
872.526	3135
872.656	3077
872.785	3093
872.915	3260
873.044	3325
873.173	3256
873.303	3279
873.432	3260
873.561	3237
873.69	3173
873.819	3188
873.948	3199
874.077	3119
874.206	3062
874.335	3066
874.464	3287
874.593	3382
874.722	3298
874.851	3412
874.979	3363
875.108	3291
875.237	3214
875.365	3173
875.494	3169
875.623	3260
875.751	3051
875.88	3142
876.008	3222
876.136	3272
876.265	3397
876.393	3496
876.521	3477
876.65	3409
876.778	3351
876.906	3253
877.034	3222
877.162	3207
877.29	3173
877.418	3260
877.546	3241
877.674	3275
877.802	3237
877.93	3237
878.058	3142
878.185	3165
878.313	3222
878.441	3214
878.568	3093
878.696	3195
878.824	3253
878.951	3310
879.079	3466
879.206	3671
879.333	3496
879.461	3321
879.588	3370
879.715	3496
879.842	3603
879.97	3416
880.097	3188
880.224	3146
880.351	3249
880.478	3253
880.605	3199
880.732	3195
880.859	3477
880.986	3355
881.112	3329
881.239	3207
881.366	3123
881.493	3089
881.619	3043
881.746	3089
881.872	3135
881.999	3104
882.125	3192
882.252	3279
882.378	3313
882.505	3435
882.631	3302
882.757	3123
882.883	3260
883.01	3222
883.136	3161
883.262	3108
883.388	3142
883.514	3321
883.64	3386
883.766	3306
883.892	3230
884.018	3241
884.143	3424
884.269	3557
884.395	3233
884.52	3207
884.646	3176
884.772	3161
884.897	3097
885.023	3241
885.148	3317
885.274	3416
885.399	3370
885.524	3279
885.65	3272
885.775	3344
885.9	3310
886.025	3454
886.15	3405
886.275	3355
886.4	3256
886.525	3306
886.65	3275
886.775	3287
886.9	3507
887.025	3644
887.149	3412
887.274	3283
887.399	3173
887.523	3184
887.648	3192
887.773	3184
887.897	3389
888.021	3424
888.146	3351
888.27	3447
888.395	3542
888.519	3431
888.643	3462
888.767	3450
888.891	3298
889.015	3275
889.139	3317
889.263	3241
889.387	3401
889.511	3481
889.635	3450
889.759	3317
889.883	3294
890.006	3412
890.13	3462
890.254	3313
890.377	3348
890.501	3230
890.624	3207
890.748	3272
890.871	3218
890.995	3089
891.118	3108
891.241	3211
891.364	3233
891.488	3317
891.611	3199
891.734	3222
891.857	3287
891.98	3233
892.103	3355
892.226	3294
892.349	3233
892.471	3127
892.594	3245
892.717	3302
892.839	3340
892.962	3302
893.085	3386
893.207	3310
893.33	3157
893.452	3207
893.575	3332
893.697	3226
893.819	3488
893.941	3515
894.064	3443
894.186	3317
894.308	3306
894.43	3409
894.552	3523
894.674	3473
894.796	3275
894.918	3298
895.04	3279
895.161	3409
895.283	3393
895.405	3287
895.526	3389
895.648	3389
895.769	3435
895.891	3473
896.012	3473
896.134	3447
896.255	3435
896.376	3374
896.498	3370
896.619	3409
896.74	3370
896.861	3443
896.982	3694
897.103	3835
897.224	3584
897.345	3481
897.466	3435
897.587	3511
897.708	3618
897.828	3564
897.949	3397
898.07	3355
898.19	3458
898.311	3606
898.431	3469
898.552	3519
898.672	3625
898.792	3553
898.913	3557
899.033	3439
899.153	3340
899.273	3214
899.393	3329
899.513	3317
899.633	3344
899.753	3294
899.873	3294
899.993	3389
900.113	3329
900.232	3424
900.352	3367
900.472	3302
900.591	3233
900.711	3275
900.83	3214
900.95	3374
901.069	3507
901.189	3329
901.308	3169
901.427	3188
901.546	3211
901.665	3291
901.784	3317
901.904	3237
902.023	3184
902.141	2994
902.26	2956
902.379	3161
902.498	3100
902.617	3058
902.735	3283
902.854	3283
902.973	3253
903.091	3085
903.21	3093
903.328	3184
903.446	3173
903.565	3119
903.683	3214
903.801	3165
903.919	3279
904.038	3310
904.156	3157
904.274	3302
904.392	3264
904.51	3310
904.627	3325
904.745	3488
904.863	3519
904.981	3313
905.098	3211
905.216	3298
905.334	3348
905.451	3355
905.569	3351
905.686	3507
905.803	3496
905.921	3332
906.038	3469
906.155	3397
906.272	3317
906.389	3359
906.506	3264
906.623	3291
906.74	3313
906.857	3203
906.974	3317
907.091	3492
907.208	3603
907.324	3488
907.441	3420
907.557	3203
907.674	3306
907.79	3256
907.907	3367
908.023	3397
908.139	3431
908.256	3359
908.372	3397
908.488	3363
908.604	3348
908.72	3230
908.836	3321
908.952	3317
909.068	3367
909.184	3485
909.3	3420
909.415	3549
909.531	3564
909.647	3294
909.762	3298
909.878	3283
909.993	3397
910.108	3409
910.224	3363
910.339	3466
910.454	3367
910.57	3344
910.685	3264
910.8	3644
910.915	3591
911.03	3393
911.145	3317
911.259	3306
911.374	3302
911.489	3256
911.604	3268
911.718	3154
911.833	3150
911.947	3085
912.062	3024
912.176	3203
912.291	3283
912.405	3245
912.519	3462
912.633	3500
912.748	3382
912.862	3329
912.976	3192
913.09	3112
913.204	3192
913.318	3222
913.431	3382
913.545	3370
913.659	3504
913.772	3397
913.886	3272
914	3260
914.113	3416
914.226	3466
914.34	3397
914.453	3272
914.566	3462
914.68	3306
914.793	3340
914.906	3165
915.019	3131
915.132	3138
915.245	3184
915.358	3218
915.47	3272
915.583	3268
915.696	3336
915.809	3447
915.921	3450
916.034	3302
916.146	3317
916.259	3241
916.371	3435
916.483	3374
916.595	3332
916.708	3374
916.82	3351
916.932	3382
917.044	3374
917.156	3389
917.268	3268
917.38	3298
917.491	3344
917.603	3428
917.715	3466
917.826	3488
917.938	3443
918.049	3348
918.161	3450
918.272	3606
918.384	3610
918.495	3450
918.606	3348
918.717	3302
918.828	3420
918.939	3428
919.05	3367
919.161	3424
919.272	3222
919.383	3302
919.494	3504
919.604	3694
919.715	3488
919.826	3477
919.936	3469
920.047	3564
920.157	3591
920.267	3781
920.378	3587
920.488	3584
920.598	3789
920.708	4013
920.818	3831
920.928	3816
921.038	4051
921.148	4006
921.258	3778
921.368	3698
921.477	3618
921.587	3568
921.697	3515
921.806	3660
921.916	3549
922.025	3351
922.134	3412
922.244	3351
922.353	3481
922.462	3302
922.571	3283
922.68	3169
922.789	3138
922.898	3157
923.007	3123
923.116	3169
923.224	3188
923.333	3195
923.442	3180
923.55	3108
923.659	3192
923.767	3230
923.876	3116
923.984	3275
924.092	3108
924.201	3245
924.309	3275
924.417	3313
924.525	3245
924.633	3256
924.741	4059
924.849	3089
924.956	3291
925.064	3146
925.172	3097
925.279	3116
925.387	3233
925.494	3214
925.602	3405
925.709	3348
925.816	3241
925.924	3329
926.031	3424
926.138	3363
926.245	3374
926.352	3329
926.459	3447
926.566	3466
926.673	3363
926.779	3294
926.886	3275
926.993	3154
927.099	3108
927.206	3150
927.312	3142
927.419	3249
927.525	3233
927.631	3287
927.737	3192
927.843	3142
927.95	3062
928.056	3127
928.162	3214
928.267	3275
928.373	3884
928.479	3332
928.585	3085
928.69	3291
928.796	3268
928.901	3222
929.007	3055
929.112	3245
929.218	3214
929.323	3207
929.428	3135
929.533	3321
929.638	3146
929.743	3226
929.848	3298
929.953	3245
930.058	3199
930.163	3055
930.267	3062
930.372	3237
930.477	3043
930.581	3351
930.685	3195
930.79	3112
930.894	3161
930.998	3085
931.103	3367
931.207	2998
931.311	2948
931.415	2948
931.519	2792
931.623	2815
