Data from test_V78500241_90.txt Node
Date: Fri Mar 25 16:15:49 CST 2022
User: usil
Spectrometer: V785-0024
Trigger mode: 0
Integration Time (sec): 4.000000E-1
Scans to average: 1
Nonlinearity correction enabled: false
Boxcar width: 0
Storing dark spectrum: false
XAxis mode: Wavelengths
Number of Pixels in Spectrum: 1024
>>>>>Begin Spectral Data<<<<<
801.071	2952
801.214	3020
801.356	2937
801.499	2971
801.641	2922
801.783	2971
801.926	3104
802.068	3001
802.211	3051
802.353	3055
802.496	3051
802.638	3077
802.78	3051
802.923	3108
803.065	3070
803.208	2948
803.35	3009
803.492	2998
803.635	2952
803.777	2792
803.919	2910
804.061	3253
804.204	3009
804.346	2933
804.488	2902
804.63	3036
804.773	2891
804.915	2918
805.057	3127
805.199	2998
805.341	3017
805.483	3104
805.626	3058
805.768	2971
805.91	3131
806.052	3154
806.194	3100
806.336	3272
806.478	3070
806.62	3009
806.762	3020
806.904	3112
807.046	3176
807.188	3062
807.33	2944
807.472	3062
807.614	2922
807.756	3028
807.898	2967
808.04	2914
808.182	2975
808.324	2990
808.465	2929
808.607	2944
808.749	2830
808.891	2895
809.033	2998
809.174	3009
809.316	2952
809.458	2941
809.6	2830
809.741	2823
809.883	2819
810.025	2918
810.166	2902
810.308	2906
810.45	2883
810.591	2800
810.733	2788
810.875	2880
811.016	2819
811.158	2800
811.299	2830
811.441	3001
811.582	2929
811.724	2880
811.865	2864
812.007	2956
812.148	2914
812.29	2895
812.431	2929
812.573	2963
812.714	3009
812.855	3074
812.997	3104
813.138	3165
813.279	3043
813.421	3001
813.562	3032
813.703	2914
813.845	2937
813.986	2823
814.127	2758
814.268	2872
814.41	2895
814.551	2838
814.692	2925
814.833	2842
814.974	2948
815.115	2979
815.256	2872
815.397	2849
815.539	2899
815.68	2804
815.821	2830
815.962	2986
816.103	2975
816.244	2914
816.385	2883
816.526	2979
816.666	2933
816.807	2785
816.948	2914
817.089	2944
817.23	2906
817.371	2883
817.512	2804
817.653	2891
817.793	2864
817.934	2941
818.075	3001
818.216	3017
818.356	3081
818.497	2922
818.638	2849
818.778	2891
818.919	2815
819.06	2796
819.2	2918
819.341	2826
819.481	2815
819.622	2971
819.762	3150
819.903	3097
820.043	2956
820.184	2963
820.324	2963
820.465	3055
820.605	3066
820.746	3081
820.886	2963
821.026	3135
821.167	3207
821.307	3329
821.447	3310
821.588	3306
821.728	3233
821.868	3272
822.008	3116
822.149	3199
822.289	3294
822.429	3138
822.569	3108
822.709	3211
822.849	3055
822.99	3093
823.13	3165
823.27	3260
823.41	3108
823.55	3214
823.69	3203
823.83	3203
823.97	3184
824.11	3055
824.25	3028
824.389	3100
824.529	3154
824.669	3104
824.809	3256
824.949	3298
825.089	3279
825.228	3199
825.368	3028
825.508	3013
825.648	2990
825.787	3066
825.927	3013
826.067	2986
826.206	3001
826.346	3066
826.485	3123
826.625	3150
826.765	3325
826.904	3230
827.044	3043
827.183	2967
827.323	2902
827.462	3017
827.601	2960
827.741	2952
827.88	2975
828.02	2925
828.159	3043
828.298	3074
828.437	3180
828.577	3093
828.716	3340
828.855	3138
828.994	2960
829.134	2941
829.273	2944
829.412	2914
829.551	2910
829.69	2925
829.829	3032
829.968	3146
830.107	3058
830.246	3089
830.385	2944
830.524	2948
830.663	2861
830.802	2754
830.941	2651
831.08	2682
831.219	2804
831.357	2800
831.496	2986
831.635	2758
831.774	2655
831.913	2720
832.051	2587
832.19	2621
832.329	2735
832.467	2552
832.606	2511
832.744	2610
832.883	2598
833.022	2636
833.16	2686
833.299	2705
833.437	2708
833.576	2693
833.714	2773
833.852	2754
833.991	2804
834.129	2868
834.267	2845
834.406	2785
834.544	2906
834.682	2891
834.821	2891
834.959	3089
835.097	2929
835.235	3112
835.373	2998
835.511	3062
835.65	2979
835.788	2956
835.926	2895
836.064	2845
836.202	2857
836.34	3127
836.478	3161
836.615	3058
836.753	3138
836.891	3275
837.029	3184
837.167	3138
837.305	3100
837.443	3077
837.58	2986
837.718	3173
837.856	3093
837.993	3077
838.131	3142
838.269	3146
838.406	3104
838.544	3081
838.681	2948
838.819	2944
838.956	2819
839.094	2876
839.231	2982
839.369	3085
839.506	3416
839.643	3253
839.781	3062
839.918	2971
840.055	3093
840.193	3093
840.33	3085
840.467	3089
840.604	3176
840.742	3405
840.879	3058
841.016	3051
841.153	3135
841.29	3378
841.427	3374
841.564	3272
841.701	3344
841.838	3237
841.975	3230
842.112	3237
842.249	3131
842.385	3058
842.522	3272
842.659	3127
842.796	3058
842.933	3135
843.069	3058
843.206	3062
843.343	3169
843.479	3150
843.616	3184
843.752	2948
843.889	2899
844.025	3135
844.162	2922
844.298	3116
844.435	2952
844.571	2979
844.708	3104
844.844	3230
844.98	3329
845.117	3230
845.253	3070
845.389	3005
845.525	3135
845.661	3138
845.798	3047
845.934	3108
846.07	3097
846.206	3222
846.342	3348
846.478	3302
846.614	3142
846.75	3089
846.886	3047
847.022	3275
847.158	3176
847.294	3253
847.429	3253
847.565	3207
847.701	3496
847.837	3089
847.972	3043
848.108	3157
848.244	3131
848.379	2994
848.515	2948
848.65	2971
848.786	2975
848.921	3032
849.057	3123
849.192	3146
849.328	3135
849.463	3142
849.598	3097
849.734	3047
849.869	3020
850.004	2960
850.14	3024
850.275	2944
850.41	2868
850.545	2925
850.68	2990
850.815	3013
850.95	3028
851.085	3199
851.22	3169
851.355	3062
851.49	3020
851.625	3070
851.76	3043
851.895	2956
852.03	2952
852.165	3055
852.299	3100
852.434	3184
852.569	3176
852.703	3249
852.838	3256
852.973	3412
853.107	3367
853.242	3192
853.376	3081
853.511	3013
853.645	3085
853.78	3241
853.914	3154
854.048	3135
854.183	3161
854.317	3165
854.451	3329
854.585	3127
854.72	3112
854.854	3226
854.988	3100
855.122	3131
855.256	3009
855.39	3142
855.524	3211
855.658	3180
855.792	3192
855.926	3203
856.06	3268
856.194	3302
856.327	3169
856.461	3093
856.595	3123
856.729	3089
856.862	3287
856.996	3169
857.13	3233
857.263	3294
857.397	3298
857.53	3165
857.664	3226
857.797	3253
857.931	3302
858.064	3211
858.197	3256
858.331	3173
858.464	3161
858.597	3020
858.731	3142
858.864	3169
858.997	3097
859.13	3180
859.263	3218
859.396	3294
859.529	3074
859.662	3089
859.795	3112
859.928	3188
860.061	3264
860.194	3306
860.327	3150
860.46	3150
860.592	3302
860.725	3310
860.858	3306
860.99	3116
861.123	3089
861.256	3085
861.388	3169
861.521	3724
861.653	3028
861.786	2994
861.918	3024
862.05	3108
862.183	3127
862.315	3192
862.447	3218
862.58	3100
862.712	2982
862.844	2929
862.976	3036
863.108	3047
863.24	3443
863.372	2899
863.504	2979
863.636	2982
863.768	3032
863.9	3020
864.032	2967
864.164	2956
864.296	3051
864.428	3161
864.559	3112
864.691	3112
864.823	3081
864.954	3066
865.086	3070
865.217	3020
865.349	2960
865.48	2986
865.612	3028
865.743	3188
865.875	3020
866.006	2990
866.137	3051
866.269	3001
866.4	2979
866.531	2963
866.662	2929
866.793	2922
866.924	2906
867.055	3005
867.186	2941
867.317	2906
867.448	2902
867.579	2861
867.71	2883
867.841	2807
867.972	2922
868.103	2929
868.233	2929
868.364	2925
868.495	2922
868.625	3108
868.756	3173
868.886	2994
869.017	3024
869.147	3203
869.278	3169
869.408	3104
869.539	3017
869.669	3112
869.799	3066
869.929	3173
870.06	3135
870.19	3363
870.32	3306
870.45	3294
870.58	3405
870.71	3496
870.84	3466
870.97	3351
871.1	3279
871.23	3530
871.36	3488
871.489	3359
871.619	3443
871.749	3420
871.879	3485
872.008	3507
872.138	3359
872.267	3287
872.397	3192
872.526	3138
872.656	3017
872.785	3142
872.915	3264
873.044	3336
873.173	3245
873.303	3291
873.432	3264
873.561	3268
873.69	3184
873.819	3154
873.948	3184
874.077	3116
874.206	3066
874.335	3119
874.464	3264
874.593	3336
874.722	3256
874.851	3424
874.979	3458
875.108	3340
875.237	3207
875.365	3188
875.494	3161
875.623	3283
875.751	3074
875.88	3135
876.008	3237
876.136	3260
876.265	3409
876.393	3538
876.521	3458
876.65	3435
876.778	3386
876.906	3279
877.034	3222
877.162	3256
877.29	3256
877.418	3294
877.546	3294
877.674	3313
877.802	3272
877.93	3230
878.058	3211
878.185	3154
878.313	3222
878.441	3226
878.568	3081
878.696	3184
878.824	3230
878.951	3340
879.079	3458
879.206	3656
879.333	3458
879.461	3386
879.588	3355
879.715	3504
879.842	3606
879.97	3420
880.097	3203
880.224	3146
880.351	3233
880.478	3245
880.605	3226
880.732	3211
880.859	3538
880.986	3374
881.112	3359
881.239	3230
881.366	3127
881.493	3058
881.619	3028
881.746	3097
881.872	3127
881.999	3127
882.125	3157
882.252	3275
882.378	3329
882.505	3450
882.631	3317
882.757	3188
882.883	3214
883.01	3279
883.136	3222
883.262	3165
883.388	3146
883.514	3351
883.64	3424
883.766	3348
883.892	3176
884.018	3256
884.143	3454
884.269	3568
884.395	3230
884.52	3161
884.646	3192
884.772	3184
884.897	3116
885.023	3199
885.148	3363
885.274	3439
885.399	3363
885.524	3317
885.65	3283
885.775	3359
885.9	3291
886.025	3389
886.15	3378
886.275	3329
886.4	3249
886.525	3317
886.65	3294
886.775	3283
886.9	3557
887.025	3694
887.149	3428
887.274	3237
887.399	3150
887.523	3237
887.648	3230
887.773	3249
887.897	3428
888.021	3458
888.146	3313
888.27	3428
888.395	3568
888.519	3477
888.643	3458
888.767	3492
888.891	3332
889.015	3298
889.139	3268
889.263	3279
889.387	3458
889.511	3511
889.635	3530
889.759	3340
889.883	3336
890.006	3409
890.13	3526
890.254	3291
890.377	3370
890.501	3218
890.624	3218
890.748	3340
890.871	3211
890.995	3138
891.118	3108
891.241	3226
891.364	3241
891.488	3325
891.611	3218
891.734	3245
891.857	3302
891.98	3264
892.103	3355
892.226	3298
892.349	3218
892.471	3157
892.594	3287
892.717	3348
892.839	3294
892.962	3291
893.085	3428
893.207	3325
893.33	3176
893.452	3279
893.575	3359
893.697	3294
893.819	3507
893.941	3526
894.064	3469
894.186	3321
894.308	3310
894.43	3454
894.552	3568
894.674	3481
894.796	3298
894.918	3351
895.04	3325
895.161	3450
895.283	3397
895.405	3340
895.526	3397
895.648	3431
895.769	3458
895.891	3511
896.012	3485
896.134	3523
896.255	3450
896.376	3424
896.498	3454
896.619	3473
896.74	3416
896.861	3458
896.982	3694
897.103	3888
897.224	3637
897.345	3511
897.466	3439
897.587	3526
897.708	3633
897.828	3553
897.949	3488
898.07	3321
898.19	3435
898.311	3663
898.431	3439
898.552	3534
898.672	3580
898.792	3622
898.913	3561
899.033	3454
899.153	3298
899.273	3222
899.393	3336
899.513	3348
899.633	3367
899.753	3386
899.873	3359
899.993	3382
900.113	3382
900.232	3420
900.352	3351
900.472	3321
900.591	3233
900.711	3313
900.83	3268
900.95	3462
901.069	3564
901.189	3389
901.308	3233
901.427	3142
901.546	3264
901.665	3336
901.784	3332
901.904	3249
902.023	3173
902.141	3051
902.26	3039
902.379	3188
902.498	3081
902.617	3085
902.735	3230
902.854	3249
902.973	3211
903.091	3074
903.21	3108
903.328	3138
903.446	3169
903.565	3138
903.683	3214
903.801	3173
903.919	3256
904.038	3336
904.156	3184
904.274	3272
904.392	3287
904.51	3313
904.627	3294
904.745	3443
904.863	3519
904.981	3275
905.098	3218
905.216	3218
905.334	3291
905.451	3367
905.569	3344
905.686	3488
905.803	3488
905.921	3325
906.038	3462
906.155	3359
906.272	3298
906.389	3340
906.506	3226
906.623	3287
906.74	3298
906.857	3207
906.974	3275
907.091	3450
907.208	3572
907.324	3519
907.441	3367
907.557	3283
907.674	3264
907.79	3211
907.907	3302
908.023	3401
908.139	3397
908.256	3401
908.372	3431
908.488	3401
908.604	3306
908.72	3222
908.836	3306
908.952	3268
909.068	3317
909.184	3504
909.3	3447
909.415	3530
909.531	3526
909.647	3291
909.762	3294
909.878	3283
909.993	3431
910.108	3355
910.224	3386
910.339	3397
910.454	3386
910.57	3279
910.685	3249
910.8	3606
910.915	3591
911.03	3447
911.145	3313
911.259	3260
911.374	3340
911.489	3287
911.604	3264
911.718	3108
911.833	3188
911.947	3081
912.062	3051
912.176	3207
912.291	3226
912.405	3260
912.519	3435
912.633	3469
912.748	3336
912.862	3336
912.976	3188
913.09	3093
913.204	3146
913.318	3264
913.431	3332
913.545	3367
913.659	3450
913.772	3374
913.886	3249
914	3226
914.113	3428
914.226	3454
914.34	3378
914.453	3226
914.566	3424
914.68	3321
914.793	3370
914.906	3176
915.019	3180
915.132	3116
915.245	3176
915.358	3233
915.47	3249
915.583	3279
915.696	3306
915.809	3424
915.921	3458
916.034	3310
916.146	3272
916.259	3237
916.371	3439
916.483	3401
916.595	3287
916.708	3355
916.82	3401
916.932	3389
917.044	3393
917.156	3435
917.268	3294
917.38	3306
917.491	3340
917.603	3363
917.715	3496
917.826	3526
917.938	3431
918.049	3336
918.161	3469
918.272	3629
918.384	3599
918.495	3545
918.606	3370
918.717	3310
918.828	3389
918.939	3435
919.05	3340
919.161	3378
919.272	3211
919.383	3332
919.494	3538
919.604	3717
919.715	3496
919.826	3458
919.936	3488
920.047	3591
920.157	3561
920.267	3819
920.378	3614
920.488	3580
920.598	3812
920.708	3964
920.818	3880
920.928	3896
921.038	4097
921.148	4029
921.258	3740
921.368	3656
921.477	3633
921.587	3557
921.697	3530
921.806	3686
921.916	3542
922.025	3401
922.134	3382
922.244	3355
922.353	3477
922.462	3348
922.571	3268
922.68	3119
922.789	3150
922.898	3165
923.007	3154
923.116	3272
923.224	3226
923.333	3226
923.442	3154
923.55	3123
923.659	3157
923.767	3268
923.876	3173
923.984	3275
924.092	3138
924.201	3245
924.309	3260
924.417	3287
924.525	3233
924.633	3253
924.741	4261
924.849	3043
924.956	3283
925.064	3123
925.172	3066
925.279	3131
925.387	3211
925.494	3230
925.602	3409
925.709	3374
925.816	3237
925.924	3310
926.031	3428
926.138	3332
926.245	3420
926.352	3279
926.459	3462
926.566	3515
926.673	3348
926.779	3291
926.886	3313
926.993	3180
927.099	3146
927.206	3142
927.312	3157
927.419	3272
927.525	3218
927.631	3313
927.737	3192
927.843	3169
927.95	3043
928.056	3123
928.162	3188
928.267	3264
928.373	3823
928.479	3321
928.585	3066
928.69	3245
928.796	3302
928.901	3226
929.007	3070
929.112	3184
929.218	3180
929.323	3184
929.428	3203
929.533	3367
929.638	3127
929.743	3180
929.848	3264
929.953	3249
930.058	3192
930.163	3039
930.267	3085
930.372	3253
930.477	3058
930.581	3355
930.685	3184
930.79	3062
930.894	3203
930.998	3089
931.103	3298
931.207	3001
931.311	2990
931.415	2941
931.519	2811
931.623	2834
