Data from test_V78500241_1482.txt Node
Date: Fri Mar 25 16:25:28 CST 2022
User: usil
Spectrometer: V785-0024
Trigger mode: 0
Integration Time (sec): 4.000000E-1
Scans to average: 1
Nonlinearity correction enabled: false
Boxcar width: 0
Storing dark spectrum: false
XAxis mode: Wavelengths
Number of Pixels in Spectrum: 1024
>>>>>Begin Spectral Data<<<<<
801.071	2902
801.214	2971
801.356	2849
801.499	2902
801.641	2834
801.783	2887
801.926	3055
802.068	3009
802.211	3009
802.353	3020
802.496	2922
802.638	3032
802.78	3074
802.923	3112
803.065	2998
803.208	2864
803.35	2922
803.492	2948
803.635	2941
803.777	2743
803.919	2902
804.061	3222
804.204	2979
804.346	2929
804.488	2826
804.63	2979
804.773	2887
804.915	2918
805.057	3043
805.199	2937
805.341	2960
805.483	3017
805.626	3013
805.768	2948
805.91	3085
806.052	3074
806.194	3062
806.336	3241
806.478	3024
806.62	2971
806.762	2963
806.904	3039
807.046	3169
807.188	2994
807.33	2902
807.472	2990
807.614	2910
807.756	2979
807.898	2910
808.04	2933
808.182	2990
808.324	2963
808.465	2849
808.607	2861
808.749	2800
808.891	2838
809.033	2982
809.174	3009
809.316	2880
809.458	2910
809.6	2777
809.741	2796
809.883	2746
810.025	2834
810.166	2857
810.308	2849
810.45	2857
810.591	2781
810.733	2766
810.875	2815
811.016	2777
811.158	2735
811.299	2788
811.441	2906
811.582	2906
811.724	2826
811.865	2815
812.007	2925
812.148	2845
812.29	2830
812.431	2902
812.573	2925
812.714	2937
812.855	3036
812.997	3051
813.138	3157
813.279	3043
813.421	3024
813.562	3005
813.703	2864
813.845	2849
813.986	2758
814.127	2705
814.268	2819
814.41	2845
814.551	2830
814.692	2838
814.833	2815
814.974	2906
815.115	2948
815.256	2811
815.397	2807
815.539	2838
815.68	2785
815.821	2804
815.962	2922
816.103	2941
816.244	2895
816.385	2857
816.526	2986
816.666	2906
816.807	2743
816.948	2876
817.089	2948
817.23	2845
817.371	2777
817.512	2792
817.653	2845
817.793	2823
817.934	2883
818.075	2952
818.216	2948
818.356	2986
818.497	2849
818.638	2796
818.778	2826
818.919	2800
819.06	2750
819.2	2872
819.341	2804
819.481	2754
819.622	2960
819.762	3142
819.903	3036
820.043	2918
820.184	2906
820.324	2941
820.465	2982
820.605	3024
820.746	3017
820.886	2952
821.026	3074
821.167	3135
821.307	3253
821.447	3260
821.588	3237
821.728	3241
821.868	3173
822.008	3062
822.149	3211
822.289	3188
822.429	3104
822.569	3081
822.709	3188
822.849	3047
822.99	3066
823.13	3173
823.27	3199
823.41	3135
823.55	3180
823.69	3142
823.83	3176
823.97	3089
824.11	2994
824.25	2975
824.389	3097
824.529	3097
824.669	3123
824.809	3207
824.949	3230
825.089	3214
825.228	3161
825.368	3001
825.508	2925
825.648	2941
825.787	3017
825.927	2994
826.067	2971
826.206	3001
826.346	3043
826.485	3070
826.625	3093
826.765	3260
826.904	3214
827.044	2986
827.183	2914
827.323	2857
827.462	2952
827.601	2899
827.741	2937
827.88	2963
828.02	2872
828.159	2975
828.298	3055
828.437	3085
828.577	3036
828.716	3233
828.855	3100
828.994	2899
829.134	2891
829.273	2887
829.412	2868
829.551	2864
829.69	2861
829.829	2982
829.968	3123
830.107	3009
830.246	2990
830.385	2906
830.524	2899
830.663	2796
830.802	2724
830.941	2651
831.08	2629
831.219	2724
831.357	2746
831.496	2963
831.635	2708
831.774	2640
831.913	2655
832.051	2560
832.19	2579
832.329	2670
832.467	2480
832.606	2488
832.744	2545
832.883	2545
833.022	2606
833.16	2667
833.299	2682
833.437	2693
833.576	2667
833.714	2697
833.852	2697
833.991	2781
834.129	2823
834.267	2838
834.406	2788
834.544	2845
834.682	2883
834.821	2853
834.959	3058
835.097	2899
835.235	3058
835.373	2975
835.511	3005
835.65	2948
835.788	2914
835.926	2807
836.064	2823
836.202	2861
836.34	3100
836.478	3119
836.615	3036
836.753	3104
836.891	3203
837.029	3169
837.167	3104
837.305	3024
837.443	3070
837.58	2956
837.718	3150
837.856	3093
837.993	3036
838.131	3112
838.269	3062
838.406	3104
838.544	3081
838.681	2960
838.819	2922
838.956	2823
839.094	2785
839.231	2895
839.369	3005
839.506	3370
839.643	3195
839.781	2990
839.918	2967
840.055	3055
840.193	3062
840.33	3074
840.467	3077
840.604	3127
840.742	3393
840.879	3058
841.016	3066
841.153	3081
841.29	3321
841.427	3294
841.564	3279
841.701	3306
841.838	3253
841.975	3150
842.112	3184
842.249	3043
842.385	3039
842.522	3233
842.659	3123
842.796	3058
842.933	3097
843.069	3058
843.206	3017
843.343	3184
843.479	3100
843.616	3135
843.752	2914
843.889	2891
844.025	3077
844.162	2899
844.298	3074
844.435	2910
844.571	2906
844.708	3112
844.844	3195
844.98	3226
845.117	3203
845.253	3051
845.389	3043
845.525	3112
845.661	3066
845.798	3009
845.934	3135
846.07	3066
846.206	3214
846.342	3310
846.478	3169
846.614	3100
846.75	3043
846.886	3028
847.022	3203
847.158	3093
847.294	3203
847.429	3275
847.565	3188
847.701	3481
847.837	3043
847.972	3017
848.108	3123
848.244	3135
848.379	2967
848.515	2971
848.65	2910
848.786	2960
848.921	3013
849.057	3123
849.192	3150
849.328	3058
849.463	3116
849.598	3119
849.734	2994
849.869	2979
850.004	2902
850.14	2986
850.275	2895
850.41	2834
850.545	2861
850.68	2922
850.815	2956
850.95	2982
851.085	3169
851.22	3058
851.355	3024
851.49	2979
851.625	2986
851.76	3013
851.895	2922
852.03	2906
852.165	3001
852.299	3116
852.434	3165
852.569	3131
852.703	3169
852.838	3245
852.973	3370
853.107	3306
853.242	3131
853.376	3097
853.511	2986
853.645	3058
853.78	3264
853.914	3112
854.048	3112
854.183	3093
854.317	3150
854.451	3291
854.585	3085
854.72	3089
854.854	3180
854.988	3020
855.122	3089
855.256	2925
855.39	3127
855.524	3272
855.658	3207
855.792	3165
855.926	3195
856.06	3211
856.194	3264
856.327	3142
856.461	3055
856.595	3097
856.729	3108
856.862	3173
856.996	3165
857.13	3165
857.263	3207
857.397	3275
857.53	3097
857.664	3165
857.797	3222
857.931	3241
858.064	3135
858.197	3199
858.331	3138
858.464	3081
858.597	2990
858.731	3138
858.864	3108
858.997	3108
859.13	3131
859.263	3154
859.396	3184
859.529	3081
859.662	3055
859.795	3070
859.928	3142
860.061	3272
860.194	3279
860.327	3131
860.46	3108
860.592	3233
860.725	3241
860.858	3253
860.99	3085
861.123	3051
861.256	3051
861.388	3146
861.521	3861
861.653	3013
861.786	2971
861.918	2979
862.05	3043
862.183	3077
862.315	3161
862.447	3192
862.58	3108
862.712	2971
862.844	2880
862.976	3043
863.108	3009
863.24	3275
863.372	2876
863.504	2994
863.636	2937
863.768	3028
863.9	2952
864.032	2925
864.164	2979
864.296	2998
864.428	3077
864.559	3100
864.691	3058
864.823	3104
864.954	3024
865.086	3039
865.217	3020
865.349	2914
865.48	2982
865.612	2990
865.743	3138
865.875	2979
866.006	2952
866.137	2956
866.269	2910
866.4	2922
866.531	2902
866.662	2906
866.793	2887
866.924	2895
867.055	2986
867.186	2933
867.317	2853
867.448	2853
867.579	2842
867.71	2857
867.841	2819
867.972	2902
868.103	2925
868.233	2895
868.364	2864
868.495	2853
868.625	3066
868.756	3169
868.886	2960
869.017	2990
869.147	3161
869.278	3127
869.408	3028
869.539	3028
869.669	3085
869.799	3028
869.929	3116
870.06	3119
870.19	3317
870.32	3294
870.45	3256
870.58	3367
870.71	3450
870.84	3454
870.97	3298
871.1	3245
871.23	3443
871.36	3439
871.489	3332
871.619	3389
871.749	3397
871.879	3397
872.008	3439
872.138	3348
872.267	3256
872.397	3150
872.526	3047
872.656	3001
872.785	3104
872.915	3226
873.044	3298
873.173	3218
873.303	3211
873.432	3237
873.561	3241
873.69	3138
873.819	3131
873.948	3138
874.077	3119
874.206	3001
874.335	3093
874.464	3184
874.593	3355
874.722	3241
874.851	3351
874.979	3344
875.108	3302
875.237	3199
875.365	3123
875.494	3157
875.623	3268
875.751	3039
875.88	3085
876.008	3157
876.136	3264
876.265	3317
876.393	3523
876.521	3431
876.65	3397
876.778	3317
876.906	3245
877.034	3207
877.162	3211
877.29	3180
877.418	3214
877.546	3230
877.674	3211
877.802	3184
877.93	3253
878.058	3142
878.185	3089
878.313	3173
878.441	3195
878.568	3070
878.696	3135
878.824	3260
878.951	3302
879.079	3405
879.206	3618
879.333	3435
879.461	3355
879.588	3363
879.715	3500
879.842	3606
879.97	3389
880.097	3195
880.224	3116
880.351	3199
880.478	3222
880.605	3207
880.732	3188
880.859	3538
880.986	3302
881.112	3325
881.239	3184
881.366	3074
881.493	3017
881.619	3024
881.746	3100
881.872	3062
881.999	3108
882.125	3161
882.252	3241
882.378	3283
882.505	3420
882.631	3256
882.757	3165
882.883	3184
883.01	3192
883.136	3142
883.262	3062
883.388	3081
883.514	3359
883.64	3344
883.766	3306
883.892	3192
884.018	3260
884.143	3401
884.269	3492
884.395	3237
884.52	3123
884.646	3169
884.772	3070
884.897	3066
885.023	3207
885.148	3340
885.274	3435
885.399	3359
885.524	3279
885.65	3275
885.775	3321
885.9	3287
886.025	3409
886.15	3329
886.275	3279
886.4	3230
886.525	3329
886.65	3279
886.775	3264
886.9	3477
887.025	3625
887.149	3363
887.274	3233
887.399	3207
887.523	3195
887.648	3195
887.773	3169
887.897	3382
888.021	3370
888.146	3264
888.27	3454
888.395	3542
888.519	3450
888.643	3492
888.767	3450
888.891	3291
889.015	3272
889.139	3283
889.263	3275
889.387	3409
889.511	3488
889.635	3431
889.759	3310
889.883	3272
890.006	3348
890.13	3485
890.254	3279
890.377	3336
890.501	3214
890.624	3176
890.748	3306
890.871	3176
890.995	3135
891.118	3032
891.241	3184
891.364	3207
891.488	3272
891.611	3157
891.734	3226
891.857	3275
891.98	3214
892.103	3313
892.226	3302
892.349	3214
892.471	3104
892.594	3214
892.717	3287
892.839	3260
892.962	3302
893.085	3317
893.207	3279
893.33	3161
893.452	3214
893.575	3329
893.697	3245
893.819	3420
893.941	3500
894.064	3424
894.186	3226
894.308	3260
894.43	3409
894.552	3549
894.674	3469
894.796	3283
894.918	3329
895.04	3287
895.161	3447
895.283	3389
895.405	3279
895.526	3351
895.648	3435
895.769	3424
895.891	3458
896.012	3447
896.134	3450
896.255	3409
896.376	3401
896.498	3355
896.619	3424
896.74	3359
896.861	3363
896.982	3637
897.103	3838
897.224	3568
897.345	3507
897.466	3405
897.587	3507
897.708	3644
897.828	3553
897.949	3401
898.07	3325
898.19	3416
898.311	3618
898.431	3454
898.552	3481
898.672	3572
898.792	3561
898.913	3530
899.033	3397
899.153	3256
899.273	3199
899.393	3268
899.513	3317
899.633	3313
899.753	3310
899.873	3336
899.993	3401
900.113	3336
900.232	3370
900.352	3344
900.472	3298
900.591	3253
900.711	3275
900.83	3241
900.95	3389
901.069	3492
901.189	3321
901.308	3192
901.427	3161
901.546	3188
901.665	3310
901.784	3363
901.904	3192
902.023	3169
902.141	3001
902.26	2986
902.379	3135
902.498	3036
902.617	3020
902.735	3199
902.854	3233
902.973	3192
903.091	3032
903.21	3066
903.328	3176
903.446	3127
903.565	3142
903.683	3184
903.801	3108
903.919	3237
904.038	3264
904.156	3180
904.274	3264
904.392	3222
904.51	3291
904.627	3321
904.745	3450
904.863	3507
904.981	3256
905.098	3157
905.216	3203
905.334	3268
905.451	3313
905.569	3325
905.686	3443
905.803	3431
905.921	3306
906.038	3397
906.155	3367
906.272	3298
906.389	3340
906.506	3245
906.623	3218
906.74	3275
906.857	3176
906.974	3268
907.091	3450
907.208	3564
907.324	3450
907.441	3367
907.557	3245
907.674	3226
907.79	3199
907.907	3279
908.023	3359
908.139	3329
908.256	3325
908.372	3374
908.488	3351
908.604	3253
908.72	3226
908.836	3291
908.952	3268
909.068	3351
909.184	3450
909.3	3412
909.415	3454
909.531	3450
909.647	3283
909.762	3275
909.878	3264
909.993	3370
910.108	3329
910.224	3306
910.339	3447
910.454	3294
910.57	3241
910.685	3260
910.8	3534
910.915	3515
911.03	3439
911.145	3291
911.259	3237
911.374	3275
911.489	3253
911.604	3211
911.718	3070
911.833	3138
911.947	3036
912.062	2979
912.176	3154
912.291	3192
912.405	3203
912.519	3439
912.633	3435
912.748	3344
912.862	3283
912.976	3165
913.09	3051
913.204	3188
913.318	3214
913.431	3313
913.545	3344
913.659	3420
913.772	3310
913.886	3249
914	3199
914.113	3348
914.226	3420
914.34	3367
914.453	3222
914.566	3431
914.68	3272
914.793	3332
914.906	3127
915.019	3108
915.132	3043
915.245	3165
915.358	3184
915.47	3233
915.583	3256
915.696	3279
915.809	3431
915.921	3420
916.034	3245
916.146	3241
916.259	3253
916.371	3401
916.483	3355
916.595	3245
916.708	3287
916.82	3313
916.932	3310
917.044	3344
917.156	3359
917.268	3256
917.38	3283
917.491	3287
917.603	3382
917.715	3450
917.826	3469
917.938	3367
918.049	3233
918.161	3458
918.272	3580
918.384	3549
918.495	3462
918.606	3374
918.717	3264
918.828	3386
918.939	3386
919.05	3291
919.161	3378
919.272	3203
919.383	3268
919.494	3523
919.604	3675
919.715	3428
919.826	3378
919.936	3469
920.047	3652
920.157	3561
920.267	3766
920.378	3610
920.488	3572
920.598	3789
920.708	3934
920.818	3804
920.928	3827
921.038	4021
921.148	3979
921.258	3648
921.368	3648
921.477	3542
921.587	3576
921.697	3435
921.806	3633
921.916	3526
922.025	3348
922.134	3363
922.244	3306
922.353	3454
922.462	3279
922.571	3268
922.68	3089
922.789	3062
922.898	3127
923.007	3070
923.116	3245
923.224	3188
923.333	3176
923.442	3066
923.55	3077
923.659	3119
923.767	3195
923.876	3108
923.984	3233
924.092	3119
924.201	3180
924.309	3256
924.417	3230
924.525	3211
924.633	3226
924.741	4188
924.849	3074
924.956	3241
925.064	3089
925.172	3043
925.279	3127
925.387	3207
925.494	3241
925.602	3340
925.709	3317
925.816	3161
925.924	3272
926.031	3401
926.138	3329
926.245	3367
926.352	3249
926.459	3435
926.566	3496
926.673	3340
926.779	3230
926.886	3253
926.993	3161
927.099	3123
927.206	3150
927.312	3097
927.419	3203
927.525	3214
927.631	3287
927.737	3169
927.843	3135
927.95	3001
928.056	3135
928.162	3165
928.267	3230
928.373	3732
928.479	3310
928.585	3032
928.69	3203
928.796	3230
928.901	3173
929.007	3047
929.112	3207
929.218	3154
929.323	3131
929.428	3131
929.533	3310
929.638	3119
929.743	3157
929.848	3226
929.953	3207
930.058	3112
930.163	2990
930.267	3020
930.372	3245
930.477	3047
930.581	3313
930.685	3161
930.79	3039
930.894	3104
930.998	3081
931.103	3272
931.207	2963
931.311	3005
931.415	2899
931.519	2766
931.623	2781
