Data from test_V78500241_1145.txt Node
Date: Fri Mar 25 16:23:08 CST 2022
User: usil
Spectrometer: V785-0024
Trigger mode: 0
Integration Time (sec): 4.000000E-1
Scans to average: 1
Nonlinearity correction enabled: false
Boxcar width: 0
Storing dark spectrum: false
XAxis mode: Wavelengths
Number of Pixels in Spectrum: 1024
>>>>>Begin Spectral Data<<<<<
801.071	2895
801.214	2918
801.356	2845
801.499	2902
801.641	2861
801.783	2906
801.926	3066
802.068	2979
802.211	2986
802.353	3001
802.496	2929
802.638	2982
802.78	3020
802.923	3081
803.065	3005
803.208	2887
803.35	2941
803.492	2948
803.635	2929
803.777	2758
803.919	2838
804.061	3165
804.204	2922
804.346	2918
804.488	2811
804.63	2998
804.773	2823
804.915	2880
805.057	3028
805.199	2922
805.341	2979
805.483	3032
805.626	2998
805.768	2967
805.91	3093
806.052	3093
806.194	3051
806.336	3218
806.478	3020
806.62	2944
806.762	2982
806.904	3028
807.046	3127
807.188	2971
807.33	2937
807.472	2944
807.614	2872
807.756	2986
807.898	2891
808.04	2891
808.182	2990
808.324	2933
808.465	2857
808.607	2864
808.749	2804
808.891	2849
809.033	2994
809.174	2956
809.316	2918
809.458	2910
809.6	2743
809.741	2769
809.883	2746
810.025	2842
810.166	2842
810.308	2819
810.45	2883
810.591	2746
810.733	2735
810.875	2845
811.016	2788
811.158	2750
811.299	2826
811.441	2944
811.582	2910
811.724	2823
811.865	2823
812.007	2929
812.148	2868
812.29	2876
812.431	2899
812.573	2895
812.714	2967
812.855	3047
812.997	3055
813.138	3104
813.279	3009
813.421	2925
813.562	2948
813.703	2849
813.845	2902
813.986	2762
814.127	2693
814.268	2815
814.41	2845
814.551	2823
814.692	2864
814.833	2807
814.974	2895
815.115	2937
815.256	2842
815.397	2807
815.539	2868
815.68	2739
815.821	2804
815.962	2918
816.103	2941
816.244	2880
816.385	2853
816.526	2967
816.666	2895
816.807	2739
816.948	2914
817.089	2918
817.23	2849
817.371	2773
817.512	2807
817.653	2834
817.793	2796
817.934	2880
818.075	2937
818.216	2979
818.356	3043
818.497	2849
818.638	2781
818.778	2769
818.919	2788
819.06	2788
819.2	2872
819.341	2857
819.481	2830
819.622	2902
819.762	3112
819.903	3032
820.043	2933
820.184	2910
820.324	2902
820.465	2998
820.605	2994
820.746	3001
820.886	2929
821.026	3119
821.167	3157
821.307	3260
821.447	3310
821.588	3226
821.728	3192
821.868	3222
822.008	3074
822.149	3211
822.289	3226
822.429	3097
822.569	3104
822.709	3180
822.849	2998
822.99	3077
823.13	3184
823.27	3199
823.41	3097
823.55	3100
823.69	3138
823.83	3180
823.97	3100
824.11	3024
824.25	2990
824.389	3058
824.529	3135
824.669	3070
824.809	3176
824.949	3230
825.089	3203
825.228	3192
825.368	3024
825.508	2948
825.648	2941
825.787	3009
825.927	3036
826.067	2960
826.206	2960
826.346	3032
826.485	3104
826.625	3097
826.765	3272
826.904	3233
827.044	3005
827.183	2933
827.323	2830
827.462	2990
827.601	2910
827.741	2906
827.88	2952
828.02	2849
828.159	2967
828.298	3005
828.437	3127
828.577	2994
828.716	3264
828.855	3100
828.994	2842
829.134	2872
829.273	2937
829.412	2895
829.551	2883
829.69	2872
829.829	2975
829.968	3100
830.107	2990
830.246	3024
830.385	2910
830.524	2834
830.663	2811
830.802	2743
830.941	2682
831.08	2697
831.219	2743
831.357	2754
831.496	2941
831.635	2712
831.774	2621
831.913	2648
832.051	2541
832.19	2549
832.329	2659
832.467	2507
832.606	2457
832.744	2560
832.883	2571
833.022	2579
833.16	2636
833.299	2674
833.437	2693
833.576	2693
833.714	2663
833.852	2716
833.991	2697
834.129	2826
834.267	2838
834.406	2766
834.544	2838
834.682	2876
834.821	2876
834.959	3070
835.097	2861
835.235	3081
835.373	2967
835.511	2963
835.65	2960
835.788	2933
835.926	2849
836.064	2819
836.202	2853
836.34	3116
836.478	3108
836.615	3062
836.753	3108
836.891	3180
837.029	3157
837.167	3131
837.305	3062
837.443	3017
837.58	2937
837.718	3138
837.856	3020
837.993	3028
838.131	3116
838.269	3112
838.406	3108
838.544	3043
838.681	2948
838.819	2925
838.956	2785
839.094	2834
839.231	2929
839.369	3001
839.506	3340
839.643	3188
839.781	3017
839.918	2944
840.055	3055
840.193	3036
840.33	3058
840.467	3077
840.604	3127
840.742	3389
840.879	3058
841.016	3028
841.153	3093
841.29	3359
841.427	3298
841.564	3245
841.701	3291
841.838	3207
841.975	3184
842.112	3211
842.249	3112
842.385	2986
842.522	3306
842.659	3081
842.796	3047
842.933	3089
843.069	2994
843.206	3032
843.343	3127
843.479	3112
843.616	3142
843.752	2880
843.889	2842
844.025	3074
844.162	2834
844.298	3089
844.435	2914
844.571	2925
844.708	3058
844.844	3146
844.98	3237
845.117	3180
845.253	3024
845.389	2971
845.525	3070
845.661	3093
845.798	3036
845.934	3142
846.07	3013
846.206	3218
846.342	3310
846.478	3218
846.614	3047
846.75	3017
846.886	3009
847.022	3226
847.158	3066
847.294	3233
847.429	3218
847.565	3230
847.701	3481
847.837	3028
847.972	3005
848.108	3138
848.244	3173
848.379	2982
848.515	2944
848.65	2960
848.786	2979
848.921	2979
849.057	3116
849.192	3104
849.328	3047
849.463	3081
849.598	3032
849.734	3036
849.869	2971
850.004	2861
850.14	2960
850.275	2910
850.41	2823
850.545	2876
850.68	2922
850.815	2960
850.95	2952
851.085	3157
851.22	3112
851.355	3032
851.49	2990
851.625	2986
851.76	2986
851.895	2891
852.03	2937
852.165	3039
852.299	3131
852.434	3207
852.569	3100
852.703	3135
852.838	3218
852.973	3329
853.107	3306
853.242	3138
853.376	3081
853.511	2960
853.645	3051
853.78	3195
853.914	3085
854.048	3097
854.183	3062
854.317	3150
854.451	3260
854.585	3112
854.72	3062
854.854	3195
854.988	2998
855.122	3058
855.256	2944
855.39	3085
855.524	3214
855.658	3192
855.792	3104
855.926	3192
856.06	3230
856.194	3249
856.327	3154
856.461	3058
856.595	3070
856.729	3036
856.862	3180
856.996	3165
857.13	3169
857.263	3195
857.397	3249
857.53	3081
857.664	3173
857.797	3275
857.931	3245
858.064	3157
858.197	3218
858.331	3108
858.464	3100
858.597	3001
858.731	3085
858.864	3127
858.997	3085
859.13	3157
859.263	3142
859.396	3165
859.529	3058
859.662	3032
859.795	3036
859.928	3142
860.061	3264
860.194	3294
860.327	3150
860.46	3100
860.592	3275
860.725	3237
860.858	3256
860.99	3112
861.123	3013
861.256	3036
861.388	3154
861.521	3747
861.653	2994
861.786	2960
861.918	3001
862.05	3055
862.183	3081
862.315	3127
862.447	3184
862.58	3074
862.712	2971
862.844	2872
862.976	3001
863.108	2986
863.24	3321
863.372	2849
863.504	2944
863.636	2918
863.768	3032
863.9	2986
864.032	2880
864.164	2925
864.296	3005
864.428	3100
864.559	3070
864.691	3085
864.823	3066
864.954	3039
865.086	3039
865.217	2952
865.349	2925
865.48	2975
865.612	3032
865.743	3192
865.875	2952
866.006	2918
866.137	2986
866.269	2925
866.4	2941
866.531	2944
866.662	2861
866.793	2891
866.924	2891
867.055	2967
867.186	2906
867.317	2880
867.448	2853
867.579	2845
867.71	2857
867.841	2788
867.972	2902
868.103	2895
868.233	2845
868.364	2861
868.495	2929
868.625	3058
868.756	3142
868.886	2971
869.017	3024
869.147	3161
869.278	3138
869.408	3039
869.539	3036
869.669	3077
869.799	3009
869.929	3123
870.06	3051
870.19	3313
870.32	3283
870.45	3256
870.58	3348
870.71	3450
870.84	3424
870.97	3291
871.1	3230
871.23	3473
871.36	3450
871.489	3321
871.619	3367
871.749	3416
871.879	3431
872.008	3450
872.138	3363
872.267	3253
872.397	3127
872.526	3085
872.656	3013
872.785	3062
872.915	3245
873.044	3313
873.173	3195
873.303	3226
873.432	3233
873.561	3184
873.69	3127
873.819	3135
873.948	3180
874.077	3104
874.206	2994
874.335	3066
874.464	3241
874.593	3332
874.722	3230
874.851	3340
874.979	3351
875.108	3336
875.237	3188
875.365	3127
875.494	3138
875.623	3233
875.751	3077
875.88	3100
876.008	3173
876.136	3241
876.265	3344
876.393	3481
876.521	3409
876.65	3397
876.778	3279
876.906	3214
877.034	3188
877.162	3226
877.29	3157
877.418	3230
877.546	3230
877.674	3233
877.802	3264
877.93	3184
878.058	3116
878.185	3104
878.313	3195
878.441	3207
878.568	3051
878.696	3112
878.824	3237
878.951	3313
879.079	3424
879.206	3614
879.333	3424
879.461	3336
879.588	3344
879.715	3458
879.842	3545
879.97	3382
880.097	3127
880.224	3112
880.351	3180
880.478	3214
880.605	3176
880.732	3184
880.859	3469
880.986	3283
881.112	3329
881.239	3218
881.366	3116
881.493	2998
881.619	3024
881.746	3036
881.872	3055
881.999	3089
882.125	3112
882.252	3249
882.378	3287
882.505	3420
882.631	3283
882.757	3142
882.883	3195
883.01	3207
883.136	3203
883.262	3081
883.388	3093
883.514	3287
883.64	3386
883.766	3264
883.892	3131
884.018	3226
884.143	3405
884.269	3534
884.395	3237
884.52	3150
884.646	3173
884.772	3119
884.897	3085
885.023	3203
885.148	3310
885.274	3386
885.399	3370
885.524	3241
885.65	3233
885.775	3329
885.9	3245
886.025	3439
886.15	3344
886.275	3275
886.4	3214
886.525	3325
886.65	3226
886.775	3256
886.9	3477
887.025	3648
887.149	3389
887.274	3249
887.399	3184
887.523	3188
887.648	3135
887.773	3188
887.897	3359
888.021	3420
888.146	3279
888.27	3389
888.395	3496
888.519	3443
888.643	3424
888.767	3428
888.891	3310
889.015	3222
889.139	3260
889.263	3237
889.387	3336
889.511	3469
889.635	3466
889.759	3275
889.883	3294
890.006	3329
890.13	3496
890.254	3256
890.377	3332
890.501	3180
890.624	3146
890.748	3279
890.871	3142
890.995	3112
891.118	3081
891.241	3199
891.364	3222
891.488	3294
891.611	3146
891.734	3195
891.857	3256
891.98	3237
892.103	3306
892.226	3241
892.349	3245
892.471	3066
892.594	3192
892.717	3306
892.839	3230
892.962	3291
893.085	3332
893.207	3287
893.33	3123
893.452	3161
893.575	3321
893.697	3233
893.819	3462
893.941	3500
894.064	3447
894.186	3245
894.308	3268
894.43	3428
894.552	3511
894.674	3466
894.796	3245
894.918	3264
895.04	3298
895.161	3416
895.283	3405
895.405	3272
895.526	3367
895.648	3401
895.769	3393
895.891	3485
896.012	3466
896.134	3435
896.255	3454
896.376	3382
896.498	3363
896.619	3439
896.74	3370
896.861	3447
896.982	3720
897.103	3827
897.224	3644
897.345	3534
897.466	3393
897.587	3511
897.708	3656
897.828	3542
897.949	3462
898.07	3367
898.19	3370
898.311	3595
898.431	3443
898.552	3523
898.672	3591
898.792	3568
898.913	3553
899.033	3477
899.153	3287
899.273	3260
899.393	3329
899.513	3336
899.633	3336
899.753	3351
899.873	3401
899.993	3409
900.113	3374
900.232	3435
900.352	3412
900.472	3313
900.591	3237
900.711	3336
900.83	3306
900.95	3485
901.069	3542
901.189	3370
901.308	3188
901.427	3184
901.546	3241
901.665	3321
901.784	3397
901.904	3233
902.023	3233
902.141	3085
902.26	3039
902.379	3192
902.498	3127
902.617	3116
902.735	3245
902.854	3237
902.973	3256
903.091	3089
903.21	3108
903.328	3176
903.446	3146
903.565	3161
903.683	3214
903.801	3176
903.919	3310
904.038	3306
904.156	3230
904.274	3329
904.392	3272
904.51	3348
904.627	3367
904.745	3485
904.863	3568
904.981	3317
905.098	3237
905.216	3287
905.334	3363
905.451	3329
905.569	3332
905.686	3458
905.803	3492
905.921	3313
906.038	3450
906.155	3382
906.272	3294
906.389	3348
906.506	3264
906.623	3291
906.74	3275
906.857	3203
906.974	3340
907.091	3488
907.208	3584
907.324	3466
907.441	3428
907.557	3222
907.674	3241
907.79	3249
907.907	3344
908.023	3439
908.139	3409
908.256	3340
908.372	3386
908.488	3359
908.604	3272
908.72	3245
908.836	3325
908.952	3298
909.068	3344
909.184	3500
909.3	3382
909.415	3507
909.531	3530
909.647	3279
909.762	3317
909.878	3279
909.993	3359
910.108	3355
910.224	3378
910.339	3447
910.454	3359
910.57	3344
910.685	3291
910.8	3599
910.915	3557
911.03	3458
911.145	3298
911.259	3298
911.374	3332
911.489	3268
911.604	3256
911.718	3138
911.833	3169
911.947	3077
912.062	2971
912.176	3195
912.291	3226
912.405	3211
912.519	3420
912.633	3485
912.748	3389
912.862	3279
912.976	3199
913.09	3100
913.204	3165
913.318	3237
913.431	3355
913.545	3363
913.659	3473
913.772	3370
913.886	3272
914	3245
914.113	3382
914.226	3466
914.34	3386
914.453	3207
914.566	3454
914.68	3306
914.793	3325
914.906	3173
915.019	3138
915.132	3108
915.245	3218
915.358	3207
915.47	3241
915.583	3294
915.696	3283
915.809	3450
915.921	3454
916.034	3287
916.146	3332
916.259	3272
916.371	3416
916.483	3420
916.595	3310
916.708	3370
916.82	3378
916.932	3378
917.044	3367
917.156	3382
917.268	3283
917.38	3332
917.491	3321
917.603	3389
917.715	3458
917.826	3504
917.938	3393
918.049	3283
918.161	3454
918.272	3622
918.384	3568
918.495	3538
918.606	3344
918.717	3313
918.828	3416
918.939	3466
919.05	3367
919.161	3382
919.272	3199
919.383	3325
919.494	3542
919.604	3705
919.715	3504
919.826	3443
919.936	3511
920.047	3625
920.157	3584
920.267	3793
920.378	3625
920.488	3629
920.598	3823
920.708	3964
920.818	3835
920.928	3880
921.038	4032
921.148	3956
921.258	3701
921.368	3690
921.477	3641
921.587	3561
921.697	3481
921.806	3682
921.916	3549
922.025	3374
922.134	3378
922.244	3321
922.353	3443
922.462	3298
922.571	3268
922.68	3123
922.789	3112
922.898	3184
923.007	3161
923.116	3283
923.224	3176
923.333	3192
923.442	3100
923.55	3104
923.659	3150
923.767	3253
923.876	3169
923.984	3241
924.092	3165
924.201	3207
924.309	3245
924.417	3260
924.525	3264
924.633	3245
924.741	4036
924.849	3032
924.956	3287
925.064	3146
925.172	3055
925.279	3119
925.387	3207
925.494	3272
925.602	3382
925.709	3298
925.816	3161
925.924	3264
926.031	3397
926.138	3348
926.245	3412
926.352	3268
926.459	3420
926.566	3485
926.673	3359
926.779	3245
926.886	3249
926.993	3188
927.099	3138
927.206	3165
927.312	3165
927.419	3264
927.525	3241
927.631	3298
927.737	3154
927.843	3112
927.95	3043
928.056	3150
928.162	3180
928.267	3249
928.373	3880
928.479	3344
928.585	3058
928.69	3222
928.796	3298
928.901	3199
929.007	3047
929.112	3222
929.218	3218
929.323	3161
929.428	3173
929.533	3332
929.638	3142
929.743	3199
929.848	3268
929.953	3222
930.058	3192
930.163	3039
930.267	3100
930.372	3233
930.477	3089
930.581	3329
930.685	3226
930.79	3112
930.894	3146
930.998	3123
931.103	3306
931.207	2982
931.311	2975
931.415	2944
931.519	2788
931.623	2811
