Data from test_V78500241_1405.txt Node
Date: Fri Mar 25 16:24:56 CST 2022
User: usil
Spectrometer: V785-0024
Trigger mode: 0
Integration Time (sec): 4.000000E-1
Scans to average: 1
Nonlinearity correction enabled: false
Boxcar width: 0
Storing dark spectrum: false
XAxis mode: Wavelengths
Number of Pixels in Spectrum: 1024
>>>>>Begin Spectral Data<<<<<
801.071	2929
801.214	2922
801.356	2857
801.499	2883
801.641	2891
801.783	2948
801.926	3043
802.068	2994
802.211	3001
802.353	3058
802.496	2986
802.638	3013
802.78	3036
802.923	3093
803.065	3043
803.208	2918
803.35	2910
803.492	2944
803.635	2914
803.777	2750
803.919	2883
804.061	3188
804.204	2956
804.346	2922
804.488	2842
804.63	2967
804.773	2872
804.915	2895
805.057	3077
805.199	2925
805.341	2933
805.483	3032
805.626	3017
805.768	2994
805.91	3100
806.052	3104
806.194	3036
806.336	3226
806.478	3032
806.62	2975
806.762	2963
806.904	3062
807.046	3165
807.188	2979
807.33	2918
807.472	3009
807.614	2887
807.756	2979
807.898	2948
808.04	2929
808.182	2990
808.324	2948
808.465	2876
808.607	2910
808.749	2819
808.891	2842
809.033	3009
809.174	2952
809.316	2895
809.458	2876
809.6	2762
809.741	2739
809.883	2777
810.025	2857
810.166	2861
810.308	2872
810.45	2845
810.591	2826
810.733	2788
810.875	2864
811.016	2769
811.158	2754
811.299	2819
811.441	2948
811.582	2937
811.724	2853
811.865	2838
812.007	2922
812.148	2868
812.29	2876
812.431	2876
812.573	2952
812.714	2967
812.855	3058
812.997	3062
813.138	3131
813.279	3001
813.421	3005
813.562	2975
813.703	2864
813.845	2933
813.986	2777
814.127	2750
814.268	2788
814.41	2872
814.551	2845
814.692	2876
814.833	2826
814.974	2883
815.115	2944
815.256	2861
815.397	2800
815.539	2883
815.68	2785
815.821	2807
815.962	2948
816.103	2933
816.244	2899
816.385	2895
816.526	2998
816.666	2914
816.807	2769
816.948	2906
817.089	2929
817.23	2887
817.371	2788
817.512	2804
817.653	2853
817.793	2838
817.934	2906
818.075	2952
818.216	2971
818.356	3005
818.497	2899
818.638	2781
818.778	2826
818.919	2811
819.06	2781
819.2	2853
819.341	2864
819.481	2792
819.622	2937
819.762	3074
819.903	3024
820.043	2918
820.184	2925
820.324	2914
820.465	3058
820.605	3013
820.746	3032
820.886	2914
821.026	3104
821.167	3161
821.307	3268
821.447	3287
821.588	3230
821.728	3218
821.868	3195
822.008	3051
822.149	3173
822.289	3260
822.429	3097
822.569	3123
822.709	3184
822.849	3028
822.99	3112
823.13	3161
823.27	3192
823.41	3119
823.55	3169
823.69	3165
823.83	3230
823.97	3104
824.11	3005
824.25	3013
824.389	3055
824.529	3131
824.669	3066
824.809	3214
824.949	3264
825.089	3230
825.228	3154
825.368	2979
825.508	2967
825.648	2960
825.787	2994
825.927	3051
826.067	2960
826.206	2948
826.346	3020
826.485	3093
826.625	3112
826.765	3275
826.904	3211
827.044	3005
827.183	2956
827.323	2891
827.462	2971
827.601	2910
827.741	2899
827.88	2967
828.02	2883
828.159	2986
828.298	3058
828.437	3085
828.577	3039
828.716	3230
828.855	3039
828.994	2933
829.134	2876
829.273	2925
829.412	2918
829.551	2857
829.69	2861
829.829	2979
829.968	3123
830.107	2998
830.246	3032
830.385	2906
830.524	2910
830.663	2845
830.802	2731
830.941	2689
831.08	2655
831.219	2739
831.357	2792
831.496	2941
831.635	2716
831.774	2682
831.913	2670
832.051	2541
832.19	2530
832.329	2659
832.467	2564
832.606	2476
832.744	2587
832.883	2545
833.022	2552
833.16	2667
833.299	2689
833.437	2731
833.576	2708
833.714	2758
833.852	2758
833.991	2762
834.129	2830
834.267	2796
834.406	2785
834.544	2876
834.682	2887
834.821	2864
834.959	3066
835.097	2906
835.235	3055
835.373	2971
835.511	2990
835.65	2941
835.788	2971
835.926	2815
836.064	2796
836.202	2819
836.34	3077
836.478	3150
836.615	3036
836.753	3131
836.891	3188
837.029	3150
837.167	3127
837.305	3077
837.443	3043
837.58	2948
837.718	3097
837.856	3051
837.993	3032
838.131	3154
838.269	3097
838.406	3085
838.544	3074
838.681	2910
838.819	2910
838.956	2792
839.094	2834
839.231	2899
839.369	3020
839.506	3363
839.643	3222
839.781	3005
839.918	2929
840.055	3043
840.193	3032
840.33	3028
840.467	3097
840.604	3135
840.742	3389
840.879	2994
841.016	3028
841.153	3108
841.29	3348
841.427	3367
841.564	3268
841.701	3321
841.838	3199
841.975	3154
842.112	3207
842.249	3047
842.385	3051
842.522	3237
842.659	3093
842.796	3032
842.933	3047
843.069	3058
843.206	3024
843.343	3154
843.479	3062
843.616	3131
843.752	2861
843.889	2895
844.025	3089
844.162	2864
844.298	3077
844.435	2952
844.571	2891
844.708	3043
844.844	3169
844.98	3214
845.117	3180
845.253	3081
845.389	2990
845.525	3089
845.661	3089
845.798	2979
845.934	3146
846.07	3028
846.206	3253
846.342	3325
846.478	3211
846.614	3047
846.75	3089
846.886	3032
847.022	3272
847.158	3161
847.294	3222
847.429	3241
847.565	3180
847.701	3481
847.837	3036
847.972	3036
848.108	3157
848.244	3123
848.379	3005
848.515	2902
848.65	2952
848.786	2925
848.921	3028
849.057	3097
849.192	3165
849.328	3062
849.463	3119
849.598	3043
849.734	3032
849.869	2971
850.004	2899
850.14	2982
850.275	2925
850.41	2830
850.545	2861
850.68	2910
850.815	2952
850.95	2967
851.085	3218
851.22	3135
851.355	3036
851.49	2963
851.625	3009
851.76	3051
851.895	2906
852.03	2902
852.165	3036
852.299	3119
852.434	3211
852.569	3123
852.703	3154
852.838	3275
852.973	3329
853.107	3310
853.242	3165
853.376	3081
853.511	2944
853.645	3032
853.78	3241
853.914	3104
854.048	3100
854.183	3058
854.317	3127
854.451	3260
854.585	3176
854.72	3093
854.854	3169
854.988	3051
855.122	3058
855.256	2982
855.39	3089
855.524	3233
855.658	3173
855.792	3161
855.926	3192
856.06	3211
856.194	3233
856.327	3100
856.461	3036
856.595	3077
856.729	3062
856.862	3154
856.996	3135
857.13	3195
857.263	3256
857.397	3272
857.53	3123
857.664	3165
857.797	3230
857.931	3256
858.064	3161
858.197	3211
858.331	3116
858.464	3093
858.597	3020
858.731	3116
858.864	3116
858.997	3058
859.13	3150
859.263	3154
859.396	3214
859.529	3077
859.662	3062
859.795	3047
859.928	3150
860.061	3253
860.194	3260
860.327	3146
860.46	3100
860.592	3226
860.725	3260
860.858	3245
860.99	3070
861.123	3081
861.256	3085
861.388	3108
861.521	3759
861.653	2990
861.786	2967
861.918	2994
862.05	3005
862.183	3036
862.315	3173
862.447	3207
862.58	3100
862.712	2925
862.844	2864
862.976	2998
863.108	2994
863.24	3329
863.372	2880
863.504	2948
863.636	2918
863.768	3024
863.9	2967
864.032	2883
864.164	2979
864.296	3020
864.428	3062
864.559	3081
864.691	3062
864.823	3081
864.954	2990
865.086	3017
865.217	2948
865.349	2929
865.48	2998
865.612	3028
865.743	3165
865.875	2948
866.006	2952
866.137	2952
866.269	2956
866.4	2902
866.531	2929
866.662	2883
866.793	2918
866.924	2906
867.055	2975
867.186	2883
867.317	2902
867.448	2853
867.579	2838
867.71	2819
867.841	2823
867.972	2895
868.103	2880
868.233	2857
868.364	2872
868.495	2914
868.625	3055
868.756	3184
868.886	2956
869.017	3032
869.147	3188
869.278	3131
869.408	3024
869.539	3058
869.669	3089
869.799	3047
869.929	3142
870.06	3135
870.19	3332
870.32	3287
870.45	3302
870.58	3382
870.71	3469
870.84	3435
870.97	3275
871.1	3264
871.23	3469
871.36	3458
871.489	3344
871.619	3416
871.749	3401
871.879	3416
872.008	3473
872.138	3317
872.267	3272
872.397	3157
872.526	3097
872.656	3032
872.785	3116
872.915	3230
873.044	3344
873.173	3253
873.303	3256
873.432	3233
873.561	3214
873.69	3157
873.819	3138
873.948	3184
874.077	3104
874.206	3055
874.335	3112
874.464	3207
874.593	3363
874.722	3169
874.851	3409
874.979	3401
875.108	3291
875.237	3226
875.365	3119
875.494	3142
875.623	3275
875.751	3077
875.88	3093
876.008	3138
876.136	3241
876.265	3355
876.393	3538
876.521	3424
876.65	3367
876.778	3283
876.906	3222
877.034	3180
877.162	3222
877.29	3150
877.418	3245
877.546	3230
877.674	3272
877.802	3230
877.93	3237
878.058	3169
878.185	3116
878.313	3192
878.441	3222
878.568	3097
878.696	3146
878.824	3203
878.951	3332
879.079	3488
879.206	3641
879.333	3443
879.461	3272
879.588	3332
879.715	3492
879.842	3599
879.97	3397
880.097	3188
880.224	3131
880.351	3135
880.478	3188
880.605	3214
880.732	3176
880.859	3473
880.986	3329
881.112	3294
881.239	3199
881.366	3074
881.493	3058
881.619	3028
881.746	3089
881.872	3108
881.999	3089
882.125	3154
882.252	3211
882.378	3275
882.505	3412
882.631	3291
882.757	3127
882.883	3192
883.01	3222
883.136	3176
883.262	3104
883.388	3089
883.514	3268
883.64	3348
883.766	3302
883.892	3195
884.018	3184
884.143	3443
884.269	3523
884.395	3245
884.52	3161
884.646	3199
884.772	3089
884.897	3074
885.023	3188
885.148	3348
885.274	3409
885.399	3351
885.524	3275
885.65	3222
885.775	3329
885.9	3291
886.025	3431
886.15	3317
886.275	3298
886.4	3211
886.525	3313
886.65	3272
886.775	3268
886.9	3488
887.025	3633
887.149	3420
887.274	3245
887.399	3154
887.523	3199
887.648	3154
887.773	3226
887.897	3389
888.021	3382
888.146	3294
888.27	3450
888.395	3519
888.519	3416
888.643	3428
888.767	3454
888.891	3302
889.015	3226
889.139	3272
889.263	3237
889.387	3370
889.511	3496
889.635	3435
889.759	3275
889.883	3302
890.006	3393
890.13	3488
890.254	3264
890.377	3321
890.501	3180
890.624	3211
890.748	3260
890.871	3165
890.995	3119
891.118	3085
891.241	3173
891.364	3207
891.488	3313
891.611	3199
891.734	3241
891.857	3279
891.98	3222
892.103	3317
892.226	3272
892.349	3214
892.471	3116
892.594	3222
892.717	3344
892.839	3214
892.962	3310
893.085	3340
893.207	3275
893.33	3157
893.452	3218
893.575	3336
893.697	3214
893.819	3488
893.941	3469
894.064	3473
894.186	3268
894.308	3272
894.43	3462
894.552	3545
894.674	3477
894.796	3256
894.918	3310
895.04	3275
895.161	3443
895.283	3367
895.405	3291
895.526	3382
895.648	3431
895.769	3450
895.891	3481
896.012	3477
896.134	3473
896.255	3382
896.376	3382
896.498	3351
896.619	3450
896.74	3340
896.861	3363
896.982	3644
897.103	3846
897.224	3614
897.345	3492
897.466	3431
897.587	3477
897.708	3633
897.828	3526
897.949	3424
898.07	3279
898.19	3435
898.311	3572
898.431	3420
898.552	3534
898.672	3595
898.792	3580
898.913	3473
899.033	3374
899.153	3241
899.273	3207
899.393	3291
899.513	3310
899.633	3287
899.753	3317
899.873	3321
899.993	3401
900.113	3348
900.232	3386
900.352	3359
900.472	3279
900.591	3237
900.711	3283
900.83	3230
900.95	3412
901.069	3504
901.189	3332
901.308	3203
901.427	3100
901.546	3203
901.665	3287
901.784	3340
901.904	3188
902.023	3100
902.141	3017
902.26	2967
902.379	3116
902.498	3074
902.617	3062
902.735	3195
902.854	3233
902.973	3184
903.091	3055
903.21	3058
903.328	3116
903.446	3108
903.565	3138
903.683	3195
903.801	3108
903.919	3233
904.038	3291
904.156	3157
904.274	3298
904.392	3256
904.51	3298
904.627	3351
904.745	3439
904.863	3500
904.981	3245
905.098	3173
905.216	3245
905.334	3294
905.451	3294
905.569	3329
905.686	3428
905.803	3424
905.921	3256
906.038	3428
906.155	3359
906.272	3294
906.389	3348
906.506	3203
906.623	3249
906.74	3264
906.857	3192
906.974	3245
907.091	3447
907.208	3534
907.324	3477
907.441	3397
907.557	3214
907.674	3203
907.79	3241
907.907	3268
908.023	3370
908.139	3374
908.256	3332
908.372	3355
908.488	3374
908.604	3264
908.72	3230
908.836	3230
908.952	3272
909.068	3348
909.184	3466
909.3	3416
909.415	3485
909.531	3458
909.647	3275
909.762	3253
909.878	3279
909.993	3378
910.108	3310
910.224	3336
910.339	3412
910.454	3310
910.57	3287
910.685	3253
910.8	3622
910.915	3538
911.03	3374
911.145	3249
911.259	3237
911.374	3275
911.489	3233
911.604	3211
911.718	3119
911.833	3157
911.947	3017
912.062	3001
912.176	3176
912.291	3211
912.405	3237
912.519	3443
912.633	3477
912.748	3359
912.862	3291
912.976	3173
913.09	3089
913.204	3100
913.318	3195
913.431	3329
913.545	3359
913.659	3382
913.772	3351
913.886	3214
914	3184
914.113	3363
914.226	3382
914.34	3344
914.453	3195
914.566	3409
914.68	3268
914.793	3306
914.906	3169
915.019	3097
915.132	3043
915.245	3176
915.358	3203
915.47	3214
915.583	3283
915.696	3283
915.809	3378
915.921	3424
916.034	3268
916.146	3241
916.259	3211
916.371	3386
916.483	3355
916.595	3241
916.708	3332
916.82	3329
916.932	3313
917.044	3367
917.156	3336
917.268	3268
917.38	3317
917.491	3306
917.603	3367
917.715	3409
917.826	3420
917.938	3370
918.049	3279
918.161	3424
918.272	3557
918.384	3561
918.495	3485
918.606	3310
918.717	3279
918.828	3389
918.939	3420
919.05	3291
919.161	3340
919.272	3199
919.383	3272
919.494	3439
919.604	3656
919.715	3500
919.826	3397
919.936	3511
920.047	3568
920.157	3545
920.267	3762
920.378	3637
920.488	3580
920.598	3793
920.708	3930
920.818	3812
920.928	3880
921.038	4006
921.148	3960
921.258	3682
921.368	3644
921.477	3610
921.587	3591
921.697	3469
921.806	3618
921.916	3526
922.025	3351
922.134	3355
922.244	3321
922.353	3454
922.462	3260
922.571	3245
922.68	3100
922.789	3051
922.898	3146
923.007	3108
923.116	3226
923.224	3150
923.333	3169
923.442	3123
923.55	3081
923.659	3119
923.767	3192
923.876	3070
923.984	3241
924.092	3161
924.201	3226
924.309	3218
924.417	3260
924.525	3195
924.633	3211
924.741	4017
924.849	3081
924.956	3233
925.064	3089
925.172	3039
925.279	3097
925.387	3169
925.494	3214
925.602	3340
925.709	3306
925.816	3157
925.924	3306
926.031	3378
926.138	3291
926.245	3351
926.352	3230
926.459	3409
926.566	3481
926.673	3313
926.779	3272
926.886	3264
926.993	3157
927.099	3138
927.206	3089
927.312	3123
927.419	3203
927.525	3214
927.631	3287
927.737	3184
927.843	3131
927.95	3028
928.056	3142
928.162	3165
928.267	3272
928.373	3888
928.479	3302
928.585	3066
928.69	3184
928.796	3245
928.901	3192
929.007	3039
929.112	3203
929.218	3222
929.323	3142
929.428	3146
929.533	3291
929.638	3108
929.743	3150
929.848	3253
929.953	3233
930.058	3104
930.163	3009
930.267	3020
930.372	3207
930.477	3043
930.581	3310
930.685	3173
930.79	3020
930.894	3100
930.998	3081
931.103	3306
931.207	2952
931.311	2929
931.415	2899
931.519	2788
931.623	2815
