Data from test_V78500241_1738.txt Node
Date: Fri Mar 25 16:27:14 CST 2022
User: usil
Spectrometer: V785-0024
Trigger mode: 0
Integration Time (sec): 4.000000E-1
Scans to average: 1
Nonlinearity correction enabled: false
Boxcar width: 0
Storing dark spectrum: false
XAxis mode: Wavelengths
Number of Pixels in Spectrum: 1024
>>>>>Begin Spectral Data<<<<<
801.071	2914
801.214	2986
801.356	2906
801.499	2906
801.641	2891
801.783	2948
801.926	3055
802.068	2994
802.211	3001
802.353	3051
802.496	2944
802.638	2990
802.78	3043
802.923	3077
803.065	3009
803.208	2891
803.35	2887
803.492	2937
803.635	2944
803.777	2781
803.919	2830
804.061	3211
804.204	2967
804.346	2899
804.488	2872
804.63	2971
804.773	2937
804.915	2937
805.057	3062
805.199	2956
805.341	2986
805.483	3043
805.626	3009
805.768	2971
805.91	3131
806.052	3112
806.194	3047
806.336	3264
806.478	3036
806.62	2979
806.762	2982
806.904	3058
807.046	3169
807.188	2975
807.33	2891
807.472	2933
807.614	2941
807.756	2971
807.898	2918
808.04	2880
808.182	2979
808.324	2998
808.465	2880
808.607	2872
808.749	2766
808.891	2834
809.033	2979
809.174	2986
809.316	2910
809.458	2883
809.6	2788
809.741	2781
809.883	2739
810.025	2838
810.166	2830
810.308	2864
810.45	2864
810.591	2773
810.733	2735
810.875	2868
811.016	2754
811.158	2788
811.299	2804
811.441	2941
811.582	2906
811.724	2807
811.865	2811
812.007	2872
812.148	2883
812.29	2842
812.431	2883
812.573	2963
812.714	2952
812.855	2990
812.997	3051
813.138	3142
813.279	3005
813.421	2967
813.562	2963
813.703	2887
813.845	2899
813.986	2754
814.127	2697
814.268	2819
814.41	2807
814.551	2823
814.692	2887
814.833	2834
814.974	2887
815.115	2933
815.256	2834
815.397	2834
815.539	2861
815.68	2762
815.821	2788
815.962	2914
816.103	2899
816.244	2883
816.385	2868
816.526	2929
816.666	2899
816.807	2743
816.948	2918
817.089	2914
817.23	2830
817.371	2781
817.512	2781
817.653	2845
817.793	2826
817.934	2868
818.075	2944
818.216	3005
818.356	3020
818.497	2902
818.638	2811
818.778	2792
818.919	2819
819.06	2754
819.2	2868
819.341	2842
819.481	2777
819.622	2944
819.762	3089
819.903	3039
820.043	2910
820.184	2868
820.324	2918
820.465	3005
820.605	3013
820.746	3001
820.886	2944
821.026	3108
821.167	3146
821.307	3275
821.447	3283
821.588	3291
821.728	3222
821.868	3192
822.008	3070
822.149	3184
822.289	3214
822.429	3112
822.569	3089
822.709	3188
822.849	3062
822.99	3097
823.13	3173
823.27	3192
823.41	3123
823.55	3192
823.69	3165
823.83	3192
823.97	3104
824.11	3036
824.25	3036
824.389	3131
824.529	3135
824.669	3077
824.809	3222
824.949	3298
825.089	3214
825.228	3180
825.368	3020
825.508	2982
825.648	3032
825.787	3051
825.927	3066
826.067	2990
826.206	2975
826.346	3097
826.485	3127
826.625	3104
826.765	3321
826.904	3241
827.044	2986
827.183	2944
827.323	2925
827.462	3039
827.601	2944
827.741	2960
827.88	3028
828.02	2876
828.159	2994
828.298	3077
828.437	3138
828.577	3043
828.716	3291
828.855	3119
828.994	2956
829.134	2922
829.273	2971
829.412	2910
829.551	2876
829.69	2929
829.829	3024
829.968	3127
830.107	3039
830.246	3112
830.385	2925
830.524	2956
830.663	2842
830.802	2773
830.941	2705
831.08	2701
831.219	2785
831.357	2773
831.496	2990
831.635	2750
831.774	2686
831.913	2708
832.051	2587
832.19	2613
832.329	2727
832.467	2571
832.606	2503
832.744	2640
832.883	2617
833.022	2644
833.16	2708
833.299	2686
833.437	2754
833.576	2705
833.714	2766
833.852	2758
833.991	2796
834.129	2857
834.267	2880
834.406	2807
834.544	2899
834.682	2925
834.821	2895
834.959	3100
835.097	2914
835.235	3112
835.373	3043
835.511	3051
835.65	3017
835.788	3028
835.926	2864
836.064	2861
836.202	2857
836.34	3100
836.478	3165
836.615	3112
836.753	3161
836.891	3241
837.029	3184
837.167	3173
837.305	3100
837.443	3097
837.58	3009
837.718	3169
837.856	3116
837.993	3051
838.131	3184
838.269	3150
838.406	3157
838.544	3123
838.681	2979
838.819	2937
838.956	2853
839.094	2895
839.231	2990
839.369	3043
839.506	3405
839.643	3222
839.781	3024
839.918	2975
840.055	3055
840.193	3070
840.33	3089
840.467	3127
840.604	3176
840.742	3496
840.879	3104
841.016	3093
841.153	3161
841.29	3359
841.427	3378
841.564	3279
841.701	3370
841.838	3253
841.975	3188
842.112	3241
842.249	3081
842.385	3036
842.522	3264
842.659	3165
842.796	3104
842.933	3142
843.069	3066
843.206	3066
843.343	3184
843.479	3138
843.616	3165
843.752	2948
843.889	2910
844.025	3077
844.162	2933
844.298	3089
844.435	2960
844.571	2956
844.708	3093
844.844	3203
844.98	3275
845.117	3199
845.253	3066
845.389	3051
845.525	3154
845.661	3100
845.798	3032
845.934	3173
846.07	3097
846.206	3226
846.342	3344
846.478	3230
846.614	3097
846.75	3074
846.886	3055
847.022	3256
847.158	3176
847.294	3268
847.429	3279
847.565	3241
847.701	3496
847.837	3070
847.972	3036
848.108	3165
848.244	3192
848.379	3032
848.515	2941
848.65	2937
848.786	2971
848.921	3032
849.057	3108
849.192	3150
849.328	3089
849.463	3131
849.598	3135
849.734	3097
849.869	2982
850.004	2948
850.14	3020
850.275	2952
850.41	2872
850.545	2906
850.68	2929
850.815	2994
850.95	2979
851.085	3188
851.22	3116
851.355	3081
851.49	3005
851.625	3024
851.76	3051
851.895	2948
852.03	2941
852.165	3077
852.299	3150
852.434	3184
852.569	3188
852.703	3188
852.838	3279
852.973	3348
853.107	3306
853.242	3214
853.376	3051
853.511	3032
853.645	3066
853.78	3275
853.914	3116
854.048	3138
854.183	3074
854.317	3165
854.451	3340
854.585	3157
854.72	3142
854.854	3214
854.988	3070
855.122	3119
855.256	2998
855.39	3104
855.524	3344
855.658	3165
855.792	3165
855.926	3173
856.06	3241
856.194	3310
856.327	3169
856.461	3089
856.595	3081
856.729	3108
856.862	3211
856.996	3169
857.13	3222
857.263	3233
857.397	3279
857.53	3123
857.664	3226
857.797	3241
857.931	3260
858.064	3188
858.197	3214
858.331	3157
858.464	3154
858.597	3047
858.731	3161
858.864	3154
858.997	3123
859.13	3199
859.263	3199
859.396	3226
859.529	3100
859.662	3077
859.795	3085
859.928	3165
860.061	3329
860.194	3313
860.327	3131
860.46	3127
860.592	3237
860.725	3291
860.858	3287
860.99	3150
861.123	3070
861.256	3116
861.388	3188
861.521	3983
861.653	3032
861.786	3062
861.918	2990
862.05	3097
862.183	3146
862.315	3207
862.447	3207
862.58	3097
862.712	2960
862.844	2864
862.976	3024
863.108	3047
863.24	3332
863.372	2895
863.504	2952
863.636	2963
863.768	3024
863.9	3013
864.032	2986
864.164	2956
864.296	3013
864.428	3100
864.559	3142
864.691	3074
864.823	3062
864.954	3009
865.086	3070
865.217	2998
865.349	2937
865.48	2994
865.612	3070
865.743	3154
865.875	3013
866.006	2910
866.137	2967
866.269	2963
866.4	2944
866.531	2925
866.662	2895
866.793	2933
866.924	2910
867.055	2998
867.186	2960
867.317	2891
867.448	2864
867.579	2868
867.71	2849
867.841	2823
867.972	2899
868.103	2914
868.233	2887
868.364	2853
868.495	2933
868.625	3081
868.756	3173
868.886	2979
869.017	3032
869.147	3180
869.278	3161
869.408	3055
869.539	3013
869.669	3089
869.799	3062
869.929	3104
870.06	3138
870.19	3351
870.32	3344
870.45	3283
870.58	3386
870.71	3477
870.84	3481
870.97	3313
871.1	3253
871.23	3477
871.36	3504
871.489	3374
871.619	3409
871.749	3435
871.879	3416
872.008	3481
872.138	3382
872.267	3294
872.397	3142
872.526	3085
872.656	3032
872.785	3112
872.915	3237
873.044	3321
873.173	3268
873.303	3264
873.432	3256
873.561	3256
873.69	3161
873.819	3165
873.948	3169
874.077	3108
874.206	3058
874.335	3093
874.464	3218
874.593	3302
874.722	3260
874.851	3393
874.979	3363
875.108	3355
875.237	3218
875.365	3161
875.494	3195
875.623	3260
875.751	3097
875.88	3157
876.008	3173
876.136	3253
876.265	3393
876.393	3492
876.521	3412
876.65	3363
876.778	3351
876.906	3245
877.034	3218
877.162	3245
877.29	3192
877.418	3291
877.546	3279
877.674	3283
877.802	3233
877.93	3222
878.058	3176
878.185	3108
878.313	3237
878.441	3245
878.568	3074
878.696	3165
878.824	3249
878.951	3298
879.079	3473
879.206	3637
879.333	3462
879.461	3344
879.588	3359
879.715	3515
879.842	3614
879.97	3405
880.097	3165
880.224	3127
880.351	3195
880.478	3256
880.605	3184
880.732	3188
880.859	3523
880.986	3336
881.112	3283
881.239	3275
881.366	3077
881.493	3058
881.619	3001
881.746	3093
881.872	3135
881.999	3123
882.125	3146
882.252	3245
882.378	3298
882.505	3431
882.631	3256
882.757	3169
882.883	3233
883.01	3195
883.136	3173
883.262	3085
883.388	3119
883.514	3344
883.64	3409
883.766	3310
883.892	3211
884.018	3260
884.143	3420
884.269	3557
884.395	3222
884.52	3184
884.646	3173
884.772	3104
884.897	3108
885.023	3203
885.148	3325
885.274	3428
885.399	3348
885.524	3249
885.65	3310
885.775	3351
885.9	3268
886.025	3462
886.15	3393
886.275	3313
886.4	3237
886.525	3294
886.65	3268
886.775	3249
886.9	3481
887.025	3629
887.149	3378
887.274	3260
887.399	3203
887.523	3237
887.648	3214
887.773	3188
887.897	3363
888.021	3397
888.146	3359
888.27	3450
888.395	3580
888.519	3462
888.643	3500
888.767	3504
888.891	3359
889.015	3253
889.139	3287
889.263	3294
889.387	3393
889.511	3519
889.635	3447
889.759	3317
889.883	3329
890.006	3378
890.13	3485
890.254	3264
890.377	3340
890.501	3233
890.624	3176
890.748	3359
890.871	3218
890.995	3108
891.118	3051
891.241	3214
891.364	3275
891.488	3317
891.611	3192
891.734	3214
891.857	3287
891.98	3237
892.103	3370
892.226	3302
892.349	3192
892.471	3146
892.594	3260
892.717	3321
892.839	3317
892.962	3298
893.085	3351
893.207	3310
893.33	3157
893.452	3249
893.575	3393
893.697	3272
893.819	3473
893.941	3481
894.064	3481
894.186	3272
894.308	3283
894.43	3439
894.552	3568
894.674	3466
894.796	3279
894.918	3348
895.04	3306
895.161	3424
895.283	3389
895.405	3359
895.526	3367
895.648	3435
895.769	3428
895.891	3439
896.012	3473
896.134	3481
896.255	3401
896.376	3367
896.498	3367
896.619	3431
896.74	3321
896.861	3367
896.982	3701
897.103	3831
897.224	3542
897.345	3519
897.466	3405
897.587	3469
897.708	3625
897.828	3576
897.949	3435
898.07	3351
898.19	3435
898.311	3614
898.431	3473
898.552	3504
898.672	3606
898.792	3584
898.913	3542
899.033	3428
899.153	3256
899.273	3214
899.393	3317
899.513	3317
899.633	3336
899.753	3351
899.873	3359
899.993	3443
900.113	3329
900.232	3409
900.352	3389
900.472	3291
900.591	3230
900.711	3310
900.83	3226
900.95	3389
901.069	3492
901.189	3374
901.308	3165
901.427	3173
901.546	3211
901.665	3260
901.784	3294
901.904	3218
902.023	3131
902.141	3020
902.26	2998
902.379	3131
902.498	3070
902.617	3055
902.735	3199
902.854	3264
902.973	3188
903.091	3081
903.21	3074
903.328	3150
903.446	3108
903.565	3112
903.683	3207
903.801	3112
903.919	3230
904.038	3325
904.156	3154
904.274	3298
904.392	3268
904.51	3313
904.627	3336
904.745	3435
904.863	3500
904.981	3245
905.098	3214
905.216	3195
905.334	3283
905.451	3317
905.569	3313
905.686	3424
905.803	3466
905.921	3268
906.038	3462
906.155	3378
906.272	3268
906.389	3332
906.506	3230
906.623	3241
906.74	3275
906.857	3192
906.974	3237
907.091	3435
907.208	3557
907.324	3443
907.441	3355
907.557	3203
907.674	3264
907.79	3203
907.907	3264
908.023	3378
908.139	3386
908.256	3367
908.372	3386
908.488	3355
908.604	3279
908.72	3226
908.836	3260
908.952	3283
909.068	3355
909.184	3466
909.3	3401
909.415	3477
909.531	3462
909.647	3298
909.762	3298
909.878	3268
909.993	3393
910.108	3325
910.224	3329
910.339	3412
910.454	3344
910.57	3313
910.685	3218
910.8	3614
910.915	3572
911.03	3454
911.145	3237
911.259	3260
911.374	3317
911.489	3264
911.604	3199
911.718	3112
911.833	3157
911.947	3032
912.062	2982
912.176	3169
912.291	3199
912.405	3207
912.519	3443
912.633	3466
912.748	3298
912.862	3287
912.976	3150
913.09	3009
913.204	3146
913.318	3188
913.431	3348
913.545	3321
913.659	3454
913.772	3313
913.886	3218
914	3195
914.113	3397
914.226	3382
914.34	3332
914.453	3241
914.566	3382
914.68	3291
914.793	3294
914.906	3135
915.019	3119
915.132	3036
915.245	3173
915.358	3207
915.47	3207
915.583	3287
915.696	3294
915.809	3389
915.921	3447
916.034	3241
916.146	3222
916.259	3226
916.371	3409
916.483	3386
916.595	3260
916.708	3363
916.82	3332
916.932	3355
917.044	3378
917.156	3370
917.268	3272
917.38	3310
917.491	3317
917.603	3378
917.715	3416
917.826	3477
917.938	3401
918.049	3260
918.161	3462
918.272	3580
918.384	3610
918.495	3504
918.606	3351
918.717	3298
918.828	3389
918.939	3363
919.05	3313
919.161	3382
919.272	3157
919.383	3272
919.494	3496
919.604	3663
919.715	3496
919.826	3397
919.936	3447
920.047	3580
920.157	3549
920.267	3766
920.378	3587
920.488	3526
920.598	3778
920.708	3937
920.818	3835
920.928	3850
921.038	4013
921.148	3968
921.258	3720
921.368	3648
921.477	3587
921.587	3549
921.697	3462
921.806	3633
921.916	3500
922.025	3329
922.134	3336
922.244	3325
922.353	3439
922.462	3287
922.571	3222
922.68	3093
922.789	3093
922.898	3119
923.007	3104
923.116	3169
923.224	3195
923.333	3169
923.442	3100
923.55	3100
923.659	3138
923.767	3211
923.876	3127
923.984	3233
924.092	3093
924.201	3173
924.309	3214
924.417	3294
924.525	3180
924.633	3237
924.741	3994
924.849	3051
924.956	3230
925.064	3131
925.172	3062
925.279	3093
925.387	3195
925.494	3211
925.602	3378
925.709	3336
925.816	3211
925.924	3272
926.031	3389
926.138	3298
926.245	3359
926.352	3226
926.459	3424
926.566	3469
926.673	3313
926.779	3222
926.886	3256
926.993	3127
927.099	3150
927.206	3104
927.312	3112
927.419	3222
927.525	3211
927.631	3218
927.737	3123
927.843	3116
927.95	3043
928.056	3138
928.162	3207
928.267	3264
928.373	3903
928.479	3298
928.585	3077
928.69	3199
928.796	3279
928.901	3184
929.007	3066
929.112	3184
929.218	3184
929.323	3165
929.428	3169
929.533	3313
929.638	3142
929.743	3176
929.848	3294
929.953	3199
930.058	3180
930.163	2986
930.267	3055
930.372	3188
930.477	3066
930.581	3272
930.685	3180
930.79	3081
930.894	3135
930.998	3104
931.103	3272
931.207	2979
931.311	2963
931.415	2891
931.519	2766
931.623	2777
