Data from test_V78500241_1084.txt Node
Date: Fri Mar 25 16:22:42 CST 2022
User: usil
Spectrometer: V785-0024
Trigger mode: 0
Integration Time (sec): 4.000000E-1
Scans to average: 1
Nonlinearity correction enabled: false
Boxcar width: 0
Storing dark spectrum: false
XAxis mode: Wavelengths
Number of Pixels in Spectrum: 1024
>>>>>Begin Spectral Data<<<<<
801.071	2922
801.214	2933
801.356	2838
801.499	2887
801.641	2876
801.783	2914
801.926	3070
802.068	2982
802.211	2986
802.353	3013
802.496	2963
802.638	3009
802.78	3036
802.923	3085
803.065	2990
803.208	2876
803.35	2906
803.492	2925
803.635	2918
803.777	2773
803.919	2864
804.061	3176
804.204	2956
804.346	2910
804.488	2872
804.63	2979
804.773	2857
804.915	2906
805.057	3089
805.199	2937
805.341	2963
805.483	3047
805.626	3039
805.768	2948
805.91	3100
806.052	3123
806.194	3043
806.336	3214
806.478	3058
806.62	2952
806.762	3005
806.904	3066
807.046	3161
807.188	2994
807.33	2887
807.472	2963
807.614	2906
807.756	3017
807.898	2918
808.04	2887
808.182	2986
808.324	2948
808.465	2872
808.607	2887
808.749	2807
808.891	2895
809.033	3020
809.174	2975
809.316	2891
809.458	2872
809.6	2811
809.741	2785
809.883	2769
810.025	2861
810.166	2872
810.308	2853
810.45	2853
810.591	2769
810.733	2773
810.875	2823
811.016	2804
811.158	2781
811.299	2826
811.441	2922
811.582	2933
811.724	2864
811.865	2849
812.007	2899
812.148	2895
812.29	2853
812.431	2876
812.573	2941
812.714	2979
812.855	3058
812.997	3055
813.138	3131
813.279	3005
813.421	2948
813.562	2967
813.703	2895
813.845	2887
813.986	2758
814.127	2746
814.268	2815
814.41	2838
814.551	2811
814.692	2880
814.833	2811
814.974	2887
815.115	2967
815.256	2891
815.397	2826
815.539	2830
815.68	2773
815.821	2766
815.962	2944
816.103	2944
816.244	2895
816.385	2861
816.526	2960
816.666	2948
816.807	2746
816.948	2872
817.089	2902
817.23	2849
817.371	2777
817.512	2792
817.653	2834
817.793	2819
817.934	2868
818.075	2925
818.216	2971
818.356	3047
818.497	2933
818.638	2804
818.778	2811
818.919	2796
819.06	2762
819.2	2876
819.341	2834
819.481	2766
819.622	2963
819.762	3085
819.903	3036
820.043	2918
820.184	2906
820.324	2902
820.465	3028
820.605	2994
820.746	3005
820.886	2941
821.026	3077
821.167	3150
821.307	3264
821.447	3249
821.588	3233
821.728	3203
821.868	3199
822.008	3074
822.149	3184
822.289	3207
822.429	3085
822.569	3055
822.709	3173
822.849	3020
822.99	3055
823.13	3150
823.27	3195
823.41	3097
823.55	3138
823.69	3138
823.83	3195
823.97	3116
824.11	3001
824.25	2975
824.389	3058
824.529	3085
824.669	3055
824.809	3169
824.949	3272
825.089	3249
825.228	3176
825.368	3020
825.508	2944
825.648	2956
825.787	3024
825.927	2982
826.067	2963
826.206	2948
826.346	3062
826.485	3085
826.625	3146
826.765	3237
826.904	3268
827.044	2967
827.183	2929
827.323	2868
827.462	3001
827.601	2914
827.741	2925
827.88	2975
828.02	2861
828.159	2944
828.298	3036
828.437	3093
828.577	3020
828.716	3222
828.855	3058
828.994	2906
829.134	2872
829.273	2910
829.412	2857
829.551	2887
829.69	2857
829.829	2979
829.968	3142
830.107	2998
830.246	3039
830.385	2925
830.524	2868
830.663	2864
830.802	2689
830.941	2629
831.08	2629
831.219	2800
831.357	2769
831.496	2944
831.635	2739
831.774	2663
831.913	2640
832.051	2533
832.19	2590
832.329	2682
832.467	2530
832.606	2480
832.744	2568
832.883	2583
833.022	2564
833.16	2651
833.299	2663
833.437	2651
833.576	2670
833.714	2727
833.852	2727
833.991	2762
834.129	2819
834.267	2838
834.406	2792
834.544	2868
834.682	2883
834.821	2864
834.959	3066
835.097	2868
835.235	3028
835.373	3009
835.511	3009
835.65	2918
835.788	2944
835.926	2834
836.064	2830
836.202	2823
836.34	3077
836.478	3135
836.615	2990
836.753	3142
836.891	3173
837.029	3173
837.167	3146
837.305	3055
837.443	3024
837.58	2925
837.718	3123
837.856	3043
837.993	3013
838.131	3070
838.269	3116
838.406	3081
838.544	3100
838.681	2948
838.819	2933
838.956	2819
839.094	2823
839.231	2922
839.369	3020
839.506	3355
839.643	3192
839.781	3009
839.918	2952
840.055	3047
840.193	3097
840.33	3066
840.467	3127
840.604	3104
840.742	3386
840.879	3058
841.016	3058
841.153	3119
841.29	3306
841.427	3302
841.564	3256
841.701	3325
841.838	3222
841.975	3199
842.112	3203
842.249	3020
842.385	3036
842.522	3226
842.659	3085
842.796	3032
842.933	3100
843.069	3020
843.206	3047
843.343	3176
843.479	3089
843.616	3154
843.752	2941
843.889	2872
844.025	3070
844.162	2872
844.298	3055
844.435	2918
844.571	2933
844.708	3081
844.844	3199
844.98	3298
845.117	3184
845.253	3043
845.389	2979
845.525	3112
845.661	3070
845.798	3028
845.934	3123
846.07	3058
846.206	3253
846.342	3291
846.478	3222
846.614	3108
846.75	3039
846.886	3013
847.022	3245
847.158	3131
847.294	3169
847.429	3226
847.565	3188
847.701	3507
847.837	3051
847.972	3001
848.108	3146
848.244	3142
848.379	2994
848.515	2899
848.65	2925
848.786	2967
848.921	3005
849.057	3093
849.192	3146
849.328	3062
849.463	3112
849.598	3058
849.734	3032
849.869	2967
850.004	2922
850.14	2941
850.275	2922
850.41	2876
850.545	2902
850.68	2910
850.815	2925
850.95	2960
851.085	3199
851.22	3119
851.355	3009
851.49	2952
851.625	2986
851.76	3013
851.895	2956
852.03	2910
852.165	3036
852.299	3127
852.434	3173
852.569	3146
852.703	3157
852.838	3268
852.973	3351
853.107	3325
853.242	3146
853.376	3074
853.511	2929
853.645	2986
853.78	3199
853.914	3150
854.048	3100
854.183	3055
854.317	3157
854.451	3253
854.585	3142
854.72	3085
854.854	3218
854.988	3036
855.122	3119
855.256	2998
855.39	3123
855.524	3268
855.658	3192
855.792	3123
855.926	3214
856.06	3199
856.194	3264
856.327	3116
856.461	3077
856.595	3055
856.729	3066
856.862	3207
856.996	3135
857.13	3199
857.263	3214
857.397	3253
857.53	3116
857.664	3184
857.797	3211
857.931	3226
858.064	3157
858.197	3180
858.331	3123
858.464	3108
858.597	2990
858.731	3089
858.864	3135
858.997	3077
859.13	3150
859.263	3173
859.396	3214
859.529	3085
859.662	3070
859.795	3039
859.928	3154
860.061	3249
860.194	3272
860.327	3127
860.46	3085
860.592	3230
860.725	3211
860.858	3245
860.99	3077
861.123	3032
861.256	3081
861.388	3135
861.521	3785
861.653	3001
861.786	2990
861.918	2998
862.05	3055
862.183	3119
862.315	3154
862.447	3226
862.58	3085
862.712	2986
862.844	2842
862.976	3024
863.108	3005
863.24	3317
863.372	2853
863.504	2944
863.636	2963
863.768	3032
863.9	2982
864.032	2941
864.164	2933
864.296	3036
864.428	3051
864.559	3058
864.691	3058
864.823	3066
864.954	3020
865.086	3028
865.217	3001
865.349	2941
865.48	2960
865.612	3013
865.743	3119
865.875	2948
866.006	2902
866.137	2937
866.269	2975
866.4	2937
866.531	2914
866.662	2891
866.793	2899
866.924	2899
867.055	2963
867.186	2922
867.317	2868
867.448	2861
867.579	2838
867.71	2845
867.841	2849
867.972	2849
868.103	2902
868.233	2895
868.364	2895
868.495	2918
868.625	3051
868.756	3146
868.886	2979
869.017	2994
869.147	3176
869.278	3123
869.408	3005
869.539	3066
869.669	3116
869.799	3055
869.929	3161
870.06	3089
870.19	3336
870.32	3302
870.45	3260
870.58	3367
870.71	3420
870.84	3454
870.97	3275
871.1	3233
871.23	3492
871.36	3431
871.489	3374
871.619	3401
871.749	3401
871.879	3473
872.008	3469
872.138	3344
872.267	3237
872.397	3157
872.526	3108
872.656	2998
872.785	3104
872.915	3218
873.044	3291
873.173	3214
873.303	3241
873.432	3249
873.561	3237
873.69	3131
873.819	3131
873.948	3195
874.077	3116
874.206	3039
874.335	3081
874.464	3188
874.593	3348
874.722	3199
874.851	3359
874.979	3367
875.108	3348
875.237	3237
875.365	3135
875.494	3180
875.623	3249
875.751	3093
875.88	3123
876.008	3195
876.136	3233
876.265	3367
876.393	3507
876.521	3405
876.65	3359
876.778	3332
876.906	3268
877.034	3176
877.162	3253
877.29	3214
877.418	3230
877.546	3207
877.674	3207
877.802	3226
877.93	3230
878.058	3161
878.185	3074
878.313	3157
878.441	3233
878.568	3066
878.696	3127
878.824	3237
878.951	3253
879.079	3409
879.206	3637
879.333	3466
879.461	3340
879.588	3378
879.715	3466
879.842	3568
879.97	3374
880.097	3142
880.224	3131
880.351	3184
880.478	3230
880.605	3131
880.732	3188
880.859	3454
880.986	3294
881.112	3367
881.239	3150
881.366	3066
881.493	3028
881.619	3001
881.746	3055
881.872	3051
881.999	3089
882.125	3165
882.252	3195
882.378	3298
882.505	3420
882.631	3298
882.757	3070
882.883	3184
883.01	3195
883.136	3180
883.262	3089
883.388	3100
883.514	3321
883.64	3397
883.766	3291
883.892	3199
884.018	3275
884.143	3412
884.269	3545
884.395	3222
884.52	3135
884.646	3184
884.772	3127
884.897	3070
885.023	3226
885.148	3340
885.274	3401
885.399	3397
885.524	3283
885.65	3272
885.775	3325
885.9	3241
886.025	3466
886.15	3389
886.275	3294
886.4	3211
886.525	3253
886.65	3268
886.775	3241
886.9	3492
887.025	3625
887.149	3378
887.274	3233
887.399	3165
887.523	3245
887.648	3207
887.773	3173
887.897	3359
888.021	3389
888.146	3306
888.27	3409
888.395	3526
888.519	3443
888.643	3416
888.767	3435
888.891	3321
889.015	3233
889.139	3249
889.263	3260
889.387	3382
889.511	3526
889.635	3454
889.759	3310
889.883	3310
890.006	3374
890.13	3454
890.254	3272
890.377	3363
890.501	3184
890.624	3192
890.748	3302
890.871	3180
890.995	3085
891.118	3070
891.241	3184
891.364	3211
891.488	3287
891.611	3161
891.734	3195
891.857	3294
891.98	3218
892.103	3302
892.226	3291
892.349	3203
892.471	3112
892.594	3253
892.717	3256
892.839	3283
892.962	3272
893.085	3382
893.207	3275
893.33	3127
893.452	3207
893.575	3325
893.697	3249
893.819	3454
893.941	3526
894.064	3439
894.186	3256
894.308	3291
894.43	3439
894.552	3466
894.674	3462
894.796	3264
894.918	3313
895.04	3279
895.161	3389
895.283	3393
895.405	3298
895.526	3386
895.648	3409
895.769	3420
895.891	3473
896.012	3458
896.134	3481
896.255	3412
896.376	3431
896.498	3351
896.619	3416
896.74	3405
896.861	3378
896.982	3675
897.103	3759
897.224	3584
897.345	3523
897.466	3485
897.587	3454
897.708	3606
897.828	3542
897.949	3420
898.07	3325
898.19	3405
898.311	3591
898.431	3424
898.552	3481
898.672	3568
898.792	3572
898.913	3538
899.033	3397
899.153	3260
899.273	3207
899.393	3264
899.513	3279
899.633	3332
899.753	3340
899.873	3268
899.993	3363
900.113	3359
900.232	3401
900.352	3283
900.472	3253
900.591	3233
900.711	3260
900.83	3226
900.95	3393
901.069	3477
901.189	3367
901.308	3154
901.427	3138
901.546	3180
901.665	3298
901.784	3348
901.904	3203
902.023	3150
902.141	3024
902.26	2967
902.379	3154
902.498	3051
902.617	3051
902.735	3195
902.854	3211
902.973	3180
903.091	3013
903.21	3066
903.328	3146
903.446	3093
903.565	3104
903.683	3207
903.801	3142
903.919	3233
904.038	3302
904.156	3173
904.274	3291
904.392	3253
904.51	3287
904.627	3317
904.745	3443
904.863	3496
904.981	3268
905.098	3138
905.216	3180
905.334	3264
905.451	3279
905.569	3253
905.686	3428
905.803	3382
905.921	3279
906.038	3420
906.155	3340
906.272	3272
906.389	3367
906.506	3199
906.623	3230
906.74	3237
906.857	3199
906.974	3291
907.091	3443
907.208	3580
907.324	3443
907.441	3405
907.557	3218
907.674	3249
907.79	3211
907.907	3237
908.023	3386
908.139	3374
908.256	3302
908.372	3336
908.488	3344
908.604	3241
908.72	3214
908.836	3279
908.952	3275
909.068	3370
909.184	3507
909.3	3389
909.415	3500
909.531	3492
909.647	3233
909.762	3306
909.878	3313
909.993	3370
910.108	3317
910.224	3329
910.339	3443
910.454	3294
910.57	3249
910.685	3249
910.8	3557
910.915	3561
911.03	3412
911.145	3233
911.259	3291
911.374	3310
911.489	3260
911.604	3249
911.718	3146
911.833	3146
911.947	3051
912.062	2979
912.176	3169
912.291	3169
912.405	3241
912.519	3431
912.633	3420
912.748	3355
912.862	3253
912.976	3142
913.09	3055
913.204	3116
913.318	3161
913.431	3340
913.545	3325
913.659	3416
913.772	3294
913.886	3203
914	3150
914.113	3363
914.226	3382
914.34	3336
914.453	3199
914.566	3412
914.68	3302
914.793	3348
914.906	3131
915.019	3077
915.132	3074
915.245	3192
915.358	3192
915.47	3222
915.583	3264
915.696	3317
915.809	3397
915.921	3428
916.034	3283
916.146	3272
916.259	3195
916.371	3382
916.483	3363
916.595	3291
916.708	3332
916.82	3317
916.932	3332
917.044	3313
917.156	3351
917.268	3310
917.38	3279
917.491	3302
917.603	3321
917.715	3458
917.826	3469
917.938	3386
918.049	3241
918.161	3397
918.272	3595
918.384	3549
918.495	3504
918.606	3344
918.717	3275
918.828	3367
918.939	3416
919.05	3287
919.161	3340
919.272	3157
919.383	3306
919.494	3485
919.604	3675
919.715	3477
919.826	3393
919.936	3458
920.047	3557
920.157	3564
920.267	3743
920.378	3610
920.488	3587
920.598	3835
920.708	3926
920.818	3804
920.928	3831
921.038	3994
921.148	3998
921.258	3709
921.368	3591
921.477	3515
921.587	3572
921.697	3450
921.806	3641
921.916	3538
922.025	3386
922.134	3336
922.244	3310
922.353	3435
922.462	3264
922.571	3226
922.68	3123
922.789	3051
922.898	3195
923.007	3093
923.116	3207
923.224	3119
923.333	3169
923.442	3112
923.55	3116
923.659	3150
923.767	3249
923.876	3127
923.984	3264
924.092	3081
924.201	3211
924.309	3218
924.417	3268
924.525	3173
924.633	3211
924.741	4059
924.849	3058
924.956	3264
925.064	3077
925.172	3062
925.279	3043
925.387	3188
925.494	3211
925.602	3355
925.709	3340
925.816	3218
925.924	3268
926.031	3409
926.138	3359
926.245	3359
926.352	3283
926.459	3374
926.566	3462
926.673	3329
926.779	3237
926.886	3226
926.993	3146
927.099	3097
927.206	3157
927.312	3097
927.419	3249
927.525	3211
927.631	3264
927.737	3146
927.843	3108
927.95	3051
928.056	3116
928.162	3188
928.267	3256
928.373	3869
928.479	3291
928.585	3047
928.69	3230
928.796	3268
928.901	3165
929.007	3043
929.112	3207
929.218	3237
929.323	3135
929.428	3123
929.533	3279
929.638	3077
929.743	3184
929.848	3268
929.953	3173
930.058	3142
930.163	3028
930.267	3005
930.372	3188
930.477	3039
930.581	3302
930.685	3176
930.79	3020
930.894	3123
930.998	3081
931.103	3317
931.207	2952
931.311	2990
931.415	2933
931.519	2781
931.623	2788
