Data from test_V78500241_793.txt Node
Date: Fri Mar 25 16:20:41 CST 2022
User: usil
Spectrometer: V785-0024
Trigger mode: 0
Integration Time (sec): 4.000000E-1
Scans to average: 1
Nonlinearity correction enabled: false
Boxcar width: 0
Storing dark spectrum: false
XAxis mode: Wavelengths
Number of Pixels in Spectrum: 1024
>>>>>Begin Spectral Data<<<<<
801.071	2906
801.214	2975
801.356	2910
801.499	2899
801.641	2929
801.783	2941
801.926	3058
802.068	2998
802.211	3036
802.353	3077
802.496	2963
802.638	3017
802.78	3047
802.923	3036
803.065	3039
803.208	2929
803.35	2944
803.492	2948
803.635	2937
803.777	2769
803.919	2872
804.061	3165
804.204	2910
804.346	2922
804.488	2838
804.63	2979
804.773	2876
804.915	2918
805.057	3089
805.199	2914
805.341	2982
805.483	3051
805.626	2975
805.768	2967
805.91	3100
806.052	3131
806.194	3032
806.336	3241
806.478	3043
806.62	2982
806.762	2963
806.904	3051
807.046	3131
807.188	2982
807.33	2925
807.472	3017
807.614	2899
807.756	2971
807.898	2906
808.04	2872
808.182	2967
808.324	2982
808.465	2861
808.607	2864
808.749	2785
808.891	2838
809.033	2975
809.174	2937
809.316	2883
809.458	2902
809.6	2769
809.741	2796
809.883	2800
810.025	2834
810.166	2853
810.308	2853
810.45	2853
810.591	2800
810.733	2754
810.875	2872
811.016	2758
811.158	2750
811.299	2807
811.441	2937
811.582	2887
811.724	2830
811.865	2826
812.007	2876
812.148	2861
812.29	2838
812.431	2883
812.573	2944
812.714	2944
812.855	3055
812.997	3104
813.138	3123
813.279	3020
813.421	3001
813.562	2960
813.703	2872
813.845	2861
813.986	2754
814.127	2708
814.268	2769
814.41	2830
814.551	2819
814.692	2849
814.833	2804
814.974	2883
815.115	2948
815.256	2830
815.397	2788
815.539	2868
815.68	2792
815.821	2762
815.962	2929
816.103	2933
816.244	2861
816.385	2857
816.526	2982
816.666	2925
816.807	2743
816.948	2891
817.089	2925
817.23	2883
817.371	2743
817.512	2830
817.653	2830
817.793	2842
817.934	2857
818.075	2956
818.216	3001
818.356	3020
818.497	2914
818.638	2800
818.778	2785
818.919	2800
819.06	2746
819.2	2864
819.341	2804
819.481	2807
819.622	2910
819.762	3104
819.903	3074
820.043	2918
820.184	2914
820.324	2910
820.465	3005
820.605	3024
820.746	3039
820.886	2929
821.026	3104
821.167	3195
821.307	3264
821.447	3237
821.588	3211
821.728	3237
821.868	3218
822.008	3119
822.149	3218
822.289	3211
822.429	3116
822.569	3123
822.709	3188
822.849	3020
822.99	3119
823.13	3203
823.27	3256
823.41	3173
823.55	3173
823.69	3176
823.83	3256
823.97	3138
824.11	3009
824.25	3036
824.389	3097
824.529	3161
824.669	3077
824.809	3253
824.949	3298
825.089	3260
825.228	3199
825.368	3028
825.508	3005
825.648	2994
825.787	3028
825.927	3070
826.067	3039
826.206	2998
826.346	3085
826.485	3119
826.625	3127
826.765	3294
826.904	3249
827.044	3017
827.183	2998
827.323	2918
827.462	3043
827.601	2948
827.741	2986
827.88	2990
828.02	2933
828.159	3009
828.298	3074
828.437	3135
828.577	3077
828.716	3237
828.855	3135
828.994	2979
829.134	2948
829.273	2994
829.412	2933
829.551	2906
829.69	2929
829.829	3032
829.968	3199
830.107	3058
830.246	3047
830.385	2914
830.524	2918
830.663	2868
830.802	2796
830.941	2678
831.08	2674
831.219	2811
831.357	2792
831.496	3013
831.635	2762
831.774	2720
831.913	2682
832.051	2575
832.19	2629
832.329	2727
832.467	2583
832.606	2533
832.744	2579
832.883	2632
833.022	2617
833.16	2667
833.299	2739
833.437	2735
833.576	2739
833.714	2735
833.852	2762
833.991	2788
834.129	2876
834.267	2857
834.406	2838
834.544	2910
834.682	2933
834.821	2899
834.959	3100
835.097	2941
835.235	3093
835.373	3013
835.511	3024
835.65	2982
835.788	3001
835.926	2872
836.064	2861
836.202	2845
836.34	3112
836.478	3176
836.615	3093
836.753	3161
836.891	3253
837.029	3188
837.167	3123
837.305	3116
837.443	3112
837.58	3009
837.718	3150
837.856	3131
837.993	3074
838.131	3150
838.269	3123
838.406	3123
838.544	3131
838.681	2986
838.819	2929
838.956	2861
839.094	2864
839.231	2944
839.369	3055
839.506	3424
839.643	3199
839.781	3089
839.918	2956
840.055	3112
840.193	3077
840.33	3089
840.467	3100
840.604	3161
840.742	3424
840.879	3066
841.016	3074
841.153	3138
841.29	3351
841.427	3340
841.564	3294
841.701	3298
841.838	3199
841.975	3165
842.112	3230
842.249	3123
842.385	3051
842.522	3283
842.659	3123
842.796	3119
842.933	3123
843.069	3055
843.206	3032
843.343	3226
843.479	3112
843.616	3176
843.752	2941
843.889	2861
844.025	3146
844.162	2887
844.298	3100
844.435	2979
844.571	2895
844.708	3089
844.844	3226
844.98	3256
845.117	3199
845.253	3077
845.389	2994
845.525	3081
845.661	3138
845.798	3032
845.934	3138
846.07	3085
846.206	3192
846.342	3370
846.478	3294
846.614	3116
846.75	3055
846.886	3051
847.022	3268
847.158	3184
847.294	3211
847.429	3279
847.565	3226
847.701	3507
847.837	3058
847.972	3036
848.108	3173
848.244	3173
848.379	2994
848.515	2963
848.65	2956
848.786	2975
848.921	3024
849.057	3154
849.192	3165
849.328	3077
849.463	3161
849.598	3112
849.734	3058
849.869	3020
850.004	2899
850.14	2990
850.275	2944
850.41	2864
850.545	2944
850.68	2963
850.815	2986
850.95	3001
851.085	3211
851.22	3077
851.355	3051
851.49	3005
851.625	3062
851.76	3070
851.895	2971
852.03	2922
852.165	3070
852.299	3161
852.434	3203
852.569	3180
852.703	3176
852.838	3275
852.973	3382
853.107	3332
853.242	3180
853.376	3138
853.511	3043
853.645	3055
853.78	3260
853.914	3146
854.048	3146
854.183	3100
854.317	3157
854.451	3332
854.585	3142
854.72	3085
854.854	3237
854.988	3062
855.122	3097
855.256	2956
855.39	3146
855.524	3268
855.658	3176
855.792	3188
855.926	3207
856.06	3253
856.194	3275
856.327	3173
856.461	3093
856.595	3104
856.729	3100
856.862	3249
856.996	3199
857.13	3199
857.263	3264
857.397	3294
857.53	3131
857.664	3245
857.797	3272
857.931	3237
858.064	3188
858.197	3237
858.331	3142
858.464	3089
858.597	3036
858.731	3169
858.864	3176
858.997	3089
859.13	3188
859.263	3176
859.396	3211
859.529	3142
859.662	3100
859.795	3058
859.928	3131
860.061	3294
860.194	3279
860.327	3169
860.46	3123
860.592	3283
860.725	3268
860.858	3249
860.99	3154
861.123	3085
861.256	3089
861.388	3161
861.521	3991
861.653	3009
861.786	2990
861.918	3051
862.05	3066
862.183	3104
862.315	3165
862.447	3211
862.58	3135
862.712	2971
862.844	2895
862.976	3074
863.108	3036
863.24	3332
863.372	2925
863.504	2990
863.636	2967
863.768	3062
863.9	2979
864.032	2922
864.164	2963
864.296	3039
864.428	3138
864.559	3081
864.691	3070
864.823	3100
864.954	3077
865.086	3024
865.217	2998
865.349	2975
865.48	3001
865.612	3017
865.743	3165
865.875	2986
866.006	2971
866.137	3005
866.269	2994
866.4	2944
866.531	2956
866.662	2918
866.793	2872
866.924	2891
867.055	2979
867.186	2937
867.317	2906
867.448	2845
867.579	2880
867.71	2880
867.841	2853
867.972	2941
868.103	2922
868.233	2899
868.364	2887
868.495	2960
868.625	3070
868.756	3188
868.886	3013
869.017	3047
869.147	3218
869.278	3161
869.408	3074
869.539	3051
869.669	3104
869.799	3062
869.929	3146
870.06	3119
870.19	3351
870.32	3291
870.45	3287
870.58	3397
870.71	3435
870.84	3500
870.97	3321
871.1	3294
871.23	3488
871.36	3477
871.489	3397
871.619	3443
871.749	3443
871.879	3443
872.008	3485
872.138	3348
872.267	3291
872.397	3184
872.526	3142
872.656	3028
872.785	3154
872.915	3226
873.044	3336
873.173	3272
873.303	3253
873.432	3253
873.561	3272
873.69	3188
873.819	3150
873.948	3218
874.077	3112
874.206	3047
874.335	3081
874.464	3207
874.593	3344
874.722	3245
874.851	3370
874.979	3382
875.108	3321
875.237	3211
875.365	3161
875.494	3184
875.623	3256
875.751	3116
875.88	3142
876.008	3218
876.136	3245
876.265	3378
876.393	3515
876.521	3450
876.65	3435
876.778	3340
876.906	3317
877.034	3211
877.162	3249
877.29	3226
877.418	3268
877.546	3233
877.674	3294
877.802	3268
877.93	3275
878.058	3123
878.185	3127
878.313	3230
878.441	3241
878.568	3047
878.696	3188
878.824	3291
878.951	3355
879.079	3439
879.206	3633
879.333	3454
879.461	3344
879.588	3359
879.715	3469
879.842	3576
879.97	3401
880.097	3207
880.224	3142
880.351	3180
880.478	3230
880.605	3184
880.732	3218
880.859	3507
880.986	3291
881.112	3336
881.239	3207
881.366	3108
881.493	3024
881.619	3058
881.746	3081
881.872	3074
881.999	3131
882.125	3195
882.252	3249
882.378	3329
882.505	3424
882.631	3294
882.757	3154
882.883	3199
883.01	3249
883.136	3150
883.262	3138
883.388	3131
883.514	3344
883.64	3370
883.766	3302
883.892	3184
884.018	3230
884.143	3405
884.269	3545
884.395	3237
884.52	3173
884.646	3176
884.772	3173
884.897	3119
885.023	3226
885.148	3348
885.274	3420
885.399	3431
885.524	3302
885.65	3302
885.775	3313
885.9	3294
886.025	3428
886.15	3412
886.275	3317
886.4	3222
886.525	3268
886.65	3306
886.775	3306
886.9	3473
887.025	3656
887.149	3401
887.274	3237
887.399	3214
887.523	3188
887.648	3169
887.773	3188
887.897	3370
888.021	3401
888.146	3359
888.27	3466
888.395	3557
888.519	3420
888.643	3462
888.767	3507
888.891	3325
889.015	3203
889.139	3260
889.263	3233
889.387	3397
889.511	3561
889.635	3473
889.759	3291
889.883	3279
890.006	3393
890.13	3481
890.254	3264
890.377	3367
890.501	3207
890.624	3207
890.748	3283
890.871	3199
890.995	3119
891.118	3020
891.241	3207
891.364	3199
891.488	3306
891.611	3233
891.734	3214
891.857	3298
891.98	3253
892.103	3348
892.226	3283
892.349	3237
892.471	3081
892.594	3230
892.717	3302
892.839	3298
892.962	3287
893.085	3348
893.207	3298
893.33	3135
893.452	3214
893.575	3359
893.697	3279
893.819	3469
893.941	3553
894.064	3458
894.186	3268
894.308	3279
894.43	3431
894.552	3519
894.674	3466
894.796	3287
894.918	3332
895.04	3275
895.161	3462
895.283	3401
895.405	3332
895.526	3351
895.648	3412
895.769	3378
895.891	3428
896.012	3492
896.134	3496
896.255	3412
896.376	3386
896.498	3370
896.619	3393
896.74	3397
896.861	3397
896.982	3686
897.103	3835
897.224	3622
897.345	3515
897.466	3466
897.587	3511
897.708	3610
897.828	3587
897.949	3458
898.07	3329
898.19	3389
898.311	3595
898.431	3416
898.552	3500
898.672	3584
898.792	3568
898.913	3526
899.033	3382
899.153	3264
899.273	3237
899.393	3317
899.513	3317
899.633	3329
899.753	3351
899.873	3302
899.993	3378
900.113	3321
900.232	3370
900.352	3359
900.472	3291
900.591	3173
900.711	3321
900.83	3268
900.95	3409
901.069	3488
901.189	3367
901.308	3188
901.427	3100
901.546	3173
901.665	3283
901.784	3336
901.904	3199
902.023	3123
902.141	3013
902.26	3005
902.379	3146
902.498	3055
902.617	3051
902.735	3211
902.854	3207
902.973	3176
903.091	3074
903.21	3112
903.328	3169
903.446	3077
903.565	3127
903.683	3211
903.801	3127
903.919	3272
904.038	3253
904.156	3214
904.274	3272
904.392	3249
904.51	3321
904.627	3351
904.745	3462
904.863	3504
904.981	3272
905.098	3131
905.216	3214
905.334	3260
905.451	3275
905.569	3340
905.686	3416
905.803	3443
905.921	3321
906.038	3454
906.155	3370
906.272	3287
906.389	3332
906.506	3211
906.623	3233
906.74	3279
906.857	3165
906.974	3287
907.091	3424
907.208	3599
907.324	3488
907.441	3367
907.557	3245
907.674	3230
907.79	3214
907.907	3272
908.023	3370
908.139	3348
908.256	3325
908.372	3397
908.488	3344
908.604	3268
908.72	3226
908.836	3283
908.952	3294
909.068	3336
909.184	3473
909.3	3386
909.415	3534
909.531	3477
909.647	3325
909.762	3275
909.878	3264
909.993	3367
910.108	3313
910.224	3367
910.339	3401
910.454	3336
910.57	3291
910.685	3237
910.8	3580
910.915	3538
911.03	3488
911.145	3294
911.259	3256
911.374	3325
911.489	3245
911.604	3249
911.718	3135
911.833	3146
911.947	3028
912.062	2982
912.176	3150
912.291	3192
912.405	3211
912.519	3416
912.633	3488
912.748	3329
912.862	3256
912.976	3203
913.09	3066
913.204	3135
913.318	3195
913.431	3336
913.545	3344
913.659	3412
913.772	3329
913.886	3195
914	3230
914.113	3355
914.226	3401
914.34	3378
914.453	3241
914.566	3412
914.68	3294
914.793	3321
914.906	3135
915.019	3077
915.132	3081
915.245	3184
915.358	3195
915.47	3195
915.583	3260
915.696	3268
915.809	3416
915.921	3473
916.034	3256
916.146	3249
916.259	3233
916.371	3378
916.483	3359
916.595	3253
916.708	3317
916.82	3340
916.932	3336
917.044	3363
917.156	3329
917.268	3245
917.38	3283
917.491	3275
917.603	3351
917.715	3412
917.826	3500
917.938	3348
918.049	3287
918.161	3431
918.272	3595
918.384	3530
918.495	3492
918.606	3325
918.717	3287
918.828	3405
918.939	3401
919.05	3336
919.161	3378
919.272	3184
919.383	3275
919.494	3496
919.604	3698
919.715	3488
919.826	3405
919.936	3431
920.047	3595
920.157	3542
920.267	3766
920.378	3625
920.488	3545
920.598	3732
920.708	3884
920.818	3838
920.928	3816
921.038	4017
921.148	4036
921.258	3732
921.368	3652
921.477	3584
921.587	3534
921.697	3488
921.806	3637
921.916	3515
922.025	3348
922.134	3344
922.244	3302
922.353	3412
922.462	3249
922.571	3237
922.68	3112
922.789	3119
922.898	3116
923.007	3097
923.116	3211
923.224	3165
923.333	3218
923.442	3081
923.55	3119
923.659	3123
923.767	3218
923.876	3097
923.984	3214
924.092	3097
924.201	3184
924.309	3233
924.417	3241
924.525	3195
924.633	3230
924.741	4196
924.849	3058
924.956	3260
925.064	3123
925.172	3081
925.279	3077
925.387	3237
925.494	3180
925.602	3378
925.709	3340
925.816	3180
925.924	3249
926.031	3389
926.138	3310
926.245	3321
926.352	3245
926.459	3409
926.566	3485
926.673	3336
926.779	3264
926.886	3233
926.993	3150
927.099	3150
927.206	3116
927.312	3138
927.419	3241
927.525	3211
927.631	3298
927.737	3131
927.843	3085
927.95	3009
928.056	3157
928.162	3184
928.267	3253
928.373	3736
928.479	3310
928.585	3058
928.69	3214
928.796	3306
928.901	3165
929.007	3055
929.112	3195
929.218	3165
929.323	3157
929.428	3157
929.533	3317
929.638	3108
929.743	3169
929.848	3264
929.953	3233
930.058	3161
930.163	3013
930.267	3093
930.372	3180
930.477	3020
930.581	3340
930.685	3169
930.79	3070
930.894	3123
930.998	3100
931.103	3310
931.207	2956
931.311	2906
931.415	2910
931.519	2796
931.623	2811
