Data from test_V78500241_192.txt Node
Date: Fri Mar 25 16:16:32 CST 2022
User: usil
Spectrometer: V785-0024
Trigger mode: 0
Integration Time (sec): 4.000000E-1
Scans to average: 1
Nonlinearity correction enabled: false
Boxcar width: 0
Storing dark spectrum: false
XAxis mode: Wavelengths
Number of Pixels in Spectrum: 1024
>>>>>Begin Spectral Data<<<<<
801.071	2941
801.214	2941
801.356	2880
801.499	2902
801.641	2864
801.783	2918
801.926	3043
802.068	2982
802.211	3005
802.353	3043
802.496	2979
802.638	3024
802.78	3051
802.923	3100
803.065	3020
803.208	2906
803.35	2944
803.492	2948
803.635	2944
803.777	2735
803.919	2861
804.061	3192
804.204	2941
804.346	2925
804.488	2834
804.63	2990
804.773	2849
804.915	2918
805.057	3081
805.199	2933
805.341	2963
805.483	3051
805.626	3036
805.768	2956
805.91	3085
806.052	3085
806.194	3020
806.336	3272
806.478	3032
806.62	2937
806.762	2971
806.904	3047
807.046	3150
807.188	2956
807.33	2922
807.472	2998
807.614	2880
807.756	2998
807.898	2895
808.04	2902
808.182	2986
808.324	2956
808.465	2868
808.607	2899
808.749	2845
808.891	2872
809.033	2971
809.174	2975
809.316	2925
809.458	2906
809.6	2754
809.741	2777
809.883	2796
810.025	2876
810.166	2857
810.308	2830
810.45	2872
810.591	2777
810.733	2739
810.875	2842
811.016	2796
811.158	2804
811.299	2842
811.441	2922
811.582	2899
811.724	2842
811.865	2838
812.007	2910
812.148	2842
812.29	2861
812.431	2902
812.573	2963
812.714	2982
812.855	3024
812.997	3066
813.138	3097
813.279	2994
813.421	2982
813.562	2982
813.703	2845
813.845	2902
813.986	2815
814.127	2667
814.268	2868
814.41	2807
814.551	2815
814.692	2906
814.833	2819
814.974	2918
815.115	2967
815.256	2804
815.397	2807
815.539	2883
815.68	2792
815.821	2762
815.962	2941
816.103	2933
816.244	2891
816.385	2887
816.526	2960
816.666	2929
816.807	2739
816.948	2937
817.089	2937
817.23	2842
817.371	2792
817.512	2804
817.653	2853
817.793	2815
817.934	2895
818.075	2956
818.216	3009
818.356	3032
818.497	2891
818.638	2792
818.778	2815
818.919	2823
819.06	2769
819.2	2899
819.341	2849
819.481	2792
819.622	2929
819.762	3119
819.903	3089
820.043	2922
820.184	2887
820.324	2933
820.465	3036
820.605	3024
820.746	3001
820.886	2967
821.026	3089
821.167	3127
821.307	3272
821.447	3306
821.588	3218
821.728	3218
821.868	3222
822.008	3135
822.149	3176
822.289	3233
822.429	3085
822.569	3093
822.709	3169
822.849	3028
822.99	3077
823.13	3161
823.27	3222
823.41	3154
823.55	3161
823.69	3138
823.83	3233
823.97	3097
824.11	2986
824.25	2975
824.389	3100
824.529	3138
824.669	3070
824.809	3173
824.949	3245
825.089	3207
825.228	3176
825.368	3005
825.508	2979
825.648	2979
825.787	3017
825.927	3047
826.067	2963
826.206	3009
826.346	3085
826.485	3116
826.625	3138
826.765	3256
826.904	3195
827.044	3009
827.183	2918
827.323	2880
827.462	3017
827.601	2899
827.741	2910
827.88	2948
828.02	2861
828.159	2963
828.298	3039
828.437	3123
828.577	3066
828.716	3230
828.855	3085
828.994	2922
829.134	2883
829.273	2918
829.412	2864
829.551	2838
829.69	2922
829.829	3009
829.968	3173
830.107	3020
830.246	3047
830.385	2933
830.524	2925
830.663	2842
830.802	2708
830.941	2640
831.08	2648
831.219	2785
831.357	2746
831.496	2948
831.635	2724
831.774	2697
831.913	2640
832.051	2507
832.19	2617
832.329	2708
832.467	2541
832.606	2507
832.744	2602
832.883	2590
833.022	2590
833.16	2602
833.299	2678
833.437	2724
833.576	2712
833.714	2739
833.852	2716
833.991	2781
834.129	2834
834.267	2807
834.406	2804
834.544	2883
834.682	2918
834.821	2857
834.959	3047
835.097	2906
835.235	3024
835.373	3001
835.511	3024
835.65	2979
835.788	3009
835.926	2815
836.064	2823
836.202	2872
836.34	3081
836.478	3211
836.615	3039
836.753	3138
836.891	3161
837.029	3192
837.167	3146
837.305	3085
837.443	3005
837.58	2979
837.718	3142
837.856	3055
837.993	3005
838.131	3116
838.269	3108
838.406	3127
838.544	3108
838.681	2944
838.819	2937
838.956	2781
839.094	2857
839.231	2914
839.369	2990
839.506	3382
839.643	3218
839.781	3001
839.918	3028
840.055	3074
840.193	3062
840.33	3097
840.467	3112
840.604	3157
840.742	3431
840.879	3032
841.016	3108
841.153	3104
841.29	3287
841.427	3313
841.564	3245
841.701	3302
841.838	3188
841.975	3154
842.112	3233
842.249	3085
842.385	3051
842.522	3260
842.659	3047
842.796	3024
842.933	3100
843.069	3062
843.206	3070
843.343	3161
843.479	3108
843.616	3146
843.752	2902
843.889	2868
844.025	3104
844.162	2902
844.298	3051
844.435	2960
844.571	2948
844.708	3077
844.844	3184
844.98	3184
845.117	3195
845.253	3024
845.389	3001
845.525	3119
845.661	3131
845.798	3055
845.934	3104
846.07	3017
846.206	3260
846.342	3321
846.478	3207
846.614	3066
846.75	3039
846.886	3020
847.022	3218
847.158	3184
847.294	3180
847.429	3214
847.565	3226
847.701	3477
847.837	3062
847.972	3043
848.108	3146
848.244	3127
848.379	2971
848.515	2944
848.65	2952
848.786	2982
848.921	3009
849.057	3062
849.192	3165
849.328	3089
849.463	3108
849.598	3036
849.734	3070
849.869	3009
850.004	2906
850.14	2979
850.275	2918
850.41	2834
850.545	2902
850.68	2960
850.815	2922
850.95	2979
851.085	3192
851.22	3112
851.355	3066
851.49	3043
851.625	3005
851.76	3013
851.895	2948
852.03	2956
852.165	3062
852.299	3123
852.434	3233
852.569	3157
852.703	3184
852.838	3321
852.973	3359
853.107	3340
853.242	3173
853.376	3108
853.511	3036
853.645	3070
853.78	3294
853.914	3123
854.048	3131
854.183	3138
854.317	3192
854.451	3340
854.585	3195
854.72	3142
854.854	3264
854.988	3081
855.122	3123
855.256	3001
855.39	3161
855.524	3287
855.658	3184
855.792	3199
855.926	3256
856.06	3245
856.194	3317
856.327	3226
856.461	3123
856.595	3142
856.729	3138
856.862	3264
856.996	3230
857.13	3256
857.263	3237
857.397	3351
857.53	3161
857.664	3268
857.797	3302
857.931	3344
858.064	3256
858.197	3245
858.331	3176
858.464	3116
858.597	3085
858.731	3161
858.864	3184
858.997	3127
859.13	3192
859.263	3211
859.396	3275
859.529	3116
859.662	3135
859.795	3104
859.928	3199
860.061	3340
860.194	3321
860.327	3218
860.46	3146
860.592	3268
860.725	3313
860.858	3313
860.99	3142
861.123	3089
861.256	3085
861.388	3230
861.521	3926
861.653	3077
861.786	3020
861.918	3070
862.05	3112
862.183	3131
862.315	3214
862.447	3233
862.58	3127
862.712	2967
862.844	2937
862.976	3100
863.108	3074
863.24	3363
863.372	2925
863.504	3028
863.636	2963
863.768	3074
863.9	3009
864.032	2956
864.164	3013
864.296	3058
864.428	3108
864.559	3112
864.691	3100
864.823	3157
864.954	3051
865.086	3074
865.217	3036
865.349	3013
865.48	3070
865.612	3036
865.743	3233
865.875	3024
866.006	2990
866.137	3028
866.269	2998
866.4	2979
866.531	2967
866.662	2918
866.793	2937
866.924	2929
867.055	3017
867.186	2979
867.317	2929
867.448	2853
867.579	2895
867.71	2902
867.841	2880
867.972	2952
868.103	2952
868.233	2918
868.364	2937
868.495	2960
868.625	3055
868.756	3222
868.886	2990
869.017	3047
869.147	3180
869.278	3195
869.408	3085
869.539	3081
869.669	3131
869.799	3081
869.929	3207
870.06	3123
870.19	3382
870.32	3310
870.45	3344
870.58	3409
870.71	3466
870.84	3481
870.97	3370
871.1	3283
871.23	3515
871.36	3519
871.489	3405
871.619	3431
871.749	3428
871.879	3466
872.008	3538
872.138	3435
872.267	3340
872.397	3195
872.526	3131
872.656	3058
872.785	3123
872.915	3264
873.044	3359
873.173	3264
873.303	3253
873.432	3302
873.561	3287
873.69	3188
873.819	3165
873.948	3199
874.077	3165
874.206	3077
874.335	3165
874.464	3287
874.593	3443
874.722	3279
874.851	3443
874.979	3370
875.108	3359
875.237	3230
875.365	3207
875.494	3192
875.623	3287
875.751	3112
875.88	3146
876.008	3233
876.136	3268
876.265	3431
876.393	3549
876.521	3496
876.65	3428
876.778	3409
876.906	3302
877.034	3272
877.162	3287
877.29	3260
877.418	3260
877.546	3313
877.674	3321
877.802	3310
877.93	3245
878.058	3176
878.185	3142
878.313	3233
878.441	3275
878.568	3081
878.696	3226
878.824	3264
878.951	3340
879.079	3469
879.206	3679
879.333	3473
879.461	3382
879.588	3386
879.715	3523
879.842	3663
879.97	3450
880.097	3207
880.224	3169
880.351	3199
880.478	3287
880.605	3245
880.732	3249
880.859	3553
880.986	3355
881.112	3374
881.239	3230
881.366	3108
881.493	3070
881.619	3085
881.746	3127
881.872	3131
881.999	3150
882.125	3150
882.252	3268
882.378	3325
882.505	3507
882.631	3325
882.757	3199
882.883	3233
883.01	3260
883.136	3211
883.262	3161
883.388	3150
883.514	3386
883.64	3412
883.766	3370
883.892	3226
884.018	3275
884.143	3504
884.269	3606
884.395	3230
884.52	3203
884.646	3233
884.772	3184
884.897	3184
885.023	3226
885.148	3405
885.274	3416
885.399	3405
885.524	3321
885.65	3348
885.775	3393
885.9	3317
886.025	3496
886.15	3409
886.275	3370
886.4	3275
886.525	3340
886.65	3302
886.775	3336
886.9	3542
887.025	3724
887.149	3405
887.274	3291
887.399	3226
887.523	3241
887.648	3249
887.773	3268
887.897	3447
888.021	3439
888.146	3348
888.27	3500
888.395	3564
888.519	3435
888.643	3447
888.767	3477
888.891	3348
889.015	3310
889.139	3340
889.263	3302
889.387	3420
889.511	3576
889.635	3500
889.759	3313
889.883	3355
890.006	3409
890.13	3515
890.254	3313
890.377	3416
890.501	3222
890.624	3207
890.748	3332
890.871	3218
890.995	3119
891.118	3081
891.241	3260
891.364	3268
891.488	3367
891.611	3214
891.734	3233
891.857	3310
891.98	3275
892.103	3359
892.226	3313
892.349	3233
892.471	3127
892.594	3287
892.717	3348
892.839	3294
892.962	3340
893.085	3340
893.207	3336
893.33	3199
893.452	3226
893.575	3332
893.697	3256
893.819	3511
893.941	3519
894.064	3523
894.186	3359
894.308	3294
894.43	3492
894.552	3580
894.674	3523
894.796	3310
894.918	3355
895.04	3340
895.161	3443
895.283	3450
895.405	3321
895.526	3389
895.648	3466
895.769	3401
895.891	3519
896.012	3488
896.134	3504
896.255	3473
896.376	3386
896.498	3424
896.619	3454
896.74	3397
896.861	3409
896.982	3701
897.103	3873
897.224	3629
897.345	3519
897.466	3511
897.587	3530
897.708	3701
897.828	3561
897.949	3473
898.07	3359
898.19	3439
898.311	3633
898.431	3492
898.552	3542
898.672	3625
898.792	3610
898.913	3564
899.033	3439
899.153	3298
899.273	3256
899.393	3344
899.513	3374
899.633	3310
899.753	3367
899.873	3348
899.993	3420
900.113	3389
900.232	3416
900.352	3370
900.472	3332
900.591	3268
900.711	3329
900.83	3298
900.95	3443
901.069	3526
901.189	3378
901.308	3180
901.427	3119
901.546	3233
901.665	3340
901.784	3336
901.904	3214
902.023	3195
902.141	3066
902.26	2982
902.379	3211
902.498	3131
902.617	3097
902.735	3275
902.854	3253
902.973	3218
903.091	3081
903.21	3066
903.328	3154
903.446	3184
903.565	3135
903.683	3275
903.801	3165
903.919	3272
904.038	3329
904.156	3218
904.274	3344
904.392	3302
904.51	3363
904.627	3389
904.745	3477
904.863	3534
904.981	3329
905.098	3161
905.216	3226
905.334	3336
905.451	3317
905.569	3367
905.686	3443
905.803	3469
905.921	3340
906.038	3496
906.155	3405
906.272	3283
906.389	3332
906.506	3268
906.623	3275
906.74	3321
906.857	3245
906.974	3272
907.091	3492
907.208	3618
907.324	3519
907.441	3393
907.557	3272
907.674	3275
907.79	3264
907.907	3310
908.023	3420
908.139	3412
908.256	3340
908.372	3386
908.488	3378
908.604	3302
908.72	3275
908.836	3313
908.952	3283
909.068	3359
909.184	3526
909.3	3458
909.415	3561
909.531	3526
909.647	3363
909.762	3344
909.878	3317
909.993	3386
910.108	3378
910.224	3355
910.339	3473
910.454	3351
910.57	3321
910.685	3264
910.8	3587
910.915	3587
911.03	3458
911.145	3283
911.259	3302
911.374	3348
911.489	3298
911.604	3272
911.718	3165
911.833	3195
911.947	3055
912.062	2956
912.176	3173
912.291	3237
912.405	3230
912.519	3431
912.633	3530
912.748	3405
912.862	3332
912.976	3173
913.09	3081
913.204	3146
913.318	3249
913.431	3389
913.545	3359
913.659	3412
913.772	3378
913.886	3237
914	3211
914.113	3386
914.226	3458
914.34	3428
914.453	3233
914.566	3397
914.68	3317
914.793	3336
914.906	3195
915.019	3100
915.132	3108
915.245	3176
915.358	3211
915.47	3256
915.583	3321
915.696	3317
915.809	3466
915.921	3431
916.034	3268
916.146	3264
916.259	3237
916.371	3424
916.483	3374
916.595	3310
916.708	3363
916.82	3370
916.932	3363
917.044	3397
917.156	3386
917.268	3272
917.38	3302
917.491	3329
917.603	3370
917.715	3435
917.826	3469
917.938	3397
918.049	3302
918.161	3439
918.272	3576
918.384	3576
918.495	3523
918.606	3378
918.717	3302
918.828	3428
918.939	3466
919.05	3336
919.161	3458
919.272	3218
919.383	3306
919.494	3538
919.604	3686
919.715	3545
919.826	3447
919.936	3473
920.047	3584
920.157	3584
920.267	3781
920.378	3679
920.488	3637
920.598	3774
920.708	3991
920.818	3857
920.928	3930
921.038	4090
921.148	4109
921.258	3766
921.368	3698
921.477	3648
921.587	3587
921.697	3519
921.806	3709
921.916	3599
922.025	3424
922.134	3389
922.244	3409
922.353	3519
922.462	3336
922.571	3245
922.68	3161
922.789	3165
922.898	3253
923.007	3150
923.116	3237
923.224	3256
923.333	3256
923.442	3173
923.55	3169
923.659	3169
923.767	3268
923.876	3184
923.984	3306
924.092	3169
924.201	3264
924.309	3298
924.417	3306
924.525	3253
924.633	3306
924.741	4246
924.849	3127
924.956	3298
925.064	3165
925.172	3108
925.279	3214
925.387	3264
925.494	3226
925.602	3424
925.709	3386
925.816	3253
925.924	3340
926.031	3447
926.138	3405
926.245	3439
926.352	3313
926.459	3443
926.566	3511
926.673	3424
926.779	3302
926.886	3321
926.993	3222
927.099	3173
927.206	3154
927.312	3195
927.419	3264
927.525	3264
927.631	3279
927.737	3218
927.843	3192
927.95	3085
928.056	3188
928.162	3230
928.267	3313
928.373	3964
928.479	3351
928.585	3112
928.69	3294
928.796	3291
928.901	3218
929.007	3104
929.112	3291
929.218	3188
929.323	3184
929.428	3203
929.533	3382
929.638	3180
929.743	3176
929.848	3317
929.953	3260
930.058	3233
930.163	3055
930.267	3074
930.372	3268
930.477	3093
930.581	3374
930.685	3245
930.79	3127
930.894	3180
930.998	3116
931.103	3344
931.207	3013
931.311	3005
931.415	2998
931.519	2868
931.623	2868
