Data from test_V78500241_2018.txt Node
Date: Fri Mar 25 16:29:10 CST 2022
User: usil
Spectrometer: V785-0024
Trigger mode: 0
Integration Time (sec): 4.000000E-1
Scans to average: 1
Nonlinearity correction enabled: false
Boxcar width: 0
Storing dark spectrum: false
XAxis mode: Wavelengths
Number of Pixels in Spectrum: 1024
>>>>>Begin Spectral Data<<<<<
801.071	2960
801.214	2944
801.356	2857
801.499	2899
801.641	2887
801.783	2963
801.926	3077
802.068	2960
802.211	3024
802.353	3039
802.496	2956
802.638	3017
802.78	3077
802.923	3119
803.065	3024
803.208	2906
803.35	2937
803.492	2960
803.635	2963
803.777	2746
803.919	2849
804.061	3237
804.204	2922
804.346	2899
804.488	2842
804.63	2971
804.773	2918
804.915	2891
805.057	3047
805.199	2906
805.341	2956
805.483	3024
805.626	3017
805.768	2960
805.91	3112
806.052	3108
806.194	3093
806.336	3203
806.478	3058
806.62	2937
806.762	2941
806.904	3066
807.046	3180
807.188	3009
807.33	2933
807.472	2956
807.614	2914
807.756	2933
807.898	2918
808.04	2906
808.182	2963
808.324	2941
808.465	2902
808.607	2880
808.749	2815
808.891	2819
809.033	2960
809.174	2914
809.316	2857
809.458	2914
809.6	2762
809.741	2758
809.883	2762
810.025	2857
810.166	2883
810.308	2853
810.45	2849
810.591	2785
810.733	2781
810.875	2826
811.016	2781
811.158	2743
811.299	2804
811.441	2941
811.582	2887
811.724	2826
811.865	2807
812.007	2941
812.148	2834
812.29	2849
812.431	2887
812.573	2918
812.714	3028
812.855	3028
812.997	3085
813.138	3108
813.279	3001
813.421	2937
813.562	2960
813.703	2883
813.845	2864
813.986	2769
814.127	2750
814.268	2796
814.41	2868
814.551	2815
814.692	2880
814.833	2830
814.974	2868
815.115	2925
815.256	2834
815.397	2781
815.539	2845
815.68	2743
815.821	2800
815.962	2929
816.103	2918
816.244	2876
816.385	2887
816.526	2986
816.666	2910
816.807	2750
816.948	2910
817.089	2910
817.23	2842
817.371	2773
817.512	2792
817.653	2849
817.793	2804
817.934	2887
818.075	2952
818.216	2979
818.356	3005
818.497	2902
818.638	2781
818.778	2800
818.919	2823
819.06	2705
819.2	2887
819.341	2826
819.481	2769
819.622	2895
819.762	3070
819.903	3032
820.043	2922
820.184	2876
820.324	2906
820.465	2975
820.605	3013
820.746	3036
820.886	2925
821.026	3100
821.167	3157
821.307	3302
821.447	3272
821.588	3230
821.728	3203
821.868	3173
822.008	3039
822.149	3188
822.289	3207
822.429	3081
822.569	3112
822.709	3169
822.849	3020
822.99	3093
823.13	3169
823.27	3176
823.41	3108
823.55	3169
823.69	3127
823.83	3173
823.97	3131
824.11	2990
824.25	3028
824.389	3055
824.529	3123
824.669	3074
824.809	3188
824.949	3249
825.089	3237
825.228	3195
825.368	3020
825.508	2982
825.648	2979
825.787	3009
825.927	3058
826.067	2982
826.206	3005
826.346	3043
826.485	3085
826.625	3135
826.765	3237
826.904	3275
827.044	3009
827.183	2967
827.323	2918
827.462	2982
827.601	2925
827.741	2952
827.88	2971
828.02	2876
828.159	3009
828.298	3070
828.437	3169
828.577	3066
828.716	3294
828.855	3097
828.994	2979
829.134	2899
829.273	2952
829.412	2891
829.551	2929
829.69	2925
829.829	3039
829.968	3192
830.107	3036
830.246	3062
830.385	2967
830.524	2883
830.663	2864
830.802	2754
830.941	2701
831.08	2663
831.219	2800
831.357	2788
831.496	2975
831.635	2754
831.774	2701
831.913	2724
832.051	2579
832.19	2632
832.329	2712
832.467	2583
832.606	2522
832.744	2590
832.883	2648
833.022	2617
833.16	2655
833.299	2731
833.437	2746
833.576	2716
833.714	2781
833.852	2773
833.991	2830
834.129	2899
834.267	2857
834.406	2811
834.544	2876
834.682	2910
834.821	2906
834.959	3100
835.097	2918
835.235	3100
835.373	2994
835.511	3077
835.65	2960
835.788	3020
835.926	2842
836.064	2838
836.202	2868
836.34	3085
836.478	3176
836.615	3047
836.753	3157
836.891	3222
837.029	3207
837.167	3154
837.305	3100
837.443	3062
837.58	3001
837.718	3157
837.856	3070
837.993	3089
838.131	3138
838.269	3127
838.406	3135
838.544	3104
838.681	2967
838.819	2998
838.956	2834
839.094	2880
839.231	2956
839.369	3017
839.506	3405
839.643	3310
839.781	3043
839.918	3028
840.055	3066
840.193	3066
840.33	3123
840.467	3138
840.604	3192
840.742	3401
840.879	3089
841.016	3055
841.153	3150
841.29	3397
841.427	3306
841.564	3279
841.701	3344
841.838	3245
841.975	3184
842.112	3233
842.249	3062
842.385	3039
842.522	3302
842.659	3119
842.796	3074
842.933	3146
843.069	3024
843.206	3081
843.343	3176
843.479	3127
843.616	3150
843.752	2899
843.889	2891
844.025	3093
844.162	2922
844.298	3116
844.435	2982
844.571	2925
844.708	3093
844.844	3226
844.98	3233
845.117	3169
845.253	3070
845.389	3051
845.525	3131
845.661	3131
845.798	3039
845.934	3157
846.07	3108
846.206	3241
846.342	3367
846.478	3291
846.614	3138
846.75	3066
846.886	3043
847.022	3241
847.158	3169
847.294	3230
847.429	3291
847.565	3264
847.701	3504
847.837	3070
847.972	3051
848.108	3180
848.244	3180
848.379	3028
848.515	2963
848.65	2944
848.786	2994
848.921	3020
849.057	3093
849.192	3218
849.328	3108
849.463	3157
849.598	3089
849.734	3062
849.869	2979
850.004	2960
850.14	2994
850.275	2918
850.41	2880
850.545	2876
850.68	2998
850.815	2998
850.95	3005
851.085	3233
851.22	3142
851.355	3043
851.49	3001
851.625	3032
851.76	3013
851.895	3013
852.03	2956
852.165	3055
852.299	3146
852.434	3199
852.569	3165
852.703	3165
852.838	3226
852.973	3370
853.107	3351
853.242	3150
853.376	3108
853.511	3024
853.645	3074
853.78	3230
853.914	3154
854.048	3127
854.183	3127
854.317	3199
854.451	3313
854.585	3142
854.72	3135
854.854	3233
854.988	3089
855.122	3074
855.256	2986
855.39	3150
855.524	3253
855.658	3192
855.792	3157
855.926	3203
856.06	3222
856.194	3298
856.327	3192
856.461	3097
856.595	3131
856.729	3116
856.862	3264
856.996	3203
857.13	3226
857.263	3264
857.397	3272
857.53	3135
857.664	3237
857.797	3253
857.931	3287
858.064	3188
858.197	3241
858.331	3138
858.464	3077
858.597	2998
858.731	3116
858.864	3173
858.997	3119
859.13	3161
859.263	3169
859.396	3188
859.529	3089
859.662	3116
859.795	3055
859.928	3161
860.061	3279
860.194	3329
860.327	3180
860.46	3127
860.592	3268
860.725	3287
860.858	3294
860.99	3085
861.123	3062
861.256	3055
861.388	3157
861.521	3884
861.653	3017
861.786	3036
861.918	2982
862.05	3066
862.183	3131
862.315	3157
862.447	3249
862.58	3127
862.712	3005
862.844	2899
862.976	3058
863.108	3062
863.24	3306
863.372	2864
863.504	2971
863.636	2933
863.768	3070
863.9	2994
864.032	2887
864.164	2956
864.296	3058
864.428	3077
864.559	3138
864.691	3116
864.823	3097
864.954	3077
865.086	3058
865.217	3005
865.349	2975
865.48	2971
865.612	3043
865.743	3184
865.875	3024
866.006	2971
866.137	3005
866.269	2952
866.4	2986
866.531	2975
866.662	2922
866.793	2925
866.924	2918
867.055	2986
867.186	2902
867.317	2902
867.448	2883
867.579	2891
867.71	2883
867.841	2849
867.972	2899
868.103	2937
868.233	2899
868.364	2872
868.495	2960
868.625	3100
868.756	3203
868.886	2979
869.017	3051
869.147	3173
869.278	3138
869.408	3066
869.539	3055
869.669	3123
869.799	3043
869.929	3184
870.06	3093
870.19	3336
870.32	3298
870.45	3325
870.58	3412
870.71	3507
870.84	3454
870.97	3298
871.1	3233
871.23	3492
871.36	3469
871.489	3355
871.619	3416
871.749	3424
871.879	3469
872.008	3481
872.138	3367
872.267	3302
872.397	3157
872.526	3127
872.656	3028
872.785	3112
872.915	3233
873.044	3336
873.173	3272
873.303	3306
873.432	3283
873.561	3233
873.69	3176
873.819	3199
873.948	3230
874.077	3116
874.206	3036
874.335	3104
874.464	3226
874.593	3344
874.722	3253
874.851	3409
874.979	3405
875.108	3325
875.237	3188
875.365	3157
875.494	3184
875.623	3275
875.751	3112
875.88	3104
876.008	3222
876.136	3230
876.265	3355
876.393	3542
876.521	3435
876.65	3428
876.778	3378
876.906	3268
877.034	3207
877.162	3249
877.29	3211
877.418	3302
877.546	3272
877.674	3260
877.802	3241
877.93	3233
878.058	3180
878.185	3104
878.313	3279
878.441	3253
878.568	3104
878.696	3176
878.824	3275
878.951	3348
879.079	3477
879.206	3660
879.333	3511
879.461	3363
879.588	3355
879.715	3515
879.842	3614
879.97	3424
880.097	3195
880.224	3119
880.351	3173
880.478	3233
880.605	3195
880.732	3211
880.859	3538
880.986	3313
881.112	3340
881.239	3222
881.366	3100
881.493	3074
881.619	3047
881.746	3108
881.872	3104
881.999	3135
882.125	3188
882.252	3260
882.378	3340
882.505	3462
882.631	3275
882.757	3169
882.883	3283
883.01	3256
883.136	3169
883.262	3108
883.388	3116
883.514	3332
883.64	3393
883.766	3321
883.892	3203
884.018	3256
884.143	3397
884.269	3507
884.395	3226
884.52	3146
884.646	3241
884.772	3195
884.897	3123
885.023	3214
885.148	3351
885.274	3416
885.399	3401
885.524	3283
885.65	3272
885.775	3332
885.9	3302
886.025	3473
886.15	3382
886.275	3310
886.4	3264
886.525	3317
886.65	3329
886.775	3317
886.9	3504
887.025	3663
887.149	3401
887.274	3230
887.399	3230
887.523	3241
887.648	3218
887.773	3222
887.897	3363
888.021	3439
888.146	3321
888.27	3458
888.395	3568
888.519	3466
888.643	3428
888.767	3504
888.891	3336
889.015	3241
889.139	3302
889.263	3226
889.387	3431
889.511	3545
889.635	3462
889.759	3310
889.883	3344
890.006	3382
890.13	3492
890.254	3268
890.377	3321
890.501	3211
890.624	3165
890.748	3336
890.871	3214
890.995	3123
891.118	3100
891.241	3195
891.364	3230
891.488	3351
891.611	3195
891.734	3226
891.857	3302
891.98	3272
892.103	3268
892.226	3253
892.349	3218
892.471	3131
892.594	3241
892.717	3306
892.839	3298
892.962	3329
893.085	3382
893.207	3325
893.33	3169
893.452	3184
893.575	3355
893.697	3253
893.819	3424
893.941	3523
894.064	3485
894.186	3294
894.308	3310
894.43	3447
894.552	3545
894.674	3485
894.796	3291
894.918	3340
895.04	3313
895.161	3443
895.283	3412
895.405	3302
895.526	3359
895.648	3424
895.769	3405
895.891	3469
896.012	3477
896.134	3447
896.255	3435
896.376	3397
896.498	3367
896.619	3443
896.74	3336
896.861	3435
896.982	3747
897.103	3857
897.224	3625
897.345	3492
897.466	3454
897.587	3492
897.708	3614
897.828	3557
897.949	3462
898.07	3325
898.19	3386
898.311	3641
898.431	3450
898.552	3504
898.672	3622
898.792	3599
898.913	3500
899.033	3435
899.153	3317
899.273	3268
899.393	3298
899.513	3336
899.633	3332
899.753	3348
899.873	3332
899.993	3412
900.113	3363
900.232	3401
900.352	3348
900.472	3294
900.591	3218
900.711	3313
900.83	3245
900.95	3416
901.069	3488
901.189	3374
901.308	3218
901.427	3142
901.546	3211
901.665	3306
901.784	3313
901.904	3180
902.023	3138
902.141	3005
902.26	3001
902.379	3169
902.498	3055
902.617	3058
902.735	3211
902.854	3256
902.973	3176
903.091	3051
903.21	3081
903.328	3131
903.446	3097
903.565	3112
903.683	3184
903.801	3161
903.919	3264
904.038	3298
904.156	3127
904.274	3310
904.392	3279
904.51	3302
904.627	3321
904.745	3431
904.863	3534
904.981	3260
905.098	3150
905.216	3211
905.334	3294
905.451	3310
905.569	3340
905.686	3424
905.803	3450
905.921	3313
906.038	3447
906.155	3367
906.272	3233
906.389	3325
906.506	3268
906.623	3253
906.74	3283
906.857	3203
906.974	3291
907.091	3447
907.208	3599
907.324	3485
907.441	3397
907.557	3226
907.674	3264
907.79	3211
907.907	3298
908.023	3405
908.139	3397
908.256	3374
908.372	3367
908.488	3317
908.604	3287
908.72	3241
908.836	3268
908.952	3317
909.068	3340
909.184	3488
909.3	3374
909.415	3511
909.531	3504
909.647	3279
909.762	3329
909.878	3260
909.993	3382
910.108	3355
910.224	3344
910.339	3420
910.454	3325
910.57	3298
910.685	3237
910.8	3549
910.915	3553
911.03	3450
911.145	3298
911.259	3279
911.374	3340
911.489	3253
911.604	3241
911.718	3116
911.833	3173
911.947	3047
912.062	2963
912.176	3211
912.291	3237
912.405	3218
912.519	3466
912.633	3481
912.748	3348
912.862	3291
912.976	3207
913.09	3089
913.204	3142
913.318	3237
913.431	3397
913.545	3344
913.659	3401
913.772	3325
913.886	3211
914	3233
914.113	3363
914.226	3431
914.34	3382
914.453	3233
914.566	3443
914.68	3283
914.793	3283
914.906	3173
915.019	3097
915.132	3119
915.245	3195
915.358	3203
915.47	3214
915.583	3279
915.696	3306
915.809	3416
915.921	3439
916.034	3268
916.146	3256
916.259	3203
916.371	3405
916.483	3370
916.595	3313
916.708	3363
916.82	3336
916.932	3317
917.044	3325
917.156	3325
917.268	3256
917.38	3291
917.491	3332
917.603	3420
917.715	3443
917.826	3500
917.938	3389
918.049	3268
918.161	3473
918.272	3584
918.384	3580
918.495	3481
918.606	3355
918.717	3298
918.828	3367
918.939	3450
919.05	3294
919.161	3378
919.272	3237
919.383	3264
919.494	3458
919.604	3671
919.715	3504
919.826	3416
919.936	3447
920.047	3561
920.157	3542
920.267	3770
920.378	3595
920.488	3530
920.598	3770
920.708	3968
920.818	3800
920.928	3808
921.038	4010
921.148	4013
921.258	3667
921.368	3660
921.477	3603
921.587	3530
921.697	3507
921.806	3641
921.916	3507
922.025	3344
922.134	3401
922.244	3294
922.353	3443
922.462	3275
922.571	3214
922.68	3085
922.789	3081
922.898	3157
923.007	3119
923.116	3211
923.224	3131
923.333	3199
923.442	3089
923.55	3100
923.659	3119
923.767	3222
923.876	3142
923.984	3272
924.092	3104
924.201	3192
924.309	3214
924.417	3233
924.525	3188
924.633	3249
924.741	4185
924.849	3051
924.956	3268
925.064	3104
925.172	3032
925.279	3116
925.387	3184
925.494	3180
925.602	3382
925.709	3321
925.816	3165
925.924	3256
926.031	3382
926.138	3287
926.245	3351
926.352	3237
926.459	3420
926.566	3447
926.673	3317
926.779	3237
926.886	3253
926.993	3142
927.099	3146
927.206	3093
927.312	3116
927.419	3222
927.525	3192
927.631	3279
927.737	3142
927.843	3127
927.95	3009
928.056	3119
928.162	3161
928.267	3237
928.373	3850
928.479	3310
928.585	3051
928.69	3249
928.796	3283
928.901	3173
929.007	3039
929.112	3214
929.218	3188
929.323	3119
929.428	3188
929.533	3325
929.638	3100
929.743	3146
929.848	3260
929.953	3195
930.058	3157
930.163	2963
930.267	3039
930.372	3176
930.477	3043
930.581	3306
930.685	3161
930.79	3058
930.894	3138
930.998	3123
931.103	3264
931.207	2948
931.311	2971
931.415	2914
931.519	2785
931.623	2796
