Data from test_V78500241_886.txt Node
Date: Fri Mar 25 16:21:20 CST 2022
User: usil
Spectrometer: V785-0024
Trigger mode: 0
Integration Time (sec): 4.000000E-1
Scans to average: 1
Nonlinearity correction enabled: false
Boxcar width: 0
Storing dark spectrum: false
XAxis mode: Wavelengths
Number of Pixels in Spectrum: 1024
>>>>>Begin Spectral Data<<<<<
801.071	2944
801.214	2990
801.356	2914
801.499	2902
801.641	2914
801.783	2956
801.926	3081
802.068	3013
802.211	3058
802.353	3081
802.496	3001
802.638	3077
802.78	3089
802.923	3112
803.065	3039
803.208	2933
803.35	2925
803.492	2971
803.635	2960
803.777	2769
803.919	2906
804.061	3256
804.204	2944
804.346	2925
804.488	2914
804.63	3043
804.773	2880
804.915	2925
805.057	3131
805.199	2994
805.341	2998
805.483	3077
805.626	3032
805.768	2971
805.91	3116
806.052	3184
806.194	3108
806.336	3272
806.478	3093
806.62	3005
806.762	3036
806.904	3066
807.046	3195
807.188	3039
807.33	2944
807.472	3013
807.614	2975
807.756	3077
807.898	2941
808.04	2910
808.182	2975
808.324	2967
808.465	2933
808.607	2925
808.749	2849
808.891	2876
809.033	3009
809.174	3043
809.316	2918
809.458	2933
809.6	2800
809.741	2804
809.883	2788
810.025	2887
810.166	2906
810.308	2902
810.45	2933
810.591	2781
810.733	2819
810.875	2883
811.016	2819
811.158	2811
811.299	2876
811.441	2941
811.582	2937
811.724	2910
811.865	2834
812.007	2979
812.148	2887
812.29	2891
812.431	2918
812.573	2990
812.714	2994
812.855	3089
812.997	3055
813.138	3127
813.279	3043
813.421	3024
813.562	3001
813.703	2883
813.845	2902
813.986	2792
814.127	2781
814.268	2868
814.41	2895
814.551	2830
814.692	2902
814.833	2826
814.974	2895
815.115	2967
815.256	2887
815.397	2857
815.539	2899
815.68	2804
815.821	2819
815.962	2986
816.103	2952
816.244	2960
816.385	2895
816.526	2956
816.666	2922
816.807	2769
816.948	2906
817.089	2960
817.23	2876
817.371	2796
817.512	2834
817.653	2876
817.793	2830
817.934	2899
818.075	3001
818.216	3043
818.356	3074
818.497	2933
818.638	2857
818.778	2845
818.919	2815
819.06	2788
819.2	2925
819.341	2834
819.481	2826
819.622	2948
819.762	3119
819.903	3074
820.043	2937
820.184	2944
820.324	2933
820.465	3047
820.605	3005
820.746	3074
820.886	2956
821.026	3138
821.167	3207
821.307	3279
821.447	3275
821.588	3264
821.728	3226
821.868	3226
822.008	3104
822.149	3192
822.289	3268
822.429	3119
822.569	3104
822.709	3207
822.849	3039
822.99	3085
823.13	3180
823.27	3211
823.41	3165
823.55	3146
823.69	3180
823.83	3218
823.97	3123
824.11	2982
824.25	3024
824.389	3062
824.529	3119
824.669	3104
824.809	3249
824.949	3298
825.089	3218
825.228	3180
825.368	3051
825.508	2990
825.648	3039
825.787	3028
825.927	3055
826.067	2982
826.206	2990
826.346	3089
826.485	3081
826.625	3146
826.765	3279
826.904	3226
827.044	3039
827.183	2967
827.323	2895
827.462	2998
827.601	2952
827.741	2967
827.88	2963
828.02	2880
828.159	3028
828.298	3074
828.437	3142
828.577	3089
828.716	3268
828.855	3127
828.994	2956
829.134	2922
829.273	2922
829.412	2883
829.551	2925
829.69	2906
829.829	3024
829.968	3131
830.107	3001
830.246	3032
830.385	2941
830.524	2864
830.663	2826
830.802	2746
830.941	2682
831.08	2678
831.219	2781
831.357	2792
831.496	2937
831.635	2750
831.774	2693
831.913	2693
832.051	2587
832.19	2632
832.329	2705
832.467	2568
832.606	2450
832.744	2632
832.883	2598
833.022	2590
833.16	2663
833.299	2724
833.437	2716
833.576	2689
833.714	2720
833.852	2743
833.991	2826
834.129	2842
834.267	2853
834.406	2796
834.544	2891
834.682	2925
834.821	2876
834.959	3055
835.097	2872
835.235	3100
835.373	2998
835.511	3058
835.65	2956
835.788	2979
835.926	2891
836.064	2864
836.202	2864
836.34	3108
836.478	3165
836.615	3043
836.753	3161
836.891	3214
837.029	3192
837.167	3085
837.305	3112
837.443	3097
837.58	2948
837.718	3138
837.856	3085
837.993	3039
838.131	3135
838.269	3119
838.406	3150
838.544	3108
838.681	2975
838.819	2952
838.956	2811
839.094	2838
839.231	2906
839.369	3028
839.506	3367
839.643	3237
839.781	3028
839.918	2998
840.055	3081
840.193	3108
840.33	3116
840.467	3089
840.604	3188
840.742	3450
840.879	3074
841.016	3058
841.153	3131
841.29	3367
841.427	3294
841.564	3294
841.701	3306
841.838	3199
841.975	3142
842.112	3230
842.249	3100
842.385	3028
842.522	3268
842.659	3104
842.796	3066
842.933	3135
843.069	3062
843.206	3066
843.343	3203
843.479	3154
843.616	3169
843.752	2914
843.889	2929
844.025	3119
844.162	2925
844.298	3070
844.435	2994
844.571	2929
844.708	3112
844.844	3192
844.98	3249
845.117	3230
845.253	3074
845.389	3043
845.525	3127
845.661	3089
845.798	3013
845.934	3135
846.07	3039
846.206	3230
846.342	3310
846.478	3264
846.614	3116
846.75	3036
846.886	3024
847.022	3249
847.158	3180
847.294	3192
847.429	3233
847.565	3192
847.701	3507
847.837	3043
847.972	3020
848.108	3176
848.244	3180
848.379	3013
848.515	2967
848.65	2963
848.786	2982
848.921	2994
849.057	3097
849.192	3142
849.328	3108
849.463	3123
849.598	3093
849.734	3058
849.869	3005
850.004	2922
850.14	2975
850.275	2933
850.41	2830
850.545	2876
850.68	2937
850.815	2944
850.95	2979
851.085	3241
851.22	3161
851.355	3066
851.49	3020
851.625	3017
851.76	3039
851.895	2971
852.03	2887
852.165	3051
852.299	3142
852.434	3207
852.569	3150
852.703	3199
852.838	3256
852.973	3367
853.107	3340
853.242	3173
853.376	3138
853.511	3024
853.645	3081
853.78	3245
853.914	3138
854.048	3127
854.183	3066
854.317	3157
854.451	3310
854.585	3154
854.72	3112
854.854	3233
854.988	3089
855.122	3097
855.256	2998
855.39	3161
855.524	3256
855.658	3207
855.792	3192
855.926	3161
856.06	3253
856.194	3279
856.327	3173
856.461	3119
856.595	3074
856.729	3100
856.862	3207
856.996	3184
857.13	3188
857.263	3249
857.397	3253
857.53	3131
857.664	3230
857.797	3249
857.931	3275
858.064	3184
858.197	3218
858.331	3131
858.464	3104
858.597	3028
858.731	3142
858.864	3131
858.997	3097
859.13	3173
859.263	3195
859.396	3211
859.529	3127
859.662	3043
859.795	3047
859.928	3131
860.061	3275
860.194	3268
860.327	3104
860.46	3104
860.592	3214
860.725	3283
860.858	3283
860.99	3135
861.123	3039
861.256	3062
861.388	3188
861.521	3819
861.653	3001
861.786	2986
861.918	3009
862.05	3055
862.183	3119
862.315	3165
862.447	3199
862.58	3116
862.712	2952
862.844	2883
862.976	3055
863.108	3001
863.24	3317
863.372	2906
863.504	2960
863.636	2990
863.768	3043
863.9	2982
864.032	2918
864.164	2944
864.296	3039
864.428	3108
864.559	3097
864.691	3062
864.823	3081
864.954	3051
865.086	3024
865.217	2990
865.349	2937
865.48	3024
865.612	3020
865.743	3184
865.875	2998
866.006	2975
866.137	2986
866.269	2941
866.4	2937
866.531	2967
866.662	2925
866.793	2891
866.924	2872
867.055	2948
867.186	2918
867.317	2887
867.448	2876
867.579	2842
867.71	2864
867.841	2815
867.972	2864
868.103	2910
868.233	2887
868.364	2895
868.495	2906
868.625	3051
868.756	3138
868.886	2948
869.017	3039
869.147	3188
869.278	3146
869.408	3100
869.539	2986
869.669	3085
869.799	3013
869.929	3116
870.06	3116
870.19	3302
870.32	3291
870.45	3321
870.58	3363
870.71	3412
870.84	3447
870.97	3298
871.1	3214
871.23	3454
871.36	3447
871.489	3359
871.619	3409
871.749	3428
871.879	3435
872.008	3511
872.138	3370
872.267	3279
872.397	3188
872.526	3116
872.656	3024
872.785	3116
872.915	3268
873.044	3287
873.173	3211
873.303	3230
873.432	3241
873.561	3264
873.69	3173
873.819	3150
873.948	3184
874.077	3097
874.206	3055
874.335	3116
874.464	3211
874.593	3348
874.722	3230
874.851	3409
874.979	3378
875.108	3329
875.237	3192
875.365	3169
875.494	3157
875.623	3245
875.751	3089
875.88	3116
876.008	3214
876.136	3241
876.265	3405
876.393	3538
876.521	3428
876.65	3397
876.778	3340
876.906	3249
877.034	3218
877.162	3264
877.29	3188
877.418	3249
877.546	3264
877.674	3253
877.802	3264
877.93	3230
878.058	3165
878.185	3093
878.313	3176
878.441	3192
878.568	3081
878.696	3165
878.824	3260
878.951	3321
879.079	3462
879.206	3595
879.333	3428
879.461	3325
879.588	3416
879.715	3473
879.842	3610
879.97	3317
880.097	3169
880.224	3157
880.351	3192
880.478	3275
880.605	3199
880.732	3142
880.859	3511
880.986	3294
881.112	3344
881.239	3192
881.366	3085
881.493	3043
881.619	3032
881.746	3112
881.872	3108
881.999	3104
882.125	3142
882.252	3256
882.378	3275
882.505	3401
882.631	3291
882.757	3165
882.883	3222
883.01	3218
883.136	3150
883.262	3146
883.388	3154
883.514	3302
883.64	3405
883.766	3287
883.892	3203
884.018	3226
884.143	3382
884.269	3511
884.395	3184
884.52	3138
884.646	3192
884.772	3123
884.897	3123
885.023	3230
885.148	3329
885.274	3382
885.399	3363
885.524	3302
885.65	3241
885.775	3283
885.9	3313
886.025	3469
886.15	3374
886.275	3287
886.4	3222
886.525	3275
886.65	3256
886.775	3294
886.9	3492
887.025	3618
887.149	3431
887.274	3279
887.399	3176
887.523	3222
887.648	3195
887.773	3184
887.897	3409
888.021	3397
888.146	3275
888.27	3431
888.395	3534
888.519	3424
888.643	3469
888.767	3469
888.891	3317
889.015	3253
889.139	3272
889.263	3264
889.387	3443
889.511	3534
889.635	3431
889.759	3283
889.883	3317
890.006	3359
890.13	3469
890.254	3283
890.377	3351
890.501	3203
890.624	3165
890.748	3302
890.871	3184
890.995	3173
891.118	3070
891.241	3184
891.364	3203
891.488	3355
891.611	3222
891.734	3226
891.857	3260
891.98	3226
892.103	3363
892.226	3275
892.349	3241
892.471	3123
892.594	3230
892.717	3306
892.839	3287
892.962	3283
893.085	3431
893.207	3321
893.33	3157
893.452	3226
893.575	3382
893.697	3230
893.819	3462
893.941	3504
894.064	3435
894.186	3291
894.308	3256
894.43	3443
894.552	3561
894.674	3473
894.796	3272
894.918	3306
895.04	3291
895.161	3389
895.283	3386
895.405	3325
895.526	3336
895.648	3416
895.769	3469
895.891	3439
896.012	3526
896.134	3450
896.255	3409
896.376	3367
896.498	3351
896.619	3416
896.74	3405
896.861	3397
896.982	3667
897.103	3831
897.224	3606
897.345	3572
897.466	3450
897.587	3515
897.708	3629
897.828	3584
897.949	3454
898.07	3378
898.19	3409
898.311	3618
898.431	3500
898.552	3530
898.672	3599
898.792	3557
898.913	3523
899.033	3389
899.153	3283
899.273	3207
899.393	3245
899.513	3332
899.633	3291
899.753	3367
899.873	3317
899.993	3359
900.113	3332
900.232	3378
900.352	3336
900.472	3298
900.591	3218
900.711	3283
900.83	3199
900.95	3409
901.069	3492
901.189	3367
901.308	3188
901.427	3104
901.546	3207
901.665	3287
901.784	3344
901.904	3176
902.023	3142
902.141	3024
902.26	2982
902.379	3123
902.498	3074
902.617	3097
902.735	3222
902.854	3211
902.973	3192
903.091	2998
903.21	3085
903.328	3123
903.446	3104
903.565	3131
903.683	3199
903.801	3112
903.919	3249
904.038	3253
904.156	3138
904.274	3253
904.392	3275
904.51	3313
904.627	3302
904.745	3466
904.863	3492
904.981	3287
905.098	3176
905.216	3249
905.334	3298
905.451	3306
905.569	3317
905.686	3466
905.803	3466
905.921	3298
906.038	3401
906.155	3370
906.272	3275
906.389	3321
906.506	3184
906.623	3268
906.74	3264
906.857	3146
906.974	3256
907.091	3393
907.208	3549
907.324	3496
907.441	3374
907.557	3211
907.674	3253
907.79	3226
907.907	3272
908.023	3374
908.139	3382
908.256	3340
908.372	3329
908.488	3344
908.604	3218
908.72	3218
908.836	3275
908.952	3260
909.068	3351
909.184	3473
909.3	3405
909.415	3530
909.531	3454
909.647	3264
909.762	3298
909.878	3279
909.993	3370
910.108	3359
910.224	3344
910.339	3431
910.454	3340
910.57	3291
910.685	3218
910.8	3576
910.915	3523
911.03	3431
911.145	3245
911.259	3279
911.374	3317
911.489	3275
911.604	3173
911.718	3077
911.833	3157
911.947	3013
912.062	3005
912.176	3165
912.291	3195
912.405	3222
912.519	3424
912.633	3492
912.748	3359
912.862	3302
912.976	3154
913.09	3062
913.204	3123
913.318	3241
913.431	3363
913.545	3367
913.659	3393
913.772	3359
913.886	3226
914	3184
914.113	3336
914.226	3409
914.34	3367
914.453	3173
914.566	3382
914.68	3313
914.793	3344
914.906	3138
915.019	3070
915.132	3074
915.245	3157
915.358	3192
915.47	3226
915.583	3275
915.696	3268
915.809	3386
915.921	3348
916.034	3272
916.146	3283
916.259	3218
916.371	3378
916.483	3370
916.595	3222
916.708	3313
916.82	3325
916.932	3359
917.044	3325
917.156	3336
917.268	3226
917.38	3275
917.491	3336
917.603	3359
917.715	3428
917.826	3462
917.938	3389
918.049	3291
918.161	3435
918.272	3534
918.384	3549
918.495	3485
918.606	3298
918.717	3298
918.828	3378
918.939	3389
919.05	3317
919.161	3332
919.272	3192
919.383	3241
919.494	3477
919.604	3682
919.715	3462
919.826	3409
919.936	3458
920.047	3584
920.157	3572
920.267	3751
920.378	3603
920.488	3561
920.598	3778
920.708	3937
920.818	3850
920.928	3831
921.038	3994
921.148	4010
921.258	3675
921.368	3622
921.477	3606
921.587	3534
921.697	3511
921.806	3622
921.916	3534
922.025	3351
922.134	3332
922.244	3351
922.353	3412
922.462	3272
922.571	3188
922.68	3089
922.789	3089
922.898	3154
923.007	3097
923.116	3188
923.224	3165
923.333	3180
923.442	3116
923.55	3119
923.659	3131
923.767	3218
923.876	3104
923.984	3230
924.092	3085
924.201	3207
924.309	3203
924.417	3245
924.525	3199
924.633	3249
924.741	4154
924.849	3070
924.956	3275
925.064	3074
925.172	3047
925.279	3135
925.387	3176
925.494	3188
925.602	3378
925.709	3363
925.816	3233
925.924	3279
926.031	3386
926.138	3325
926.245	3378
926.352	3226
926.459	3389
926.566	3469
926.673	3298
926.779	3249
926.886	3230
926.993	3176
927.099	3138
927.206	3104
927.312	3097
927.419	3233
927.525	3230
927.631	3237
927.737	3180
927.843	3127
927.95	2982
928.056	3142
928.162	3150
928.267	3233
928.373	3846
928.479	3298
928.585	3081
928.69	3180
928.796	3253
928.901	3169
929.007	3039
929.112	3218
929.218	3161
929.323	3138
929.428	3119
929.533	3329
929.638	3138
929.743	3146
929.848	3211
929.953	3249
930.058	3146
930.163	3039
930.267	3024
930.372	3184
930.477	3058
930.581	3306
930.685	3176
930.79	3017
930.894	3123
930.998	3062
931.103	3302
931.207	2952
931.311	2952
931.415	2914
931.519	2807
931.623	2781
