Data from test_V78500241_470.txt Node
Date: Fri Mar 25 16:18:27 CST 2022
User: usil
Spectrometer: V785-0024
Trigger mode: 0
Integration Time (sec): 4.000000E-1
Scans to average: 1
Nonlinearity correction enabled: false
Boxcar width: 0
Storing dark spectrum: false
XAxis mode: Wavelengths
Number of Pixels in Spectrum: 1024
>>>>>Begin Spectral Data<<<<<
801.071	2880
801.214	2944
801.356	2872
801.499	2868
801.641	2834
801.783	2929
801.926	3020
802.068	2944
802.211	2956
802.353	3055
802.496	2944
802.638	3005
802.78	3009
802.923	3058
803.065	2956
803.208	2922
803.35	2899
803.492	2933
803.635	2891
803.777	2758
803.919	2857
804.061	3184
804.204	2910
804.346	2861
804.488	2864
804.63	2925
804.773	2819
804.915	2906
805.057	3070
805.199	2925
805.341	2925
805.483	3024
805.626	2979
805.768	2952
805.91	3097
806.052	3112
806.194	2982
806.336	3195
806.478	2998
806.62	2963
806.762	2922
806.904	3020
807.046	3157
807.188	2944
807.33	2929
807.472	2948
807.614	2925
807.756	2979
807.898	2929
808.04	2880
808.182	2918
808.324	2948
808.465	2880
808.607	2876
808.749	2788
808.891	2830
809.033	2967
809.174	2929
809.316	2906
809.458	2872
809.6	2781
809.741	2720
809.883	2731
810.025	2819
810.166	2823
810.308	2815
810.45	2830
810.591	2754
810.733	2773
810.875	2811
811.016	2762
811.158	2758
811.299	2777
811.441	2906
811.582	2872
811.724	2830
811.865	2769
812.007	2914
812.148	2861
812.29	2853
812.431	2849
812.573	2910
812.714	2933
812.855	3017
812.997	3043
813.138	3081
813.279	3013
813.421	2937
813.562	2952
813.703	2880
813.845	2883
813.986	2785
814.127	2705
814.268	2826
814.41	2800
814.551	2830
814.692	2853
814.833	2792
814.974	2902
815.115	2956
815.256	2815
815.397	2811
815.539	2823
815.68	2769
815.821	2754
815.962	2925
816.103	2952
816.244	2864
816.385	2868
816.526	2914
816.666	2914
816.807	2746
816.948	2918
817.089	2883
817.23	2895
817.371	2785
817.512	2762
817.653	2826
817.793	2807
817.934	2883
818.075	2941
818.216	2975
818.356	2998
818.497	2899
818.638	2781
818.778	2781
818.919	2788
819.06	2754
819.2	2845
819.341	2762
819.481	2815
819.622	2925
819.762	3108
819.903	3024
820.043	2910
820.184	2872
820.324	2891
820.465	3001
820.605	3013
820.746	2998
820.886	2910
821.026	3085
821.167	3165
821.307	3237
821.447	3272
821.588	3222
821.728	3180
821.868	3176
822.008	3051
822.149	3169
822.289	3214
822.429	3081
822.569	3108
822.709	3146
822.849	3013
822.99	3051
823.13	3188
823.27	3207
823.41	3085
823.55	3123
823.69	3112
823.83	3184
823.97	3077
824.11	2990
824.25	2967
824.389	3058
824.529	3104
824.669	3043
824.809	3165
824.949	3249
825.089	3176
825.228	3116
825.368	2960
825.508	2960
825.648	2986
825.787	2998
825.927	2994
826.067	2952
826.206	2933
826.346	3024
826.485	3062
826.625	3104
826.765	3214
826.904	3184
827.044	2982
827.183	2944
827.323	2864
827.462	2960
827.601	2914
827.741	2914
827.88	2956
828.02	2868
828.159	2971
828.298	3047
828.437	3085
828.577	3017
828.716	3260
828.855	3055
828.994	2914
829.134	2883
829.273	2960
829.412	2883
829.551	2876
829.69	2902
829.829	2975
829.968	3150
830.107	3013
830.246	3036
830.385	2929
830.524	2880
830.663	2815
830.802	2758
830.941	2670
831.08	2659
831.219	2800
831.357	2777
831.496	2948
831.635	2720
831.774	2693
831.913	2682
832.051	2549
832.19	2606
832.329	2689
832.467	2579
832.606	2541
832.744	2617
832.883	2625
833.022	2632
833.16	2705
833.299	2735
833.437	2735
833.576	2731
833.714	2754
833.852	2796
833.991	2781
834.129	2849
834.267	2834
834.406	2872
834.544	2925
834.682	2922
834.821	2906
834.959	3150
835.097	2941
835.235	3112
835.373	3032
835.511	3036
835.65	3009
835.788	3001
835.926	2883
836.064	2849
836.202	2891
836.34	3116
836.478	3157
836.615	3108
836.753	3226
836.891	3249
837.029	3188
837.167	3138
837.305	3093
837.443	3108
837.58	3020
837.718	3173
837.856	3116
837.993	3055
838.131	3131
838.269	3116
838.406	3161
838.544	3142
838.681	3009
838.819	2979
838.956	2811
839.094	2880
839.231	2963
839.369	3043
839.506	3416
839.643	3233
839.781	3058
839.918	3036
840.055	3089
840.193	3058
840.33	3100
840.467	3089
840.604	3184
840.742	3412
840.879	3047
841.016	3108
841.153	3119
841.29	3405
841.427	3340
841.564	3294
841.701	3340
841.838	3233
841.975	3188
842.112	3264
842.249	3108
842.385	3119
842.522	3260
842.659	3116
842.796	3066
842.933	3131
843.069	3085
843.206	3104
843.343	3188
843.479	3142
843.616	3180
843.752	2944
843.889	2899
844.025	3131
844.162	2910
844.298	3119
844.435	3017
844.571	2941
844.708	3074
844.844	3173
844.98	3275
845.117	3249
845.253	3081
845.389	3055
845.525	3142
845.661	3165
845.798	3066
845.934	3135
846.07	3062
846.206	3272
846.342	3332
846.478	3287
846.614	3089
846.75	3070
846.886	3051
847.022	3233
847.158	3150
847.294	3230
847.429	3268
847.565	3230
847.701	3553
847.837	3055
847.972	3036
848.108	3218
848.244	3176
848.379	2994
848.515	3013
848.65	2960
848.786	3013
848.921	3051
849.057	3135
849.192	3138
849.328	3138
849.463	3135
849.598	3089
849.734	3055
849.869	2990
850.004	2956
850.14	2994
850.275	2967
850.41	2899
850.545	2891
850.68	2952
850.815	2941
850.95	2998
851.085	3222
851.22	3138
851.355	3051
851.49	3020
851.625	3024
851.76	3051
851.895	2971
852.03	2918
852.165	3055
852.299	3154
852.434	3214
852.569	3165
852.703	3180
852.838	3317
852.973	3329
853.107	3359
853.242	3173
853.376	3135
853.511	3009
853.645	3077
853.78	3279
853.914	3154
854.048	3112
854.183	3097
854.317	3184
854.451	3389
854.585	3146
854.72	3108
854.854	3253
854.988	3058
855.122	3142
855.256	2982
855.39	3157
855.524	3272
855.658	3199
855.792	3188
855.926	3195
856.06	3233
856.194	3302
856.327	3188
856.461	3089
856.595	3104
856.729	3119
856.862	3230
856.996	3176
857.13	3214
857.263	3241
857.397	3279
857.53	3108
857.664	3214
857.797	3279
857.931	3291
858.064	3199
858.197	3233
858.331	3173
858.464	3108
858.597	3047
858.731	3123
858.864	3157
858.997	3093
859.13	3188
859.263	3211
859.396	3214
859.529	3108
859.662	3127
859.795	3070
859.928	3154
860.061	3317
860.194	3306
860.327	3127
860.46	3089
860.592	3237
860.725	3260
860.858	3291
860.99	3138
861.123	3085
861.256	3081
861.388	3173
861.521	3983
861.653	3013
861.786	3028
861.918	3036
862.05	3058
862.183	3138
862.315	3169
862.447	3211
862.58	3104
862.712	2990
862.844	2902
862.976	3032
863.108	3039
863.24	3321
863.372	2876
863.504	3009
863.636	2948
863.768	3047
863.9	3036
864.032	2933
864.164	2952
864.296	3028
864.428	3123
864.559	3116
864.691	3089
864.823	3097
864.954	3051
865.086	3077
865.217	2982
865.349	2967
865.48	3017
865.612	3005
865.743	3146
865.875	3020
866.006	2952
866.137	3024
866.269	2967
866.4	2952
866.531	2948
866.662	2914
866.793	2899
866.924	2941
867.055	2990
867.186	2960
867.317	2918
867.448	2880
867.579	2872
867.71	2857
867.841	2849
867.972	2963
868.103	2902
868.233	2937
868.364	2887
868.495	2952
868.625	3119
868.756	3173
868.886	2960
869.017	3047
869.147	3203
869.278	3218
869.408	3066
869.539	3051
869.669	3131
869.799	3077
869.929	3146
870.06	3169
870.19	3336
870.32	3310
870.45	3287
870.58	3370
870.71	3496
870.84	3443
870.97	3294
871.1	3275
871.23	3481
871.36	3481
871.489	3389
871.619	3431
871.749	3386
871.879	3431
872.008	3504
872.138	3401
872.267	3348
872.397	3127
872.526	3093
872.656	3017
872.785	3138
872.915	3268
873.044	3306
873.173	3207
873.303	3302
873.432	3268
873.561	3256
873.69	3161
873.819	3203
873.948	3214
874.077	3093
874.206	3032
874.335	3138
874.464	3256
874.593	3332
874.722	3302
874.851	3435
874.979	3370
875.108	3340
875.237	3230
875.365	3192
875.494	3203
875.623	3294
875.751	3077
875.88	3116
876.008	3195
876.136	3253
876.265	3382
876.393	3511
876.521	3420
876.65	3401
876.778	3374
876.906	3275
877.034	3245
877.162	3249
877.29	3169
877.418	3272
877.546	3253
877.674	3222
877.802	3226
877.93	3233
878.058	3230
878.185	3100
878.313	3222
878.441	3275
878.568	3074
878.696	3180
878.824	3245
878.951	3291
879.079	3477
879.206	3625
879.333	3458
879.461	3329
879.588	3378
879.715	3473
879.842	3599
879.97	3409
880.097	3173
880.224	3146
880.351	3241
880.478	3230
880.605	3207
880.732	3199
880.859	3515
880.986	3294
881.112	3351
881.239	3230
881.366	3100
881.493	3047
881.619	3055
881.746	3104
881.872	3089
881.999	3127
882.125	3154
882.252	3230
882.378	3340
882.505	3443
882.631	3287
882.757	3165
882.883	3218
883.01	3249
883.136	3176
883.262	3116
883.388	3138
883.514	3321
883.64	3412
883.766	3291
883.892	3272
884.018	3264
884.143	3409
884.269	3545
884.395	3188
884.52	3165
884.646	3195
884.772	3123
884.897	3100
885.023	3203
885.148	3367
885.274	3450
885.399	3386
885.524	3321
885.65	3272
885.775	3287
885.9	3291
886.025	3447
886.15	3393
886.275	3306
886.4	3253
886.525	3310
886.65	3275
886.775	3310
886.9	3477
887.025	3629
887.149	3374
887.274	3233
887.399	3188
887.523	3249
887.648	3199
887.773	3192
887.897	3382
888.021	3435
888.146	3287
888.27	3447
888.395	3557
888.519	3466
888.643	3473
888.767	3496
888.891	3332
889.015	3275
889.139	3287
889.263	3272
889.387	3416
889.511	3504
889.635	3431
889.759	3329
889.883	3272
890.006	3393
890.13	3519
890.254	3275
890.377	3340
890.501	3264
890.624	3188
890.748	3313
890.871	3176
890.995	3150
891.118	3097
891.241	3203
891.364	3245
891.488	3321
891.611	3226
891.734	3230
891.857	3287
891.98	3256
892.103	3329
892.226	3340
892.349	3211
892.471	3157
892.594	3268
892.717	3302
892.839	3302
892.962	3275
893.085	3393
893.207	3310
893.33	3180
893.452	3199
893.575	3363
893.697	3283
893.819	3458
893.941	3496
894.064	3462
894.186	3279
894.308	3249
894.43	3485
894.552	3549
894.674	3477
894.796	3275
894.918	3294
895.04	3302
895.161	3435
895.283	3412
895.405	3321
895.526	3397
895.648	3397
895.769	3439
895.891	3431
896.012	3538
896.134	3485
896.255	3389
896.376	3382
896.498	3351
896.619	3416
896.74	3355
896.861	3424
896.982	3698
897.103	3850
897.224	3606
897.345	3519
897.466	3431
897.587	3492
897.708	3603
897.828	3553
897.949	3435
898.07	3359
898.19	3412
898.311	3614
898.431	3450
898.552	3542
898.672	3603
898.792	3580
898.913	3545
899.033	3443
899.153	3268
899.273	3207
899.393	3275
899.513	3306
899.633	3340
899.753	3374
899.873	3321
899.993	3412
900.113	3332
900.232	3412
900.352	3344
900.472	3332
900.591	3180
900.711	3279
900.83	3256
900.95	3386
901.069	3485
901.189	3386
901.308	3173
901.427	3104
901.546	3203
901.665	3306
901.784	3363
901.904	3230
902.023	3203
902.141	3028
902.26	3005
902.379	3093
902.498	3081
902.617	3062
902.735	3211
902.854	3226
902.973	3199
903.091	3039
903.21	3081
903.328	3173
903.446	3142
903.565	3119
903.683	3192
903.801	3161
903.919	3268
904.038	3268
904.156	3146
904.274	3272
904.392	3241
904.51	3294
904.627	3325
904.745	3466
904.863	3519
904.981	3302
905.098	3233
905.216	3249
905.334	3287
905.451	3294
905.569	3336
905.686	3447
905.803	3431
905.921	3272
906.038	3481
906.155	3382
906.272	3275
906.389	3367
906.506	3260
906.623	3302
906.74	3294
906.857	3218
906.974	3268
907.091	3523
907.208	3576
907.324	3538
907.441	3431
907.557	3260
907.674	3272
907.79	3245
907.907	3332
908.023	3420
908.139	3409
908.256	3367
908.372	3397
908.488	3382
908.604	3310
908.72	3313
908.836	3351
908.952	3287
909.068	3401
909.184	3462
909.3	3450
909.415	3572
909.531	3553
909.647	3329
909.762	3363
909.878	3313
909.993	3401
910.108	3409
910.224	3386
910.339	3450
910.454	3355
910.57	3351
910.685	3302
910.8	3606
910.915	3576
911.03	3466
911.145	3310
911.259	3325
911.374	3393
911.489	3272
911.604	3264
911.718	3150
911.833	3169
911.947	3081
912.062	3047
912.176	3192
912.291	3233
912.405	3256
912.519	3450
912.633	3500
912.748	3348
912.862	3325
912.976	3226
913.09	3093
913.204	3207
913.318	3272
913.431	3382
913.545	3378
913.659	3443
913.772	3382
913.886	3272
914	3226
914.113	3386
914.226	3435
914.34	3409
914.453	3226
914.566	3466
914.68	3344
914.793	3348
914.906	3165
915.019	3169
915.132	3131
915.245	3241
915.358	3253
915.47	3272
915.583	3302
915.696	3355
915.809	3428
915.921	3466
916.034	3302
916.146	3268
916.259	3298
916.371	3405
916.483	3370
916.595	3317
916.708	3416
916.82	3363
916.932	3363
917.044	3344
917.156	3397
917.268	3272
917.38	3313
917.491	3321
917.603	3420
917.715	3488
917.826	3504
917.938	3447
918.049	3287
918.161	3492
918.272	3618
918.384	3564
918.495	3561
918.606	3336
918.717	3264
918.828	3435
918.939	3473
919.05	3310
919.161	3374
919.272	3211
919.383	3336
919.494	3534
919.604	3713
919.715	3485
919.826	3412
919.936	3515
920.047	3629
920.157	3553
920.267	3797
920.378	3663
920.488	3652
920.598	3819
920.708	4010
920.818	3869
920.928	3926
921.038	4017
921.148	4055
921.258	3740
921.368	3625
921.477	3576
921.587	3564
921.697	3488
921.806	3667
921.916	3576
922.025	3409
922.134	3424
922.244	3367
922.353	3473
922.462	3336
922.571	3272
922.68	3104
922.789	3093
922.898	3161
923.007	3135
923.116	3218
923.224	3211
923.333	3192
923.442	3100
923.55	3138
923.659	3199
923.767	3253
923.876	3142
923.984	3272
924.092	3127
924.201	3237
924.309	3211
924.417	3313
924.525	3264
924.633	3283
924.741	4059
924.849	3070
924.956	3302
925.064	3123
925.172	3100
925.279	3169
925.387	3218
925.494	3207
925.602	3389
925.709	3370
925.816	3211
925.924	3310
926.031	3409
926.138	3332
926.245	3382
926.352	3313
926.459	3443
926.566	3481
926.673	3367
926.779	3291
926.886	3298
926.993	3199
927.099	3127
927.206	3135
927.312	3138
927.419	3294
927.525	3207
927.631	3313
927.737	3165
927.843	3173
927.95	3066
928.056	3127
928.162	3207
928.267	3302
928.373	3816
928.479	3363
928.585	3097
928.69	3233
928.796	3294
928.901	3211
929.007	3097
929.112	3249
929.218	3222
929.323	3127
929.428	3226
929.533	3367
929.638	3116
929.743	3195
929.848	3268
929.953	3260
930.058	3138
930.163	3047
930.267	3058
930.372	3253
930.477	3085
930.581	3313
930.685	3169
930.79	3081
930.894	3123
930.998	3119
931.103	3275
931.207	2994
931.311	2994
931.415	2975
931.519	2811
931.623	2804
