Data from test_V78500241_1695.txt Node
Date: Fri Mar 25 16:26:56 CST 2022
User: usil
Spectrometer: V785-0024
Trigger mode: 0
Integration Time (sec): 4.000000E-1
Scans to average: 1
Nonlinearity correction enabled: false
Boxcar width: 0
Storing dark spectrum: false
XAxis mode: Wavelengths
Number of Pixels in Spectrum: 1024
>>>>>Begin Spectral Data<<<<<
801.071	2906
801.214	2922
801.356	2880
801.499	2872
801.641	2845
801.783	2902
801.926	3051
802.068	2960
802.211	2975
802.353	3020
802.496	2941
802.638	3009
802.78	3013
802.923	3077
803.065	2952
803.208	2857
803.35	2887
803.492	2952
803.635	2929
803.777	2769
803.919	2864
804.061	3199
804.204	2925
804.346	2880
804.488	2842
804.63	2982
804.773	2868
804.915	2895
805.057	3032
805.199	2899
805.341	2956
805.483	3020
805.626	3020
805.768	2956
805.91	3112
806.052	3085
806.194	3043
806.336	3222
806.478	3028
806.62	2933
806.762	2994
806.904	3055
807.046	3233
807.188	2967
807.33	2902
807.472	3005
807.614	2925
807.756	3005
807.898	2933
808.04	2887
808.182	3009
808.324	2971
808.465	2922
808.607	2872
808.749	2804
808.891	2891
809.033	2944
809.174	2986
809.316	2944
809.458	2918
809.6	2804
809.741	2807
809.883	2785
810.025	2883
810.166	2864
810.308	2864
810.45	2906
810.591	2857
810.733	2781
810.875	2883
811.016	2769
811.158	2842
811.299	2853
811.441	2971
811.582	2906
811.724	2834
811.865	2883
812.007	2941
812.148	2929
812.29	2872
812.431	2887
812.573	2986
812.714	3013
812.855	3093
812.997	3047
813.138	3146
813.279	3013
813.421	2990
813.562	2998
813.703	2918
813.845	2948
813.986	2830
814.127	2766
814.268	2864
814.41	2861
814.551	2815
814.692	2918
814.833	2853
814.974	2956
815.115	3017
815.256	2823
815.397	2857
815.539	2899
815.68	2804
815.821	2823
815.962	2967
816.103	2952
816.244	2899
816.385	2880
816.526	3020
816.666	2933
816.807	2766
816.948	2914
817.089	2948
817.23	2872
817.371	2796
817.512	2834
817.653	2853
817.793	2823
817.934	2880
818.075	2975
818.216	3028
818.356	3024
818.497	2868
818.638	2788
818.778	2849
818.919	2834
819.06	2800
819.2	2891
819.341	2807
819.481	2819
819.622	2944
819.762	3131
819.903	3032
820.043	2929
820.184	2960
820.324	2922
820.465	3043
820.605	3055
820.746	3081
820.886	2956
821.026	3066
821.167	3176
821.307	3283
821.447	3306
821.588	3253
821.728	3218
821.868	3237
822.008	3077
822.149	3214
822.289	3237
822.429	3146
822.569	3112
822.709	3241
822.849	3093
822.99	3089
823.13	3161
823.27	3245
823.41	3180
823.55	3146
823.69	3169
823.83	3192
823.97	3142
824.11	3013
824.25	3028
824.389	3085
824.529	3154
824.669	3100
824.809	3241
824.949	3275
825.089	3245
825.228	3157
825.368	3036
825.508	2975
825.648	2982
825.787	3032
825.927	3017
826.067	2971
826.206	2982
826.346	3047
826.485	3127
826.625	3131
826.765	3329
826.904	3211
827.044	3024
827.183	2933
827.323	2864
827.462	3005
827.601	2979
827.741	2967
827.88	2982
828.02	2883
828.159	2982
828.298	3070
828.437	3150
828.577	3066
828.716	3256
828.855	3074
828.994	2899
829.134	2918
829.273	2952
829.412	2891
829.551	2902
829.69	2910
829.829	3009
829.968	3165
830.107	3043
830.246	3043
830.385	2918
830.524	2914
830.663	2853
830.802	2769
830.941	2655
831.08	2697
831.219	2796
831.357	2815
831.496	2975
831.635	2720
831.774	2689
831.913	2712
832.051	2560
832.19	2610
832.329	2682
832.467	2575
832.606	2473
832.744	2606
832.883	2629
833.022	2651
833.16	2678
833.299	2712
833.437	2727
833.576	2724
833.714	2766
833.852	2758
833.991	2792
834.129	2872
834.267	2834
834.406	2796
834.544	2895
834.682	2891
834.821	2914
834.959	3100
835.097	2929
835.235	3093
835.373	3024
835.511	3036
835.65	2963
835.788	2975
835.926	2853
836.064	2842
836.202	2853
836.34	3097
836.478	3165
836.615	3081
836.753	3150
836.891	3233
837.029	3180
837.167	3116
837.305	3070
837.443	3074
837.58	3005
837.718	3154
837.856	3097
837.993	3055
838.131	3142
838.269	3127
838.406	3119
838.544	3081
838.681	2963
838.819	2933
838.956	2838
839.094	2830
839.231	2933
839.369	3085
839.506	3416
839.643	3226
839.781	3062
839.918	2975
840.055	3062
840.193	3055
840.33	3070
840.467	3135
840.604	3173
840.742	3401
840.879	3085
841.016	3085
841.153	3131
841.29	3359
841.427	3329
841.564	3279
841.701	3317
841.838	3245
841.975	3150
842.112	3279
842.249	3131
842.385	3081
842.522	3272
842.659	3077
842.796	3116
842.933	3135
843.069	3089
843.206	3077
843.343	3199
843.479	3131
843.616	3176
843.752	2944
843.889	2864
844.025	3157
844.162	2906
844.298	3097
844.435	2937
844.571	2944
844.708	3112
844.844	3241
844.98	3222
845.117	3192
845.253	3070
845.389	3017
845.525	3127
845.661	3116
845.798	3036
845.934	3112
846.07	3077
846.206	3237
846.342	3370
846.478	3260
846.614	3093
846.75	3066
846.886	3062
847.022	3306
847.158	3104
847.294	3222
847.429	3268
847.565	3226
847.701	3496
847.837	3058
847.972	3024
848.108	3131
848.244	3154
848.379	3013
848.515	2975
848.65	2929
848.786	2982
848.921	3017
849.057	3112
849.192	3157
849.328	3127
849.463	3135
849.598	3066
849.734	3043
849.869	2990
850.004	2952
850.14	2990
850.275	2933
850.41	2842
850.545	2861
850.68	2956
850.815	3009
850.95	2982
851.085	3199
851.22	3100
851.355	3089
851.49	2979
851.625	2994
851.76	3001
851.895	2956
852.03	2891
852.165	3017
852.299	3085
852.434	3176
852.569	3173
852.703	3192
852.838	3283
852.973	3367
853.107	3329
853.242	3150
853.376	3089
853.511	2982
853.645	3074
853.78	3230
853.914	3119
854.048	3154
854.183	3085
854.317	3138
854.451	3329
854.585	3146
854.72	3108
854.854	3222
854.988	3081
855.122	3123
855.256	2960
855.39	3131
855.524	3283
855.658	3173
855.792	3241
855.926	3222
856.06	3211
856.194	3287
856.327	3188
856.461	3081
856.595	3089
856.729	3112
856.862	3230
856.996	3173
857.13	3249
857.263	3233
857.397	3264
857.53	3097
857.664	3207
857.797	3283
857.931	3287
858.064	3173
858.197	3218
858.331	3150
858.464	3108
858.597	3028
858.731	3142
858.864	3116
858.997	3100
859.13	3176
859.263	3199
859.396	3203
859.529	3077
859.662	3104
859.795	3077
859.928	3135
860.061	3272
860.194	3275
860.327	3176
860.46	3127
860.592	3218
860.725	3260
860.858	3294
860.99	3135
861.123	3055
861.256	3024
861.388	3169
861.521	3861
861.653	3028
861.786	2971
861.918	3009
862.05	3104
862.183	3077
862.315	3218
862.447	3222
862.58	3093
862.712	2956
862.844	2883
862.976	3028
863.108	3024
863.24	3443
863.372	2925
863.504	2967
863.636	2941
863.768	3043
863.9	3005
864.032	2937
864.164	2967
864.296	3024
864.428	3108
864.559	3123
864.691	3081
864.823	3051
864.954	3017
865.086	3085
865.217	3005
865.349	2960
865.48	3017
865.612	3001
865.743	3138
865.875	2971
866.006	2986
866.137	2979
866.269	2952
866.4	2914
866.531	2956
866.662	2883
866.793	2868
866.924	2918
867.055	2937
867.186	2918
867.317	2883
867.448	2853
867.579	2842
867.71	2887
867.841	2815
867.972	2891
868.103	2929
868.233	2895
868.364	2887
868.495	2933
868.625	3093
868.756	3192
868.886	2963
869.017	3024
869.147	3165
869.278	3169
869.408	3077
869.539	3001
869.669	3119
869.799	3074
869.929	3135
870.06	3108
870.19	3310
870.32	3298
870.45	3302
870.58	3409
870.71	3447
870.84	3458
870.97	3310
871.1	3253
871.23	3488
871.36	3447
871.489	3348
871.619	3370
871.749	3412
871.879	3424
872.008	3447
872.138	3363
872.267	3260
872.397	3173
872.526	3123
872.656	3017
872.785	3112
872.915	3256
873.044	3302
873.173	3211
873.303	3230
873.432	3226
873.561	3241
873.69	3203
873.819	3119
873.948	3173
874.077	3089
874.206	3032
874.335	3074
874.464	3260
874.593	3351
874.722	3264
874.851	3382
874.979	3336
875.108	3313
875.237	3211
875.365	3176
875.494	3173
875.623	3241
875.751	3135
875.88	3116
876.008	3192
876.136	3241
876.265	3401
876.393	3492
876.521	3374
876.65	3401
876.778	3340
876.906	3275
877.034	3195
877.162	3260
877.29	3218
877.418	3291
877.546	3245
877.674	3222
877.802	3207
877.93	3245
878.058	3123
878.185	3100
878.313	3207
878.441	3195
878.568	3112
878.696	3154
878.824	3279
878.951	3310
879.079	3416
879.206	3641
879.333	3481
879.461	3275
879.588	3359
879.715	3511
879.842	3603
879.97	3435
880.097	3176
880.224	3157
880.351	3218
880.478	3226
880.605	3195
880.732	3207
880.859	3504
880.986	3287
881.112	3386
881.239	3260
881.366	3154
881.493	3097
881.619	3032
881.746	3112
881.872	3142
881.999	3123
882.125	3180
882.252	3268
882.378	3321
882.505	3488
882.631	3313
882.757	3192
882.883	3207
883.01	3264
883.136	3192
883.262	3157
883.388	3169
883.514	3355
883.64	3428
883.766	3332
883.892	3169
884.018	3283
884.143	3466
884.269	3584
884.395	3233
884.52	3195
884.646	3249
884.772	3127
884.897	3138
885.023	3275
885.148	3351
885.274	3450
885.399	3412
885.524	3313
885.65	3291
885.775	3374
885.9	3310
886.025	3492
886.15	3439
886.275	3340
886.4	3264
886.525	3340
886.65	3272
886.775	3359
886.9	3545
887.025	3656
887.149	3443
887.274	3332
887.399	3237
887.523	3264
887.648	3230
887.773	3230
887.897	3412
888.021	3424
888.146	3359
888.27	3477
888.395	3526
888.519	3515
888.643	3481
888.767	3481
888.891	3329
889.015	3302
889.139	3336
889.263	3260
889.387	3447
889.511	3542
889.635	3481
889.759	3329
889.883	3321
890.006	3405
890.13	3511
890.254	3332
890.377	3344
890.501	3226
890.624	3245
890.748	3351
890.871	3222
890.995	3131
891.118	3097
891.241	3268
891.364	3268
891.488	3393
891.611	3237
891.734	3268
891.857	3306
891.98	3272
892.103	3378
892.226	3325
892.349	3264
892.471	3142
892.594	3256
892.717	3348
892.839	3329
892.962	3298
893.085	3420
893.207	3317
893.33	3184
893.452	3230
893.575	3386
893.697	3283
893.819	3473
893.941	3542
894.064	3492
894.186	3329
894.308	3313
894.43	3439
894.552	3538
894.674	3496
894.796	3310
894.918	3359
895.04	3344
895.161	3481
895.283	3435
895.405	3367
895.526	3382
895.648	3488
895.769	3454
895.891	3447
896.012	3515
896.134	3504
896.255	3454
896.376	3428
896.498	3378
896.619	3496
896.74	3363
896.861	3466
896.982	3751
897.103	3896
897.224	3652
897.345	3545
897.466	3439
897.587	3473
897.708	3679
897.828	3538
897.949	3507
898.07	3370
898.19	3458
898.311	3637
898.431	3473
898.552	3580
898.672	3595
898.792	3587
898.913	3542
899.033	3447
899.153	3291
899.273	3249
899.393	3348
899.513	3325
899.633	3325
899.753	3355
899.873	3348
899.993	3374
900.113	3313
900.232	3378
900.352	3355
900.472	3370
900.591	3249
900.711	3344
900.83	3291
900.95	3435
901.069	3507
901.189	3386
901.308	3207
901.427	3165
901.546	3233
901.665	3287
901.784	3340
901.904	3218
902.023	3157
902.141	3043
902.26	3036
902.379	3184
902.498	3108
902.617	3127
902.735	3245
902.854	3249
902.973	3218
903.091	3070
903.21	3089
903.328	3154
903.446	3131
903.565	3142
903.683	3199
903.801	3150
903.919	3275
904.038	3340
904.156	3214
904.274	3321
904.392	3245
904.51	3321
904.627	3370
904.745	3462
904.863	3534
904.981	3264
905.098	3207
905.216	3268
905.334	3340
905.451	3317
905.569	3321
905.686	3450
905.803	3447
905.921	3332
906.038	3439
906.155	3397
906.272	3329
906.389	3340
906.506	3279
906.623	3279
906.74	3321
906.857	3180
906.974	3283
907.091	3500
907.208	3603
907.324	3492
907.441	3420
907.557	3279
907.674	3298
907.79	3226
907.907	3325
908.023	3416
908.139	3393
908.256	3332
908.372	3378
908.488	3344
908.604	3306
908.72	3245
908.836	3260
908.952	3310
909.068	3382
909.184	3519
909.3	3416
909.415	3504
909.531	3507
909.647	3287
909.762	3306
909.878	3306
909.993	3389
910.108	3367
910.224	3386
910.339	3416
910.454	3370
910.57	3336
910.685	3233
910.8	3576
910.915	3542
911.03	3458
911.145	3260
911.259	3275
911.374	3332
911.489	3310
911.604	3264
911.718	3157
911.833	3184
911.947	3081
912.062	2994
912.176	3211
912.291	3222
912.405	3256
912.519	3458
912.633	3458
912.748	3336
912.862	3344
912.976	3184
913.09	3051
913.204	3119
913.318	3272
913.431	3355
913.545	3363
913.659	3420
913.772	3340
913.886	3256
914	3253
914.113	3374
914.226	3439
914.34	3424
914.453	3241
914.566	3447
914.68	3317
914.793	3336
914.906	3173
915.019	3123
915.132	3127
915.245	3188
915.358	3207
915.47	3283
915.583	3317
915.696	3287
915.809	3409
915.921	3473
916.034	3294
916.146	3275
916.259	3241
916.371	3435
916.483	3401
916.595	3291
916.708	3325
916.82	3351
916.932	3355
917.044	3340
917.156	3386
917.268	3298
917.38	3336
917.491	3302
917.603	3431
917.715	3454
917.826	3492
917.938	3351
918.049	3283
918.161	3450
918.272	3606
918.384	3587
918.495	3515
918.606	3340
918.717	3321
918.828	3401
918.939	3416
919.05	3355
919.161	3386
919.272	3184
919.383	3302
919.494	3538
919.604	3663
919.715	3526
919.826	3420
919.936	3477
920.047	3618
920.157	3584
920.267	3762
920.378	3606
920.488	3599
920.598	3804
920.708	3979
920.818	3838
920.928	3876
921.038	4002
921.148	4013
921.258	3698
921.368	3694
921.477	3595
921.587	3542
921.697	3485
921.806	3637
921.916	3530
922.025	3409
922.134	3370
922.244	3348
922.353	3439
922.462	3287
922.571	3253
922.68	3150
922.789	3097
922.898	3138
923.007	3131
923.116	3233
923.224	3184
923.333	3184
923.442	3070
923.55	3077
923.659	3169
923.767	3207
923.876	3123
923.984	3245
924.092	3100
924.201	3226
924.309	3222
924.417	3253
924.525	3207
924.633	3298
924.741	4025
924.849	3093
924.956	3272
925.064	3146
925.172	3116
925.279	3150
925.387	3226
925.494	3192
925.602	3344
925.709	3344
925.816	3207
925.924	3302
926.031	3412
926.138	3336
926.245	3397
926.352	3268
926.459	3412
926.566	3496
926.673	3332
926.779	3279
926.886	3287
926.993	3173
927.099	3150
927.206	3161
927.312	3150
927.419	3245
927.525	3199
927.631	3264
927.737	3173
927.843	3150
927.95	3032
928.056	3146
928.162	3195
928.267	3283
928.373	3850
928.479	3321
928.585	3100
928.69	3260
928.796	3294
928.901	3165
929.007	3093
929.112	3214
929.218	3207
929.323	3138
929.428	3161
929.533	3332
929.638	3161
929.743	3157
929.848	3287
929.953	3211
930.058	3192
930.163	3001
930.267	3085
930.372	3203
930.477	3039
930.581	3321
930.685	3199
930.79	3058
930.894	3104
930.998	3108
931.103	3294
931.207	2971
931.311	2975
931.415	2929
931.519	2800
931.623	2853
