Data from test_V78500241_1148.txt Node
Date: Fri Mar 25 16:23:09 CST 2022
User: usil
Spectrometer: V785-0024
Trigger mode: 0
Integration Time (sec): 4.000000E-1
Scans to average: 1
Nonlinearity correction enabled: false
Boxcar width: 0
Storing dark spectrum: false
XAxis mode: Wavelengths
Number of Pixels in Spectrum: 1024
>>>>>Begin Spectral Data<<<<<
801.071	2944
801.214	2948
801.356	2933
801.499	2899
801.641	2853
801.783	2933
801.926	3058
802.068	2963
802.211	3009
802.353	3028
802.496	2963
802.638	3017
802.78	3032
802.923	3055
803.065	3005
803.208	2910
803.35	2963
803.492	2967
803.635	2948
803.777	2708
803.919	2861
804.061	3211
804.204	2971
804.346	2922
804.488	2887
804.63	2975
804.773	2895
804.915	2933
805.057	3131
805.199	2948
805.341	2982
805.483	3058
805.626	3013
805.768	2979
805.91	3074
806.052	3112
806.194	3017
806.336	3272
806.478	3005
806.62	2979
806.762	3009
806.904	3074
807.046	3161
807.188	2986
807.33	2895
807.472	2982
807.614	2914
807.756	3005
807.898	2937
808.04	2918
808.182	2975
808.324	2963
808.465	2933
808.607	2899
808.749	2830
808.891	2857
809.033	3005
809.174	2998
809.316	2902
809.458	2895
809.6	2773
809.741	2773
809.883	2758
810.025	2864
810.166	2872
810.308	2823
810.45	2887
810.591	2804
810.733	2781
810.875	2880
811.016	2807
811.158	2750
811.299	2842
811.441	2952
811.582	2902
811.724	2861
811.865	2872
812.007	2933
812.148	2883
812.29	2876
812.431	2895
812.573	2967
812.714	2948
812.855	3097
812.997	3024
813.138	3161
813.279	3043
813.421	2963
813.562	2963
813.703	2887
813.845	2883
813.986	2758
814.127	2762
814.268	2849
814.41	2823
814.551	2800
814.692	2922
814.833	2811
814.974	2902
815.115	2975
815.256	2845
815.397	2819
815.539	2883
815.68	2773
815.821	2804
815.962	2944
816.103	2922
816.244	2918
816.385	2842
816.526	2960
816.666	2925
816.807	2750
816.948	2906
817.089	2929
817.23	2849
817.371	2811
817.512	2823
817.653	2830
817.793	2834
817.934	2876
818.075	2937
818.216	3013
818.356	3009
818.497	2910
818.638	2815
818.778	2838
818.919	2800
819.06	2766
819.2	2876
819.341	2777
819.481	2823
819.622	2937
819.762	3104
819.903	3081
820.043	2948
820.184	2910
820.324	2906
820.465	3032
820.605	3047
820.746	3013
820.886	2948
821.026	3119
821.167	3180
821.307	3291
821.447	3230
821.588	3249
821.728	3233
821.868	3214
822.008	3062
822.149	3188
822.289	3268
822.429	3077
822.569	3142
822.709	3180
822.849	3028
822.99	3055
823.13	3176
823.27	3218
823.41	3104
823.55	3150
823.69	3173
823.83	3211
823.97	3131
824.11	2994
824.25	3005
824.389	3051
824.529	3104
824.669	3097
824.809	3195
824.949	3260
825.089	3203
825.228	3119
825.368	3009
825.508	2944
825.648	2960
825.787	2998
825.927	3017
826.067	2963
826.206	2952
826.346	3032
826.485	3100
826.625	3157
826.765	3306
826.904	3211
827.044	2982
827.183	2933
827.323	2864
827.462	3017
827.601	2910
827.741	2956
827.88	2925
828.02	2853
828.159	2963
828.298	3062
828.437	3116
828.577	3066
828.716	3241
828.855	3097
828.994	2925
829.134	2922
829.273	2914
829.412	2853
829.551	2849
829.69	2891
829.829	3009
829.968	3138
830.107	2994
830.246	3047
830.385	2910
830.524	2887
830.663	2845
830.802	2716
830.941	2644
831.08	2651
831.219	2758
831.357	2731
831.496	2956
831.635	2758
831.774	2648
831.913	2651
832.051	2549
832.19	2606
832.329	2667
832.467	2556
832.606	2503
832.744	2613
832.883	2625
833.022	2594
833.16	2674
833.299	2686
833.437	2705
833.576	2708
833.714	2731
833.852	2773
833.991	2758
834.129	2834
834.267	2853
834.406	2785
834.544	2853
834.682	2880
834.821	2887
834.959	3077
835.097	2918
835.235	3058
835.373	2967
835.511	3028
835.65	2963
835.788	2960
835.926	2857
836.064	2819
836.202	2834
836.34	3074
836.478	3161
836.615	3028
836.753	3127
836.891	3192
837.029	3184
837.167	3123
837.305	3077
837.443	3017
837.58	2967
837.718	3165
837.856	3085
837.993	3017
838.131	3154
838.269	3108
838.406	3116
838.544	3077
838.681	2956
838.819	2952
838.956	2811
839.094	2838
839.231	2899
839.369	3077
839.506	3355
839.643	3180
839.781	3043
839.918	3017
840.055	3036
840.193	3039
840.33	3077
840.467	3074
840.604	3127
840.742	3409
840.879	3028
841.016	3066
841.153	3100
841.29	3291
841.427	3325
841.564	3249
841.701	3306
841.838	3211
841.975	3169
842.112	3233
842.249	3070
842.385	3058
842.522	3283
842.659	3093
842.796	3047
842.933	3081
843.069	3036
843.206	3032
843.343	3241
843.479	3097
843.616	3138
843.752	2910
843.889	2845
844.025	3097
844.162	2925
844.298	3097
844.435	2952
844.571	2948
844.708	3066
844.844	3192
844.98	3237
845.117	3180
845.253	3093
845.389	3013
845.525	3089
845.661	3100
845.798	3009
845.934	3135
846.07	3043
846.206	3226
846.342	3325
846.478	3226
846.614	3093
846.75	3062
846.886	3024
847.022	3249
847.158	3138
847.294	3199
847.429	3241
847.565	3233
847.701	3439
847.837	3047
847.972	3009
848.108	3154
848.244	3150
848.379	2990
848.515	2948
848.65	2952
848.786	2971
848.921	3058
849.057	3116
849.192	3161
849.328	3062
849.463	3097
849.598	3051
849.734	3043
849.869	2994
850.004	2914
850.14	2929
850.275	2880
850.41	2842
850.545	2880
850.68	2979
850.815	2941
850.95	2941
851.085	3207
851.22	3104
851.355	3043
851.49	2963
851.625	3020
851.76	2975
851.895	2975
852.03	2902
852.165	3024
852.299	3081
852.434	3116
852.569	3100
852.703	3150
852.838	3237
852.973	3306
853.107	3359
853.242	3157
853.376	3119
853.511	2990
853.645	3020
853.78	3211
853.914	3135
854.048	3119
854.183	3093
854.317	3123
854.451	3291
854.585	3123
854.72	3085
854.854	3195
854.988	3066
855.122	3085
855.256	2994
855.39	3119
855.524	3260
855.658	3203
855.792	3127
855.926	3157
856.06	3222
856.194	3214
856.327	3150
856.461	3058
856.595	3089
856.729	3100
856.862	3214
856.996	3192
857.13	3176
857.263	3230
857.397	3294
857.53	3104
857.664	3184
857.797	3203
857.931	3260
858.064	3157
858.197	3207
858.331	3108
858.464	3093
858.597	3001
858.731	3116
858.864	3108
858.997	3100
859.13	3116
859.263	3192
859.396	3165
859.529	3062
859.662	3089
859.795	3077
859.928	3138
860.061	3283
860.194	3272
860.327	3146
860.46	3081
860.592	3211
860.725	3287
860.858	3218
860.99	3100
861.123	3039
861.256	3043
861.388	3184
861.521	3751
861.653	3013
861.786	2963
861.918	2982
862.05	3081
862.183	3077
862.315	3154
862.447	3188
862.58	3089
862.712	2967
862.844	2864
862.976	3039
863.108	3032
863.24	3325
863.372	2883
863.504	2941
863.636	2929
863.768	3020
863.9	2971
864.032	2899
864.164	2948
864.296	3005
864.428	3085
864.559	3097
864.691	3024
864.823	3062
864.954	3047
865.086	3047
865.217	3005
865.349	2925
865.48	2975
865.612	2975
865.743	3142
865.875	2990
866.006	2944
866.137	2998
866.269	2944
866.4	2960
866.531	2918
866.662	2857
866.793	2899
866.924	2906
867.055	2963
867.186	2937
867.317	2872
867.448	2853
867.579	2804
867.71	2853
867.841	2838
867.972	2899
868.103	2906
868.233	2864
868.364	2864
868.495	2887
868.625	3070
868.756	3150
868.886	2994
869.017	3024
869.147	3184
869.278	3135
869.408	3070
869.539	3009
869.669	3089
869.799	2975
869.929	3108
870.06	3131
870.19	3340
870.32	3226
870.45	3298
870.58	3374
870.71	3454
870.84	3462
870.97	3317
871.1	3230
871.23	3435
871.36	3443
871.489	3321
871.619	3420
871.749	3363
871.879	3443
872.008	3466
872.138	3363
872.267	3298
872.397	3157
872.526	3112
872.656	2963
872.785	3108
872.915	3268
873.044	3329
873.173	3233
873.303	3233
873.432	3207
873.561	3207
873.69	3161
873.819	3119
873.948	3199
874.077	3108
874.206	3055
874.335	3077
874.464	3195
874.593	3348
874.722	3207
874.851	3382
874.979	3359
875.108	3321
875.237	3195
875.365	3161
875.494	3127
875.623	3222
875.751	3070
875.88	3127
876.008	3184
876.136	3222
876.265	3344
876.393	3523
876.521	3439
876.65	3393
876.778	3325
876.906	3218
877.034	3192
877.162	3211
877.29	3199
877.418	3230
877.546	3256
877.674	3226
877.802	3233
877.93	3233
878.058	3131
878.185	3104
878.313	3188
878.441	3230
878.568	3074
878.696	3146
878.824	3253
878.951	3268
879.079	3443
879.206	3618
879.333	3428
879.461	3332
879.588	3336
879.715	3473
879.842	3584
879.97	3359
880.097	3176
880.224	3116
880.351	3176
880.478	3222
880.605	3207
880.732	3165
880.859	3447
880.986	3275
881.112	3317
881.239	3226
881.366	3108
881.493	3028
881.619	3017
881.746	3070
881.872	3104
881.999	3093
882.125	3150
882.252	3245
882.378	3279
882.505	3428
882.631	3294
882.757	3131
882.883	3184
883.01	3260
883.136	3142
883.262	3070
883.388	3127
883.514	3355
883.64	3355
883.766	3291
883.892	3154
884.018	3249
884.143	3424
884.269	3488
884.395	3195
884.52	3184
884.646	3169
884.772	3135
884.897	3077
885.023	3161
885.148	3336
885.274	3435
885.399	3389
885.524	3264
885.65	3310
885.775	3329
885.9	3291
886.025	3382
886.15	3332
886.275	3272
886.4	3214
886.525	3279
886.65	3306
886.775	3249
886.9	3485
887.025	3595
887.149	3397
887.274	3272
887.399	3173
887.523	3161
887.648	3157
887.773	3207
887.897	3351
888.021	3355
888.146	3268
888.27	3454
888.395	3504
888.519	3435
888.643	3469
888.767	3450
888.891	3298
889.015	3199
889.139	3268
889.263	3260
889.387	3397
889.511	3481
889.635	3409
889.759	3291
889.883	3272
890.006	3386
890.13	3492
890.254	3233
890.377	3313
890.501	3233
890.624	3161
890.748	3298
890.871	3176
890.995	3093
891.118	3093
891.241	3165
891.364	3195
891.488	3298
891.611	3161
891.734	3195
891.857	3233
891.98	3256
892.103	3363
892.226	3291
892.349	3218
892.471	3077
892.594	3237
892.717	3272
892.839	3249
892.962	3275
893.085	3378
893.207	3268
893.33	3154
893.452	3230
893.575	3355
893.697	3249
893.819	3500
893.941	3507
894.064	3447
894.186	3260
894.308	3275
894.43	3420
894.552	3515
894.674	3416
894.796	3279
894.918	3294
895.04	3298
895.161	3416
895.283	3351
895.405	3329
895.526	3397
895.648	3416
895.769	3397
895.891	3473
896.012	3469
896.134	3458
896.255	3393
896.376	3405
896.498	3351
896.619	3397
896.74	3386
896.861	3420
896.982	3663
897.103	3800
897.224	3580
897.345	3481
897.466	3389
897.587	3492
897.708	3591
897.828	3545
897.949	3420
898.07	3306
898.19	3435
898.311	3625
898.431	3443
898.552	3488
898.672	3557
898.792	3603
898.913	3492
899.033	3412
899.153	3302
899.273	3226
899.393	3253
899.513	3298
899.633	3329
899.753	3298
899.873	3317
899.993	3386
900.113	3351
900.232	3409
900.352	3378
900.472	3298
900.591	3211
900.711	3241
900.83	3237
900.95	3412
901.069	3462
901.189	3359
901.308	3150
901.427	3104
901.546	3195
901.665	3294
901.784	3355
901.904	3165
902.023	3169
902.141	2971
902.26	2986
902.379	3150
902.498	3070
902.617	3005
902.735	3199
902.854	3245
902.973	3188
903.091	3051
903.21	3043
903.328	3123
903.446	3116
903.565	3100
903.683	3195
903.801	3142
903.919	3222
904.038	3245
904.156	3142
904.274	3306
904.392	3222
904.51	3302
904.627	3310
904.745	3374
904.863	3523
904.981	3245
905.098	3176
905.216	3230
905.334	3363
905.451	3302
905.569	3237
905.686	3412
905.803	3431
905.921	3294
906.038	3405
906.155	3370
906.272	3253
906.389	3325
906.506	3230
906.623	3222
906.74	3245
906.857	3180
906.974	3253
907.091	3370
907.208	3561
907.324	3492
907.441	3393
907.557	3268
907.674	3241
907.79	3192
907.907	3264
908.023	3428
908.139	3329
908.256	3340
908.372	3374
908.488	3340
908.604	3279
908.72	3207
908.836	3294
908.952	3275
909.068	3355
909.184	3485
909.3	3397
909.415	3507
909.531	3507
909.647	3298
909.762	3268
909.878	3256
909.993	3401
910.108	3336
910.224	3367
910.339	3443
910.454	3351
910.57	3302
910.685	3241
910.8	3568
910.915	3549
911.03	3431
911.145	3279
911.259	3264
911.374	3317
911.489	3222
911.604	3211
911.718	3146
911.833	3146
911.947	2994
912.062	2956
912.176	3165
912.291	3199
912.405	3195
912.519	3424
912.633	3462
912.748	3351
912.862	3249
912.976	3165
913.09	3039
913.204	3138
913.318	3192
913.431	3306
913.545	3348
913.659	3378
913.772	3332
913.886	3203
914	3214
914.113	3370
914.226	3397
914.34	3367
914.453	3245
914.566	3412
914.68	3313
914.793	3283
914.906	3146
915.019	3142
915.132	3043
915.245	3184
915.358	3157
915.47	3226
915.583	3264
915.696	3264
915.809	3424
915.921	3412
916.034	3264
916.146	3222
916.259	3253
916.371	3382
916.483	3355
916.595	3279
916.708	3378
916.82	3317
916.932	3351
917.044	3332
917.156	3336
917.268	3245
917.38	3313
917.491	3329
917.603	3359
917.715	3439
917.826	3462
917.938	3374
918.049	3294
918.161	3409
918.272	3545
918.384	3553
918.495	3481
918.606	3302
918.717	3294
918.828	3351
918.939	3405
919.05	3340
919.161	3340
919.272	3192
919.383	3256
919.494	3481
919.604	3679
919.715	3500
919.826	3386
919.936	3443
920.047	3595
920.157	3534
920.267	3804
920.378	3576
920.488	3542
920.598	3789
920.708	3956
920.818	3819
920.928	3854
921.038	3987
921.148	4029
921.258	3705
921.368	3667
921.477	3595
921.587	3511
921.697	3473
921.806	3606
921.916	3542
922.025	3348
922.134	3348
922.244	3310
922.353	3389
922.462	3298
922.571	3192
922.68	3100
922.789	3104
922.898	3081
923.007	3112
923.116	3214
923.224	3180
923.333	3188
923.442	3100
923.55	3093
923.659	3135
923.767	3203
923.876	3108
923.984	3233
924.092	3058
924.201	3176
924.309	3222
924.417	3272
924.525	3146
924.633	3233
924.741	3979
924.849	3043
924.956	3287
925.064	3104
925.172	3039
925.279	3043
925.387	3150
925.494	3165
925.602	3367
925.709	3279
925.816	3161
925.924	3287
926.031	3359
926.138	3294
926.245	3409
926.352	3241
926.459	3389
926.566	3450
926.673	3291
926.779	3275
926.886	3203
926.993	3154
927.099	3138
927.206	3131
927.312	3123
927.419	3222
927.525	3211
927.631	3291
927.737	3146
927.843	3119
927.95	3036
928.056	3131
928.162	3157
928.267	3233
928.373	3861
928.479	3336
928.585	3055
928.69	3188
928.796	3291
928.901	3150
929.007	3077
929.112	3207
929.218	3173
929.323	3119
929.428	3119
929.533	3298
929.638	3157
929.743	3154
929.848	3272
929.953	3207
930.058	3150
930.163	2994
930.267	3032
930.372	3169
930.477	3039
930.581	3332
930.685	3192
930.79	3043
930.894	3108
930.998	3081
931.103	3283
931.207	2967
931.311	2948
931.415	2925
931.519	2773
931.623	2800
