Data from test_V78500241_54.txt Node
Date: Fri Mar 25 16:15:34 CST 2022
User: usil
Spectrometer: V785-0024
Trigger mode: 0
Integration Time (sec): 4.000000E-1
Scans to average: 1
Nonlinearity correction enabled: false
Boxcar width: 0
Storing dark spectrum: false
XAxis mode: Wavelengths
Number of Pixels in Spectrum: 1024
>>>>>Begin Spectral Data<<<<<
801.071	2952
801.214	2960
801.356	2910
801.499	2922
801.641	2922
801.783	2944
801.926	3097
802.068	3005
802.211	3024
802.353	3097
802.496	2998
802.638	3047
802.78	3089
802.923	3146
803.065	2998
803.208	2925
803.35	2918
803.492	2971
803.635	2948
803.777	2796
803.919	2891
804.061	3253
804.204	2975
804.346	2929
804.488	2868
804.63	3020
804.773	2895
804.915	2902
805.057	3119
805.199	2937
805.341	3024
805.483	3066
805.626	3036
805.768	3013
805.91	3131
806.052	3123
806.194	3070
806.336	3291
806.478	3036
806.62	2982
806.762	3028
806.904	3062
807.046	3192
807.188	3039
807.33	2956
807.472	3024
807.614	2922
807.756	3005
807.898	2941
808.04	2925
808.182	3009
808.324	2994
808.465	2937
808.607	2922
808.749	2830
808.891	2868
809.033	3047
809.174	3005
809.316	2910
809.458	2918
809.6	2792
809.741	2807
809.883	2800
810.025	2849
810.166	2887
810.308	2868
810.45	2868
810.591	2777
810.733	2781
810.875	2876
811.016	2807
811.158	2788
811.299	2842
811.441	2967
811.582	2914
811.724	2849
811.865	2826
812.007	2929
812.148	2948
812.29	2864
812.431	2933
812.573	2971
812.714	2975
812.855	3055
812.997	3093
813.138	3127
813.279	3032
813.421	3017
813.562	2998
813.703	2895
813.845	2887
813.986	2804
814.127	2746
814.268	2842
814.41	2868
814.551	2853
814.692	2914
814.833	2883
814.974	2941
815.115	2967
815.256	2876
815.397	2804
815.539	2891
815.68	2819
815.821	2807
815.962	2990
816.103	2971
816.244	2922
816.385	2929
816.526	3001
816.666	2960
816.807	2754
816.948	2925
817.089	2922
817.23	2910
817.371	2788
817.512	2838
817.653	2887
817.793	2880
817.934	2918
818.075	2975
818.216	3051
818.356	3058
818.497	2922
818.638	2845
818.778	2872
818.919	2815
819.06	2781
819.2	2883
819.341	2826
819.481	2815
819.622	2956
819.762	3173
819.903	3127
820.043	2967
820.184	2914
820.324	2929
820.465	3062
820.605	3104
820.746	3039
820.886	2944
821.026	3104
821.167	3180
821.307	3272
821.447	3336
821.588	3283
821.728	3253
821.868	3222
822.008	3119
822.149	3222
822.289	3260
822.429	3157
822.569	3131
822.709	3218
822.849	3093
822.99	3108
823.13	3218
823.27	3230
823.41	3150
823.55	3180
823.69	3211
823.83	3203
823.97	3127
824.11	3058
824.25	3036
824.389	3127
824.529	3138
824.669	3127
824.809	3226
824.949	3302
825.089	3256
825.228	3180
825.368	3058
825.508	2963
825.648	2994
825.787	3047
825.927	3077
826.067	2952
826.206	3001
826.346	3047
826.485	3112
826.625	3127
826.765	3283
826.904	3272
827.044	2994
827.183	2979
827.323	2849
827.462	3039
827.601	2952
827.741	2963
827.88	2982
828.02	2872
828.159	3001
828.298	3055
828.437	3169
828.577	3066
828.716	3253
828.855	3131
828.994	2948
829.134	2922
829.273	2929
829.412	2922
829.551	2891
829.69	2895
829.829	3017
829.968	3123
830.107	3036
830.246	3043
830.385	2925
830.524	2906
830.663	2849
830.802	2762
830.941	2697
831.08	2682
831.219	2743
831.357	2743
831.496	2982
831.635	2758
831.774	2720
831.913	2689
832.051	2560
832.19	2606
832.329	2712
832.467	2484
832.606	2461
832.744	2579
832.883	2594
833.022	2598
833.16	2678
833.299	2701
833.437	2754
833.576	2720
833.714	2769
833.852	2777
833.991	2781
834.129	2853
834.267	2826
834.406	2823
834.544	2891
834.682	2895
834.821	2933
834.959	3089
835.097	2941
835.235	3097
835.373	3051
835.511	2998
835.65	2979
835.788	2971
835.926	2876
836.064	2868
836.202	2891
836.34	3104
836.478	3188
836.615	3097
836.753	3150
836.891	3279
837.029	3173
837.167	3119
837.305	3100
837.443	3077
837.58	2929
837.718	3173
837.856	3097
837.993	3070
838.131	3138
838.269	3146
838.406	3077
838.544	3093
838.681	2971
838.819	2914
838.956	2819
839.094	2815
839.231	2956
839.369	3100
839.506	3412
839.643	3253
839.781	3070
839.918	3001
840.055	3055
840.193	3066
840.33	3081
840.467	3116
840.604	3169
840.742	3466
840.879	3085
841.016	3081
841.153	3131
841.29	3374
841.427	3329
841.564	3272
841.701	3344
841.838	3260
841.975	3192
842.112	3272
842.249	3093
842.385	3062
842.522	3275
842.659	3104
842.796	3123
842.933	3161
843.069	3089
843.206	3070
843.343	3256
843.479	3138
843.616	3150
843.752	2922
843.889	2922
844.025	3123
844.162	2853
844.298	3138
844.435	3001
844.571	2922
844.708	3104
844.844	3241
844.98	3241
845.117	3218
845.253	3108
845.389	3020
845.525	3157
845.661	3119
845.798	3039
845.934	3188
846.07	3070
846.206	3230
846.342	3378
846.478	3272
846.614	3108
846.75	3100
846.886	3062
847.022	3306
847.158	3169
847.294	3226
847.429	3272
847.565	3253
847.701	3542
847.837	3081
847.972	3017
848.108	3199
848.244	3184
848.379	3032
848.515	2998
848.65	2944
848.786	3013
848.921	3036
849.057	3097
849.192	3195
849.328	3070
849.463	3135
849.598	3116
849.734	3070
849.869	3020
850.004	2986
850.14	2986
850.275	2918
850.41	2845
850.545	2933
850.68	2975
850.815	2956
850.95	2994
851.085	3207
851.22	3161
851.355	3062
851.49	3024
851.625	3028
851.76	3055
851.895	2956
852.03	2963
852.165	3066
852.299	3165
852.434	3199
852.569	3184
852.703	3161
852.838	3218
852.973	3378
853.107	3313
853.242	3173
853.376	3131
853.511	3009
853.645	3081
853.78	3233
853.914	3173
854.048	3123
854.183	3081
854.317	3173
854.451	3317
854.585	3180
854.72	3131
854.854	3241
854.988	3112
855.122	3112
855.256	3013
855.39	3142
855.524	3272
855.658	3195
855.792	3161
855.926	3237
856.06	3260
856.194	3298
856.327	3218
856.461	3119
856.595	3077
856.729	3154
856.862	3279
856.996	3199
857.13	3268
857.263	3241
857.397	3302
857.53	3169
857.664	3207
857.797	3283
857.931	3310
858.064	3192
858.197	3253
858.331	3154
858.464	3146
858.597	3043
858.731	3138
858.864	3169
858.997	3093
859.13	3165
859.263	3233
859.396	3260
859.529	3131
859.662	3104
859.795	3074
859.928	3161
860.061	3336
860.194	3291
860.327	3161
860.46	3116
860.592	3279
860.725	3283
860.858	3256
860.99	3135
861.123	3062
861.256	3047
861.388	3154
861.521	3915
861.653	3051
861.786	3032
861.918	3017
862.05	3097
862.183	3104
862.315	3169
862.447	3226
862.58	3138
862.712	2948
862.844	2895
862.976	3036
863.108	3024
863.24	3355
863.372	2899
863.504	3009
863.636	2982
863.768	3047
863.9	2990
864.032	2948
864.164	2944
864.296	2998
864.428	3131
864.559	3150
864.691	3093
864.823	3074
864.954	3062
865.086	3097
865.217	3024
865.349	2967
865.48	2979
865.612	3077
865.743	3176
865.875	2986
866.006	2952
866.137	3028
866.269	2956
866.4	2975
866.531	2937
866.662	2925
866.793	2937
866.924	2899
867.055	2990
867.186	2948
867.317	2910
867.448	2864
867.579	2887
867.71	2861
867.841	2838
867.972	2929
868.103	2933
868.233	2941
868.364	2902
868.495	2922
868.625	3146
868.756	3211
868.886	2963
869.017	3028
869.147	3173
869.278	3184
869.408	3077
869.539	3070
869.669	3112
869.799	3081
869.929	3150
870.06	3127
870.19	3374
870.32	3302
870.45	3363
870.58	3412
870.71	3515
870.84	3500
870.97	3355
871.1	3321
871.23	3549
871.36	3530
871.489	3378
871.619	3447
871.749	3447
871.879	3477
872.008	3545
872.138	3397
872.267	3344
872.397	3199
872.526	3165
872.656	3081
872.785	3138
872.915	3291
873.044	3416
873.173	3313
873.303	3325
873.432	3313
873.561	3355
873.69	3253
873.819	3237
873.948	3283
874.077	3184
874.206	3097
874.335	3142
874.464	3302
874.593	3462
874.722	3321
874.851	3481
874.979	3420
875.108	3359
875.237	3279
875.365	3279
875.494	3272
875.623	3306
875.751	3165
875.88	3195
876.008	3313
876.136	3302
876.265	3439
876.393	3599
876.521	3545
876.65	3466
876.778	3389
876.906	3336
877.034	3325
877.162	3340
877.29	3226
877.418	3340
877.546	3329
877.674	3321
877.802	3294
877.93	3313
878.058	3241
878.185	3176
878.313	3283
878.441	3313
878.568	3192
878.696	3218
878.824	3348
878.951	3401
879.079	3561
879.206	3667
879.333	3496
879.461	3382
879.588	3435
879.715	3568
879.842	3663
879.97	3428
880.097	3264
880.224	3233
880.351	3253
880.478	3291
880.605	3287
880.732	3264
880.859	3572
880.986	3370
881.112	3416
881.239	3264
881.366	3180
881.493	3108
881.619	3127
881.746	3150
881.872	3165
881.999	3150
882.125	3214
882.252	3310
882.378	3389
882.505	3500
882.631	3336
882.757	3237
882.883	3253
883.01	3294
883.136	3222
883.262	3142
883.388	3157
883.514	3382
883.64	3492
883.766	3382
883.892	3294
884.018	3325
884.143	3481
884.269	3610
884.395	3279
884.52	3253
884.646	3279
884.772	3203
884.897	3214
885.023	3268
885.148	3378
885.274	3481
885.399	3435
885.524	3412
885.65	3348
885.775	3401
885.9	3310
886.025	3511
886.15	3416
886.275	3363
886.4	3291
886.525	3378
886.65	3325
886.775	3359
886.9	3587
887.025	3713
887.149	3447
887.274	3340
887.399	3249
887.523	3272
887.648	3275
887.773	3256
887.897	3473
888.021	3500
888.146	3363
888.27	3507
888.395	3610
888.519	3488
888.643	3534
888.767	3511
888.891	3409
889.015	3287
889.139	3367
889.263	3291
889.387	3450
889.511	3549
889.635	3534
889.759	3306
889.883	3340
890.006	3424
890.13	3549
890.254	3313
890.377	3405
890.501	3302
890.624	3260
890.748	3336
890.871	3256
890.995	3142
891.118	3116
891.241	3256
891.364	3302
891.488	3416
891.611	3249
891.734	3291
891.857	3382
891.98	3321
892.103	3405
892.226	3344
892.349	3355
892.471	3203
892.594	3321
892.717	3306
892.839	3332
892.962	3363
893.085	3428
893.207	3367
893.33	3256
893.452	3279
893.575	3409
893.697	3348
893.819	3523
893.941	3561
894.064	3526
894.186	3348
894.308	3302
894.43	3519
894.552	3660
894.674	3568
894.796	3344
894.918	3424
895.04	3340
895.161	3515
895.283	3454
895.405	3393
895.526	3462
895.648	3515
895.769	3511
895.891	3545
896.012	3576
896.134	3511
896.255	3488
896.376	3466
896.498	3450
896.619	3504
896.74	3435
896.861	3492
896.982	3728
897.103	3884
897.224	3633
897.345	3584
897.466	3523
897.587	3564
897.708	3660
897.828	3641
897.949	3466
898.07	3386
898.19	3473
898.311	3682
898.431	3488
898.552	3610
898.672	3633
898.792	3682
898.913	3591
899.033	3496
899.153	3359
899.273	3298
899.393	3374
899.513	3405
899.633	3401
899.753	3416
899.873	3355
899.993	3439
900.113	3424
900.232	3443
900.352	3428
900.472	3367
900.591	3275
900.711	3363
900.83	3294
900.95	3496
901.069	3538
901.189	3443
901.308	3237
901.427	3176
901.546	3275
901.665	3359
901.784	3401
901.904	3279
902.023	3226
902.141	3055
902.26	3085
902.379	3188
902.498	3135
902.617	3112
902.735	3268
902.854	3302
902.973	3260
903.091	3081
903.21	3077
903.328	3207
903.446	3195
903.565	3161
903.683	3230
903.801	3199
903.919	3310
904.038	3325
904.156	3264
904.274	3359
904.392	3363
904.51	3355
904.627	3393
904.745	3488
904.863	3584
904.981	3321
905.098	3237
905.216	3302
905.334	3317
905.451	3370
905.569	3359
905.686	3530
905.803	3519
905.921	3351
906.038	3488
906.155	3458
906.272	3329
906.389	3386
906.506	3310
906.623	3325
906.74	3325
906.857	3272
906.974	3329
907.091	3526
907.208	3644
907.324	3545
907.441	3466
907.557	3298
907.674	3294
907.79	3264
907.907	3367
908.023	3424
908.139	3397
908.256	3355
908.372	3389
908.488	3428
908.604	3329
908.72	3317
908.836	3344
908.952	3344
909.068	3424
909.184	3549
909.3	3454
909.415	3564
909.531	3542
909.647	3378
909.762	3382
909.878	3302
909.993	3443
910.108	3416
910.224	3382
910.339	3488
910.454	3420
910.57	3321
910.685	3355
910.8	3660
910.915	3580
911.03	3511
911.145	3378
911.259	3329
911.374	3367
911.489	3302
911.604	3332
911.718	3207
911.833	3211
911.947	3081
912.062	3028
912.176	3253
912.291	3268
912.405	3260
912.519	3515
912.633	3526
912.748	3412
912.862	3351
912.976	3180
913.09	3176
913.204	3207
913.318	3294
913.431	3416
913.545	3409
913.659	3488
913.772	3374
913.886	3298
914	3253
914.113	3454
914.226	3485
914.34	3466
914.453	3306
914.566	3488
914.68	3370
914.793	3397
914.906	3245
915.019	3176
915.132	3138
915.245	3249
915.358	3291
915.47	3287
915.583	3325
915.696	3348
915.809	3469
915.921	3511
916.034	3355
916.146	3302
916.259	3302
916.371	3428
916.483	3389
916.595	3336
916.708	3416
916.82	3401
916.932	3389
917.044	3420
917.156	3401
917.268	3325
917.38	3378
917.491	3351
917.603	3447
917.715	3515
917.826	3526
917.938	3496
918.049	3329
918.161	3496
918.272	3637
918.384	3622
918.495	3530
918.606	3389
918.717	3344
918.828	3469
918.939	3511
919.05	3363
919.161	3428
919.272	3245
919.383	3332
919.494	3557
919.604	3747
919.715	3572
919.826	3530
919.936	3530
920.047	3679
920.157	3614
920.267	3819
920.378	3667
920.488	3606
920.598	3888
920.708	4010
920.818	3899
920.928	3915
921.038	4078
921.148	4032
921.258	3740
921.368	3705
921.477	3663
921.587	3587
921.697	3534
921.806	3701
921.916	3595
922.025	3439
922.134	3431
922.244	3359
922.353	3504
922.462	3348
922.571	3287
922.68	3146
922.789	3173
922.898	3214
923.007	3169
923.116	3275
923.224	3214
923.333	3230
923.442	3146
923.55	3131
923.659	3226
923.767	3306
923.876	3199
923.984	3313
924.092	3188
924.201	3256
924.309	3294
924.417	3351
924.525	3233
924.633	3302
924.741	4219
924.849	3127
924.956	3348
925.064	3188
925.172	3093
925.279	3199
925.387	3241
925.494	3256
925.602	3416
925.709	3409
925.816	3245
925.924	3348
926.031	3435
926.138	3374
926.245	3412
926.352	3363
926.459	3473
926.566	3519
926.673	3370
926.779	3313
926.886	3340
926.993	3211
927.099	3184
927.206	3180
927.312	3165
927.419	3291
927.525	3272
927.631	3351
927.737	3188
927.843	3207
927.95	3089
928.056	3157
928.162	3256
928.267	3302
928.373	3838
928.479	3370
928.585	3119
928.69	3268
928.796	3317
928.901	3226
929.007	3108
929.112	3253
929.218	3256
929.323	3199
929.428	3211
929.533	3374
929.638	3123
929.743	3211
929.848	3313
929.953	3253
930.058	3184
930.163	3039
930.267	3089
930.372	3245
930.477	3131
930.581	3393
930.685	3260
930.79	3104
930.894	3150
930.998	3150
931.103	3302
931.207	3043
931.311	2986
931.415	2956
931.519	2830
931.623	2853
