Data from test_V78500241_668.txt Node
Date: Fri Mar 25 16:19:49 CST 2022
User: usil
Spectrometer: V785-0024
Trigger mode: 0
Integration Time (sec): 4.000000E-1
Scans to average: 1
Nonlinearity correction enabled: false
Boxcar width: 0
Storing dark spectrum: false
XAxis mode: Wavelengths
Number of Pixels in Spectrum: 1024
>>>>>Begin Spectral Data<<<<<
801.071	2914
801.214	2937
801.356	2853
801.499	2922
801.641	2910
801.783	2952
801.926	3070
802.068	2982
802.211	2982
802.353	2990
802.496	2971
802.638	3009
802.78	3036
802.923	3081
803.065	3013
803.208	2925
803.35	2902
803.492	2910
803.635	2929
803.777	2754
803.919	2815
804.061	3195
804.204	2929
804.346	2891
804.488	2868
804.63	2963
804.773	2883
804.915	2933
805.057	3100
805.199	2952
805.341	2979
805.483	3058
805.626	2986
805.768	2944
805.91	3085
806.052	3074
806.194	3017
806.336	3222
806.478	3028
806.62	2941
806.762	2944
806.904	3047
807.046	3146
807.188	2982
807.33	2922
807.472	3028
807.614	2906
807.756	2948
807.898	2925
808.04	2861
808.182	2990
808.324	2925
808.465	2876
808.607	2864
808.749	2788
808.891	2872
809.033	2998
809.174	3013
809.316	2872
809.458	2876
809.6	2746
809.741	2785
809.883	2788
810.025	2834
810.166	2849
810.308	2853
810.45	2849
810.591	2785
810.733	2769
810.875	2834
811.016	2758
811.158	2762
811.299	2804
811.441	2918
811.582	2925
811.724	2819
811.865	2815
812.007	2902
812.148	2864
812.29	2853
812.431	2914
812.573	2929
812.714	2944
812.855	3017
812.997	3036
813.138	3089
813.279	3001
813.421	2979
813.562	2960
813.703	2845
813.845	2876
813.986	2796
814.127	2739
814.268	2807
814.41	2830
814.551	2796
814.692	2880
814.833	2815
814.974	2864
815.115	2933
815.256	2834
815.397	2785
815.539	2868
815.68	2777
815.821	2769
815.962	2941
816.103	2918
816.244	2876
816.385	2834
816.526	2948
816.666	2914
816.807	2716
816.948	2864
817.089	2925
817.23	2826
817.371	2766
817.512	2773
817.653	2826
817.793	2823
817.934	2849
818.075	2960
818.216	2971
818.356	3001
818.497	2883
818.638	2769
818.778	2823
818.919	2762
819.06	2781
819.2	2899
819.341	2804
819.481	2796
819.622	2891
819.762	3089
819.903	3039
820.043	2914
820.184	2910
820.324	2906
820.465	2986
820.605	3032
820.746	3062
820.886	2941
821.026	3100
821.167	3108
821.307	3260
821.447	3268
821.588	3218
821.728	3154
821.868	3218
822.008	3093
822.149	3138
822.289	3192
822.429	3100
822.569	3074
822.709	3214
822.849	3028
822.99	3047
823.13	3214
823.27	3188
823.41	3077
823.55	3173
823.69	3157
823.83	3203
823.97	3085
824.11	3005
824.25	3009
824.389	3089
824.529	3116
824.669	3085
824.809	3192
824.949	3214
825.089	3237
825.228	3184
825.368	2971
825.508	2960
825.648	2937
825.787	3028
825.927	3005
826.067	2986
826.206	2963
826.346	3036
826.485	3058
826.625	3116
826.765	3241
826.904	3222
827.044	3009
827.183	2956
827.323	2857
827.462	2994
827.601	2944
827.741	2944
827.88	2922
828.02	2887
828.159	2922
828.298	2990
828.437	3058
828.577	3066
828.716	3237
828.855	3058
828.994	2902
829.134	2861
829.273	2937
829.412	2853
829.551	2872
829.69	2883
829.829	2967
829.968	3097
830.107	3043
830.246	3017
830.385	2864
830.524	2876
830.663	2807
830.802	2693
830.941	2617
831.08	2651
831.219	2766
831.357	2693
831.496	2937
831.635	2739
831.774	2632
831.913	2651
832.051	2492
832.19	2610
832.329	2682
832.467	2549
832.606	2480
832.744	2571
832.883	2590
833.022	2564
833.16	2651
833.299	2670
833.437	2708
833.576	2720
833.714	2739
833.852	2678
833.991	2785
834.129	2807
834.267	2807
834.406	2796
834.544	2853
834.682	2857
834.821	2845
834.959	3074
835.097	2887
835.235	3058
835.373	3009
835.511	3024
835.65	2979
835.788	2929
835.926	2853
836.064	2792
836.202	2864
836.34	3100
836.478	3173
836.615	3024
836.753	3119
836.891	3207
837.029	3154
837.167	3089
837.305	3077
837.443	3039
837.58	2937
837.718	3089
837.856	3066
837.993	3017
838.131	3119
838.269	3066
838.406	3066
838.544	3089
838.681	2925
838.819	2925
838.956	2796
839.094	2819
839.231	2906
839.369	3005
839.506	3363
839.643	3138
839.781	3036
839.918	2922
840.055	3047
840.193	3028
840.33	3036
840.467	3089
840.604	3154
840.742	3363
840.879	3028
841.016	3024
841.153	3112
841.29	3298
841.427	3272
841.564	3237
841.701	3321
841.838	3218
841.975	3157
842.112	3195
842.249	3062
842.385	3036
842.522	3256
842.659	3077
842.796	3043
842.933	3062
843.069	2998
843.206	3043
843.343	3169
843.479	3108
843.616	3157
843.752	2891
843.889	2845
844.025	3081
844.162	2891
844.298	3074
844.435	2956
844.571	2880
844.708	3074
844.844	3173
844.98	3241
845.117	3184
845.253	3085
845.389	3005
845.525	3077
845.661	3085
845.798	2990
845.934	3146
846.07	3028
846.206	3241
846.342	3302
846.478	3188
846.614	3070
846.75	3074
846.886	3009
847.022	3230
847.158	3112
847.294	3180
847.429	3237
847.565	3207
847.701	3488
847.837	3051
847.972	3017
848.108	3146
848.244	3146
848.379	2960
848.515	2933
848.65	2910
848.786	2971
848.921	3051
849.057	3135
849.192	3142
849.328	3074
849.463	3108
849.598	3085
849.734	3013
849.869	2975
850.004	2910
850.14	2963
850.275	2906
850.41	2838
850.545	2899
850.68	2864
850.815	2979
850.95	2944
851.085	3195
851.22	3089
851.355	2998
851.49	2979
851.625	2960
851.76	2986
851.895	2925
852.03	2914
852.165	3032
852.299	3135
852.434	3135
852.569	3119
852.703	3195
852.838	3218
852.973	3329
853.107	3332
853.242	3188
853.376	3108
853.511	2986
853.645	3009
853.78	3233
853.914	3097
854.048	3104
854.183	3077
854.317	3142
854.451	3283
854.585	3138
854.72	3070
854.854	3203
854.988	3070
855.122	3089
855.256	2960
855.39	3127
855.524	3226
855.658	3135
855.792	3112
855.926	3211
856.06	3180
856.194	3245
856.327	3135
856.461	3058
856.595	3039
856.729	3066
856.862	3233
856.996	3176
857.13	3176
857.263	3218
857.397	3279
857.53	3119
857.664	3199
857.797	3218
857.931	3298
858.064	3157
858.197	3180
858.331	3131
858.464	3047
858.597	2963
858.731	3135
858.864	3127
858.997	3097
859.13	3180
859.263	3188
859.396	3211
859.529	3093
859.662	3108
859.795	3066
859.928	3108
860.061	3264
860.194	3264
860.327	3116
860.46	3085
860.592	3195
860.725	3230
860.858	3222
860.99	3081
861.123	3058
861.256	3085
861.388	3116
861.521	3819
861.653	2990
861.786	2982
861.918	3005
862.05	3058
862.183	3123
862.315	3142
862.447	3157
862.58	3055
862.712	2941
862.844	2857
862.976	3024
863.108	2979
863.24	3416
863.372	2861
863.504	2979
863.636	2918
863.768	3036
863.9	2986
864.032	2883
864.164	2925
864.296	3047
864.428	3077
864.559	3074
864.691	3070
864.823	3047
864.954	3043
865.086	3055
865.217	2971
865.349	2967
865.48	3005
865.612	3024
865.743	3154
865.875	2971
866.006	2891
866.137	2982
866.269	2956
866.4	2960
866.531	2891
866.662	2868
866.793	2887
866.924	2857
867.055	2956
867.186	2891
867.317	2868
867.448	2830
867.579	2796
867.71	2826
867.841	2845
867.972	2906
868.103	2899
868.233	2857
868.364	2872
868.495	2861
868.625	3074
868.756	3176
868.886	2967
869.017	3024
869.147	3146
869.278	3161
869.408	3036
869.539	2994
869.669	3085
869.799	3028
869.929	3112
870.06	3112
870.19	3313
870.32	3294
870.45	3253
870.58	3370
870.71	3397
870.84	3409
870.97	3310
871.1	3211
871.23	3477
871.36	3435
871.489	3313
871.619	3386
871.749	3370
871.879	3420
872.008	3477
872.138	3325
872.267	3249
872.397	3116
872.526	3089
872.656	2994
872.785	3085
872.915	3241
873.044	3321
873.173	3226
873.303	3237
873.432	3230
873.561	3241
873.69	3150
873.819	3123
873.948	3203
874.077	3104
874.206	3062
874.335	3077
874.464	3218
874.593	3329
874.722	3226
874.851	3393
874.979	3355
875.108	3332
875.237	3157
875.365	3165
875.494	3127
875.623	3241
875.751	3032
875.88	3119
876.008	3184
876.136	3249
876.265	3359
876.393	3466
876.521	3447
876.65	3370
876.778	3325
876.906	3241
877.034	3192
877.162	3211
877.29	3142
877.418	3283
877.546	3222
877.674	3233
877.802	3233
877.93	3211
878.058	3150
878.185	3085
878.313	3154
878.441	3161
878.568	3074
878.696	3165
878.824	3275
878.951	3294
879.079	3439
879.206	3625
879.333	3420
879.461	3336
879.588	3329
879.715	3466
879.842	3568
879.97	3386
880.097	3119
880.224	3112
880.351	3192
880.478	3199
880.605	3169
880.732	3165
880.859	3488
880.986	3253
881.112	3355
881.239	3192
881.366	3085
881.493	3005
881.619	2998
881.746	3066
881.872	3070
881.999	3051
882.125	3123
882.252	3241
882.378	3313
882.505	3428
882.631	3253
882.757	3157
882.883	3195
883.01	3260
883.136	3150
883.262	3062
883.388	3104
883.514	3325
883.64	3340
883.766	3279
883.892	3176
884.018	3237
884.143	3431
884.269	3526
884.395	3180
884.52	3119
884.646	3146
884.772	3108
884.897	3112
885.023	3214
885.148	3351
885.274	3386
885.399	3393
885.524	3241
885.65	3260
885.775	3298
885.9	3291
886.025	3424
886.15	3382
886.275	3287
886.4	3230
886.525	3329
886.65	3283
886.775	3272
886.9	3485
887.025	3614
887.149	3397
887.274	3211
887.399	3169
887.523	3195
887.648	3199
887.773	3188
887.897	3382
888.021	3378
888.146	3294
888.27	3435
888.395	3500
888.519	3428
888.643	3466
888.767	3454
888.891	3264
889.015	3233
889.139	3275
889.263	3249
889.387	3401
889.511	3504
889.635	3435
889.759	3310
889.883	3325
890.006	3420
890.13	3466
890.254	3253
890.377	3344
890.501	3241
890.624	3184
890.748	3302
890.871	3184
890.995	3089
891.118	3085
891.241	3211
891.364	3253
891.488	3302
891.611	3165
891.734	3214
891.857	3287
891.98	3226
892.103	3355
892.226	3283
892.349	3233
892.471	3104
892.594	3150
892.717	3306
892.839	3279
892.962	3264
893.085	3370
893.207	3294
893.33	3157
893.452	3245
893.575	3332
893.697	3211
893.819	3466
893.941	3481
894.064	3454
894.186	3249
894.308	3264
894.43	3485
894.552	3526
894.674	3450
894.796	3287
894.918	3275
895.04	3287
895.161	3416
895.283	3378
895.405	3279
895.526	3302
895.648	3412
895.769	3420
895.891	3450
896.012	3466
896.134	3447
896.255	3424
896.376	3370
896.498	3389
896.619	3420
896.74	3363
896.861	3363
896.982	3690
897.103	3835
897.224	3549
897.345	3526
897.466	3450
897.587	3504
897.708	3595
897.828	3538
897.949	3439
898.07	3355
898.19	3420
898.311	3584
898.431	3462
898.552	3511
898.672	3584
898.792	3557
898.913	3519
899.033	3397
899.153	3306
899.273	3245
899.393	3298
899.513	3317
899.633	3287
899.753	3340
899.873	3313
899.993	3409
900.113	3336
900.232	3393
900.352	3340
900.472	3287
900.591	3165
900.711	3317
900.83	3237
900.95	3374
901.069	3485
901.189	3306
901.308	3154
901.427	3089
901.546	3173
901.665	3298
901.784	3317
901.904	3214
902.023	3135
902.141	3020
902.26	3024
902.379	3100
902.498	3043
902.617	3055
902.735	3241
902.854	3222
902.973	3211
903.091	3028
903.21	3093
903.328	3131
903.446	3104
903.565	3077
903.683	3214
903.801	3123
903.919	3253
904.038	3237
904.156	3142
904.274	3279
904.392	3245
904.51	3275
904.627	3325
904.745	3431
904.863	3485
904.981	3218
905.098	3173
905.216	3272
905.334	3283
905.451	3310
905.569	3287
905.686	3443
905.803	3443
905.921	3279
906.038	3401
906.155	3329
906.272	3268
906.389	3344
906.506	3233
906.623	3264
906.74	3268
906.857	3165
906.974	3264
907.091	3454
907.208	3580
907.324	3481
907.441	3386
907.557	3245
907.674	3222
907.79	3207
907.907	3272
908.023	3363
908.139	3412
908.256	3302
908.372	3363
908.488	3332
908.604	3253
908.72	3230
908.836	3275
908.952	3272
909.068	3317
909.184	3458
909.3	3351
909.415	3458
909.531	3443
909.647	3275
909.762	3230
909.878	3264
909.993	3359
910.108	3298
910.224	3336
910.339	3397
910.454	3344
910.57	3264
910.685	3264
910.8	3595
910.915	3538
911.03	3443
911.145	3268
911.259	3245
911.374	3310
911.489	3275
911.604	3222
911.718	3119
911.833	3150
911.947	3020
912.062	2979
912.176	3157
912.291	3188
912.405	3176
912.519	3405
912.633	3500
912.748	3310
912.862	3230
912.976	3131
913.09	3062
913.204	3169
913.318	3253
913.431	3336
913.545	3359
913.659	3416
913.772	3272
913.886	3195
914	3203
914.113	3359
914.226	3454
914.34	3344
914.453	3245
914.566	3439
914.68	3306
914.793	3306
914.906	3146
915.019	3131
915.132	3051
915.245	3169
915.358	3173
915.47	3226
915.583	3283
915.696	3287
915.809	3397
915.921	3439
916.034	3294
916.146	3264
916.259	3218
916.371	3344
916.483	3370
916.595	3241
916.708	3340
916.82	3336
916.932	3363
917.044	3336
917.156	3348
917.268	3233
917.38	3291
917.491	3275
917.603	3382
917.715	3447
917.826	3431
917.938	3370
918.049	3264
918.161	3409
918.272	3557
918.384	3538
918.495	3477
918.606	3336
918.717	3275
918.828	3359
918.939	3397
919.05	3283
919.161	3367
919.272	3161
919.383	3325
919.494	3500
919.604	3671
919.715	3477
919.826	3351
919.936	3488
920.047	3599
920.157	3545
920.267	3751
920.378	3591
920.488	3530
920.598	3732
920.708	3979
920.818	3850
920.928	3793
921.038	4067
921.148	3968
921.258	3705
921.368	3656
921.477	3534
921.587	3545
921.697	3420
921.806	3603
921.916	3538
922.025	3336
922.134	3310
922.244	3313
922.353	3431
922.462	3245
922.571	3214
922.68	3097
922.789	3043
922.898	3135
923.007	3119
923.116	3237
923.224	3173
923.333	3192
923.442	3100
923.55	3077
923.659	3138
923.767	3226
923.876	3100
923.984	3214
924.092	3074
924.201	3226
924.309	3218
924.417	3222
924.525	3146
924.633	3207
924.741	4048
924.849	3036
924.956	3253
925.064	3097
925.172	3024
925.279	3062
925.387	3207
925.494	3176
925.602	3351
925.709	3275
925.816	3207
925.924	3272
926.031	3382
926.138	3321
926.245	3386
926.352	3218
926.459	3416
926.566	3504
926.673	3325
926.779	3207
926.886	3260
926.993	3161
927.099	3146
927.206	3097
927.312	3116
927.419	3253
927.525	3192
927.631	3279
927.737	3150
927.843	3097
927.95	3009
928.056	3138
928.162	3165
928.267	3199
928.373	3740
928.479	3302
928.585	3070
928.69	3203
928.796	3241
928.901	3184
929.007	3058
929.112	3203
929.218	3154
929.323	3180
929.428	3150
929.533	3306
929.638	3116
929.743	3180
929.848	3241
929.953	3180
930.058	3146
930.163	2986
930.267	3043
930.372	3192
930.477	3047
930.581	3287
930.685	3176
930.79	3024
930.894	3173
930.998	3081
931.103	3260
931.207	2967
931.311	2925
931.415	2914
931.519	2769
931.623	2781
