Data from test_V78500241_1819.txt Node
Date: Fri Mar 25 16:27:48 CST 2022
User: usil
Spectrometer: V785-0024
Trigger mode: 0
Integration Time (sec): 4.000000E-1
Scans to average: 1
Nonlinearity correction enabled: false
Boxcar width: 0
Storing dark spectrum: false
XAxis mode: Wavelengths
Number of Pixels in Spectrum: 1024
>>>>>Begin Spectral Data<<<<<
801.071	2906
801.214	2937
801.356	2895
801.499	2895
801.641	2849
801.783	2891
801.926	3039
802.068	3032
802.211	2990
802.353	3039
802.496	2967
802.638	3005
802.78	3039
802.923	3032
803.065	2986
803.208	2922
803.35	2914
803.492	2952
803.635	2925
803.777	2758
803.919	2857
804.061	3173
804.204	2937
804.346	2910
804.488	2895
804.63	2979
804.773	2883
804.915	2914
805.057	3108
805.199	2929
805.341	2963
805.483	3013
805.626	2963
805.768	2979
805.91	3081
806.052	3142
806.194	3051
806.336	3203
806.478	3024
806.62	2956
806.762	2982
806.904	3047
807.046	3131
807.188	3009
807.33	2918
807.472	3013
807.614	2944
807.756	2990
807.898	2914
808.04	2918
808.182	2971
808.324	2933
808.465	2883
808.607	2876
808.749	2819
808.891	2834
809.033	3009
809.174	2971
809.316	2857
809.458	2910
809.6	2804
809.741	2766
809.883	2788
810.025	2849
810.166	2895
810.308	2826
810.45	2872
810.591	2800
810.733	2758
810.875	2804
811.016	2766
811.158	2735
811.299	2819
811.441	2910
811.582	2883
811.724	2857
811.865	2811
812.007	2929
812.148	2849
812.29	2872
812.431	2922
812.573	2906
812.714	2975
812.855	3051
812.997	3020
813.138	3127
813.279	3001
813.421	2986
813.562	2990
813.703	2887
813.845	2826
813.986	2804
814.127	2697
814.268	2811
814.41	2842
814.551	2807
814.692	2906
814.833	2819
814.974	2887
815.115	2925
815.256	2872
815.397	2800
815.539	2815
815.68	2758
815.821	2819
815.962	2925
816.103	2948
816.244	2872
816.385	2861
816.526	2960
816.666	2937
816.807	2754
816.948	2872
817.089	2887
817.23	2880
817.371	2788
817.512	2807
817.653	2872
817.793	2811
817.934	2910
818.075	2952
818.216	2986
818.356	3020
818.497	2891
818.638	2807
818.778	2800
818.919	2788
819.06	2777
819.2	2861
819.341	2781
819.481	2807
819.622	2960
819.762	3089
819.903	3020
820.043	2922
820.184	2864
820.324	2914
820.465	2998
820.605	3032
820.746	3028
820.886	2914
821.026	3127
821.167	3123
821.307	3275
821.447	3291
821.588	3237
821.728	3207
821.868	3192
822.008	3108
822.149	3188
822.289	3222
822.429	3093
822.569	3077
822.709	3135
822.849	3028
822.99	3058
823.13	3157
823.27	3165
823.41	3142
823.55	3150
823.69	3131
823.83	3127
823.97	3081
824.11	3020
824.25	2975
824.389	3039
824.529	3116
824.669	3055
824.809	3188
824.949	3230
825.089	3207
825.228	3150
825.368	3013
825.508	2975
825.648	2971
825.787	2971
825.927	3043
826.067	2967
826.206	2975
826.346	3028
826.485	3093
826.625	3108
826.765	3275
826.904	3214
827.044	2979
827.183	2906
827.323	2838
827.462	2990
827.601	2895
827.741	2948
827.88	2948
828.02	2868
828.159	2941
828.298	3032
828.437	3070
828.577	3020
828.716	3237
828.855	3097
828.994	2914
829.134	2902
829.273	2887
829.412	2845
829.551	2887
829.69	2922
829.829	2967
829.968	3131
830.107	2986
830.246	3005
830.385	2937
830.524	2861
830.663	2800
830.802	2720
830.941	2617
831.08	2663
831.219	2796
831.357	2739
831.496	2967
831.635	2701
831.774	2644
831.913	2659
832.051	2556
832.19	2571
832.329	2678
832.467	2526
832.606	2465
832.744	2549
832.883	2598
833.022	2556
833.16	2640
833.299	2708
833.437	2689
833.576	2689
833.714	2708
833.852	2739
833.991	2769
834.129	2819
834.267	2849
834.406	2773
834.544	2861
834.682	2845
834.821	2883
834.959	3058
835.097	2872
835.235	3074
835.373	2982
835.511	2994
835.65	2933
835.788	2963
835.926	2830
836.064	2796
836.202	2853
836.34	3070
836.478	3116
836.615	3043
836.753	3127
836.891	3199
837.029	3161
837.167	3100
837.305	3058
837.443	3051
837.58	2971
837.718	3093
837.856	3032
837.993	3020
838.131	3093
838.269	3123
838.406	3089
838.544	3116
838.681	2914
838.819	2975
838.956	2800
839.094	2819
839.231	2948
839.369	3032
839.506	3351
839.643	3226
839.781	3039
839.918	2922
840.055	3062
840.193	3039
840.33	3039
840.467	3074
840.604	3131
840.742	3351
840.879	3013
841.016	3020
841.153	3104
841.29	3310
841.427	3325
841.564	3264
841.701	3275
841.838	3199
841.975	3157
842.112	3192
842.249	3097
842.385	3020
842.522	3245
842.659	3074
842.796	3036
842.933	3104
843.069	3074
843.206	3066
843.343	3161
843.479	3097
843.616	3108
843.752	2895
843.889	2830
844.025	3077
844.162	2891
844.298	3081
844.435	2929
844.571	2868
844.708	3066
844.844	3169
844.98	3256
845.117	3180
845.253	3024
845.389	3001
845.525	3081
845.661	3089
845.798	3005
845.934	3100
846.07	3062
846.206	3199
846.342	3336
846.478	3195
846.614	3093
846.75	3039
846.886	3020
847.022	3253
847.158	3123
847.294	3169
847.429	3237
847.565	3203
847.701	3454
847.837	3013
847.972	3005
848.108	3154
848.244	3138
848.379	2975
848.515	2914
848.65	2929
848.786	2952
848.921	2975
849.057	3119
849.192	3161
849.328	3097
849.463	3081
849.598	3074
849.734	3009
849.869	2967
850.004	2914
850.14	2956
850.275	2944
850.41	2849
850.545	2864
850.68	2891
850.815	2960
850.95	2941
851.085	3165
851.22	3062
851.355	3066
851.49	2975
851.625	2979
851.76	3017
851.895	2929
852.03	2910
852.165	3009
852.299	3131
852.434	3188
852.569	3119
852.703	3203
852.838	3256
852.973	3313
853.107	3302
853.242	3157
853.376	3070
853.511	2982
853.645	3036
853.78	3192
853.914	3089
854.048	3142
854.183	3093
854.317	3165
854.451	3283
854.585	3085
854.72	3119
854.854	3195
854.988	3066
855.122	3081
855.256	2971
855.39	3085
855.524	3245
855.658	3180
855.792	3146
855.926	3142
856.06	3230
856.194	3264
856.327	3131
856.461	3051
856.595	3051
856.729	3074
856.862	3195
856.996	3131
857.13	3222
857.263	3214
857.397	3272
857.53	3161
857.664	3184
857.797	3249
857.931	3298
858.064	3135
858.197	3211
858.331	3119
858.464	3074
858.597	3005
858.731	3123
858.864	3142
858.997	3081
859.13	3150
859.263	3154
859.396	3184
859.529	3085
859.662	3074
859.795	3055
859.928	3138
860.061	3272
860.194	3249
860.327	3135
860.46	3097
860.592	3249
860.725	3226
860.858	3230
860.99	3119
861.123	3024
861.256	3051
861.388	3142
861.521	3797
861.653	3028
861.786	2956
861.918	3005
862.05	3036
862.183	3081
862.315	3142
862.447	3195
862.58	3062
862.712	2975
862.844	2872
862.976	3043
863.108	3020
863.24	3454
863.372	2872
863.504	2990
863.636	2956
863.768	2979
863.9	2990
864.032	2902
864.164	2948
864.296	3013
864.428	3093
864.559	3104
864.691	3058
864.823	3051
864.954	3001
865.086	3051
865.217	3024
865.349	2952
865.48	2979
865.612	3001
865.743	3093
865.875	2952
866.006	2963
866.137	2975
866.269	2929
866.4	2941
866.531	2925
866.662	2876
866.793	2906
866.924	2876
867.055	2979
867.186	2929
867.317	2876
867.448	2861
867.579	2819
867.71	2823
867.841	2811
867.972	2918
868.103	2895
868.233	2864
868.364	2838
868.495	2864
868.625	3074
868.756	3116
868.886	2929
869.017	2998
869.147	3184
869.278	3150
869.408	3055
869.539	3032
869.669	3100
869.799	3005
869.929	3116
870.06	3112
870.19	3329
870.32	3294
870.45	3291
870.58	3355
870.71	3435
870.84	3450
870.97	3294
871.1	3256
871.23	3473
871.36	3420
871.489	3340
871.619	3386
871.749	3389
871.879	3443
872.008	3485
872.138	3344
872.267	3264
872.397	3154
872.526	3066
872.656	3001
872.785	3108
872.915	3226
873.044	3329
873.173	3218
873.303	3230
873.432	3245
873.561	3222
873.69	3150
873.819	3138
873.948	3157
874.077	3089
874.206	3005
874.335	3108
874.464	3150
874.593	3302
874.722	3226
874.851	3374
874.979	3325
875.108	3306
875.237	3192
875.365	3142
875.494	3165
875.623	3279
875.751	3055
875.88	3081
876.008	3157
876.136	3222
876.265	3344
876.393	3515
876.521	3409
876.65	3401
876.778	3329
876.906	3222
877.034	3180
877.162	3218
877.29	3207
877.418	3245
877.546	3222
877.674	3279
877.802	3233
877.93	3165
878.058	3150
878.185	3077
878.313	3176
878.441	3180
878.568	3093
878.696	3135
878.824	3249
878.951	3294
879.079	3454
879.206	3633
879.333	3447
879.461	3332
879.588	3359
879.715	3416
879.842	3572
879.97	3351
880.097	3135
880.224	3077
880.351	3165
880.478	3169
880.605	3218
880.732	3161
880.859	3447
880.986	3291
881.112	3325
881.239	3180
881.366	3070
881.493	3055
881.619	2975
881.746	3077
881.872	3085
881.999	3055
882.125	3142
882.252	3214
882.378	3279
882.505	3428
882.631	3256
882.757	3173
882.883	3192
883.01	3237
883.136	3165
883.262	3116
883.388	3108
883.514	3298
883.64	3367
883.766	3321
883.892	3161
884.018	3226
884.143	3447
884.269	3492
884.395	3218
884.52	3165
884.646	3135
884.772	3108
884.897	3089
885.023	3138
885.148	3298
885.274	3428
885.399	3378
885.524	3264
885.65	3245
885.775	3298
885.9	3275
886.025	3401
886.15	3336
886.275	3317
886.4	3207
886.525	3317
886.65	3275
886.775	3275
886.9	3511
887.025	3656
887.149	3409
887.274	3241
887.399	3150
887.523	3192
887.648	3173
887.773	3169
887.897	3397
888.021	3397
888.146	3329
888.27	3454
888.395	3530
888.519	3412
888.643	3447
888.767	3485
888.891	3336
889.015	3230
889.139	3272
889.263	3245
889.387	3401
889.511	3515
889.635	3378
889.759	3275
889.883	3275
890.006	3355
890.13	3481
890.254	3272
890.377	3340
890.501	3249
890.624	3154
890.748	3302
890.871	3184
890.995	3112
891.118	3039
891.241	3192
891.364	3211
891.488	3348
891.611	3199
891.734	3226
891.857	3256
891.98	3192
892.103	3336
892.226	3241
892.349	3233
892.471	3123
892.594	3230
892.717	3302
892.839	3253
892.962	3306
893.085	3344
893.207	3298
893.33	3142
893.452	3203
893.575	3355
893.697	3245
893.819	3420
893.941	3469
894.064	3473
894.186	3256
894.308	3230
894.43	3473
894.552	3511
894.674	3435
894.796	3256
894.918	3306
895.04	3298
895.161	3435
895.283	3367
895.405	3294
895.526	3321
895.648	3416
895.769	3428
895.891	3447
896.012	3511
896.134	3477
896.255	3401
896.376	3367
896.498	3370
896.619	3409
896.74	3374
896.861	3393
896.982	3675
897.103	3831
897.224	3553
897.345	3507
897.466	3412
897.587	3473
897.708	3561
897.828	3599
897.949	3447
898.07	3325
898.19	3393
898.311	3622
898.431	3424
898.552	3515
898.672	3580
898.792	3568
898.913	3511
899.033	3416
899.153	3302
899.273	3207
899.393	3264
899.513	3306
899.633	3310
899.753	3302
899.873	3283
899.993	3378
900.113	3359
900.232	3420
900.352	3359
900.472	3275
900.591	3192
900.711	3275
900.83	3245
900.95	3374
901.069	3477
901.189	3340
901.308	3214
901.427	3146
901.546	3188
901.665	3291
901.784	3344
901.904	3192
902.023	3123
902.141	3028
902.26	3039
902.379	3127
902.498	3062
902.617	3055
902.735	3222
902.854	3264
902.973	3169
903.091	3062
903.21	3051
903.328	3142
903.446	3116
903.565	3123
903.683	3176
903.801	3097
903.919	3237
904.038	3264
904.156	3169
904.274	3272
904.392	3283
904.51	3298
904.627	3321
904.745	3450
904.863	3523
904.981	3230
905.098	3180
905.216	3218
905.334	3294
905.451	3298
905.569	3313
905.686	3405
905.803	3431
905.921	3302
906.038	3393
906.155	3336
906.272	3294
906.389	3317
906.506	3241
906.623	3287
906.74	3298
906.857	3230
906.974	3237
907.091	3443
907.208	3603
907.324	3496
907.441	3386
907.557	3237
907.674	3245
907.79	3199
907.907	3306
908.023	3382
908.139	3370
908.256	3336
908.372	3329
908.488	3344
908.604	3253
908.72	3226
908.836	3241
908.952	3283
909.068	3313
909.184	3469
909.3	3401
909.415	3473
909.531	3431
909.647	3283
909.762	3306
909.878	3275
909.993	3374
910.108	3336
910.224	3378
910.339	3428
910.454	3378
910.57	3310
910.685	3230
910.8	3553
910.915	3561
911.03	3420
911.145	3253
911.259	3275
911.374	3317
911.489	3233
911.604	3245
911.718	3093
911.833	3188
911.947	3020
912.062	2990
912.176	3161
912.291	3165
912.405	3203
912.519	3416
912.633	3500
912.748	3313
912.862	3260
912.976	3142
913.09	3089
913.204	3142
913.318	3203
913.431	3359
913.545	3363
913.659	3420
913.772	3367
913.886	3256
914	3226
914.113	3348
914.226	3401
914.34	3344
914.453	3241
914.566	3431
914.68	3310
914.793	3306
914.906	3093
915.019	3116
915.132	3020
915.245	3176
915.358	3195
915.47	3218
915.583	3287
915.696	3275
915.809	3386
915.921	3428
916.034	3253
916.146	3222
916.259	3207
916.371	3351
916.483	3378
916.595	3268
916.708	3351
916.82	3332
916.932	3321
917.044	3340
917.156	3351
917.268	3253
917.38	3306
917.491	3279
917.603	3378
917.715	3435
917.826	3435
917.938	3329
918.049	3256
918.161	3409
918.272	3568
918.384	3557
918.495	3496
918.606	3344
918.717	3275
918.828	3382
918.939	3431
919.05	3302
919.161	3355
919.272	3195
919.383	3256
919.494	3488
919.604	3690
919.715	3504
919.826	3389
919.936	3431
920.047	3591
920.157	3564
920.267	3747
920.378	3591
920.488	3549
920.598	3751
920.708	3968
920.818	3819
920.928	3838
921.038	4010
921.148	3979
921.258	3728
921.368	3663
921.477	3584
921.587	3553
921.697	3504
921.806	3652
921.916	3515
922.025	3386
922.134	3386
922.244	3332
922.353	3416
922.462	3249
922.571	3241
922.68	3070
922.789	3070
922.898	3169
923.007	3108
923.116	3165
923.224	3138
923.333	3180
923.442	3055
923.55	3077
923.659	3135
923.767	3211
923.876	3112
923.984	3226
924.092	3104
924.201	3184
924.309	3169
924.417	3272
924.525	3165
924.633	3222
924.741	4150
924.849	3074
924.956	3268
925.064	3051
925.172	3024
925.279	3112
925.387	3214
925.494	3214
925.602	3386
925.709	3344
925.816	3203
925.924	3249
926.031	3374
926.138	3332
926.245	3378
926.352	3283
926.459	3416
926.566	3473
926.673	3336
926.779	3226
926.886	3249
926.993	3108
927.099	3142
927.206	3138
927.312	3112
927.419	3195
927.525	3230
927.631	3294
927.737	3135
927.843	3100
927.95	3047
928.056	3142
928.162	3180
928.267	3226
928.373	3770
928.479	3275
928.585	3097
928.69	3203
928.796	3260
928.901	3157
929.007	3051
929.112	3173
929.218	3154
929.323	3157
929.428	3165
929.533	3317
929.638	3077
929.743	3131
929.848	3226
929.953	3184
930.058	3154
930.163	2998
930.267	3058
930.372	3195
930.477	3043
930.581	3306
930.685	3157
930.79	3062
930.894	3100
930.998	3074
931.103	3253
931.207	2952
931.311	2941
931.415	2914
931.519	2735
931.623	2823
