Data from test_V78500241_697.txt Node
Date: Fri Mar 25 16:20:01 CST 2022
User: usil
Spectrometer: V785-0024
Trigger mode: 0
Integration Time (sec): 4.000000E-1
Scans to average: 1
Nonlinearity correction enabled: false
Boxcar width: 0
Storing dark spectrum: false
XAxis mode: Wavelengths
Number of Pixels in Spectrum: 1024
>>>>>Begin Spectral Data<<<<<
801.071	2944
801.214	3001
801.356	2933
801.499	2933
801.641	2906
801.783	2948
801.926	3058
802.068	2990
802.211	3001
802.353	3070
802.496	2986
802.638	3055
802.78	3058
802.923	3108
803.065	3028
803.208	2929
803.35	2910
803.492	2941
803.635	2929
803.777	2758
803.919	2918
804.061	3199
804.204	2956
804.346	2895
804.488	2895
804.63	2990
804.773	2883
804.915	2906
805.057	3077
805.199	2944
805.341	2990
805.483	3036
805.626	3028
805.768	2982
805.91	3055
806.052	3135
806.194	3062
806.336	3256
806.478	3043
806.62	2952
806.762	2986
806.904	3097
807.046	3138
807.188	2979
807.33	2902
807.472	3024
807.614	2902
807.756	3005
807.898	2956
808.04	2914
808.182	2990
808.324	2944
808.465	2922
808.607	2895
808.749	2807
808.891	2857
809.033	3017
809.174	2971
809.316	2906
809.458	2922
809.6	2766
809.741	2781
809.883	2807
810.025	2834
810.166	2861
810.308	2872
810.45	2861
810.591	2746
810.733	2796
810.875	2838
811.016	2815
811.158	2811
811.299	2826
811.441	2941
811.582	2906
811.724	2849
811.865	2834
812.007	2895
812.148	2876
812.29	2811
812.431	2887
812.573	2944
812.714	2952
812.855	3070
812.997	3077
813.138	3142
813.279	3013
813.421	2986
813.562	2971
813.703	2883
813.845	2883
813.986	2758
814.127	2758
814.268	2815
814.41	2830
814.551	2815
814.692	2845
814.833	2857
814.974	2902
815.115	2982
815.256	2842
815.397	2834
815.539	2899
815.68	2796
815.821	2811
815.962	2944
816.103	2944
816.244	2883
816.385	2868
816.526	2986
816.666	2960
816.807	2773
816.948	2891
817.089	2937
817.23	2876
817.371	2785
817.512	2785
817.653	2857
817.793	2826
817.934	2929
818.075	2952
818.216	3032
818.356	3001
818.497	2853
818.638	2819
818.778	2811
818.919	2800
819.06	2750
819.2	2895
819.341	2796
819.481	2849
819.622	2914
819.762	3146
819.903	3039
820.043	2910
820.184	2891
820.324	2910
820.465	3032
820.605	3017
820.746	3055
820.886	2952
821.026	3112
821.167	3154
821.307	3275
821.447	3332
821.588	3275
821.728	3222
821.868	3188
822.008	3089
822.149	3184
822.289	3222
822.429	3112
822.569	3097
822.709	3176
822.849	3047
822.99	3058
823.13	3184
823.27	3199
823.41	3131
823.55	3135
823.69	3154
823.83	3207
823.97	3085
824.11	3005
824.25	3005
824.389	3074
824.529	3135
824.669	3074
824.809	3211
824.949	3283
825.089	3245
825.228	3142
825.368	3024
825.508	2960
825.648	3005
825.787	3028
825.927	3032
826.067	2975
826.206	2967
826.346	3066
826.485	3093
826.625	3127
826.765	3283
826.904	3237
827.044	2986
827.183	2967
827.323	2857
827.462	2971
827.601	2929
827.741	2914
827.88	2963
828.02	2849
828.159	2982
828.298	3055
828.437	3127
828.577	3093
828.716	3264
828.855	3074
828.994	2929
829.134	2895
829.273	2918
829.412	2853
829.551	2895
829.69	2902
829.829	3024
829.968	3123
830.107	3024
830.246	2990
830.385	2956
830.524	2902
830.663	2807
830.802	2735
830.941	2678
831.08	2632
831.219	2762
831.357	2792
831.496	2975
831.635	2720
831.774	2625
831.913	2651
832.051	2552
832.19	2590
832.329	2705
832.467	2522
832.606	2492
832.744	2613
832.883	2587
833.022	2571
833.16	2663
833.299	2697
833.437	2712
833.576	2693
833.714	2727
833.852	2735
833.991	2754
834.129	2861
834.267	2853
834.406	2834
834.544	2887
834.682	2887
834.821	2872
834.959	3058
835.097	2902
835.235	3093
835.373	3032
835.511	3028
835.65	2979
835.788	2956
835.926	2838
836.064	2800
836.202	2826
836.34	3081
836.478	3135
836.615	3032
836.753	3154
836.891	3218
837.029	3142
837.167	3100
837.305	3070
837.443	3024
837.58	2979
837.718	3119
837.856	3066
837.993	3055
838.131	3089
838.269	3108
838.406	3116
838.544	3081
838.681	2941
838.819	2906
838.956	2815
839.094	2845
839.231	2922
839.369	3005
839.506	3351
839.643	3188
839.781	2990
839.918	2990
840.055	3066
840.193	3066
840.33	3055
840.467	3123
840.604	3135
840.742	3370
840.879	3070
841.016	3066
841.153	3127
841.29	3332
841.427	3291
841.564	3294
841.701	3310
841.838	3203
841.975	3161
842.112	3180
842.249	3028
842.385	3036
842.522	3241
842.659	3074
842.796	3081
842.933	3108
843.069	3074
843.206	3001
843.343	3199
843.479	3119
843.616	3154
843.752	2906
843.889	2845
844.025	3108
844.162	2864
844.298	3020
844.435	2929
844.571	2941
844.708	3104
844.844	3199
844.98	3203
845.117	3199
845.253	3032
845.389	2986
845.525	3100
845.661	3097
845.798	2990
845.934	3097
846.07	3055
846.206	3192
846.342	3302
846.478	3218
846.614	3070
846.75	3039
846.886	3028
847.022	3279
847.158	3116
847.294	3218
847.429	3249
847.565	3199
847.701	3496
847.837	3070
847.972	3005
848.108	3169
848.244	3138
848.379	2982
848.515	2960
848.65	2902
848.786	2967
848.921	3005
849.057	3100
849.192	3127
849.328	3062
849.463	3066
849.598	3043
849.734	3043
849.869	2956
850.004	2948
850.14	3013
850.275	2902
850.41	2842
850.545	2849
850.68	2925
850.815	2971
850.95	2952
851.085	3195
851.22	3077
851.355	3058
851.49	3001
851.625	3024
851.76	3017
851.895	2914
852.03	2925
852.165	3074
852.299	3150
852.434	3184
852.569	3116
852.703	3127
852.838	3207
852.973	3351
853.107	3336
853.242	3135
853.376	3058
853.511	2967
853.645	3047
853.78	3230
853.914	3127
854.048	3085
854.183	3077
854.317	3138
854.451	3253
854.585	3123
854.72	3131
854.854	3184
854.988	3081
855.122	3032
855.256	2929
855.39	3127
855.524	3264
855.658	3169
855.792	3195
855.926	3180
856.06	3207
856.194	3241
856.327	3135
856.461	3055
856.595	3066
856.729	3051
856.862	3214
856.996	3138
857.13	3203
857.263	3218
857.397	3260
857.53	3123
857.664	3165
857.797	3211
857.931	3195
858.064	3154
858.197	3241
858.331	3116
858.464	3074
858.597	3017
858.731	3097
858.864	3127
858.997	3051
859.13	3157
859.263	3184
859.396	3176
859.529	3066
859.662	3066
859.795	3077
859.928	3131
860.061	3249
860.194	3253
860.327	3123
860.46	3135
860.592	3207
860.725	3256
860.858	3233
860.99	3116
861.123	3051
861.256	3074
861.388	3104
861.521	3896
861.653	3047
861.786	2975
861.918	3020
862.05	3089
862.183	3085
862.315	3112
862.447	3176
862.58	3055
862.712	2922
862.844	2899
862.976	2990
863.108	3017
863.24	3416
863.372	2902
863.504	2929
863.636	2948
863.768	2998
863.9	2963
864.032	2933
864.164	2963
864.296	2990
864.428	3074
864.559	3093
864.691	3051
864.823	3062
864.954	3028
865.086	3032
865.217	3013
865.349	2963
865.48	2975
865.612	3020
865.743	3154
865.875	2975
866.006	2895
866.137	2925
866.269	2914
866.4	2933
866.531	2956
866.662	2918
866.793	2872
866.924	2891
867.055	2967
867.186	2922
867.317	2883
867.448	2788
867.579	2804
867.71	2861
867.841	2815
867.972	2910
868.103	2906
868.233	2914
868.364	2872
868.495	2925
868.625	3085
868.756	3199
868.886	2982
869.017	3047
869.147	3188
869.278	3157
869.408	3047
869.539	3032
869.669	3100
869.799	3070
869.929	3150
870.06	3097
870.19	3313
870.32	3253
870.45	3310
870.58	3386
870.71	3458
870.84	3443
870.97	3279
871.1	3245
871.23	3530
871.36	3454
871.489	3389
871.619	3363
871.749	3393
871.879	3481
872.008	3454
872.138	3329
872.267	3260
872.397	3119
872.526	3108
872.656	2986
872.785	3066
872.915	3256
873.044	3325
873.173	3218
873.303	3272
873.432	3233
873.561	3203
873.69	3119
873.819	3146
873.948	3173
874.077	3100
874.206	3017
874.335	3074
874.464	3233
874.593	3332
874.722	3245
874.851	3359
874.979	3359
875.108	3283
875.237	3203
875.365	3146
875.494	3192
875.623	3222
875.751	3127
875.88	3131
876.008	3184
876.136	3256
876.265	3355
876.393	3496
876.521	3416
876.65	3386
876.778	3317
876.906	3249
877.034	3218
877.162	3241
877.29	3169
877.418	3218
877.546	3241
877.674	3226
877.802	3226
877.93	3268
878.058	3188
878.185	3100
878.313	3214
878.441	3195
878.568	3062
878.696	3169
878.824	3195
878.951	3313
879.079	3450
879.206	3599
879.333	3439
879.461	3302
879.588	3359
879.715	3462
879.842	3576
879.97	3363
880.097	3165
880.224	3127
880.351	3173
880.478	3192
880.605	3207
880.732	3154
880.859	3523
880.986	3268
881.112	3363
881.239	3176
881.366	3077
881.493	3051
881.619	3009
881.746	3097
881.872	3093
881.999	3093
882.125	3154
882.252	3222
882.378	3283
882.505	3454
882.631	3245
882.757	3154
882.883	3233
883.01	3264
883.136	3154
883.262	3108
883.388	3085
883.514	3329
883.64	3412
883.766	3272
883.892	3180
884.018	3272
884.143	3431
884.269	3526
884.395	3195
884.52	3154
884.646	3180
884.772	3131
884.897	3112
885.023	3192
885.148	3332
885.274	3416
885.399	3348
885.524	3283
885.65	3268
885.775	3317
885.9	3249
886.025	3428
886.15	3382
886.275	3310
886.4	3237
886.525	3260
886.65	3264
886.775	3233
886.9	3481
887.025	3618
887.149	3405
887.274	3218
887.399	3154
887.523	3245
887.648	3184
887.773	3199
887.897	3386
888.021	3351
888.146	3329
888.27	3416
888.395	3538
888.519	3428
888.643	3443
888.767	3431
888.891	3310
889.015	3207
889.139	3275
889.263	3264
889.387	3378
889.511	3523
889.635	3469
889.759	3291
889.883	3321
890.006	3405
890.13	3473
890.254	3283
890.377	3344
890.501	3218
890.624	3192
890.748	3313
890.871	3146
890.995	3104
891.118	3055
891.241	3180
891.364	3245
891.488	3279
891.611	3142
891.734	3214
891.857	3264
891.98	3256
892.103	3378
892.226	3298
892.349	3214
892.471	3135
892.594	3256
892.717	3283
892.839	3272
892.962	3268
893.085	3321
893.207	3268
893.33	3123
893.452	3192
893.575	3332
893.697	3260
893.819	3462
893.941	3515
894.064	3450
894.186	3275
894.308	3237
894.43	3466
894.552	3549
894.674	3496
894.796	3253
894.918	3283
895.04	3272
895.161	3424
895.283	3389
895.405	3298
895.526	3336
895.648	3435
895.769	3405
895.891	3469
896.012	3462
896.134	3447
896.255	3382
896.376	3367
896.498	3359
896.619	3443
896.74	3363
896.861	3412
896.982	3622
897.103	3812
897.224	3564
897.345	3504
897.466	3424
897.587	3488
897.708	3564
897.828	3553
897.949	3431
898.07	3332
898.19	3378
898.311	3595
898.431	3450
898.552	3500
898.672	3587
898.792	3561
898.913	3538
899.033	3409
899.153	3294
899.273	3214
899.393	3302
899.513	3294
899.633	3294
899.753	3306
899.873	3287
899.993	3340
900.113	3374
900.232	3370
900.352	3332
900.472	3268
900.591	3237
900.711	3275
900.83	3268
900.95	3409
901.069	3504
901.189	3367
901.308	3150
901.427	3104
901.546	3192
901.665	3287
901.784	3313
901.904	3203
902.023	3127
902.141	3043
902.26	3013
902.379	3119
902.498	3062
902.617	3074
902.735	3218
902.854	3237
902.973	3207
903.091	3036
903.21	3074
903.328	3112
903.446	3104
903.565	3097
903.683	3161
903.801	3104
903.919	3226
904.038	3275
904.156	3169
904.274	3268
904.392	3256
904.51	3310
904.627	3310
904.745	3439
904.863	3500
904.981	3302
905.098	3150
905.216	3199
905.334	3279
905.451	3287
905.569	3321
905.686	3409
905.803	3439
905.921	3260
906.038	3416
906.155	3336
906.272	3294
906.389	3351
906.506	3233
906.623	3230
906.74	3272
906.857	3214
906.974	3245
907.091	3439
907.208	3545
907.324	3473
907.441	3359
907.557	3203
907.674	3241
907.79	3207
907.907	3260
908.023	3374
908.139	3363
908.256	3340
908.372	3363
908.488	3374
908.604	3230
908.72	3218
908.836	3275
908.952	3268
909.068	3351
909.184	3477
909.3	3412
909.415	3500
909.531	3462
909.647	3272
909.762	3310
909.878	3283
909.993	3344
910.108	3306
910.224	3363
910.339	3386
910.454	3321
910.57	3291
910.685	3214
910.8	3584
910.915	3542
911.03	3447
911.145	3279
911.259	3268
911.374	3329
911.489	3237
911.604	3176
911.718	3104
911.833	3146
911.947	3051
912.062	2998
912.176	3173
912.291	3218
912.405	3195
912.519	3431
912.633	3488
912.748	3336
912.862	3268
912.976	3150
913.09	3062
913.204	3116
913.318	3192
913.431	3367
913.545	3313
913.659	3374
913.772	3332
913.886	3222
914	3199
914.113	3329
914.226	3389
914.34	3329
914.453	3214
914.566	3405
914.68	3283
914.793	3279
914.906	3154
915.019	3100
915.132	3047
915.245	3176
915.358	3207
915.47	3237
915.583	3279
915.696	3279
915.809	3412
915.921	3431
916.034	3256
916.146	3241
916.259	3237
916.371	3424
916.483	3344
916.595	3287
916.708	3329
916.82	3348
916.932	3348
917.044	3310
917.156	3363
917.268	3249
917.38	3294
917.491	3275
917.603	3359
917.715	3409
917.826	3454
917.938	3355
918.049	3279
918.161	3424
918.272	3538
918.384	3652
918.495	3488
918.606	3340
918.717	3287
918.828	3359
918.939	3374
919.05	3283
919.161	3374
919.272	3176
919.383	3317
919.494	3519
919.604	3633
919.715	3473
919.826	3420
919.936	3462
920.047	3557
920.157	3557
920.267	3778
920.378	3603
920.488	3519
920.598	3762
920.708	3964
920.818	3838
920.928	3835
921.038	4029
921.148	4002
921.258	3713
921.368	3625
921.477	3614
921.587	3553
921.697	3447
921.806	3618
921.916	3507
922.025	3378
922.134	3374
922.244	3294
922.353	3412
922.462	3283
922.571	3241
922.68	3104
922.789	3051
922.898	3123
923.007	3089
923.116	3195
923.224	3146
923.333	3176
923.442	3081
923.55	3081
923.659	3165
923.767	3222
923.876	3104
923.984	3256
924.092	3127
924.201	3195
924.309	3222
924.417	3279
924.525	3176
924.633	3230
924.741	3987
924.849	3058
924.956	3253
925.064	3104
925.172	3074
925.279	3081
925.387	3184
925.494	3184
925.602	3298
925.709	3355
925.816	3154
925.924	3253
926.031	3389
926.138	3351
926.245	3359
926.352	3233
926.459	3405
926.566	3515
926.673	3313
926.779	3253
926.886	3237
926.993	3138
927.099	3112
927.206	3142
927.312	3116
927.419	3233
927.525	3173
927.631	3275
927.737	3138
927.843	3070
927.95	3028
928.056	3104
928.162	3135
928.267	3260
928.373	3888
928.479	3279
928.585	3032
928.69	3211
928.796	3260
928.901	3165
929.007	3062
929.112	3188
929.218	3180
929.323	3146
929.428	3138
929.533	3291
929.638	3089
929.743	3161
929.848	3283
929.953	3188
930.058	3154
930.163	2994
930.267	3055
930.372	3184
930.477	3039
930.581	3302
930.685	3184
930.79	3066
930.894	3119
930.998	3108
931.103	3298
931.207	2982
931.311	2937
931.415	2895
931.519	2769
931.623	2807
