Data from test_V78500241_1792.txt Node
Date: Fri Mar 25 16:27:37 CST 2022
User: usil
Spectrometer: V785-0024
Trigger mode: 0
Integration Time (sec): 4.000000E-1
Scans to average: 1
Nonlinearity correction enabled: false
Boxcar width: 0
Storing dark spectrum: false
XAxis mode: Wavelengths
Number of Pixels in Spectrum: 1024
>>>>>Begin Spectral Data<<<<<
801.071	2895
801.214	2922
801.356	2845
801.499	2872
801.641	2864
801.783	2891
801.926	3024
802.068	2963
802.211	2975
802.353	3009
802.496	2952
802.638	2982
802.78	3047
802.923	3066
803.065	3009
803.208	2857
803.35	2902
803.492	2902
803.635	2910
803.777	2750
803.919	2830
804.061	3173
804.204	2948
804.346	2914
804.488	2823
804.63	2967
804.773	2807
804.915	2883
805.057	3051
805.199	2895
805.341	2963
805.483	3009
805.626	3017
805.768	2963
805.91	3116
806.052	3085
806.194	3047
806.336	3237
806.478	3005
806.62	2922
806.762	2956
806.904	3039
807.046	3165
807.188	2956
807.33	2891
807.472	2982
807.614	2914
807.756	2998
807.898	2929
808.04	2868
808.182	2963
808.324	2952
808.465	2857
808.607	2861
808.749	2826
808.891	2857
809.033	2941
809.174	2952
809.316	2853
809.458	2914
809.6	2773
809.741	2762
809.883	2766
810.025	2830
810.166	2830
810.308	2826
810.45	2819
810.591	2800
810.733	2743
810.875	2830
811.016	2769
811.158	2739
811.299	2773
811.441	2944
811.582	2906
811.724	2815
811.865	2830
812.007	2922
812.148	2876
812.29	2834
812.431	2880
812.573	2918
812.714	2967
812.855	3024
812.997	3047
813.138	3150
813.279	2998
813.421	2952
813.562	2944
813.703	2868
813.845	2880
813.986	2785
814.127	2708
814.268	2815
814.41	2834
814.551	2800
814.692	2868
814.833	2826
814.974	2876
815.115	2952
815.256	2830
815.397	2834
815.539	2849
815.68	2781
815.821	2800
815.962	2899
816.103	2914
816.244	2864
816.385	2834
816.526	2944
816.666	2918
816.807	2746
816.948	2868
817.089	2887
817.23	2857
817.371	2769
817.512	2819
817.653	2819
817.793	2819
817.934	2842
818.075	2952
818.216	3001
818.356	2998
818.497	2853
818.638	2815
818.778	2796
818.919	2830
819.06	2777
819.2	2861
819.341	2781
819.481	2800
819.622	2937
819.762	3085
819.903	3032
820.043	2864
820.184	2864
820.324	2918
820.465	3020
820.605	2998
820.746	3017
820.886	2937
821.026	3081
821.167	3142
821.307	3256
821.447	3249
821.588	3214
821.728	3176
821.868	3188
822.008	3097
822.149	3157
822.289	3211
822.429	3074
822.569	3112
822.709	3169
822.849	3039
822.99	3070
823.13	3127
823.27	3222
823.41	3108
823.55	3150
823.69	3150
823.83	3131
823.97	3112
824.11	3013
824.25	2982
824.389	3062
824.529	3100
824.669	3051
824.809	3173
824.949	3260
825.089	3203
825.228	3161
825.368	3005
825.508	2933
825.648	2971
825.787	3005
825.927	2998
826.067	2952
826.206	2956
826.346	3032
826.485	3070
826.625	3100
826.765	3302
826.904	3230
827.044	2990
827.183	2956
827.323	2910
827.462	2990
827.601	2902
827.741	2967
827.88	2967
828.02	2826
828.159	2937
828.298	3043
828.437	3097
828.577	3032
828.716	3203
828.855	3074
828.994	2910
829.134	2864
829.273	2922
829.412	2842
829.551	2857
829.69	2876
829.829	3001
829.968	3127
830.107	2998
830.246	3009
830.385	2929
830.524	2883
830.663	2800
830.802	2708
830.941	2632
831.08	2621
831.219	2777
831.357	2735
831.496	2960
831.635	2712
831.774	2632
831.913	2670
832.051	2552
832.19	2583
832.329	2682
832.467	2552
832.606	2514
832.744	2583
832.883	2587
833.022	2571
833.16	2697
833.299	2682
833.437	2705
833.576	2701
833.714	2724
833.852	2743
833.991	2777
834.129	2830
834.267	2819
834.406	2758
834.544	2849
834.682	2830
834.821	2880
834.959	3024
835.097	2910
835.235	3089
835.373	3024
835.511	2982
835.65	2948
835.788	2971
835.926	2838
836.064	2777
836.202	2853
836.34	3077
836.478	3123
836.615	3020
836.753	3165
836.891	3192
837.029	3161
837.167	3097
837.305	3070
837.443	3051
837.58	2956
837.718	3116
837.856	3043
837.993	3036
838.131	3097
838.269	3097
838.406	3131
838.544	3074
838.681	2918
838.819	2948
838.956	2773
839.094	2826
839.231	2918
839.369	3001
839.506	3351
839.643	3207
839.781	2990
839.918	2948
840.055	3009
840.193	3024
840.33	3074
840.467	3085
840.604	3119
840.742	3393
840.879	3013
841.016	3070
841.153	3127
841.29	3313
841.427	3294
841.564	3264
841.701	3310
841.838	3226
841.975	3146
842.112	3218
842.249	3036
842.385	3039
842.522	3195
842.659	3066
842.796	3081
842.933	3089
843.069	2994
843.206	3005
843.343	3138
843.479	3116
843.616	3161
843.752	2906
843.889	2845
844.025	3066
844.162	2910
844.298	3058
844.435	2895
844.571	2895
844.708	3081
844.844	3165
844.98	3180
845.117	3176
845.253	3013
845.389	2990
845.525	3104
845.661	3058
845.798	2982
845.934	3127
846.07	3074
846.206	3188
846.342	3294
846.478	3207
846.614	3081
846.75	3013
846.886	3013
847.022	3203
847.158	3135
847.294	3146
847.429	3237
847.565	3199
847.701	3469
847.837	2998
847.972	2998
848.108	3119
848.244	3135
848.379	2963
848.515	2880
848.65	2933
848.786	2971
848.921	2979
849.057	3070
849.192	3112
849.328	3047
849.463	3119
849.598	3051
849.734	2994
849.869	2948
850.004	2914
850.14	2937
850.275	2899
850.41	2842
850.545	2880
850.68	2914
850.815	2933
850.95	2967
851.085	3123
851.22	3085
851.355	3028
851.49	2994
851.625	2979
851.76	2979
851.895	2876
852.03	2895
852.165	3001
852.299	3085
852.434	3199
852.569	3157
852.703	3150
852.838	3211
852.973	3359
853.107	3264
853.242	3142
853.376	3055
853.511	2944
853.645	3024
853.78	3233
853.914	3097
854.048	3119
854.183	3093
854.317	3154
854.451	3310
854.585	3135
854.72	3081
854.854	3195
854.988	3055
855.122	3123
855.256	2990
855.39	3119
855.524	3233
855.658	3192
855.792	3154
855.926	3218
856.06	3260
856.194	3291
856.327	3161
856.461	3047
856.595	3138
856.729	3081
856.862	3241
856.996	3176
857.13	3230
857.263	3272
857.397	3275
857.53	3154
857.664	3207
857.797	3222
857.931	3317
858.064	3195
858.197	3272
858.331	3142
858.464	3112
858.597	3013
858.731	3135
858.864	3161
858.997	3119
859.13	3207
859.263	3184
859.396	3253
859.529	3131
859.662	3070
859.795	3100
859.928	3211
860.061	3321
860.194	3306
860.327	3135
860.46	3142
860.592	3306
860.725	3321
860.858	3287
860.99	3142
861.123	3108
861.256	3104
861.388	3157
861.521	3926
861.653	3043
861.786	3032
861.918	3051
862.05	3100
862.183	3138
862.315	3203
862.447	3256
862.58	3089
862.712	2998
862.844	2887
862.976	3085
863.108	3032
863.24	3443
863.372	2895
863.504	2979
863.636	2975
863.768	3058
863.9	3043
864.032	2944
864.164	2956
864.296	3051
864.428	3093
864.559	3085
864.691	3131
864.823	3097
864.954	3077
865.086	3089
865.217	3070
865.349	2982
865.48	3017
865.612	3074
865.743	3150
865.875	3001
866.006	2967
866.137	3028
866.269	2952
866.4	2956
866.531	2933
866.662	2929
866.793	2941
866.924	2963
867.055	3013
867.186	2979
867.317	2941
867.448	2864
867.579	2838
867.71	2868
867.841	2830
867.972	2933
868.103	2929
868.233	2887
868.364	2895
868.495	2944
868.625	3093
868.756	3138
868.886	3013
869.017	3055
869.147	3207
869.278	3173
869.408	3097
869.539	3043
869.669	3161
869.799	3074
869.929	3165
870.06	3142
870.19	3363
870.32	3302
870.45	3332
870.58	3405
870.71	3428
870.84	3477
870.97	3325
871.1	3291
871.23	3538
871.36	3504
871.489	3378
871.619	3374
871.749	3469
871.879	3424
872.008	3473
872.138	3382
872.267	3321
872.397	3184
872.526	3116
872.656	3051
872.785	3138
872.915	3249
873.044	3363
873.173	3253
873.303	3253
873.432	3272
873.561	3249
873.69	3154
873.819	3184
873.948	3188
874.077	3123
874.206	3085
874.335	3119
874.464	3211
874.593	3374
874.722	3241
874.851	3454
874.979	3336
875.108	3332
875.237	3199
875.365	3161
875.494	3211
875.623	3287
875.751	3108
875.88	3116
876.008	3233
876.136	3249
876.265	3378
876.393	3553
876.521	3473
876.65	3389
876.778	3367
876.906	3268
877.034	3256
877.162	3241
877.29	3173
877.418	3287
877.546	3272
877.674	3264
877.802	3298
877.93	3272
878.058	3207
878.185	3135
878.313	3199
878.441	3226
878.568	3089
878.696	3154
878.824	3310
878.951	3359
879.079	3473
879.206	3648
879.333	3496
879.461	3336
879.588	3370
879.715	3507
879.842	3652
879.97	3397
880.097	3184
880.224	3150
880.351	3218
880.478	3245
880.605	3230
880.732	3184
880.859	3511
880.986	3317
881.112	3340
881.239	3241
881.366	3176
881.493	3062
881.619	3055
881.746	3112
881.872	3097
881.999	3146
882.125	3188
882.252	3249
882.378	3298
882.505	3439
882.631	3287
882.757	3146
882.883	3275
883.01	3256
883.136	3203
883.262	3173
883.388	3165
883.514	3351
883.64	3370
883.766	3367
883.892	3230
884.018	3283
884.143	3454
884.269	3572
884.395	3253
884.52	3184
884.646	3230
884.772	3142
884.897	3142
885.023	3218
885.148	3355
885.274	3447
885.399	3367
885.524	3321
885.65	3275
885.775	3321
885.9	3291
886.025	3420
886.15	3370
886.275	3348
886.4	3287
886.525	3359
886.65	3268
886.775	3310
886.9	3507
887.025	3637
887.149	3428
887.274	3283
887.399	3237
887.523	3241
887.648	3226
887.773	3230
887.897	3409
888.021	3439
888.146	3306
888.27	3424
888.395	3545
888.519	3401
888.643	3462
888.767	3458
888.891	3294
889.015	3237
889.139	3344
889.263	3302
889.387	3428
889.511	3523
889.635	3450
889.759	3325
889.883	3325
890.006	3409
890.13	3534
890.254	3313
890.377	3382
890.501	3230
890.624	3214
890.748	3325
890.871	3176
890.995	3104
891.118	3112
891.241	3218
891.364	3253
891.488	3329
891.611	3245
891.734	3264
891.857	3298
891.98	3253
892.103	3359
892.226	3310
892.349	3253
892.471	3157
892.594	3222
892.717	3313
892.839	3294
892.962	3310
893.085	3409
893.207	3344
893.33	3165
893.452	3233
893.575	3401
893.697	3302
893.819	3519
893.941	3496
894.064	3431
894.186	3298
894.308	3283
894.43	3462
894.552	3549
894.674	3469
894.796	3279
894.918	3321
895.04	3272
895.161	3420
895.283	3447
895.405	3363
895.526	3382
895.648	3424
895.769	3466
895.891	3492
896.012	3439
896.134	3477
896.255	3431
896.376	3367
896.498	3412
896.619	3443
896.74	3389
896.861	3458
896.982	3686
897.103	3903
897.224	3614
897.345	3519
897.466	3435
897.587	3496
897.708	3660
897.828	3584
897.949	3435
898.07	3348
898.19	3458
898.311	3637
898.431	3454
898.552	3534
898.672	3603
898.792	3599
898.913	3572
899.033	3420
899.153	3317
899.273	3253
899.393	3283
899.513	3291
899.633	3313
899.753	3367
899.873	3329
899.993	3401
900.113	3370
900.232	3412
900.352	3367
900.472	3348
900.591	3184
900.711	3313
900.83	3264
900.95	3405
901.069	3519
901.189	3393
901.308	3192
901.427	3169
901.546	3199
901.665	3310
901.784	3351
901.904	3245
902.023	3146
902.141	3051
902.26	3001
902.379	3142
902.498	3097
902.617	3085
902.735	3253
902.854	3275
902.973	3192
903.091	3066
903.21	3093
903.328	3169
903.446	3135
903.565	3066
903.683	3233
903.801	3161
903.919	3264
904.038	3291
904.156	3199
904.274	3291
904.392	3306
904.51	3302
904.627	3348
904.745	3420
904.863	3477
904.981	3264
905.098	3222
905.216	3253
905.334	3287
905.451	3321
905.569	3344
905.686	3458
905.803	3409
905.921	3310
906.038	3435
906.155	3355
906.272	3256
906.389	3351
906.506	3230
906.623	3260
906.74	3317
906.857	3241
906.974	3268
907.091	3435
907.208	3603
907.324	3477
907.441	3439
907.557	3260
907.674	3241
907.79	3214
907.907	3313
908.023	3409
908.139	3389
908.256	3332
908.372	3378
908.488	3405
908.604	3306
908.72	3272
908.836	3321
908.952	3294
909.068	3367
909.184	3500
909.3	3401
909.415	3507
909.531	3481
909.647	3287
909.762	3291
909.878	3279
909.993	3348
910.108	3344
910.224	3329
910.339	3420
910.454	3359
910.57	3268
910.685	3283
910.8	3587
910.915	3561
911.03	3504
911.145	3237
911.259	3283
911.374	3310
911.489	3245
911.604	3256
911.718	3108
911.833	3154
911.947	3032
912.062	3001
912.176	3180
912.291	3214
912.405	3211
912.519	3443
912.633	3530
912.748	3370
912.862	3260
912.976	3150
913.09	3131
913.204	3157
913.318	3241
913.431	3351
913.545	3332
913.659	3439
913.772	3367
913.886	3275
914	3199
914.113	3370
914.226	3454
914.34	3355
914.453	3256
914.566	3401
914.68	3272
914.793	3370
914.906	3157
915.019	3135
915.132	3097
915.245	3192
915.358	3207
915.47	3230
915.583	3249
915.696	3310
915.809	3428
915.921	3443
916.034	3283
916.146	3287
916.259	3268
916.371	3386
916.483	3378
916.595	3275
916.708	3340
916.82	3348
916.932	3348
917.044	3363
917.156	3355
917.268	3283
917.38	3275
917.491	3298
917.603	3409
917.715	3466
917.826	3466
917.938	3367
918.049	3264
918.161	3416
918.272	3614
918.384	3561
918.495	3477
918.606	3374
918.717	3275
918.828	3374
918.939	3469
919.05	3291
919.161	3370
919.272	3154
919.383	3264
919.494	3504
919.604	3690
919.715	3431
919.826	3454
919.936	3439
920.047	3614
920.157	3587
920.267	3774
920.378	3614
920.488	3584
920.598	3797
920.708	3953
920.818	3838
920.928	3854
921.038	4029
921.148	4021
921.258	3751
921.368	3629
921.477	3595
921.587	3557
921.697	3477
921.806	3622
921.916	3549
922.025	3397
922.134	3397
922.244	3329
922.353	3416
922.462	3279
922.571	3260
922.68	3195
922.789	3116
922.898	3176
923.007	3127
923.116	3226
923.224	3226
923.333	3222
923.442	3135
923.55	3123
923.659	3169
923.767	3264
923.876	3161
923.984	3275
924.092	3169
924.201	3249
924.309	3230
924.417	3272
924.525	3230
924.633	3279
924.741	4067
924.849	3085
924.956	3306
925.064	3138
925.172	3112
925.279	3157
925.387	3214
925.494	3245
925.602	3401
925.709	3359
925.816	3241
925.924	3340
926.031	3431
926.138	3378
926.245	3428
926.352	3275
926.459	3462
926.566	3458
926.673	3336
926.779	3302
926.886	3245
926.993	3192
927.099	3195
927.206	3127
927.312	3214
927.419	3310
927.525	3272
927.631	3310
927.737	3192
927.843	3131
927.95	3066
928.056	3173
928.162	3195
928.267	3310
928.373	3899
928.479	3374
928.585	3119
928.69	3256
928.796	3317
928.901	3230
929.007	3062
929.112	3264
929.218	3207
929.323	3188
929.428	3218
929.533	3359
929.638	3161
929.743	3195
929.848	3302
929.953	3264
930.058	3192
930.163	3051
930.267	3085
930.372	3218
930.477	3093
930.581	3348
930.685	3203
930.79	3077
930.894	3161
930.998	3157
931.103	3302
931.207	3009
931.311	2963
931.415	2956
931.519	2811
931.623	2796
