Data from test_V78500241_1187.txt Node
Date: Fri Mar 25 16:23:25 CST 2022
User: usil
Spectrometer: V785-0024
Trigger mode: 0
Integration Time (sec): 4.000000E-1
Scans to average: 1
Nonlinearity correction enabled: false
Boxcar width: 0
Storing dark spectrum: false
XAxis mode: Wavelengths
Number of Pixels in Spectrum: 1024
>>>>>Begin Spectral Data<<<<<
801.071	2883
801.214	2914
801.356	2880
801.499	2887
801.641	2872
801.783	2941
801.926	2979
802.068	2929
802.211	3024
802.353	3028
802.496	2994
802.638	2986
802.78	3017
802.923	3074
803.065	3009
803.208	2887
803.35	2899
803.492	2925
803.635	2929
803.777	2739
803.919	2868
804.061	3207
804.204	2975
804.346	2906
804.488	2830
804.63	2990
804.773	2845
804.915	2864
805.057	3081
805.199	2910
805.341	2990
805.483	3047
805.626	2982
805.768	2975
805.91	3089
806.052	3058
806.194	2967
806.336	3237
806.478	3020
806.62	2933
806.762	2986
806.904	3036
807.046	3176
807.188	2986
807.33	2895
807.472	3001
807.614	2906
807.756	2948
807.898	2922
808.04	2868
808.182	2963
808.324	2914
808.465	2876
808.607	2895
808.749	2792
808.891	2834
809.033	2967
809.174	2948
809.316	2861
809.458	2910
809.6	2758
809.741	2792
809.883	2762
810.025	2861
810.166	2826
810.308	2834
810.45	2838
810.591	2758
810.733	2758
810.875	2788
811.016	2785
811.158	2773
811.299	2804
811.441	2922
811.582	2861
811.724	2796
811.865	2819
812.007	2918
812.148	2845
812.29	2811
812.431	2899
812.573	2937
812.714	2941
812.855	3051
812.997	3058
813.138	3104
813.279	3032
813.421	2971
813.562	2933
813.703	2868
813.845	2864
813.986	2800
814.127	2739
814.268	2807
814.41	2857
814.551	2819
814.692	2868
814.833	2773
814.974	2868
815.115	2933
815.256	2834
815.397	2861
815.539	2876
815.68	2743
815.821	2766
815.962	2956
816.103	2944
816.244	2864
816.385	2880
816.526	2956
816.666	2891
816.807	2735
816.948	2876
817.089	2906
817.23	2853
817.371	2792
817.512	2800
817.653	2811
817.793	2777
817.934	2849
818.075	2929
818.216	2941
818.356	3009
818.497	2880
818.638	2769
818.778	2796
818.919	2773
819.06	2705
819.2	2868
819.341	2819
819.481	2807
819.622	2899
819.762	3097
819.903	3043
820.043	2937
820.184	2880
820.324	2899
820.465	3039
820.605	3024
820.746	3043
820.886	2906
821.026	3085
821.167	3176
821.307	3260
821.447	3272
821.588	3256
821.728	3237
821.868	3176
822.008	3058
822.149	3169
822.289	3245
822.429	3077
822.569	3085
822.709	3157
822.849	3032
822.99	3055
823.13	3180
823.27	3192
823.41	3104
823.55	3165
823.69	3150
823.83	3199
823.97	3112
824.11	2986
824.25	3020
824.389	3074
824.529	3127
824.669	3043
824.809	3188
824.949	3203
825.089	3218
825.228	3173
825.368	2990
825.508	2944
825.648	2971
825.787	2998
825.927	2990
826.067	2948
826.206	2986
826.346	3043
826.485	3093
826.625	3097
826.765	3275
826.904	3195
827.044	2990
827.183	2922
827.323	2872
827.462	2975
827.601	2899
827.741	2929
827.88	2944
828.02	2819
828.159	2963
828.298	3036
828.437	3066
828.577	3009
828.716	3241
828.855	3036
828.994	2899
829.134	2845
829.273	2899
829.412	2864
829.551	2880
829.69	2876
829.829	2975
829.968	3169
830.107	3001
830.246	3028
830.385	2944
830.524	2872
830.663	2796
830.802	2712
830.941	2644
831.08	2632
831.219	2743
831.357	2735
831.496	2902
831.635	2689
831.774	2632
831.913	2655
832.051	2514
832.19	2564
832.329	2697
832.467	2568
832.606	2480
832.744	2575
832.883	2564
833.022	2629
833.16	2606
833.299	2682
833.437	2712
833.576	2674
833.714	2705
833.852	2682
833.991	2766
834.129	2796
834.267	2845
834.406	2769
834.544	2876
834.682	2902
834.821	2880
834.959	3036
835.097	2872
835.235	3005
835.373	2975
835.511	3032
835.65	2948
835.788	2960
835.926	2845
836.064	2826
836.202	2864
836.34	3051
836.478	3135
836.615	3058
836.753	3131
836.891	3195
837.029	3150
837.167	3112
837.305	3028
837.443	3039
837.58	2925
837.718	3077
837.856	3028
837.993	2998
838.131	3085
838.269	3131
838.406	3108
838.544	3036
838.681	2918
838.819	2922
838.956	2781
839.094	2845
839.231	2895
839.369	3017
839.506	3416
839.643	3199
839.781	2971
839.918	2979
840.055	3001
840.193	3039
840.33	3089
840.467	3097
840.604	3169
840.742	3416
840.879	3055
841.016	3013
841.153	3135
841.29	3325
841.427	3302
841.564	3249
841.701	3313
841.838	3230
841.975	3138
842.112	3195
842.249	3051
842.385	3013
842.522	3253
842.659	3074
842.796	3024
842.933	3104
843.069	3043
843.206	3013
843.343	3195
843.479	3138
843.616	3123
843.752	2891
843.889	2849
844.025	3077
844.162	2857
844.298	3058
844.435	2922
844.571	2922
844.708	3066
844.844	3188
844.98	3211
845.117	3192
845.253	3058
845.389	3005
845.525	3108
845.661	3081
845.798	2963
845.934	3119
846.07	3051
846.206	3203
846.342	3321
846.478	3207
846.614	3112
846.75	3070
846.886	3055
847.022	3192
847.158	3119
847.294	3192
847.429	3173
847.565	3211
847.701	3431
847.837	3032
847.972	2994
848.108	3142
848.244	3146
848.379	2944
848.515	2948
848.65	2933
848.786	2956
848.921	2967
849.057	3135
849.192	3112
849.328	3039
849.463	3074
849.598	3077
849.734	3017
849.869	2975
850.004	2918
850.14	2975
850.275	2899
850.41	2823
850.545	2883
850.68	2899
850.815	2918
850.95	2971
851.085	3199
851.22	3066
851.355	3028
851.49	2960
851.625	2994
851.76	3001
851.895	2914
852.03	2883
852.165	3036
852.299	3100
852.434	3146
852.569	3119
852.703	3157
852.838	3199
852.973	3298
853.107	3317
853.242	3123
853.376	3066
853.511	2967
853.645	3013
853.78	3218
853.914	3104
854.048	3142
854.183	3077
854.317	3108
854.451	3260
854.585	3127
854.72	3066
854.854	3207
854.988	3047
855.122	3055
855.256	2944
855.39	3097
855.524	3211
855.658	3188
855.792	3123
855.926	3161
856.06	3184
856.194	3253
856.327	3138
856.461	3089
856.595	3066
856.729	3058
856.862	3237
856.996	3157
857.13	3188
857.263	3218
857.397	3214
857.53	3066
857.664	3176
857.797	3222
857.931	3207
858.064	3165
858.197	3176
858.331	3123
858.464	3085
858.597	3032
858.731	3116
858.864	3085
858.997	3089
859.13	3127
859.263	3169
859.396	3195
859.529	3070
859.662	3058
859.795	3028
859.928	3131
860.061	3268
860.194	3253
860.327	3154
860.46	3085
860.592	3287
860.725	3222
860.858	3253
860.99	3100
861.123	3062
861.256	3036
861.388	3150
861.521	3713
861.653	3051
861.786	2994
861.918	2990
862.05	3032
862.183	3085
862.315	3154
862.447	3173
862.58	3032
862.712	2944
862.844	2807
862.976	2990
863.108	2963
863.24	3275
863.372	2929
863.504	2971
863.636	2929
863.768	3036
863.9	2990
864.032	2891
864.164	2948
864.296	2971
864.428	3070
864.559	3039
864.691	3066
864.823	3051
864.954	3047
865.086	3066
865.217	2975
865.349	2922
865.48	2960
865.612	3032
865.743	3154
865.875	2994
866.006	2952
866.137	2960
866.269	2914
866.4	2937
866.531	2963
866.662	2857
866.793	2922
866.924	2895
867.055	2944
867.186	2918
867.317	2880
867.448	2834
867.579	2845
867.71	2826
867.841	2845
867.972	2853
868.103	2887
868.233	2861
868.364	2853
868.495	2887
868.625	3066
868.756	3146
868.886	2979
869.017	2990
869.147	3176
869.278	3116
869.408	3062
869.539	2998
869.669	3039
869.799	3032
869.929	3112
870.06	3074
870.19	3298
870.32	3294
870.45	3268
870.58	3367
870.71	3454
870.84	3405
870.97	3310
871.1	3237
871.23	3469
871.36	3435
871.489	3359
871.619	3428
871.749	3389
871.879	3412
872.008	3485
872.138	3363
872.267	3268
872.397	3157
872.526	3043
872.656	3005
872.785	3066
872.915	3233
873.044	3287
873.173	3184
873.303	3207
873.432	3245
873.561	3203
873.69	3161
873.819	3123
873.948	3192
874.077	3062
874.206	3032
874.335	3058
874.464	3222
874.593	3332
874.722	3199
874.851	3374
874.979	3302
875.108	3275
875.237	3180
875.365	3150
875.494	3108
875.623	3245
875.751	3074
875.88	3119
876.008	3192
876.136	3226
876.265	3355
876.393	3473
876.521	3412
876.65	3363
876.778	3306
876.906	3245
877.034	3169
877.162	3222
877.29	3165
877.418	3237
877.546	3241
877.674	3256
877.802	3226
877.93	3211
878.058	3161
878.185	3077
878.313	3176
878.441	3165
878.568	3077
878.696	3146
878.824	3241
878.951	3287
879.079	3416
879.206	3606
879.333	3435
879.461	3332
879.588	3382
879.715	3458
879.842	3595
879.97	3378
880.097	3131
880.224	3119
880.351	3192
880.478	3203
880.605	3199
880.732	3184
880.859	3492
880.986	3272
881.112	3367
881.239	3157
881.366	3066
881.493	3024
881.619	3005
881.746	3062
881.872	3055
881.999	3116
882.125	3108
882.252	3237
882.378	3294
882.505	3435
882.631	3245
882.757	3127
882.883	3192
883.01	3214
883.136	3119
883.262	3066
883.388	3104
883.514	3268
883.64	3336
883.766	3306
883.892	3184
884.018	3253
884.143	3401
884.269	3504
884.395	3207
884.52	3165
884.646	3157
884.772	3127
884.897	3104
885.023	3199
885.148	3348
885.274	3401
885.399	3382
885.524	3256
885.65	3272
885.775	3306
885.9	3233
886.025	3397
886.15	3355
886.275	3298
886.4	3207
886.525	3268
886.65	3260
886.775	3298
886.9	3443
887.025	3610
887.149	3389
887.274	3203
887.399	3180
887.523	3180
887.648	3169
887.773	3176
887.897	3336
888.021	3393
888.146	3272
888.27	3431
888.395	3519
888.519	3443
888.643	3431
888.767	3488
888.891	3249
889.015	3241
889.139	3264
889.263	3214
889.387	3355
889.511	3488
889.635	3450
889.759	3275
889.883	3317
890.006	3374
890.13	3496
890.254	3275
890.377	3348
890.501	3184
890.624	3188
890.748	3268
890.871	3173
890.995	3108
891.118	3070
891.241	3211
891.364	3226
891.488	3249
891.611	3176
891.734	3154
891.857	3317
891.98	3218
892.103	3359
892.226	3279
892.349	3188
892.471	3116
892.594	3211
892.717	3256
892.839	3253
892.962	3283
893.085	3351
893.207	3317
893.33	3154
893.452	3226
893.575	3310
893.697	3275
893.819	3462
893.941	3473
894.064	3458
894.186	3283
894.308	3237
894.43	3386
894.552	3511
894.674	3409
894.796	3275
894.918	3291
895.04	3287
895.161	3405
895.283	3370
895.405	3253
895.526	3378
895.648	3397
895.769	3389
895.891	3443
896.012	3443
896.134	3477
896.255	3431
896.376	3397
896.498	3317
896.619	3424
896.74	3367
896.861	3351
896.982	3690
897.103	3827
897.224	3576
897.345	3492
897.466	3428
897.587	3492
897.708	3603
897.828	3576
897.949	3458
898.07	3279
898.19	3393
898.311	3610
898.431	3454
898.552	3466
898.672	3534
898.792	3545
898.913	3504
899.033	3378
899.153	3291
899.273	3192
899.393	3245
899.513	3302
899.633	3313
899.753	3359
899.873	3294
899.993	3393
900.113	3313
900.232	3412
900.352	3310
900.472	3291
900.591	3199
900.711	3291
900.83	3237
900.95	3420
901.069	3466
901.189	3348
901.308	3161
901.427	3131
901.546	3173
901.665	3222
901.784	3310
901.904	3184
902.023	3123
902.141	2986
902.26	2933
902.379	3142
902.498	3017
902.617	3047
902.735	3203
902.854	3176
902.973	3150
903.091	2990
903.21	3070
903.328	3154
903.446	3104
903.565	3081
903.683	3207
903.801	3138
903.919	3199
904.038	3260
904.156	3173
904.274	3222
904.392	3237
904.51	3283
904.627	3291
904.745	3389
904.863	3439
904.981	3260
905.098	3165
905.216	3245
905.334	3256
905.451	3298
905.569	3264
905.686	3367
905.803	3439
905.921	3260
906.038	3374
906.155	3310
906.272	3264
906.389	3332
906.506	3230
906.623	3256
906.74	3249
906.857	3184
906.974	3253
907.091	3443
907.208	3530
907.324	3450
907.441	3382
907.557	3226
907.674	3233
907.79	3222
907.907	3237
908.023	3367
908.139	3424
908.256	3317
908.372	3378
908.488	3359
908.604	3272
908.72	3222
908.836	3317
908.952	3313
909.068	3344
909.184	3485
909.3	3412
909.415	3542
909.531	3481
909.647	3283
909.762	3306
909.878	3268
909.993	3359
910.108	3378
910.224	3340
910.339	3374
910.454	3370
910.57	3363
910.685	3294
910.8	3641
910.915	3564
911.03	3424
911.145	3310
911.259	3298
911.374	3386
911.489	3306
911.604	3230
911.718	3142
911.833	3192
911.947	3062
912.062	3032
912.176	3192
912.291	3226
912.405	3214
912.519	3428
912.633	3500
912.748	3336
912.862	3302
912.976	3184
913.09	3108
913.204	3173
913.318	3260
913.431	3374
913.545	3397
913.659	3450
913.772	3367
913.886	3264
914	3230
914.113	3397
914.226	3416
914.34	3401
914.453	3268
914.566	3488
914.68	3340
914.793	3340
914.906	3195
915.019	3161
915.132	3123
915.245	3195
915.358	3203
915.47	3233
915.583	3340
915.696	3340
915.809	3473
915.921	3428
916.034	3268
916.146	3294
916.259	3275
916.371	3420
916.483	3428
916.595	3302
916.708	3409
916.82	3351
916.932	3374
917.044	3363
917.156	3359
917.268	3302
917.38	3351
917.491	3340
917.603	3389
917.715	3458
917.826	3462
917.938	3435
918.049	3313
918.161	3447
918.272	3603
918.384	3580
918.495	3488
918.606	3363
918.717	3313
918.828	3488
918.939	3409
919.05	3344
919.161	3355
919.272	3173
919.383	3336
919.494	3523
919.604	3690
919.715	3523
919.826	3458
919.936	3545
920.047	3633
920.157	3542
920.267	3774
920.378	3660
920.488	3587
920.598	3724
920.708	3983
920.818	3835
920.928	3838
921.038	4006
921.148	4059
921.258	3759
921.368	3641
921.477	3614
921.587	3561
921.697	3439
921.806	3698
921.916	3530
922.025	3321
922.134	3374
922.244	3313
922.353	3435
922.462	3298
922.571	3249
922.68	3119
922.789	3100
922.898	3165
923.007	3150
923.116	3249
923.224	3214
923.333	3211
923.442	3100
923.55	3123
923.659	3188
923.767	3203
923.876	3157
923.984	3260
924.092	3146
924.201	3241
924.309	3222
924.417	3302
924.525	3207
924.633	3291
924.741	4036
924.849	3116
924.956	3298
925.064	3112
925.172	3081
925.279	3116
925.387	3184
925.494	3268
925.602	3367
925.709	3351
925.816	3192
925.924	3336
926.031	3443
926.138	3344
926.245	3378
926.352	3256
926.459	3466
926.566	3519
926.673	3348
926.779	3313
926.886	3310
926.993	3226
927.099	3195
927.206	3150
927.312	3188
927.419	3291
927.525	3249
927.631	3344
927.737	3161
927.843	3135
927.95	3047
928.056	3154
928.162	3188
928.267	3298
928.373	3865
928.479	3340
928.585	3074
928.69	3245
928.796	3348
928.901	3214
929.007	3070
929.112	3268
929.218	3180
929.323	3192
929.428	3146
929.533	3370
929.638	3100
929.743	3195
929.848	3287
929.953	3233
930.058	3184
930.163	3036
930.267	3058
930.372	3249
930.477	3116
930.581	3336
930.685	3218
930.79	3085
930.894	3119
930.998	3100
931.103	3340
931.207	2971
931.311	3005
931.415	2918
931.519	2804
931.623	2838
