Data from test_V78500241_1068.txt Node
Date: Fri Mar 25 16:22:36 CST 2022
User: usil
Spectrometer: V785-0024
Trigger mode: 0
Integration Time (sec): 4.000000E-1
Scans to average: 1
Nonlinearity correction enabled: false
Boxcar width: 0
Storing dark spectrum: false
XAxis mode: Wavelengths
Number of Pixels in Spectrum: 1024
>>>>>Begin Spectral Data<<<<<
801.071	2960
801.214	2918
801.356	2880
801.499	2922
801.641	2872
801.783	2963
801.926	3017
802.068	3001
802.211	3077
802.353	3020
802.496	2967
802.638	3043
802.78	3055
802.923	3066
803.065	3032
803.208	2918
803.35	2899
803.492	2979
803.635	2941
803.777	2762
803.919	2883
804.061	3207
804.204	2960
804.346	2922
804.488	2872
804.63	3005
804.773	2883
804.915	2937
805.057	3097
805.199	2944
805.341	2967
805.483	3058
805.626	2994
805.768	2975
805.91	3043
806.052	3138
806.194	3013
806.336	3260
806.478	3013
806.62	2963
806.762	2979
806.904	3062
807.046	3157
807.188	3017
807.33	2918
807.472	2990
807.614	2880
807.756	2967
807.898	2910
808.04	2906
808.182	2952
808.324	2937
808.465	2868
808.607	2906
808.749	2758
808.891	2880
809.033	2960
809.174	3001
809.316	2876
809.458	2910
809.6	2792
809.741	2769
809.883	2762
810.025	2883
810.166	2872
810.308	2891
810.45	2895
810.591	2804
810.733	2773
810.875	2853
811.016	2788
811.158	2746
811.299	2804
811.441	2902
811.582	2933
811.724	2834
811.865	2845
812.007	2914
812.148	2895
812.29	2849
812.431	2910
812.573	2941
812.714	2979
812.855	3055
812.997	3020
813.138	3093
813.279	3013
813.421	3013
813.562	2948
813.703	2872
813.845	2876
813.986	2758
814.127	2720
814.268	2830
814.41	2819
814.551	2804
814.692	2861
814.833	2781
814.974	2899
815.115	2941
815.256	2857
815.397	2826
815.539	2868
815.68	2781
815.821	2796
815.962	2906
816.103	2933
816.244	2857
816.385	2868
816.526	2922
816.666	2887
816.807	2773
816.948	2895
817.089	2925
817.23	2853
817.371	2777
817.512	2777
817.653	2864
817.793	2819
817.934	2891
818.075	2933
818.216	3009
818.356	3039
818.497	2902
818.638	2815
818.778	2811
818.919	2796
819.06	2754
819.2	2906
819.341	2830
819.481	2777
819.622	2910
819.762	3089
819.903	3047
820.043	2925
820.184	2883
820.324	2906
820.465	2998
820.605	3001
820.746	2994
820.886	2960
821.026	3081
821.167	3127
821.307	3253
821.447	3279
821.588	3253
821.728	3199
821.868	3192
822.008	3070
822.149	3195
822.289	3195
822.429	3116
822.569	3062
822.709	3173
822.849	2990
822.99	3032
823.13	3131
823.27	3146
823.41	3097
823.55	3123
823.69	3135
823.83	3173
823.97	3093
824.11	3005
824.25	2960
824.389	3017
824.529	3081
824.669	3051
824.809	3214
824.949	3260
825.089	3214
825.228	3127
825.368	2971
825.508	2944
825.648	2998
825.787	2975
825.927	3017
826.067	2944
826.206	2937
826.346	3024
826.485	3051
826.625	3119
826.765	3241
826.904	3199
827.044	3009
827.183	2918
827.323	2887
827.462	2967
827.601	2906
827.741	2941
827.88	2944
828.02	2887
828.159	2979
828.298	3062
828.437	3116
828.577	3039
828.716	3241
828.855	3104
828.994	2906
829.134	2883
829.273	2872
829.412	2876
829.551	2887
829.69	2872
829.829	2979
829.968	3142
830.107	3070
830.246	3070
830.385	2960
830.524	2876
830.663	2849
830.802	2777
830.941	2682
831.08	2655
831.219	2777
831.357	2785
831.496	2994
831.635	2720
831.774	2678
831.913	2678
832.051	2571
832.19	2651
832.329	2727
832.467	2579
832.606	2533
832.744	2648
832.883	2632
833.022	2629
833.16	2663
833.299	2705
833.437	2727
833.576	2743
833.714	2750
833.852	2766
833.991	2823
834.129	2845
834.267	2872
834.406	2857
834.544	2918
834.682	2922
834.821	2845
834.959	3097
835.097	2960
835.235	3112
835.373	3009
835.511	3047
835.65	3024
835.788	2960
835.926	2842
836.064	2823
836.202	2899
836.34	3127
836.478	3138
836.615	3028
836.753	3180
836.891	3283
837.029	3203
837.167	3127
837.305	3131
837.443	3077
837.58	3013
837.718	3169
837.856	3100
837.993	3116
838.131	3146
838.269	3123
838.406	3150
838.544	3199
838.681	3001
838.819	2975
838.956	2887
839.094	2891
839.231	2986
839.369	3047
839.506	3405
839.643	3279
839.781	3043
839.918	2998
840.055	3058
840.193	3089
840.33	3097
840.467	3127
840.604	3192
840.742	3462
840.879	3100
841.016	3093
841.153	3150
841.29	3374
841.427	3306
841.564	3332
841.701	3389
841.838	3207
841.975	3222
842.112	3241
842.249	3097
842.385	3089
842.522	3275
842.659	3112
842.796	3112
842.933	3085
843.069	3081
843.206	3043
843.343	3207
843.479	3142
843.616	3173
843.752	2933
843.889	2899
844.025	3116
844.162	2925
844.298	3135
844.435	2971
844.571	2971
844.708	3131
844.844	3207
844.98	3256
845.117	3237
845.253	3089
845.389	3032
845.525	3176
845.661	3135
845.798	3058
845.934	3150
846.07	3116
846.206	3275
846.342	3363
846.478	3291
846.614	3131
846.75	3093
846.886	3047
847.022	3256
847.158	3180
847.294	3226
847.429	3287
847.565	3256
847.701	3542
847.837	3062
847.972	3024
848.108	3203
848.244	3161
848.379	3017
848.515	2998
848.65	2990
848.786	2975
848.921	3051
849.057	3161
849.192	3180
849.328	3116
849.463	3127
849.598	3055
849.734	3070
849.869	3013
850.004	2975
850.14	2990
850.275	2925
850.41	2876
850.545	2922
850.68	2933
850.815	2971
850.95	2967
851.085	3237
851.22	3112
851.355	3047
851.49	3017
851.625	3051
851.76	3043
851.895	2929
852.03	2963
852.165	3066
852.299	3161
852.434	3211
852.569	3154
852.703	3192
852.838	3260
852.973	3363
853.107	3363
853.242	3169
853.376	3138
853.511	3028
853.645	3074
853.78	3283
853.914	3161
854.048	3146
854.183	3116
854.317	3150
854.451	3291
854.585	3173
854.72	3146
854.854	3233
854.988	3108
855.122	3154
855.256	2994
855.39	3173
855.524	3268
855.658	3218
855.792	3203
855.926	3245
856.06	3249
856.194	3287
856.327	3154
856.461	3085
856.595	3100
856.729	3116
856.862	3222
856.996	3188
857.13	3195
857.263	3298
857.397	3291
857.53	3127
857.664	3226
857.797	3241
857.931	3260
858.064	3230
858.197	3245
858.331	3150
858.464	3138
858.597	3009
858.731	3161
858.864	3154
858.997	3104
859.13	3195
859.263	3184
859.396	3272
859.529	3093
859.662	3108
859.795	3055
859.928	3154
860.061	3310
860.194	3340
860.327	3154
860.46	3085
860.592	3226
860.725	3287
860.858	3230
860.99	3138
861.123	3108
861.256	3062
861.388	3176
861.521	3816
861.653	3066
861.786	2994
861.918	3036
862.05	3104
862.183	3108
862.315	3180
862.447	3199
862.58	3104
862.712	2956
862.844	2895
862.976	3028
863.108	3043
863.24	3351
863.372	2929
863.504	2990
863.636	2967
863.768	3047
863.9	3043
864.032	2952
864.164	3001
864.296	2994
864.428	3142
864.559	3135
864.691	3074
864.823	3062
864.954	3077
865.086	3074
865.217	2975
865.349	2990
865.48	3024
865.612	3066
865.743	3161
865.875	2986
866.006	3005
866.137	2998
866.269	2975
866.4	3005
866.531	2956
866.662	2925
866.793	2941
866.924	2918
867.055	2990
867.186	2937
867.317	2952
867.448	2845
867.579	2872
867.71	2902
867.841	2807
867.972	2910
868.103	2902
868.233	2883
868.364	2895
868.495	2910
868.625	3089
868.756	3165
868.886	3013
869.017	3013
869.147	3192
869.278	3165
869.408	3062
869.539	3074
869.669	3116
869.799	3085
869.929	3127
870.06	3100
870.19	3336
870.32	3310
870.45	3351
870.58	3401
870.71	3473
870.84	3450
870.97	3317
871.1	3264
871.23	3488
871.36	3485
871.489	3336
871.619	3409
871.749	3428
871.879	3416
872.008	3462
872.138	3416
872.267	3272
872.397	3169
872.526	3116
872.656	3043
872.785	3127
872.915	3256
873.044	3344
873.173	3256
873.303	3226
873.432	3256
873.561	3233
873.69	3230
873.819	3173
873.948	3233
874.077	3142
874.206	3036
874.335	3116
874.464	3249
874.593	3374
874.722	3275
874.851	3412
874.979	3367
875.108	3351
875.237	3199
875.365	3138
875.494	3195
875.623	3310
875.751	3119
875.88	3097
876.008	3214
876.136	3249
876.265	3389
876.393	3557
876.521	3439
876.65	3412
876.778	3351
876.906	3237
877.034	3192
877.162	3253
877.29	3203
877.418	3256
877.546	3245
877.674	3283
877.802	3245
877.93	3214
878.058	3180
878.185	3112
878.313	3214
878.441	3214
878.568	3055
878.696	3169
878.824	3249
878.951	3306
879.079	3435
879.206	3618
879.333	3488
879.461	3332
879.588	3409
879.715	3485
879.842	3584
879.97	3416
880.097	3169
880.224	3116
880.351	3230
880.478	3249
880.605	3169
880.732	3226
880.859	3542
880.986	3329
881.112	3351
881.239	3214
881.366	3104
881.493	3039
881.619	3024
881.746	3119
881.872	3100
881.999	3127
882.125	3188
882.252	3264
882.378	3310
882.505	3469
882.631	3298
882.757	3161
882.883	3230
883.01	3237
883.136	3211
883.262	3127
883.388	3123
883.514	3359
883.64	3370
883.766	3302
883.892	3214
884.018	3249
884.143	3439
884.269	3530
884.395	3192
884.52	3173
884.646	3222
884.772	3154
884.897	3127
885.023	3214
885.148	3378
885.274	3439
885.399	3409
885.524	3321
885.65	3283
885.775	3317
885.9	3298
886.025	3477
886.15	3378
886.275	3317
886.4	3245
886.525	3302
886.65	3325
886.775	3374
886.9	3496
887.025	3641
887.149	3450
887.274	3268
887.399	3226
887.523	3203
887.648	3233
887.773	3199
887.897	3382
888.021	3416
888.146	3298
888.27	3485
888.395	3530
888.519	3485
888.643	3485
888.767	3477
888.891	3344
889.015	3260
889.139	3310
889.263	3253
889.387	3424
889.511	3492
889.635	3439
889.759	3291
889.883	3351
890.006	3420
890.13	3504
890.254	3306
890.377	3329
890.501	3245
890.624	3169
890.748	3306
890.871	3218
890.995	3161
891.118	3081
891.241	3195
891.364	3268
891.488	3317
891.611	3176
891.734	3256
891.857	3294
891.98	3230
892.103	3332
892.226	3329
892.349	3222
892.471	3123
892.594	3241
892.717	3332
892.839	3329
892.962	3264
893.085	3382
893.207	3294
893.33	3150
893.452	3230
893.575	3344
893.697	3237
893.819	3481
893.941	3454
894.064	3477
894.186	3287
894.308	3298
894.43	3447
894.552	3542
894.674	3485
894.796	3264
894.918	3348
895.04	3298
895.161	3405
895.283	3401
895.405	3298
895.526	3386
895.648	3435
895.769	3439
895.891	3492
896.012	3507
896.134	3492
896.255	3473
896.376	3443
896.498	3378
896.619	3416
896.74	3401
896.861	3412
896.982	3671
897.103	3876
897.224	3618
897.345	3530
897.466	3401
897.587	3519
897.708	3625
897.828	3526
897.949	3477
898.07	3317
898.19	3431
898.311	3618
898.431	3511
898.552	3530
898.672	3595
898.792	3591
898.913	3534
899.033	3450
899.153	3329
899.273	3199
899.393	3325
899.513	3348
899.633	3340
899.753	3359
899.873	3313
899.993	3409
900.113	3313
900.232	3382
900.352	3325
900.472	3332
900.591	3279
900.711	3351
900.83	3264
900.95	3412
901.069	3469
901.189	3359
901.308	3207
901.427	3127
901.546	3226
901.665	3283
901.784	3359
901.904	3184
902.023	3116
902.141	3020
902.26	3009
902.379	3146
902.498	3108
902.617	3055
902.735	3237
902.854	3218
902.973	3169
903.091	3089
903.21	3070
903.328	3154
903.446	3108
903.565	3112
903.683	3260
903.801	3135
903.919	3260
904.038	3310
904.156	3226
904.274	3325
904.392	3279
904.51	3302
904.627	3310
904.745	3462
904.863	3485
904.981	3260
905.098	3161
905.216	3249
905.334	3306
905.451	3313
905.569	3348
905.686	3431
905.803	3481
905.921	3275
906.038	3454
906.155	3367
906.272	3306
906.389	3298
906.506	3279
906.623	3279
906.74	3272
906.857	3203
906.974	3264
907.091	3450
907.208	3576
907.324	3526
907.441	3409
907.557	3195
907.674	3253
907.79	3199
907.907	3302
908.023	3389
908.139	3374
908.256	3393
908.372	3355
908.488	3439
908.604	3279
908.72	3249
908.836	3291
908.952	3291
909.068	3336
909.184	3511
909.3	3409
909.415	3469
909.531	3488
909.647	3241
909.762	3336
909.878	3268
909.993	3393
910.108	3363
910.224	3386
910.339	3420
910.454	3363
910.57	3317
910.685	3230
910.8	3606
910.915	3580
911.03	3466
911.145	3283
911.259	3283
911.374	3336
911.489	3237
911.604	3302
911.718	3123
911.833	3135
911.947	3047
912.062	2986
912.176	3123
912.291	3195
912.405	3192
912.519	3469
912.633	3481
912.748	3340
912.862	3287
912.976	3188
913.09	3062
913.204	3154
913.318	3272
913.431	3370
913.545	3367
913.659	3450
913.772	3332
913.886	3237
914	3188
914.113	3416
914.226	3428
914.34	3405
914.453	3237
914.566	3378
914.68	3245
914.793	3340
914.906	3180
915.019	3085
915.132	3066
915.245	3195
915.358	3199
915.47	3249
915.583	3302
915.696	3291
915.809	3393
915.921	3443
916.034	3260
916.146	3279
916.259	3222
916.371	3386
916.483	3351
916.595	3287
916.708	3382
916.82	3325
916.932	3363
917.044	3329
917.156	3336
917.268	3291
917.38	3332
917.491	3256
917.603	3348
917.715	3424
917.826	3443
917.938	3428
918.049	3275
918.161	3409
918.272	3584
918.384	3553
918.495	3538
918.606	3348
918.717	3298
918.828	3397
918.939	3397
919.05	3298
919.161	3370
919.272	3192
919.383	3340
919.494	3488
919.604	3701
919.715	3473
919.826	3382
919.936	3454
920.047	3591
920.157	3549
920.267	3804
920.378	3625
920.488	3587
920.598	3766
920.708	3975
920.818	3831
920.928	3831
921.038	4010
921.148	4013
921.258	3701
921.368	3633
921.477	3599
921.587	3584
921.697	3450
921.806	3599
921.916	3526
922.025	3397
922.134	3382
922.244	3302
922.353	3412
922.462	3287
922.571	3233
922.68	3093
922.789	3077
922.898	3142
923.007	3127
923.116	3230
923.224	3199
923.333	3173
923.442	3100
923.55	3070
923.659	3188
923.767	3260
923.876	3116
923.984	3268
924.092	3077
924.201	3195
924.309	3211
924.417	3249
924.525	3199
924.633	3218
924.741	4181
924.849	3070
924.956	3272
925.064	3077
925.172	3043
925.279	3116
925.387	3222
925.494	3176
925.602	3355
925.709	3325
925.816	3154
925.924	3287
926.031	3397
926.138	3306
926.245	3386
926.352	3253
926.459	3428
926.566	3469
926.673	3329
926.779	3241
926.886	3249
926.993	3176
927.099	3157
927.206	3093
927.312	3138
927.419	3226
927.525	3230
927.631	3325
927.737	3146
927.843	3119
927.95	3036
928.056	3142
928.162	3184
928.267	3222
928.373	3937
928.479	3336
928.585	3058
928.69	3237
928.796	3302
928.901	3157
929.007	3032
929.112	3214
929.218	3188
929.323	3138
929.428	3188
929.533	3310
929.638	3116
929.743	3142
929.848	3237
929.953	3241
930.058	3180
930.163	2998
930.267	3062
930.372	3203
930.477	3032
930.581	3336
930.685	3154
930.79	3074
930.894	3112
930.998	3093
931.103	3283
931.207	2971
931.311	2941
931.415	2918
931.519	2792
931.623	2766
