Data from test_V78500241_1760.txt Node
Date: Fri Mar 25 16:27:23 CST 2022
User: usil
Spectrometer: V785-0024
Trigger mode: 0
Integration Time (sec): 4.000000E-1
Scans to average: 1
Nonlinearity correction enabled: false
Boxcar width: 0
Storing dark spectrum: false
XAxis mode: Wavelengths
Number of Pixels in Spectrum: 1024
>>>>>Begin Spectral Data<<<<<
801.071	2918
801.214	2937
801.356	2895
801.499	2864
801.641	2887
801.783	2902
801.926	3043
802.068	2982
802.211	2986
802.353	3032
802.496	2952
802.638	3020
802.78	3024
802.923	3112
803.065	2986
803.208	2861
803.35	2941
803.492	2925
803.635	2948
803.777	2773
803.919	2853
804.061	3184
804.204	2933
804.346	2906
804.488	2857
804.63	2982
804.773	2891
804.915	2914
805.057	3116
805.199	2918
805.341	2960
805.483	3039
805.626	3005
805.768	2944
805.91	3039
806.052	3127
806.194	3047
806.336	3237
806.478	2994
806.62	2922
806.762	2986
806.904	3043
807.046	3180
807.188	3005
807.33	2895
807.472	2952
807.614	2948
807.756	2971
807.898	2933
808.04	2880
808.182	2990
808.324	2956
808.465	2883
808.607	2876
808.749	2773
808.891	2834
809.033	2994
809.174	2967
809.316	2887
809.458	2883
809.6	2788
809.741	2785
809.883	2758
810.025	2853
810.166	2861
810.308	2857
810.45	2868
810.591	2800
810.733	2796
810.875	2830
811.016	2750
811.158	2758
811.299	2830
811.441	2941
811.582	2906
811.724	2838
811.865	2849
812.007	2868
812.148	2895
812.29	2845
812.431	2883
812.573	2929
812.714	2956
812.855	3017
812.997	3043
813.138	3108
813.279	3028
813.421	3005
813.562	2918
813.703	2872
813.845	2887
813.986	2773
814.127	2724
814.268	2834
814.41	2842
814.551	2830
814.692	2864
814.833	2815
814.974	2872
815.115	2952
815.256	2868
815.397	2807
815.539	2849
815.68	2762
815.821	2804
815.962	2906
816.103	2925
816.244	2872
816.385	2880
816.526	2956
816.666	2887
816.807	2724
816.948	2902
817.089	2876
817.23	2849
817.371	2781
817.512	2769
817.653	2857
817.793	2838
817.934	2883
818.075	2990
818.216	2986
818.356	3013
818.497	2918
818.638	2773
818.778	2853
818.919	2762
819.06	2777
819.2	2853
819.341	2811
819.481	2781
819.622	2963
819.762	3062
819.903	3028
820.043	2914
820.184	2899
820.324	2899
820.465	3005
820.605	3020
820.746	3009
820.886	2914
821.026	3116
821.167	3157
821.307	3249
821.447	3245
821.588	3260
821.728	3169
821.868	3169
822.008	3070
822.149	3150
822.289	3211
822.429	3119
822.569	3081
822.709	3188
822.849	3039
822.99	3020
823.13	3161
823.27	3184
823.41	3104
823.55	3135
823.69	3142
823.83	3203
823.97	3077
824.11	2990
824.25	2982
824.389	3062
824.529	3100
824.669	3062
824.809	3184
824.949	3233
825.089	3237
825.228	3100
825.368	3017
825.508	2956
825.648	2956
825.787	2979
825.927	3020
826.067	2963
826.206	2948
826.346	3020
826.485	3081
826.625	3093
826.765	3272
826.904	3192
827.044	2986
827.183	2944
827.323	2887
827.462	2967
827.601	2910
827.741	2944
827.88	2933
828.02	2830
828.159	2952
828.298	2994
828.437	3093
828.577	3047
828.716	3176
828.855	3104
828.994	2910
829.134	2883
829.273	2899
829.412	2887
829.551	2857
829.69	2902
829.829	2971
829.968	3142
830.107	2994
830.246	3028
830.385	2906
830.524	2910
830.663	2781
830.802	2720
830.941	2678
831.08	2613
831.219	2766
831.357	2754
831.496	2929
831.635	2686
831.774	2640
831.913	2663
832.051	2522
832.19	2571
832.329	2678
832.467	2533
832.606	2518
832.744	2598
832.883	2594
833.022	2610
833.16	2625
833.299	2697
833.437	2682
833.576	2735
833.714	2720
833.852	2750
833.991	2739
834.129	2849
834.267	2804
834.406	2769
834.544	2826
834.682	2876
834.821	2868
834.959	3070
835.097	2868
835.235	3055
835.373	3009
835.511	2998
835.65	2960
835.788	2956
835.926	2785
836.064	2811
836.202	2838
836.34	3074
836.478	3154
836.615	3001
836.753	3104
836.891	3211
837.029	3146
837.167	3116
837.305	3085
837.443	3066
837.58	2956
837.718	3116
837.856	3097
837.993	3013
838.131	3131
838.269	3097
838.406	3097
838.544	3081
838.681	2937
838.819	2887
838.956	2815
839.094	2819
839.231	2902
839.369	2982
839.506	3351
839.643	3222
839.781	3017
839.918	2937
840.055	3047
840.193	3017
840.33	3062
840.467	3066
840.604	3112
840.742	3355
840.879	3039
841.016	3039
841.153	3089
841.29	3298
841.427	3241
841.564	3249
841.701	3310
841.838	3214
841.975	3154
842.112	3192
842.249	3058
842.385	3024
842.522	3249
842.659	3097
842.796	3039
842.933	3081
843.069	3058
843.206	3013
843.343	3135
843.479	3097
843.616	3154
843.752	2887
843.889	2887
844.025	3085
844.162	2861
844.298	3047
844.435	2902
844.571	2914
844.708	3074
844.844	3123
844.98	3226
845.117	3207
845.253	3055
845.389	3001
845.525	3112
845.661	3077
845.798	2967
845.934	3104
846.07	3043
846.206	3233
846.342	3317
846.478	3222
846.614	3058
846.75	3051
846.886	3024
847.022	3218
847.158	3146
847.294	3207
847.429	3237
847.565	3180
847.701	3458
847.837	3039
847.972	2971
848.108	3142
848.244	3131
848.379	2963
848.515	2925
848.65	2948
848.786	2960
848.921	3020
849.057	3062
849.192	3127
849.328	3070
849.463	3093
849.598	3055
849.734	3028
849.869	2967
850.004	2872
850.14	2933
850.275	2880
850.41	2842
850.545	2902
850.68	2933
850.815	2914
850.95	2952
851.085	3211
851.22	3051
851.355	3001
851.49	2986
851.625	2971
851.76	2982
851.895	2918
852.03	2914
852.165	3032
852.299	3085
852.434	3188
852.569	3123
852.703	3176
852.838	3275
852.973	3332
853.107	3298
853.242	3142
853.376	3039
853.511	2975
853.645	3024
853.78	3233
853.914	3100
854.048	3085
854.183	3104
854.317	3116
854.451	3245
854.585	3138
854.72	3093
854.854	3211
854.988	3074
855.122	3051
855.256	2960
855.39	3127
855.524	3260
855.658	3142
855.792	3119
855.926	3180
856.06	3214
856.194	3249
856.327	3135
856.461	3074
856.595	3066
856.729	3024
856.862	3199
856.996	3112
857.13	3207
857.263	3211
857.397	3233
857.53	3100
857.664	3207
857.797	3222
857.931	3260
858.064	3161
858.197	3184
858.331	3089
858.464	3097
858.597	3005
858.731	3093
858.864	3119
858.997	3097
859.13	3127
859.263	3169
859.396	3173
859.529	3062
859.662	3081
859.795	3058
859.928	3138
860.061	3272
860.194	3291
860.327	3108
860.46	3112
860.592	3230
860.725	3245
860.858	3230
860.99	3089
861.123	3032
861.256	3036
861.388	3135
861.521	3865
861.653	3005
861.786	2986
861.918	2982
862.05	3055
862.183	3089
862.315	3123
862.447	3184
862.58	3085
862.712	2937
862.844	2868
862.976	3005
863.108	2982
863.24	3317
863.372	2853
863.504	2952
863.636	2929
863.768	3017
863.9	3013
864.032	2902
864.164	2971
864.296	3001
864.428	3070
864.559	3077
864.691	3058
864.823	3058
864.954	3005
865.086	3028
865.217	2994
865.349	2937
865.48	2944
865.612	3017
865.743	3150
865.875	2937
866.006	2952
866.137	2979
866.269	2922
866.4	2952
866.531	2929
866.662	2887
866.793	2899
866.924	2872
867.055	2990
867.186	2925
867.317	2880
867.448	2872
867.579	2826
867.71	2823
867.841	2811
867.972	2918
868.103	2937
868.233	2902
868.364	2899
868.495	2857
868.625	3089
868.756	3173
868.886	2922
869.017	3032
869.147	3142
869.278	3150
869.408	3036
869.539	3013
869.669	3100
869.799	3032
869.929	3093
870.06	3089
870.19	3283
870.32	3291
870.45	3279
870.58	3355
870.71	3458
870.84	3462
870.97	3275
871.1	3249
871.23	3526
871.36	3477
871.489	3325
871.619	3378
871.749	3431
871.879	3416
872.008	3481
872.138	3348
872.267	3272
872.397	3131
872.526	3085
872.656	2990
872.785	3089
872.915	3211
873.044	3287
873.173	3176
873.303	3249
873.432	3260
873.561	3237
873.69	3135
873.819	3154
873.948	3138
874.077	3093
874.206	3058
874.335	3039
874.464	3203
874.593	3321
874.722	3233
874.851	3367
874.979	3355
875.108	3298
875.237	3176
875.365	3112
875.494	3161
875.623	3226
875.751	3070
875.88	3112
876.008	3169
876.136	3237
876.265	3355
876.393	3462
876.521	3389
876.65	3401
876.778	3355
876.906	3245
877.034	3195
877.162	3226
877.29	3188
877.418	3275
877.546	3268
877.674	3188
877.802	3230
877.93	3211
878.058	3150
878.185	3108
878.313	3188
878.441	3203
878.568	3043
878.696	3116
878.824	3233
878.951	3260
879.079	3405
879.206	3587
879.333	3454
879.461	3340
879.588	3332
879.715	3515
879.842	3580
879.97	3363
880.097	3184
880.224	3093
880.351	3169
880.478	3211
880.605	3180
880.732	3165
880.859	3507
880.986	3294
881.112	3313
881.239	3195
881.366	3070
881.493	2994
881.619	2994
881.746	3051
881.872	3074
881.999	3081
882.125	3131
882.252	3218
882.378	3272
882.505	3409
882.631	3241
882.757	3146
882.883	3195
883.01	3207
883.136	3154
883.262	3077
883.388	3077
883.514	3294
883.64	3348
883.766	3329
883.892	3165
884.018	3180
884.143	3382
884.269	3485
884.395	3207
884.52	3142
884.646	3146
884.772	3127
884.897	3066
885.023	3211
885.148	3298
885.274	3416
885.399	3382
885.524	3264
885.65	3245
885.775	3291
885.9	3241
886.025	3409
886.15	3321
886.275	3260
886.4	3226
886.525	3325
886.65	3268
886.775	3249
886.9	3492
887.025	3618
887.149	3378
887.274	3218
887.399	3222
887.523	3214
887.648	3173
887.773	3199
887.897	3336
888.021	3389
888.146	3298
888.27	3439
888.395	3511
888.519	3443
888.643	3428
888.767	3447
888.891	3294
889.015	3203
889.139	3325
889.263	3241
889.387	3424
889.511	3523
889.635	3507
889.759	3283
889.883	3256
890.006	3420
890.13	3519
890.254	3287
890.377	3397
890.501	3211
890.624	3211
890.748	3310
890.871	3253
890.995	3165
891.118	3085
891.241	3253
891.364	3275
891.488	3348
891.611	3211
891.734	3249
891.857	3351
891.98	3291
892.103	3382
892.226	3268
892.349	3279
892.471	3161
892.594	3264
892.717	3329
892.839	3325
892.962	3325
893.085	3393
893.207	3351
893.33	3173
893.452	3306
893.575	3389
893.697	3245
893.819	3511
893.941	3542
894.064	3488
894.186	3272
894.308	3298
894.43	3462
894.552	3610
894.674	3485
894.796	3306
894.918	3363
895.04	3313
895.161	3466
895.283	3431
895.405	3355
895.526	3420
895.648	3481
895.769	3424
895.891	3473
896.012	3523
896.134	3488
896.255	3477
896.376	3454
896.498	3424
896.619	3450
896.74	3393
896.861	3450
896.982	3724
897.103	3873
897.224	3641
897.345	3553
897.466	3511
897.587	3515
897.708	3656
897.828	3580
897.949	3473
898.07	3378
898.19	3458
898.311	3610
898.431	3481
898.552	3580
898.672	3637
898.792	3580
898.913	3561
899.033	3439
899.153	3344
899.273	3260
899.393	3294
899.513	3382
899.633	3313
899.753	3386
899.873	3378
899.993	3428
900.113	3374
900.232	3431
900.352	3374
900.472	3310
900.591	3230
900.711	3329
900.83	3264
900.95	3462
901.069	3526
901.189	3386
901.308	3203
901.427	3146
901.546	3233
901.665	3332
901.784	3393
901.904	3256
902.023	3180
902.141	3055
902.26	3001
902.379	3138
902.498	3135
902.617	3074
902.735	3253
902.854	3237
902.973	3226
903.091	3081
903.21	3093
903.328	3146
903.446	3173
903.565	3127
903.683	3241
903.801	3173
903.919	3306
904.038	3325
904.156	3214
904.274	3340
904.392	3260
904.51	3321
904.627	3332
904.745	3462
904.863	3519
904.981	3298
905.098	3195
905.216	3287
905.334	3317
905.451	3302
905.569	3329
905.686	3462
905.803	3496
905.921	3283
906.038	3447
906.155	3370
906.272	3298
906.389	3359
906.506	3256
906.623	3268
906.74	3302
906.857	3226
906.974	3249
907.091	3488
907.208	3587
907.324	3511
907.441	3428
907.557	3260
907.674	3272
907.79	3233
907.907	3313
908.023	3355
908.139	3401
908.256	3363
908.372	3424
908.488	3348
908.604	3268
908.72	3272
908.836	3344
908.952	3321
909.068	3344
909.184	3504
909.3	3416
909.415	3561
909.531	3504
909.647	3249
909.762	3313
909.878	3310
909.993	3393
910.108	3367
910.224	3355
910.339	3428
910.454	3382
910.57	3344
910.685	3294
910.8	3625
910.915	3587
911.03	3409
911.145	3291
911.259	3287
911.374	3340
911.489	3287
911.604	3275
911.718	3154
911.833	3180
911.947	3066
912.062	3017
912.176	3199
912.291	3241
912.405	3245
912.519	3485
912.633	3488
912.748	3367
912.862	3302
912.976	3207
913.09	3066
913.204	3188
913.318	3237
913.431	3370
913.545	3359
913.659	3431
913.772	3351
913.886	3245
914	3268
914.113	3405
914.226	3481
914.34	3355
914.453	3237
914.566	3450
914.68	3306
914.793	3332
914.906	3176
915.019	3138
915.132	3112
915.245	3192
915.358	3264
915.47	3283
915.583	3294
915.696	3325
915.809	3447
915.921	3454
916.034	3291
916.146	3279
916.259	3279
916.371	3424
916.483	3412
916.595	3287
916.708	3340
916.82	3336
916.932	3344
917.044	3355
917.156	3367
917.268	3268
917.38	3302
917.491	3351
917.603	3367
917.715	3466
917.826	3481
917.938	3393
918.049	3264
918.161	3469
918.272	3603
918.384	3625
918.495	3530
918.606	3435
918.717	3313
918.828	3409
918.939	3397
919.05	3313
919.161	3397
919.272	3188
919.383	3317
919.494	3523
919.604	3713
919.715	3545
919.826	3447
919.936	3496
920.047	3618
920.157	3564
920.267	3789
920.378	3644
920.488	3603
920.598	3800
920.708	3968
920.818	3835
920.928	3854
921.038	4036
921.148	3991
921.258	3713
921.368	3656
921.477	3637
921.587	3542
921.697	3542
921.806	3698
921.916	3545
922.025	3409
922.134	3393
922.244	3359
922.353	3481
922.462	3275
922.571	3218
922.68	3138
922.789	3081
922.898	3192
923.007	3089
923.116	3264
923.224	3203
923.333	3237
923.442	3131
923.55	3104
923.659	3192
923.767	3230
923.876	3112
923.984	3287
924.092	3169
924.201	3195
924.309	3245
924.417	3253
924.525	3222
924.633	3237
924.741	4055
924.849	3116
924.956	3279
925.064	3154
925.172	3043
925.279	3127
925.387	3245
925.494	3237
925.602	3310
925.709	3374
925.816	3249
925.924	3268
926.031	3424
926.138	3313
926.245	3363
926.352	3298
926.459	3435
926.566	3504
926.673	3344
926.779	3302
926.886	3264
926.993	3173
927.099	3154
927.206	3123
927.312	3119
927.419	3256
927.525	3207
927.631	3283
927.737	3176
927.843	3142
927.95	3036
928.056	3173
928.162	3211
928.267	3291
928.373	3911
928.479	3340
928.585	3085
928.69	3275
928.796	3325
928.901	3192
929.007	3085
929.112	3222
929.218	3157
929.323	3184
929.428	3146
929.533	3313
929.638	3127
929.743	3180
929.848	3294
929.953	3218
930.058	3169
930.163	2994
930.267	3058
930.372	3184
930.477	3039
930.581	3351
930.685	3131
930.79	3085
930.894	3157
930.998	3108
931.103	3321
931.207	3001
931.311	2941
931.415	2925
931.519	2781
931.623	2819
