Data from test_V78500241_432.txt Node
Date: Fri Mar 25 16:18:11 CST 2022
User: usil
Spectrometer: V785-0024
Trigger mode: 0
Integration Time (sec): 4.000000E-1
Scans to average: 1
Nonlinearity correction enabled: false
Boxcar width: 0
Storing dark spectrum: false
XAxis mode: Wavelengths
Number of Pixels in Spectrum: 1024
>>>>>Begin Spectral Data<<<<<
801.071	2956
801.214	2986
801.356	2906
801.499	2922
801.641	2895
801.783	2914
801.926	3085
802.068	2979
802.211	3039
802.353	3085
802.496	2982
802.638	3043
802.78	3017
802.923	3062
803.065	3039
803.208	2918
803.35	2937
803.492	2982
803.635	2971
803.777	2781
803.919	2918
804.061	3249
804.204	2979
804.346	2902
804.488	2876
804.63	3009
804.773	2922
804.915	2944
805.057	3104
805.199	2948
805.341	2971
805.483	3039
805.626	3032
805.768	3001
805.91	3066
806.052	3127
806.194	3058
806.336	3264
806.478	3039
806.62	2952
806.762	3013
806.904	3043
807.046	3199
807.188	2994
807.33	2944
807.472	3005
807.614	2918
807.756	3005
807.898	2952
808.04	2918
808.182	3005
808.324	2944
808.465	2902
808.607	2868
808.749	2819
808.891	2883
809.033	2960
809.174	3005
809.316	2906
809.458	2925
809.6	2807
809.741	2804
809.883	2773
810.025	2861
810.166	2902
810.308	2804
810.45	2880
810.591	2750
810.733	2769
810.875	2853
811.016	2804
811.158	2796
811.299	2849
811.441	2941
811.582	2887
811.724	2861
811.865	2849
812.007	2883
812.148	2895
812.29	2895
812.431	2891
812.573	2971
812.714	3005
812.855	3036
812.997	3058
813.138	3119
813.279	3028
813.421	3001
813.562	2967
813.703	2864
813.845	2861
813.986	2819
814.127	2750
814.268	2830
814.41	2883
814.551	2804
814.692	2910
814.833	2853
814.974	2933
815.115	2948
815.256	2864
815.397	2864
815.539	2895
815.68	2777
815.821	2804
815.962	2956
816.103	2975
816.244	2906
816.385	2887
816.526	3009
816.666	2910
816.807	2769
816.948	2922
817.089	2925
817.23	2861
817.371	2800
817.512	2800
817.653	2838
817.793	2864
817.934	2861
818.075	3001
818.216	2994
818.356	3043
818.497	2876
818.638	2849
818.778	2807
818.919	2785
819.06	2807
819.2	2918
819.341	2823
819.481	2823
819.622	2922
819.762	3123
819.903	3028
820.043	2963
820.184	2910
820.324	2918
820.465	3005
820.605	3009
820.746	3020
820.886	2971
821.026	3116
821.167	3165
821.307	3249
821.447	3268
821.588	3268
821.728	3199
821.868	3207
822.008	3055
822.149	3176
822.289	3237
822.429	3097
822.569	3077
822.709	3157
822.849	3039
822.99	3062
823.13	3161
823.27	3195
823.41	3135
823.55	3169
823.69	3192
823.83	3184
823.97	3108
824.11	2979
824.25	2982
824.389	3097
824.529	3123
824.669	3085
824.809	3188
824.949	3260
825.089	3218
825.228	3173
825.368	3024
825.508	2998
825.648	2967
825.787	2971
825.927	3058
826.067	2986
826.206	2994
826.346	3058
826.485	3093
826.625	3123
826.765	3264
826.904	3203
827.044	2975
827.183	2925
827.323	2853
827.462	2986
827.601	2918
827.741	2975
827.88	2956
828.02	2853
828.159	2998
828.298	3085
828.437	3089
828.577	3043
828.716	3249
828.855	3066
828.994	2941
829.134	2906
829.273	2914
829.412	2857
829.551	2902
829.69	2944
829.829	3009
829.968	3150
830.107	3039
830.246	3047
830.385	2922
830.524	2895
830.663	2819
830.802	2716
830.941	2678
831.08	2670
831.219	2766
831.357	2766
831.496	2979
831.635	2735
831.774	2689
831.913	2667
832.051	2560
832.19	2613
832.329	2712
832.467	2552
832.606	2495
832.744	2571
832.883	2617
833.022	2583
833.16	2689
833.299	2716
833.437	2693
833.576	2693
833.714	2746
833.852	2716
833.991	2773
834.129	2834
834.267	2826
834.406	2777
834.544	2883
834.682	2910
834.821	2849
834.959	3074
835.097	2899
835.235	3077
835.373	2998
835.511	3066
835.65	2979
835.788	2979
835.926	2838
836.064	2807
836.202	2864
836.34	3100
836.478	3142
836.615	3100
836.753	3173
836.891	3199
837.029	3192
837.167	3138
837.305	3089
837.443	3081
837.58	3001
837.718	3161
837.856	3066
837.993	3024
838.131	3161
838.269	3154
838.406	3135
838.544	3097
838.681	2963
838.819	2895
838.956	2845
839.094	2864
839.231	2918
839.369	2994
839.506	3359
839.643	3195
839.781	3036
839.918	2960
840.055	3051
840.193	3081
840.33	3058
840.467	3085
840.604	3123
840.742	3374
840.879	3039
841.016	3070
841.153	3146
841.29	3378
841.427	3279
841.564	3279
841.701	3291
841.838	3237
841.975	3184
842.112	3226
842.249	3070
842.385	2982
842.522	3268
842.659	3100
842.796	3028
842.933	3154
843.069	3024
843.206	3032
843.343	3184
843.479	3093
843.616	3146
843.752	2895
843.889	2902
844.025	3097
844.162	2910
844.298	3089
844.435	2952
844.571	2933
844.708	3074
844.844	3207
844.98	3245
845.117	3207
845.253	3070
845.389	2986
845.525	3138
845.661	3123
845.798	3028
845.934	3150
846.07	3089
846.206	3211
846.342	3321
846.478	3249
846.614	3081
846.75	3116
846.886	3051
847.022	3230
847.158	3131
847.294	3218
847.429	3253
847.565	3207
847.701	3469
847.837	3020
847.972	3017
848.108	3127
848.244	3108
848.379	2986
848.515	2952
848.65	2944
848.786	2933
848.921	3036
849.057	3089
849.192	3131
849.328	3024
849.463	3138
849.598	3070
849.734	3070
849.869	2952
850.004	2948
850.14	2971
850.275	2895
850.41	2887
850.545	2868
850.68	2918
850.815	2990
850.95	3005
851.085	3188
851.22	3146
851.355	3039
851.49	3009
851.625	3058
851.76	3066
851.895	2986
852.03	2910
852.165	3043
852.299	3123
852.434	3184
852.569	3176
852.703	3211
852.838	3279
852.973	3382
853.107	3393
853.242	3184
853.376	3135
853.511	3032
853.645	3104
853.78	3275
853.914	3157
854.048	3142
854.183	3116
854.317	3173
854.451	3374
854.585	3176
854.72	3150
854.854	3211
854.988	3074
855.122	3116
855.256	3043
855.39	3150
855.524	3291
855.658	3226
855.792	3169
855.926	3222
856.06	3245
856.194	3302
856.327	3173
856.461	3112
856.595	3074
856.729	3100
856.862	3291
856.996	3241
857.13	3237
857.263	3275
857.397	3256
857.53	3169
857.664	3233
857.797	3268
857.931	3294
858.064	3199
858.197	3245
858.331	3180
858.464	3108
858.597	3051
858.731	3150
858.864	3138
858.997	3138
859.13	3150
859.263	3237
859.396	3222
859.529	3104
859.662	3116
859.795	3047
859.928	3184
860.061	3291
860.194	3325
860.327	3157
860.46	3112
860.592	3298
860.725	3279
860.858	3302
860.99	3119
861.123	3108
861.256	3062
861.388	3173
861.521	4006
861.653	3077
861.786	3036
861.918	3032
862.05	3112
862.183	3135
862.315	3180
862.447	3253
862.58	3116
862.712	3009
862.844	2918
862.976	3032
863.108	3032
863.24	3466
863.372	2891
863.504	3036
863.636	2975
863.768	3081
863.9	2990
864.032	2910
864.164	2929
864.296	3036
864.428	3146
864.559	3154
864.691	3108
864.823	3051
864.954	3055
865.086	3097
865.217	3024
865.349	2998
865.48	2998
865.612	3043
865.743	3188
865.875	3017
866.006	2975
866.137	3013
866.269	3017
866.4	2956
866.531	2944
866.662	2941
866.793	2914
866.924	2906
867.055	3055
867.186	2963
867.317	2902
867.448	2838
867.579	2861
867.71	2895
867.841	2826
867.972	2933
868.103	2929
868.233	2922
868.364	2895
868.495	2906
868.625	3116
868.756	3230
868.886	2990
869.017	3066
869.147	3211
869.278	3165
869.408	3089
869.539	3051
869.669	3123
869.799	3058
869.929	3161
870.06	3150
870.19	3317
870.32	3306
870.45	3359
870.58	3405
870.71	3469
870.84	3435
870.97	3348
871.1	3306
871.23	3504
871.36	3466
871.489	3416
871.619	3469
871.749	3428
871.879	3469
872.008	3519
872.138	3393
872.267	3279
872.397	3176
872.526	3116
872.656	3036
872.785	3104
872.915	3260
873.044	3321
873.173	3253
873.303	3294
873.432	3233
873.561	3298
873.69	3214
873.819	3150
873.948	3218
874.077	3146
874.206	3108
874.335	3127
874.464	3203
874.593	3355
874.722	3275
874.851	3450
874.979	3378
875.108	3370
875.237	3203
875.365	3207
875.494	3203
875.623	3306
875.751	3112
875.88	3104
876.008	3260
876.136	3233
876.265	3405
876.393	3545
876.521	3439
876.65	3397
876.778	3336
876.906	3283
877.034	3233
877.162	3241
877.29	3199
877.418	3272
877.546	3287
877.674	3287
877.802	3272
877.93	3237
878.058	3180
878.185	3157
878.313	3218
878.441	3226
878.568	3119
878.696	3169
878.824	3249
878.951	3317
879.079	3500
879.206	3637
879.333	3477
879.461	3344
879.588	3416
879.715	3530
879.842	3644
879.97	3389
880.097	3203
880.224	3161
880.351	3207
880.478	3291
880.605	3211
880.732	3211
880.859	3511
880.986	3336
881.112	3348
881.239	3188
881.366	3116
881.493	3047
881.619	3070
881.746	3077
881.872	3112
881.999	3188
882.125	3184
882.252	3287
882.378	3306
882.505	3473
882.631	3294
882.757	3173
882.883	3226
883.01	3245
883.136	3165
883.262	3146
883.388	3169
883.514	3351
883.64	3397
883.766	3325
883.892	3199
884.018	3294
884.143	3458
884.269	3538
884.395	3249
884.52	3184
884.646	3211
884.772	3138
884.897	3123
885.023	3249
885.148	3367
885.274	3420
885.399	3348
885.524	3317
885.65	3302
885.775	3348
885.9	3302
886.025	3443
886.15	3409
886.275	3321
886.4	3237
886.525	3291
886.65	3283
886.775	3264
886.9	3538
887.025	3644
887.149	3428
887.274	3260
887.399	3211
887.523	3218
887.648	3203
887.773	3275
887.897	3397
888.021	3420
888.146	3313
888.27	3462
888.395	3504
888.519	3462
888.643	3443
888.767	3488
888.891	3294
889.015	3291
889.139	3336
889.263	3264
889.387	3401
889.511	3526
889.635	3485
889.759	3256
889.883	3344
890.006	3409
890.13	3477
890.254	3336
890.377	3340
890.501	3188
890.624	3195
890.748	3298
890.871	3207
890.995	3131
891.118	3100
891.241	3264
891.364	3226
891.488	3306
891.611	3214
891.734	3256
891.857	3329
891.98	3253
892.103	3348
892.226	3313
892.349	3245
892.471	3089
892.594	3222
892.717	3340
892.839	3329
892.962	3332
893.085	3313
893.207	3310
893.33	3173
893.452	3230
893.575	3332
893.697	3260
893.819	3481
893.941	3504
894.064	3492
894.186	3313
894.308	3256
894.43	3428
894.552	3561
894.674	3481
894.796	3306
894.918	3329
895.04	3317
895.161	3477
895.283	3416
895.405	3363
895.526	3378
895.648	3443
895.769	3401
895.891	3488
896.012	3492
896.134	3511
896.255	3412
896.376	3416
896.498	3393
896.619	3420
896.74	3336
896.861	3412
896.982	3698
897.103	3842
897.224	3614
897.345	3504
897.466	3435
897.587	3496
897.708	3637
897.828	3580
897.949	3443
898.07	3348
898.19	3443
898.311	3595
898.431	3447
898.552	3545
898.672	3568
898.792	3618
898.913	3542
899.033	3462
899.153	3268
899.273	3249
899.393	3272
899.513	3340
899.633	3367
899.753	3344
899.873	3317
899.993	3416
900.113	3363
900.232	3374
900.352	3340
900.472	3298
900.591	3207
900.711	3351
900.83	3256
900.95	3431
901.069	3477
901.189	3374
901.308	3180
901.427	3157
901.546	3218
901.665	3325
901.784	3389
901.904	3203
902.023	3195
902.141	3032
902.26	2998
902.379	3138
902.498	3116
902.617	3055
902.735	3214
902.854	3245
902.973	3230
903.091	3070
903.21	3097
903.328	3135
903.446	3146
903.565	3173
903.683	3218
903.801	3146
903.919	3283
904.038	3302
904.156	3184
904.274	3340
904.392	3317
904.51	3283
904.627	3348
904.745	3416
904.863	3492
904.981	3279
905.098	3199
905.216	3237
905.334	3298
905.451	3325
905.569	3329
905.686	3431
905.803	3454
905.921	3332
906.038	3454
906.155	3386
906.272	3260
906.389	3332
906.506	3230
906.623	3294
906.74	3302
906.857	3188
906.974	3272
907.091	3481
907.208	3564
907.324	3496
907.441	3439
907.557	3298
907.674	3249
907.79	3222
907.907	3256
908.023	3367
908.139	3374
908.256	3370
908.372	3367
908.488	3359
908.604	3260
908.72	3256
908.836	3317
908.952	3279
909.068	3313
909.184	3500
909.3	3382
909.415	3526
909.531	3462
909.647	3283
909.762	3348
909.878	3268
909.993	3382
910.108	3382
910.224	3363
910.339	3447
910.454	3367
910.57	3306
910.685	3287
910.8	3587
910.915	3542
911.03	3443
911.145	3283
911.259	3287
911.374	3302
911.489	3279
911.604	3253
911.718	3173
911.833	3184
911.947	3077
912.062	2990
912.176	3119
912.291	3230
912.405	3176
912.519	3454
912.633	3496
912.748	3344
912.862	3291
912.976	3195
913.09	3074
913.204	3135
913.318	3237
913.431	3340
913.545	3332
913.659	3439
913.772	3351
913.886	3222
914	3233
914.113	3363
914.226	3439
914.34	3370
914.453	3222
914.566	3378
914.68	3348
914.793	3313
914.906	3131
915.019	3108
915.132	3085
915.245	3195
915.358	3218
915.47	3226
915.583	3237
915.696	3340
915.809	3439
915.921	3466
916.034	3294
916.146	3241
916.259	3241
916.371	3397
916.483	3367
916.595	3306
916.708	3306
916.82	3355
916.932	3351
917.044	3359
917.156	3340
917.268	3237
917.38	3291
917.491	3302
917.603	3405
917.715	3454
917.826	3477
917.938	3374
918.049	3279
918.161	3469
918.272	3572
918.384	3564
918.495	3523
918.606	3340
918.717	3340
918.828	3370
918.939	3428
919.05	3294
919.161	3332
919.272	3195
919.383	3283
919.494	3492
919.604	3698
919.715	3477
919.826	3416
919.936	3477
920.047	3553
920.157	3576
920.267	3797
920.378	3591
920.488	3595
920.598	3800
920.708	4002
920.818	3827
920.928	3831
921.038	4082
921.148	3994
921.258	3724
921.368	3610
921.477	3599
921.587	3523
921.697	3477
921.806	3641
921.916	3553
922.025	3340
922.134	3321
922.244	3291
922.353	3454
922.462	3306
922.571	3241
922.68	3150
922.789	3085
922.898	3142
923.007	3112
923.116	3207
923.224	3169
923.333	3195
923.442	3146
923.55	3100
923.659	3127
923.767	3207
923.876	3131
923.984	3230
924.092	3135
924.201	3214
924.309	3241
924.417	3249
924.525	3184
924.633	3275
924.741	4147
924.849	3070
924.956	3249
925.064	3081
925.172	3051
925.279	3100
925.387	3157
925.494	3211
925.602	3367
925.709	3348
925.816	3157
925.924	3313
926.031	3378
926.138	3332
926.245	3397
926.352	3272
926.459	3454
926.566	3477
926.673	3298
926.779	3264
926.886	3249
926.993	3203
927.099	3154
927.206	3116
927.312	3097
927.419	3237
927.525	3230
927.631	3264
927.737	3146
927.843	3146
927.95	3001
928.056	3135
928.162	3184
928.267	3272
928.373	3876
928.479	3317
928.585	3077
928.69	3222
928.796	3283
928.901	3192
929.007	3051
929.112	3199
929.218	3195
929.323	3131
929.428	3135
929.533	3340
929.638	3138
929.743	3150
929.848	3237
929.953	3188
930.058	3135
930.163	3020
930.267	3043
930.372	3195
930.477	3032
930.581	3306
930.685	3169
930.79	3055
930.894	3100
930.998	3089
931.103	3272
931.207	2975
931.311	2933
931.415	2929
931.519	2754
931.623	2826
