Data from test_V78500241_49.txt Node
Date: Fri Mar 25 16:15:32 CST 2022
User: usil
Spectrometer: V785-0024
Trigger mode: 0
Integration Time (sec): 4.000000E-1
Scans to average: 1
Nonlinearity correction enabled: false
Boxcar width: 0
Storing dark spectrum: false
XAxis mode: Wavelengths
Number of Pixels in Spectrum: 1024
>>>>>Begin Spectral Data<<<<<
801.071	2971
801.214	2937
801.356	2910
801.499	2929
801.641	2918
801.783	2971
801.926	3051
802.068	3028
802.211	3028
802.353	3070
802.496	2986
802.638	3036
802.78	3047
802.923	3104
803.065	3036
803.208	2937
803.35	2937
803.492	2971
803.635	2952
803.777	2788
803.919	2899
804.061	3245
804.204	2998
804.346	2960
804.488	2864
804.63	3036
804.773	2895
804.915	2960
805.057	3119
805.199	2979
805.341	3043
805.483	3077
805.626	3036
805.768	3028
805.91	3146
806.052	3150
806.194	3074
806.336	3253
806.478	3097
806.62	2975
806.762	3039
806.904	3085
807.046	3195
807.188	3047
807.33	2918
807.472	3017
807.614	2975
807.756	3036
807.898	2975
808.04	2948
808.182	3005
808.324	3055
808.465	2895
808.607	2902
808.749	2853
808.891	2876
809.033	3020
809.174	3009
809.316	2948
809.458	2941
809.6	2826
809.741	2815
809.883	2788
810.025	2864
810.166	2906
810.308	2883
810.45	2857
810.591	2804
810.733	2811
810.875	2868
811.016	2823
811.158	2788
811.299	2868
811.441	2994
811.582	2944
811.724	2842
811.865	2880
812.007	2933
812.148	2899
812.29	2895
812.431	2906
812.573	2979
812.714	2990
812.855	3089
812.997	3077
813.138	3119
813.279	3055
813.421	3017
813.562	2967
813.703	2902
813.845	2948
813.986	2815
814.127	2754
814.268	2815
814.41	2876
814.551	2834
814.692	2906
814.833	2838
814.974	2895
815.115	2975
815.256	2891
815.397	2849
815.539	2910
815.68	2796
815.821	2811
815.962	2948
816.103	2986
816.244	2922
816.385	2906
816.526	3013
816.666	2952
816.807	2773
816.948	2902
817.089	2948
817.23	2883
817.371	2796
817.512	2834
817.653	2887
817.793	2864
817.934	2929
818.075	3009
818.216	3005
818.356	3039
818.497	2937
818.638	2834
818.778	2887
818.919	2823
819.06	2773
819.2	2902
819.341	2853
819.481	2849
819.622	2914
819.762	3104
819.903	3055
820.043	2971
820.184	2929
820.324	2918
820.465	3058
820.605	3036
820.746	3093
820.886	2986
821.026	3104
821.167	3199
821.307	3253
821.447	3321
821.588	3302
821.728	3268
821.868	3237
822.008	3138
822.149	3249
822.289	3294
822.429	3108
822.569	3119
822.709	3241
822.849	3070
822.99	3116
823.13	3173
823.27	3245
823.41	3146
823.55	3176
823.69	3218
823.83	3226
823.97	3157
824.11	3043
824.25	3043
824.389	3074
824.529	3169
824.669	3116
824.809	3214
824.949	3313
825.089	3253
825.228	3203
825.368	3032
825.508	2975
825.648	3005
825.787	3051
825.927	3032
826.067	2994
826.206	3009
826.346	3066
826.485	3108
826.625	3123
826.765	3363
826.904	3249
827.044	3001
827.183	2967
827.323	2918
827.462	3020
827.601	2979
827.741	2975
827.88	2990
828.02	2861
828.159	3005
828.298	3074
828.437	3154
828.577	3070
828.716	3260
828.855	3108
828.994	2929
829.134	2906
829.273	2971
829.412	2918
829.551	2895
829.69	2929
829.829	3024
829.968	3150
830.107	3058
830.246	3066
830.385	2963
830.524	2902
830.663	2823
830.802	2727
830.941	2697
831.08	2693
831.219	2758
831.357	2766
831.496	2990
831.635	2773
831.774	2678
831.913	2655
832.051	2579
832.19	2583
832.329	2724
832.467	2564
832.606	2514
832.744	2606
832.883	2632
833.022	2598
833.16	2663
833.299	2727
833.437	2720
833.576	2731
833.714	2750
833.852	2735
833.991	2804
834.129	2883
834.267	2823
834.406	2842
834.544	2906
834.682	2956
834.821	2918
834.959	3104
835.097	2922
835.235	3119
835.373	3024
835.511	3066
835.65	2967
835.788	2971
835.926	2891
836.064	2830
836.202	2853
836.34	3108
836.478	3180
836.615	3089
836.753	3222
836.891	3268
837.029	3184
837.167	3127
837.305	3104
837.443	3100
837.58	3001
837.718	3161
837.856	3112
837.993	3070
838.131	3112
838.269	3161
838.406	3108
838.544	3097
838.681	2975
838.819	2944
838.956	2864
839.094	2834
839.231	2948
839.369	3081
839.506	3416
839.643	3272
839.781	3062
839.918	3001
840.055	3093
840.193	3089
840.33	3108
840.467	3165
840.604	3199
840.742	3450
840.879	3127
841.016	3074
841.153	3173
841.29	3363
841.427	3325
841.564	3306
841.701	3363
841.838	3272
841.975	3150
842.112	3275
842.249	3108
842.385	3062
842.522	3291
842.659	3119
842.796	3097
842.933	3142
843.069	3055
843.206	3081
843.343	3180
843.479	3150
843.616	3169
843.752	2899
843.889	2929
844.025	3116
844.162	2922
844.298	3112
844.435	2971
844.571	2952
844.708	3100
844.844	3253
844.98	3268
845.117	3214
845.253	3058
845.389	3032
845.525	3161
845.661	3142
845.798	3081
845.934	3104
846.07	3085
846.206	3230
846.342	3336
846.478	3279
846.614	3119
846.75	3100
846.886	3058
847.022	3291
847.158	3165
847.294	3226
847.429	3287
847.565	3245
847.701	3545
847.837	3081
847.972	3039
848.108	3214
848.244	3214
848.379	3009
848.515	2956
848.65	2975
848.786	3001
848.921	3047
849.057	3184
849.192	3176
849.328	3112
849.463	3138
849.598	3074
849.734	3047
849.869	2986
850.004	2971
850.14	3028
850.275	2975
850.41	2910
850.545	2922
850.68	2979
850.815	3036
850.95	3017
851.085	3199
851.22	3104
851.355	3043
851.49	3036
851.625	3058
851.76	3085
851.895	2952
852.03	2944
852.165	3070
852.299	3142
852.434	3245
852.569	3195
852.703	3230
852.838	3306
852.973	3374
853.107	3359
853.242	3203
853.376	3142
853.511	3043
853.645	3100
853.78	3249
853.914	3138
854.048	3173
854.183	3157
854.317	3176
854.451	3306
854.585	3169
854.72	3123
854.854	3283
854.988	3081
855.122	3116
855.256	3032
855.39	3161
855.524	3298
855.658	3173
855.792	3184
855.926	3222
856.06	3253
856.194	3279
856.327	3157
856.461	3112
856.595	3119
856.729	3176
856.862	3241
856.996	3214
857.13	3207
857.263	3268
857.397	3310
857.53	3116
857.664	3222
857.797	3275
857.931	3298
858.064	3195
858.197	3287
858.331	3169
858.464	3165
858.597	3051
858.731	3169
858.864	3207
858.997	3112
859.13	3192
859.263	3176
859.396	3184
859.529	3119
859.662	3123
859.795	3097
859.928	3218
860.061	3306
860.194	3344
860.327	3173
860.46	3097
860.592	3275
860.725	3283
860.858	3351
860.99	3146
861.123	3081
861.256	3062
861.388	3150
861.521	3888
861.653	3047
861.786	3001
861.918	3039
862.05	3131
862.183	3169
862.315	3184
862.447	3245
862.58	3150
862.712	3001
862.844	2880
862.976	3039
863.108	3074
863.24	3321
863.372	2883
863.504	2990
863.636	2971
863.768	3028
863.9	3005
864.032	2929
864.164	2967
864.296	3081
864.428	3131
864.559	3135
864.691	3127
864.823	3112
864.954	3062
865.086	3108
865.217	3058
865.349	2990
865.48	3013
865.612	3028
865.743	3214
865.875	3028
866.006	2986
866.137	3032
866.269	2986
866.4	2967
866.531	2960
866.662	2899
866.793	2960
866.924	2906
867.055	3009
867.186	2925
867.317	2899
867.448	2864
867.579	2876
867.71	2895
867.841	2861
867.972	2922
868.103	2929
868.233	2914
868.364	2910
868.495	2941
868.625	3150
868.756	3188
868.886	3017
869.017	3066
869.147	3226
869.278	3192
869.408	3081
869.539	3074
869.669	3127
869.799	3039
869.929	3154
870.06	3150
870.19	3313
870.32	3359
870.45	3389
870.58	3424
870.71	3466
870.84	3530
870.97	3344
871.1	3272
871.23	3523
871.36	3526
871.489	3370
871.619	3412
871.749	3424
871.879	3477
872.008	3519
872.138	3454
872.267	3310
872.397	3222
872.526	3119
872.656	3036
872.785	3157
872.915	3268
873.044	3367
873.173	3287
873.303	3256
873.432	3279
873.561	3260
873.69	3203
873.819	3230
873.948	3279
874.077	3154
874.206	3066
874.335	3089
874.464	3226
874.593	3386
874.722	3249
874.851	3424
874.979	3386
875.108	3367
875.237	3214
875.365	3188
875.494	3222
875.623	3336
875.751	3135
875.88	3161
876.008	3199
876.136	3302
876.265	3428
876.393	3542
876.521	3443
876.65	3428
876.778	3401
876.906	3283
877.034	3272
877.162	3283
877.29	3233
877.418	3302
877.546	3283
877.674	3283
877.802	3237
877.93	3264
878.058	3199
878.185	3127
878.313	3272
878.441	3230
878.568	3100
878.696	3207
878.824	3283
878.951	3344
879.079	3496
879.206	3625
879.333	3500
879.461	3370
879.588	3428
879.715	3523
879.842	3622
879.97	3439
880.097	3203
880.224	3188
880.351	3233
880.478	3214
880.605	3245
880.732	3214
880.859	3492
880.986	3348
881.112	3382
881.239	3249
881.366	3135
881.493	3055
881.619	3039
881.746	3093
881.872	3154
881.999	3131
882.125	3184
882.252	3241
882.378	3382
882.505	3496
882.631	3317
882.757	3218
882.883	3249
883.01	3291
883.136	3218
883.262	3157
883.388	3146
883.514	3378
883.64	3397
883.766	3329
883.892	3207
884.018	3302
884.143	3477
884.269	3587
884.395	3195
884.52	3214
884.646	3211
884.772	3161
884.897	3154
885.023	3249
885.148	3382
885.274	3439
885.399	3389
885.524	3325
885.65	3260
885.775	3374
885.9	3325
886.025	3454
886.15	3389
886.275	3294
886.4	3260
886.525	3336
886.65	3291
886.775	3325
886.9	3564
887.025	3637
887.149	3454
887.274	3272
887.399	3199
887.523	3218
887.648	3233
887.773	3249
887.897	3412
888.021	3397
888.146	3329
888.27	3466
888.395	3576
888.519	3473
888.643	3469
888.767	3492
888.891	3370
889.015	3268
889.139	3332
889.263	3317
889.387	3466
889.511	3519
889.635	3485
889.759	3348
889.883	3382
890.006	3412
890.13	3526
890.254	3317
890.377	3405
890.501	3256
890.624	3245
890.748	3359
890.871	3237
890.995	3135
891.118	3100
891.241	3237
891.364	3294
891.488	3374
891.611	3195
891.734	3279
891.857	3321
891.98	3253
892.103	3355
892.226	3306
892.349	3291
892.471	3157
892.594	3264
892.717	3344
892.839	3313
892.962	3348
893.085	3393
893.207	3382
893.33	3211
893.452	3226
893.575	3355
893.697	3302
893.819	3504
893.941	3542
894.064	3496
894.186	3329
894.308	3329
894.43	3450
894.552	3603
894.674	3504
894.796	3310
894.918	3386
895.04	3275
895.161	3481
895.283	3462
895.405	3355
895.526	3370
895.648	3473
895.769	3477
895.891	3507
896.012	3542
896.134	3485
896.255	3431
896.376	3435
896.498	3397
896.619	3488
896.74	3420
896.861	3431
896.982	3701
897.103	3896
897.224	3633
897.345	3538
897.466	3515
897.587	3549
897.708	3637
897.828	3595
897.949	3488
898.07	3340
898.19	3443
898.311	3625
898.431	3466
898.552	3549
898.672	3679
898.792	3610
898.913	3564
899.033	3473
899.153	3336
899.273	3298
899.393	3313
899.513	3329
899.633	3374
899.753	3386
899.873	3340
899.993	3405
900.113	3367
900.232	3420
900.352	3401
900.472	3329
900.591	3245
900.711	3340
900.83	3313
900.95	3466
901.069	3507
901.189	3424
901.308	3230
901.427	3146
901.546	3211
901.665	3329
901.784	3389
901.904	3268
902.023	3203
902.141	3047
902.26	3055
902.379	3150
902.498	3146
902.617	3097
902.735	3188
902.854	3241
902.973	3230
903.091	3055
903.21	3104
903.328	3214
903.446	3127
903.565	3161
903.683	3275
903.801	3169
903.919	3283
904.038	3321
904.156	3218
904.274	3340
904.392	3268
904.51	3340
904.627	3344
904.745	3492
904.863	3561
904.981	3298
905.098	3211
905.216	3279
905.334	3321
905.451	3329
905.569	3344
905.686	3454
905.803	3473
905.921	3329
906.038	3469
906.155	3405
906.272	3306
906.389	3428
906.506	3275
906.623	3283
906.74	3317
906.857	3233
906.974	3298
907.091	3500
907.208	3599
907.324	3523
907.441	3424
907.557	3279
907.674	3272
907.79	3245
907.907	3272
908.023	3424
908.139	3374
908.256	3344
908.372	3389
908.488	3355
908.604	3298
908.72	3260
908.836	3340
908.952	3298
909.068	3378
909.184	3553
909.3	3412
909.415	3515
909.531	3496
909.647	3298
909.762	3310
909.878	3287
909.993	3370
910.108	3329
910.224	3355
910.339	3439
910.454	3313
910.57	3313
910.685	3306
910.8	3656
910.915	3580
911.03	3462
911.145	3291
911.259	3283
911.374	3355
911.489	3291
911.604	3279
911.718	3161
911.833	3195
911.947	3089
912.062	3039
912.176	3192
912.291	3264
912.405	3283
912.519	3473
912.633	3523
912.748	3401
912.862	3321
912.976	3226
913.09	3157
913.204	3169
913.318	3260
913.431	3401
913.545	3374
913.659	3466
913.772	3397
913.886	3245
914	3249
914.113	3412
914.226	3507
914.34	3386
914.453	3268
914.566	3496
914.68	3336
914.793	3355
914.906	3188
915.019	3146
915.132	3081
915.245	3222
915.358	3272
915.47	3291
915.583	3287
915.696	3329
915.809	3416
915.921	3488
916.034	3321
916.146	3249
916.259	3294
916.371	3424
916.483	3389
916.595	3313
916.708	3355
916.82	3363
916.932	3374
917.044	3416
917.156	3367
917.268	3313
917.38	3340
917.491	3332
917.603	3370
917.715	3473
917.826	3507
917.938	3443
918.049	3264
918.161	3481
918.272	3625
918.384	3610
918.495	3553
918.606	3386
918.717	3340
918.828	3443
918.939	3477
919.05	3367
919.161	3435
919.272	3184
919.383	3302
919.494	3542
919.604	3740
919.715	3557
919.826	3435
919.936	3477
920.047	3622
920.157	3644
920.267	3797
920.378	3675
920.488	3633
920.598	3800
920.708	4006
920.818	3869
920.928	3861
921.038	4063
921.148	4029
921.258	3751
921.368	3660
921.477	3622
921.587	3561
921.697	3496
921.806	3705
921.916	3576
922.025	3389
922.134	3389
922.244	3382
922.353	3443
922.462	3329
922.571	3233
922.68	3146
922.789	3154
922.898	3150
923.007	3119
923.116	3241
923.224	3218
923.333	3203
923.442	3146
923.55	3123
923.659	3173
923.767	3241
923.876	3150
923.984	3253
924.092	3142
924.201	3218
924.309	3230
924.417	3279
924.525	3222
924.633	3275
924.741	4284
924.849	3093
924.956	3332
925.064	3104
925.172	3104
925.279	3127
925.387	3253
925.494	3260
925.602	3397
925.709	3393
925.816	3268
925.924	3332
926.031	3416
926.138	3348
926.245	3409
926.352	3283
926.459	3458
926.566	3496
926.673	3359
926.779	3294
926.886	3272
926.993	3222
927.099	3146
927.206	3150
927.312	3142
927.419	3237
927.525	3283
927.631	3298
927.737	3184
927.843	3150
927.95	3032
928.056	3161
928.162	3237
928.267	3283
928.373	3865
928.479	3359
928.585	3097
928.69	3249
928.796	3355
928.901	3226
929.007	3123
929.112	3211
929.218	3233
929.323	3161
929.428	3180
929.533	3363
929.638	3176
929.743	3195
929.848	3294
929.953	3230
930.058	3195
930.163	3058
930.267	3070
930.372	3253
930.477	3089
930.581	3389
930.685	3226
930.79	3138
930.894	3165
930.998	3138
931.103	3336
931.207	3005
931.311	2975
931.415	2948
931.519	2769
931.623	2853
