Data from test_V78500241_593.txt Node
Date: Fri Mar 25 16:19:18 CST 2022
User: usil
Spectrometer: V785-0024
Trigger mode: 0
Integration Time (sec): 4.000000E-1
Scans to average: 1
Nonlinearity correction enabled: false
Boxcar width: 0
Storing dark spectrum: false
XAxis mode: Wavelengths
Number of Pixels in Spectrum: 1024
>>>>>Begin Spectral Data<<<<<
801.071	2937
801.214	2960
801.356	2948
801.499	2918
801.641	2849
801.783	2998
801.926	3066
802.068	3013
802.211	3047
802.353	3089
802.496	2990
802.638	3051
802.78	3039
802.923	3089
803.065	3020
803.208	2929
803.35	2918
803.492	2982
803.635	3001
803.777	2815
803.919	2914
804.061	3218
804.204	2967
804.346	2925
804.488	2891
804.63	3036
804.773	2891
804.915	2933
805.057	3070
805.199	2922
805.341	2982
805.483	3077
805.626	3005
805.768	2963
805.91	3097
806.052	3104
806.194	3066
806.336	3233
806.478	3055
806.62	2975
806.762	2990
806.904	3093
807.046	3211
807.188	2986
807.33	2948
807.472	3036
807.614	2948
807.756	3005
807.898	2963
808.04	2918
808.182	3001
808.324	2952
808.465	2895
808.607	2895
808.749	2815
808.891	2876
809.033	2994
809.174	2994
809.316	2914
809.458	2872
809.6	2804
809.741	2781
809.883	2815
810.025	2864
810.166	2876
810.308	2853
810.45	2880
810.591	2807
810.733	2739
810.875	2899
811.016	2807
811.158	2788
811.299	2853
811.441	2948
811.582	2922
811.724	2842
811.865	2830
812.007	2952
812.148	2918
812.29	2899
812.431	2872
812.573	2952
812.714	2979
812.855	3028
812.997	3039
813.138	3108
813.279	3066
813.421	3005
813.562	2994
813.703	2849
813.845	2910
813.986	2758
814.127	2739
814.268	2826
814.41	2887
814.551	2815
814.692	2929
814.833	2807
814.974	2902
815.115	2944
815.256	2853
815.397	2823
815.539	2872
815.68	2788
815.821	2807
815.962	2952
816.103	2948
816.244	2929
816.385	2906
816.526	2990
816.666	2891
816.807	2758
816.948	2914
817.089	2944
817.23	2891
817.371	2785
817.512	2842
817.653	2845
817.793	2830
817.934	2895
818.075	2979
818.216	3001
818.356	3013
818.497	2895
818.638	2811
818.778	2815
818.919	2788
819.06	2781
819.2	2849
819.341	2826
819.481	2785
819.622	2941
819.762	3108
819.903	3047
820.043	2967
820.184	2899
820.324	2895
820.465	3066
820.605	3001
820.746	3047
820.886	2925
821.026	3085
821.167	3188
821.307	3256
821.447	3294
821.588	3283
821.728	3195
821.868	3226
822.008	3070
822.149	3150
822.289	3241
822.429	3077
822.569	3104
822.709	3188
822.849	3043
822.99	3081
823.13	3192
823.27	3233
823.41	3138
823.55	3180
823.69	3192
823.83	3195
823.97	3150
824.11	2990
824.25	2986
824.389	3070
824.529	3127
824.669	3066
824.809	3207
824.949	3241
825.089	3230
825.228	3184
825.368	3043
825.508	2960
825.648	2960
825.787	3055
825.927	3070
826.067	3001
826.206	2979
826.346	3077
826.485	3028
826.625	3150
826.765	3272
826.904	3180
827.044	3017
827.183	2967
827.323	2883
827.462	3013
827.601	2960
827.741	2933
827.88	2971
828.02	2872
828.159	2986
828.298	3047
828.437	3119
828.577	3032
828.716	3256
828.855	3058
828.994	2937
829.134	2899
829.273	2922
829.412	2830
829.551	2918
829.69	2880
829.829	3005
829.968	3097
830.107	3024
830.246	3036
830.385	2914
830.524	2910
830.663	2819
830.802	2727
830.941	2697
831.08	2667
831.219	2796
831.357	2777
831.496	2952
831.635	2758
831.774	2708
831.913	2682
832.051	2549
832.19	2571
832.329	2712
832.467	2545
832.606	2484
832.744	2598
832.883	2598
833.022	2602
833.16	2667
833.299	2716
833.437	2678
833.576	2708
833.714	2731
833.852	2758
833.991	2746
834.129	2845
834.267	2815
834.406	2800
834.544	2845
834.682	2876
834.821	2868
834.959	3093
835.097	2887
835.235	3036
835.373	3013
835.511	3024
835.65	2975
835.788	2937
835.926	2853
836.064	2849
836.202	2842
836.34	3104
836.478	3142
836.615	3070
836.753	3138
836.891	3203
837.029	3173
837.167	3146
837.305	3100
837.443	3039
837.58	2994
837.718	3146
837.856	3081
837.993	3036
838.131	3135
838.269	3100
838.406	3097
838.544	3104
838.681	2929
838.819	2956
838.956	2830
839.094	2842
839.231	2925
839.369	3058
839.506	3382
839.643	3180
839.781	3032
839.918	2929
840.055	3066
840.193	3047
840.33	3062
840.467	3081
840.604	3108
840.742	3405
840.879	3047
841.016	3097
841.153	3131
841.29	3348
841.427	3291
841.564	3279
841.701	3313
841.838	3203
841.975	3154
842.112	3218
842.249	3097
842.385	3077
842.522	3256
842.659	3127
842.796	3089
842.933	3146
843.069	3058
843.206	3024
843.343	3207
843.479	3112
843.616	3093
843.752	2895
843.889	2880
844.025	3017
844.162	2880
844.298	3081
844.435	2971
844.571	2918
844.708	3051
844.844	3161
844.98	3203
845.117	3199
845.253	3066
845.389	3009
845.525	3127
845.661	3104
845.798	3028
845.934	3116
846.07	3028
846.206	3203
846.342	3325
846.478	3233
846.614	3074
846.75	3066
846.886	2986
847.022	3230
847.158	3089
847.294	3180
847.429	3268
847.565	3249
847.701	3519
847.837	3020
847.972	2963
848.108	3138
848.244	3119
848.379	2986
848.515	2933
848.65	2918
848.786	2963
848.921	2986
849.057	3131
849.192	3104
849.328	3074
849.463	3138
849.598	3058
849.734	3051
849.869	3017
850.004	2933
850.14	2944
850.275	2941
850.41	2864
850.545	2891
850.68	2941
850.815	2952
850.95	2998
851.085	3176
851.22	3131
851.355	3100
851.49	2975
851.625	3032
851.76	3055
851.895	2979
852.03	2929
852.165	3039
852.299	3119
852.434	3226
852.569	3173
852.703	3165
852.838	3291
852.973	3370
853.107	3344
853.242	3184
853.376	3104
853.511	3039
853.645	3074
853.78	3275
853.914	3169
854.048	3157
854.183	3112
854.317	3207
854.451	3313
854.585	3146
854.72	3100
854.854	3222
854.988	3119
855.122	3146
855.256	3017
855.39	3150
855.524	3272
855.658	3203
855.792	3173
855.926	3233
856.06	3287
856.194	3306
856.327	3241
856.461	3123
856.595	3135
856.729	3131
856.862	3253
856.996	3195
857.13	3249
857.263	3283
857.397	3325
857.53	3184
857.664	3222
857.797	3294
857.931	3256
858.064	3195
858.197	3211
858.331	3184
858.464	3131
858.597	3051
858.731	3135
858.864	3192
858.997	3123
859.13	3222
859.263	3165
859.396	3264
859.529	3119
859.662	3108
859.795	3093
859.928	3173
860.061	3310
860.194	3329
860.327	3146
860.46	3154
860.592	3256
860.725	3279
860.858	3268
860.99	3138
861.123	3081
861.256	3093
861.388	3173
861.521	3770
861.653	3036
861.786	3028
861.918	3043
862.05	3077
862.183	3112
862.315	3199
862.447	3237
862.58	3135
862.712	2956
862.844	2910
862.976	3028
863.108	3066
863.24	3477
863.372	2899
863.504	3024
863.636	2982
863.768	3066
863.9	3001
864.032	2944
864.164	2982
864.296	3081
864.428	3112
864.559	3146
864.691	3074
864.823	3081
864.954	3062
865.086	3097
865.217	3043
865.349	2986
865.48	3051
865.612	3009
865.743	3207
865.875	3024
866.006	2933
866.137	3005
866.269	2990
866.4	2967
866.531	2952
866.662	2960
866.793	2906
866.924	2902
867.055	2982
867.186	2914
867.317	2918
867.448	2880
867.579	2883
867.71	2861
867.841	2849
867.972	2906
868.103	2929
868.233	2918
868.364	2918
868.495	2944
868.625	3169
868.756	3173
868.886	2956
869.017	3043
869.147	3161
869.278	3214
869.408	3062
869.539	3066
869.669	3131
869.799	3077
869.929	3157
870.06	3150
870.19	3374
870.32	3302
870.45	3340
870.58	3412
870.71	3481
870.84	3492
870.97	3332
871.1	3283
871.23	3542
871.36	3466
871.489	3405
871.619	3420
871.749	3424
871.879	3435
872.008	3511
872.138	3348
872.267	3313
872.397	3207
872.526	3165
872.656	3024
872.785	3119
872.915	3272
873.044	3336
873.173	3245
873.303	3294
873.432	3294
873.561	3241
873.69	3161
873.819	3180
873.948	3237
874.077	3138
874.206	3077
874.335	3119
874.464	3226
874.593	3355
874.722	3287
874.851	3412
874.979	3409
875.108	3344
875.237	3199
875.365	3203
875.494	3214
875.623	3302
875.751	3150
875.88	3138
876.008	3214
876.136	3283
876.265	3378
876.393	3496
876.521	3458
876.65	3424
876.778	3359
876.906	3291
877.034	3199
877.162	3222
877.29	3226
877.418	3310
877.546	3275
877.674	3317
877.802	3291
877.93	3279
878.058	3150
878.185	3173
878.313	3199
878.441	3291
878.568	3127
878.696	3157
878.824	3279
878.951	3332
879.079	3485
879.206	3652
879.333	3466
879.461	3340
879.588	3401
879.715	3481
879.842	3599
879.97	3424
880.097	3195
880.224	3135
880.351	3207
880.478	3287
880.605	3241
880.732	3184
880.859	3511
880.986	3359
881.112	3310
881.239	3222
881.366	3142
881.493	3039
881.619	3074
881.746	3081
881.872	3135
881.999	3108
882.125	3192
882.252	3272
882.378	3313
882.505	3431
882.631	3310
882.757	3157
882.883	3241
883.01	3256
883.136	3188
883.262	3119
883.388	3146
883.514	3420
883.64	3420
883.766	3351
883.892	3173
884.018	3253
884.143	3454
884.269	3542
884.395	3222
884.52	3188
884.646	3199
884.772	3157
884.897	3150
885.023	3226
885.148	3374
885.274	3447
885.399	3340
885.524	3294
885.65	3291
885.775	3321
885.9	3287
886.025	3462
886.15	3378
886.275	3351
886.4	3260
886.525	3317
886.65	3317
886.775	3306
886.9	3526
887.025	3682
887.149	3397
887.274	3253
887.399	3199
887.523	3233
887.648	3195
887.773	3211
887.897	3424
888.021	3401
888.146	3291
888.27	3462
888.395	3584
888.519	3469
888.643	3473
888.767	3507
888.891	3359
889.015	3256
889.139	3275
889.263	3291
889.387	3428
889.511	3545
889.635	3469
889.759	3291
889.883	3325
890.006	3412
890.13	3515
890.254	3287
890.377	3355
890.501	3241
890.624	3192
890.748	3310
890.871	3188
890.995	3127
891.118	3108
891.241	3184
891.364	3264
891.488	3325
891.611	3218
891.734	3264
891.857	3294
891.98	3260
892.103	3313
892.226	3287
892.349	3214
892.471	3123
892.594	3253
892.717	3275
892.839	3306
892.962	3363
893.085	3439
893.207	3294
893.33	3157
893.452	3203
893.575	3348
893.697	3264
893.819	3492
893.941	3500
894.064	3504
894.186	3287
894.308	3283
894.43	3443
894.552	3568
894.674	3492
894.796	3313
894.918	3329
895.04	3302
895.161	3401
895.283	3397
895.405	3336
895.526	3355
895.648	3393
895.769	3435
895.891	3466
896.012	3504
896.134	3447
896.255	3412
896.376	3382
896.498	3363
896.619	3431
896.74	3386
896.861	3439
896.982	3690
897.103	3869
897.224	3622
897.345	3542
897.466	3500
897.587	3507
897.708	3644
897.828	3618
897.949	3435
898.07	3317
898.19	3431
898.311	3625
898.431	3458
898.552	3545
898.672	3603
898.792	3606
898.913	3511
899.033	3439
899.153	3279
899.273	3245
899.393	3317
899.513	3336
899.633	3340
899.753	3325
899.873	3313
899.993	3389
900.113	3317
900.232	3443
900.352	3351
900.472	3325
900.591	3230
900.711	3283
900.83	3245
900.95	3481
901.069	3523
901.189	3393
901.308	3207
901.427	3165
901.546	3233
901.665	3298
901.784	3325
901.904	3226
902.023	3150
902.141	3036
902.26	2994
902.379	3173
902.498	3112
902.617	3055
902.735	3195
902.854	3230
902.973	3211
903.091	3062
903.21	3066
903.328	3165
903.446	3100
903.565	3119
903.683	3214
903.801	3142
903.919	3233
904.038	3306
904.156	3123
904.274	3294
904.392	3241
904.51	3302
904.627	3374
904.745	3439
904.863	3488
904.981	3264
905.098	3161
905.216	3230
905.334	3294
905.451	3298
905.569	3332
905.686	3416
905.803	3477
905.921	3329
906.038	3458
906.155	3370
906.272	3306
906.389	3336
906.506	3264
906.623	3256
906.74	3294
906.857	3173
906.974	3294
907.091	3450
907.208	3576
907.324	3500
907.441	3386
907.557	3226
907.674	3283
907.79	3207
907.907	3306
908.023	3389
908.139	3378
908.256	3348
908.372	3401
908.488	3355
908.604	3272
908.72	3245
908.836	3287
908.952	3287
909.068	3336
909.184	3511
909.3	3428
909.415	3534
909.531	3492
909.647	3298
909.762	3313
909.878	3264
909.993	3386
910.108	3367
910.224	3378
910.339	3401
910.454	3325
910.57	3344
910.685	3245
910.8	3584
910.915	3542
911.03	3450
911.145	3287
911.259	3260
911.374	3336
911.489	3237
911.604	3241
911.718	3176
911.833	3131
911.947	3055
912.062	2975
912.176	3176
912.291	3195
912.405	3211
912.519	3439
912.633	3458
912.748	3351
912.862	3302
912.976	3165
913.09	3058
913.204	3146
913.318	3230
913.431	3317
913.545	3336
913.659	3378
913.772	3329
913.886	3241
914	3264
914.113	3332
914.226	3462
914.34	3405
914.453	3218
914.566	3401
914.68	3325
914.793	3351
914.906	3150
915.019	3116
915.132	3089
915.245	3169
915.358	3233
915.47	3283
915.583	3253
915.696	3325
915.809	3389
915.921	3428
916.034	3283
916.146	3272
916.259	3268
916.371	3344
916.483	3348
916.595	3253
916.708	3306
916.82	3348
916.932	3336
917.044	3340
917.156	3336
917.268	3272
917.38	3317
917.491	3317
917.603	3363
917.715	3458
917.826	3454
917.938	3386
918.049	3336
918.161	3416
918.272	3614
918.384	3568
918.495	3523
918.606	3367
918.717	3313
918.828	3363
918.939	3409
919.05	3317
919.161	3355
919.272	3188
919.383	3321
919.494	3511
919.604	3663
919.715	3488
919.826	3428
919.936	3515
920.047	3580
920.157	3584
920.267	3774
920.378	3641
920.488	3637
920.598	3762
920.708	3953
920.818	3838
920.928	3865
921.038	4025
921.148	4017
921.258	3690
921.368	3644
921.477	3576
921.587	3545
921.697	3462
921.806	3648
921.916	3523
922.025	3389
922.134	3393
922.244	3310
922.353	3405
922.462	3298
922.571	3287
922.68	3135
922.789	3047
922.898	3146
923.007	3108
923.116	3214
923.224	3176
923.333	3214
923.442	3138
923.55	3104
923.659	3135
923.767	3237
923.876	3116
923.984	3275
924.092	3116
924.201	3211
924.309	3199
924.417	3195
924.525	3195
924.633	3230
924.741	3983
924.849	3104
924.956	3291
925.064	3104
925.172	3020
925.279	3085
925.387	3176
925.494	3173
925.602	3359
925.709	3298
925.816	3222
925.924	3302
926.031	3370
926.138	3367
926.245	3355
926.352	3283
926.459	3462
926.566	3492
926.673	3329
926.779	3260
926.886	3253
926.993	3169
927.099	3135
927.206	3104
927.312	3123
927.419	3226
927.525	3214
927.631	3222
927.737	3157
927.843	3131
927.95	3047
928.056	3150
928.162	3150
928.267	3294
928.373	3755
928.479	3298
928.585	3081
928.69	3241
928.796	3291
928.901	3211
929.007	3051
929.112	3184
929.218	3176
929.323	3154
929.428	3127
929.533	3336
929.638	3123
929.743	3176
929.848	3264
929.953	3169
930.058	3169
930.163	2986
930.267	3043
930.372	3203
930.477	3062
930.581	3340
930.685	3180
930.79	3020
930.894	3119
930.998	3108
931.103	3260
931.207	2963
931.311	2971
931.415	2922
931.519	2754
931.623	2823
