Data from test_V78500241_282.txt Node
Date: Fri Mar 25 16:17:09 CST 2022
User: usil
Spectrometer: V785-0024
Trigger mode: 0
Integration Time (sec): 4.000000E-1
Scans to average: 1
Nonlinearity correction enabled: false
Boxcar width: 0
Storing dark spectrum: false
XAxis mode: Wavelengths
Number of Pixels in Spectrum: 1024
>>>>>Begin Spectral Data<<<<<
801.071	2925
801.214	2960
801.356	2868
801.499	2876
801.641	2891
801.783	2922
801.926	3047
802.068	2948
802.211	3005
802.353	3051
802.496	3001
802.638	3013
802.78	3043
802.923	3089
803.065	3001
803.208	2887
803.35	2918
803.492	2937
803.635	2929
803.777	2785
803.919	2883
804.061	3195
804.204	2941
804.346	2906
804.488	2823
804.63	2963
804.773	2880
804.915	2876
805.057	3058
805.199	2941
805.341	2975
805.483	3051
805.626	3017
805.768	3001
805.91	3062
806.052	3081
806.194	3036
806.336	3192
806.478	3020
806.62	2967
806.762	2925
806.904	3062
807.046	3180
807.188	2952
807.33	2929
807.472	2990
807.614	2925
807.756	2986
807.898	2937
808.04	2883
808.182	3005
808.324	2933
808.465	2918
808.607	2918
808.749	2788
808.891	2876
809.033	2979
809.174	3001
809.316	2864
809.458	2933
809.6	2792
809.741	2792
809.883	2739
810.025	2868
810.166	2830
810.308	2811
810.45	2842
810.591	2792
810.733	2781
810.875	2845
811.016	2758
811.158	2735
811.299	2811
811.441	2963
811.582	2895
811.724	2785
811.865	2838
812.007	2910
812.148	2899
812.29	2819
812.431	2967
812.573	2963
812.714	2944
812.855	3039
812.997	3028
813.138	3138
813.279	2975
813.421	2963
813.562	2994
813.703	2842
813.845	2864
813.986	2785
814.127	2743
814.268	2819
814.41	2826
814.551	2838
814.692	2853
814.833	2830
814.974	2876
815.115	2960
815.256	2807
815.397	2785
815.539	2872
815.68	2769
815.821	2807
815.962	2929
816.103	2914
816.244	2864
816.385	2868
816.526	2975
816.666	2929
816.807	2758
816.948	2864
817.089	2899
817.23	2849
817.371	2777
817.512	2823
817.653	2887
817.793	2796
817.934	2887
818.075	2982
818.216	3005
818.356	3020
818.497	2891
818.638	2788
818.778	2804
818.919	2804
819.06	2754
819.2	2887
819.341	2815
819.481	2838
819.622	2956
819.762	3097
819.903	3024
820.043	2914
820.184	2918
820.324	2914
820.465	3005
820.605	3017
820.746	3039
820.886	2891
821.026	3081
821.167	3146
821.307	3253
821.447	3275
821.588	3268
821.728	3180
821.868	3211
822.008	3070
822.149	3165
822.289	3268
822.429	3108
822.569	3123
822.709	3169
822.849	2986
822.99	3074
823.13	3138
823.27	3180
823.41	3127
823.55	3150
823.69	3173
823.83	3188
823.97	3138
824.11	2986
824.25	2975
824.389	3058
824.529	3085
824.669	3077
824.809	3195
824.949	3264
825.089	3233
825.228	3157
825.368	2971
825.508	2982
825.648	2990
825.787	3028
825.927	3005
826.067	2952
826.206	2960
826.346	3013
826.485	3062
826.625	3089
826.765	3256
826.904	3233
827.044	2963
827.183	2948
827.323	2842
827.462	2975
827.601	2910
827.741	2910
827.88	3009
828.02	2864
828.159	2975
828.298	3047
828.437	3089
828.577	3043
828.716	3241
828.855	3077
828.994	2937
829.134	2861
829.273	2929
829.412	2830
829.551	2838
829.69	2922
829.829	2986
829.968	3131
830.107	3024
830.246	3005
830.385	2918
830.524	2891
830.663	2830
830.802	2724
830.941	2644
831.08	2644
831.219	2743
831.357	2750
831.496	2979
831.635	2739
831.774	2663
831.913	2629
832.051	2537
832.19	2541
832.329	2674
832.467	2552
832.606	2480
832.744	2560
832.883	2594
833.022	2579
833.16	2636
833.299	2693
833.437	2701
833.576	2708
833.714	2701
833.852	2754
833.991	2792
834.129	2826
834.267	2826
834.406	2796
834.544	2880
834.682	2872
834.821	2864
834.959	3055
835.097	2922
835.235	3074
835.373	3001
835.511	3001
835.65	2941
835.788	2967
835.926	2872
836.064	2815
836.202	2861
836.34	3081
836.478	3188
836.615	3074
836.753	3146
836.891	3192
837.029	3165
837.167	3131
837.305	3081
837.443	3047
837.58	2979
837.718	3138
837.856	3055
837.993	2998
838.131	3154
838.269	3116
838.406	3127
838.544	3112
838.681	2963
838.819	2906
838.956	2823
839.094	2785
839.231	2883
839.369	3001
839.506	3397
839.643	3230
839.781	2994
839.918	2986
840.055	3039
840.193	3043
840.33	3066
840.467	3058
840.604	3116
840.742	3397
840.879	3047
841.016	3039
841.153	3108
841.29	3321
841.427	3313
841.564	3283
841.701	3344
841.838	3211
841.975	3180
842.112	3214
842.249	3097
842.385	3028
842.522	3279
842.659	3108
842.796	3020
842.933	3100
843.069	3032
843.206	3032
843.343	3146
843.479	3093
843.616	3127
843.752	2918
843.889	2864
844.025	3089
844.162	2853
844.298	3047
844.435	2948
844.571	2952
844.708	3051
844.844	3184
844.98	3241
845.117	3226
845.253	3070
845.389	3009
845.525	3123
845.661	3112
845.798	3009
845.934	3123
846.07	3036
846.206	3195
846.342	3355
846.478	3230
846.614	3093
846.75	3047
846.886	3009
847.022	3249
847.158	3123
847.294	3180
847.429	3264
847.565	3218
847.701	3477
847.837	3017
847.972	3001
848.108	3138
848.244	3138
848.379	2979
848.515	2944
848.65	2937
848.786	2929
848.921	3047
849.057	3104
849.192	3173
849.328	3085
849.463	3123
849.598	3089
849.734	3055
849.869	3024
850.004	2899
850.14	2952
850.275	2922
850.41	2849
850.545	2918
850.68	2975
850.815	2948
850.95	2956
851.085	3180
851.22	3112
851.355	3043
851.49	3017
851.625	3013
851.76	2998
851.895	2902
852.03	2902
852.165	3032
852.299	3131
852.434	3138
852.569	3127
852.703	3180
852.838	3272
852.973	3317
853.107	3302
853.242	3154
853.376	3062
853.511	2922
853.645	3062
853.78	3237
853.914	3093
854.048	3138
854.183	3074
854.317	3142
854.451	3325
854.585	3161
854.72	3085
854.854	3249
854.988	3043
855.122	3127
855.256	2994
855.39	3127
855.524	3230
855.658	3150
855.792	3104
855.926	3218
856.06	3199
856.194	3272
856.327	3123
856.461	3070
856.595	3085
856.729	3093
856.862	3192
856.996	3165
857.13	3180
857.263	3253
857.397	3302
857.53	3116
857.664	3199
857.797	3249
857.931	3275
858.064	3180
858.197	3218
858.331	3100
858.464	3070
858.597	2975
858.731	3093
858.864	3123
858.997	3055
859.13	3146
859.263	3138
859.396	3199
859.529	3093
859.662	3055
859.795	3062
859.928	3157
860.061	3283
860.194	3298
860.327	3135
860.46	3112
860.592	3272
860.725	3256
860.858	3237
860.99	3123
861.123	3070
861.256	3070
861.388	3192
861.521	3838
861.653	3009
861.786	2971
861.918	3005
862.05	3074
862.183	3077
862.315	3161
862.447	3165
862.58	3112
862.712	2948
862.844	2876
862.976	3020
863.108	3028
863.24	3306
863.372	2906
863.504	3005
863.636	2971
863.768	3009
863.9	3001
864.032	2944
864.164	2914
864.296	3062
864.428	3138
864.559	3100
864.691	3070
864.823	3085
864.954	3055
865.086	3028
865.217	2990
865.349	2925
865.48	2990
865.612	3028
865.743	3135
865.875	2963
866.006	2975
866.137	2963
866.269	2952
866.4	2929
866.531	2937
866.662	2861
866.793	2883
866.924	2914
867.055	2971
867.186	2918
867.317	2876
867.448	2842
867.579	2872
867.71	2864
867.841	2838
867.972	2902
868.103	2910
868.233	2883
868.364	2849
868.495	2906
868.625	3047
868.756	3188
868.886	2944
869.017	3005
869.147	3176
869.278	3123
869.408	3074
869.539	3036
869.669	3081
869.799	3047
869.929	3135
870.06	3119
870.19	3313
870.32	3268
870.45	3268
870.58	3329
870.71	3450
870.84	3439
870.97	3279
871.1	3253
871.23	3466
871.36	3477
871.489	3363
871.619	3462
871.749	3428
871.879	3439
872.008	3515
872.138	3367
872.267	3253
872.397	3142
872.526	3089
872.656	2979
872.785	3093
872.915	3218
873.044	3306
873.173	3249
873.303	3218
873.432	3264
873.561	3233
873.69	3173
873.819	3161
873.948	3176
874.077	3093
874.206	3081
874.335	3066
874.464	3195
874.593	3367
874.722	3260
874.851	3348
874.979	3351
875.108	3306
875.237	3180
875.365	3138
875.494	3184
875.623	3218
875.751	3047
875.88	3119
876.008	3188
876.136	3218
876.265	3344
876.393	3507
876.521	3454
876.65	3420
876.778	3329
876.906	3222
877.034	3222
877.162	3253
877.29	3207
877.418	3275
877.546	3253
877.674	3195
877.802	3256
877.93	3249
878.058	3154
878.185	3093
878.313	3233
878.441	3230
878.568	3058
878.696	3173
878.824	3226
878.951	3317
879.079	3477
879.206	3637
879.333	3443
879.461	3294
879.588	3344
879.715	3496
879.842	3614
879.97	3374
880.097	3180
880.224	3169
880.351	3176
880.478	3218
880.605	3214
880.732	3192
880.859	3530
880.986	3340
881.112	3340
881.239	3207
881.366	3070
881.493	3032
881.619	3009
881.746	3074
881.872	3097
881.999	3116
882.125	3119
882.252	3275
882.378	3306
882.505	3435
882.631	3264
882.757	3173
882.883	3188
883.01	3230
883.136	3176
883.262	3089
883.388	3138
883.514	3306
883.64	3359
883.766	3321
883.892	3180
884.018	3226
884.143	3386
884.269	3530
884.395	3207
884.52	3176
884.646	3157
884.772	3104
884.897	3127
885.023	3203
885.148	3351
885.274	3393
885.399	3355
885.524	3310
885.65	3272
885.775	3283
885.9	3272
886.025	3428
886.15	3382
886.275	3294
886.4	3211
886.525	3268
886.65	3275
886.775	3279
886.9	3492
887.025	3629
887.149	3367
887.274	3264
887.399	3157
887.523	3218
887.648	3192
887.773	3207
887.897	3389
888.021	3424
888.146	3317
888.27	3431
888.395	3545
888.519	3435
888.643	3450
888.767	3477
888.891	3287
889.015	3233
889.139	3275
889.263	3233
889.387	3386
889.511	3515
889.635	3424
889.759	3283
889.883	3272
890.006	3363
890.13	3511
890.254	3272
890.377	3355
890.501	3195
890.624	3173
890.748	3294
890.871	3165
890.995	3108
891.118	3051
891.241	3203
891.364	3256
891.488	3302
891.611	3188
891.734	3237
891.857	3294
891.98	3249
892.103	3325
892.226	3268
892.349	3214
892.471	3104
892.594	3249
892.717	3283
892.839	3249
892.962	3294
893.085	3344
893.207	3317
893.33	3150
893.452	3188
893.575	3317
893.697	3241
893.819	3447
893.941	3496
894.064	3435
894.186	3298
894.308	3287
894.43	3454
894.552	3553
894.674	3473
894.796	3302
894.918	3332
895.04	3302
895.161	3435
895.283	3359
895.405	3313
895.526	3374
895.648	3420
895.769	3435
895.891	3454
896.012	3488
896.134	3492
896.255	3378
896.376	3374
896.498	3348
896.619	3424
896.74	3363
896.861	3412
896.982	3713
897.103	3823
897.224	3587
897.345	3450
897.466	3420
897.587	3504
897.708	3591
897.828	3553
897.949	3443
898.07	3321
898.19	3412
898.311	3599
898.431	3458
898.552	3515
898.672	3622
898.792	3542
898.913	3485
899.033	3416
899.153	3298
899.273	3237
899.393	3298
899.513	3302
899.633	3302
899.753	3363
899.873	3329
899.993	3382
900.113	3306
900.232	3389
900.352	3340
900.472	3294
900.591	3218
900.711	3298
900.83	3245
900.95	3416
901.069	3511
901.189	3321
901.308	3188
901.427	3097
901.546	3184
901.665	3287
901.784	3389
901.904	3192
902.023	3138
902.141	3036
902.26	3001
902.379	3131
902.498	3062
902.617	3039
902.735	3211
902.854	3287
902.973	3192
903.091	3058
903.21	3062
903.328	3150
903.446	3097
903.565	3070
903.683	3211
903.801	3146
903.919	3249
904.038	3306
904.156	3180
904.274	3313
904.392	3237
904.51	3325
904.627	3317
904.745	3416
904.863	3515
904.981	3230
905.098	3176
905.216	3268
905.334	3294
905.451	3310
905.569	3348
905.686	3401
905.803	3454
905.921	3264
906.038	3443
906.155	3340
906.272	3272
906.389	3374
906.506	3214
906.623	3268
906.74	3249
906.857	3184
906.974	3302
907.091	3439
907.208	3561
907.324	3454
907.441	3370
907.557	3260
907.674	3203
907.79	3211
907.907	3249
908.023	3386
908.139	3386
908.256	3344
908.372	3378
908.488	3374
908.604	3275
908.72	3249
908.836	3317
908.952	3249
909.068	3351
909.184	3492
909.3	3428
909.415	3500
909.531	3481
909.647	3249
909.762	3291
909.878	3272
909.993	3340
910.108	3306
910.224	3321
910.339	3412
910.454	3329
910.57	3279
910.685	3272
910.8	3603
910.915	3515
911.03	3409
911.145	3260
911.259	3268
911.374	3348
911.489	3237
911.604	3253
911.718	3127
911.833	3161
911.947	3051
912.062	3005
912.176	3207
912.291	3192
912.405	3195
912.519	3412
912.633	3481
912.748	3378
912.862	3317
912.976	3169
913.09	3058
913.204	3176
913.318	3184
913.431	3344
913.545	3363
913.659	3420
913.772	3302
913.886	3245
914	3184
914.113	3325
914.226	3397
914.34	3321
914.453	3192
914.566	3435
914.68	3291
914.793	3287
914.906	3176
915.019	3108
915.132	3070
915.245	3154
915.358	3203
915.47	3230
915.583	3260
915.696	3256
915.809	3405
915.921	3420
916.034	3264
916.146	3256
916.259	3241
916.371	3374
916.483	3340
916.595	3272
916.708	3359
916.82	3321
916.932	3370
917.044	3332
917.156	3332
917.268	3291
917.38	3332
917.491	3294
917.603	3340
917.715	3462
917.826	3454
917.938	3386
918.049	3275
918.161	3420
918.272	3564
918.384	3534
918.495	3504
918.606	3351
918.717	3253
918.828	3359
918.939	3397
919.05	3275
919.161	3374
919.272	3192
919.383	3294
919.494	3473
919.604	3698
919.715	3504
919.826	3405
919.936	3450
920.047	3595
920.157	3542
920.267	3759
920.378	3610
920.488	3561
920.598	3762
920.708	3975
920.818	3812
920.928	3831
921.038	4029
921.148	4059
921.258	3694
921.368	3652
921.477	3584
921.587	3549
921.697	3477
921.806	3644
921.916	3545
922.025	3374
922.134	3344
922.244	3306
922.353	3428
922.462	3245
922.571	3256
922.68	3100
922.789	3085
922.898	3108
923.007	3047
923.116	3211
923.224	3192
923.333	3169
923.442	3108
923.55	3077
923.659	3138
923.767	3230
923.876	3150
923.984	3192
924.092	3077
924.201	3192
924.309	3226
924.417	3264
924.525	3173
924.633	3226
924.741	4200
924.849	3013
924.956	3272
925.064	3081
925.172	3074
925.279	3097
925.387	3230
925.494	3188
925.602	3351
925.709	3344
925.816	3150
925.924	3291
926.031	3370
926.138	3348
926.245	3386
926.352	3256
926.459	3401
926.566	3481
926.673	3329
926.779	3283
926.886	3298
926.993	3176
927.099	3142
927.206	3157
927.312	3119
927.419	3203
927.525	3207
927.631	3287
927.737	3112
927.843	3108
927.95	3024
928.056	3123
928.162	3176
928.267	3268
928.373	3869
928.479	3310
928.585	3036
928.69	3214
928.796	3294
928.901	3157
929.007	3039
929.112	3192
929.218	3169
929.323	3116
929.428	3146
929.533	3321
929.638	3112
929.743	3165
929.848	3211
929.953	3173
930.058	3131
930.163	2990
930.267	3043
930.372	3214
930.477	3036
930.581	3321
930.685	3222
930.79	3093
930.894	3112
930.998	3116
931.103	3302
931.207	2944
931.311	2963
931.415	2925
931.519	2758
931.623	2788
