Data from test_V78500241_534.txt Node
Date: Fri Mar 25 16:18:54 CST 2022
User: usil
Spectrometer: V785-0024
Trigger mode: 0
Integration Time (sec): 4.000000E-1
Scans to average: 1
Nonlinearity correction enabled: false
Boxcar width: 0
Storing dark spectrum: false
XAxis mode: Wavelengths
Number of Pixels in Spectrum: 1024
>>>>>Begin Spectral Data<<<<<
801.071	2941
801.214	2990
801.356	2891
801.499	2922
801.641	2906
801.783	2933
801.926	3020
802.068	3024
802.211	3013
802.353	3055
802.496	3017
802.638	3028
802.78	3066
802.923	3074
803.065	3043
803.208	2929
803.35	2925
803.492	2941
803.635	2929
803.777	2788
803.919	2914
804.061	3230
804.204	2948
804.346	2918
804.488	2864
804.63	3028
804.773	2929
804.915	2922
805.057	3097
805.199	2925
805.341	2990
805.483	3051
805.626	3001
805.768	3001
805.91	3089
806.052	3119
806.194	3055
806.336	3203
806.478	3055
806.62	2982
806.762	2975
806.904	3119
807.046	3222
807.188	2971
807.33	2941
807.472	3009
807.614	2941
807.756	2994
807.898	2948
808.04	2914
808.182	2982
808.324	2948
808.465	2899
808.607	2861
808.749	2823
808.891	2857
809.033	2975
809.174	2979
809.316	2883
809.458	2929
809.6	2758
809.741	2766
809.883	2769
810.025	2876
810.166	2899
810.308	2838
810.45	2842
810.591	2773
810.733	2785
810.875	2861
811.016	2773
811.158	2773
811.299	2823
811.441	2929
811.582	2929
811.724	2830
811.865	2826
812.007	2929
812.148	2899
812.29	2853
812.431	2937
812.573	2956
812.714	2990
812.855	3074
812.997	3085
813.138	3138
813.279	3009
813.421	2944
813.562	2967
813.703	2895
813.845	2906
813.986	2796
814.127	2766
814.268	2838
814.41	2849
814.551	2815
814.692	2887
814.833	2853
814.974	2887
815.115	2967
815.256	2864
815.397	2819
815.539	2899
815.68	2792
815.821	2788
815.962	2918
816.103	2944
816.244	2895
816.385	2895
816.526	2990
816.666	2925
816.807	2777
816.948	2925
817.089	2944
817.23	2857
817.371	2777
817.512	2815
817.653	2845
817.793	2853
817.934	2914
818.075	2994
818.216	2994
818.356	3062
818.497	2883
818.638	2796
818.778	2823
818.919	2819
819.06	2758
819.2	2864
819.341	2826
819.481	2800
819.622	2906
819.762	3097
819.903	3074
820.043	2929
820.184	2925
820.324	2899
820.465	3036
820.605	3036
820.746	3028
820.886	2918
821.026	3100
821.167	3173
821.307	3275
821.447	3275
821.588	3264
821.728	3233
821.868	3222
822.008	3077
822.149	3173
822.289	3230
822.429	3089
822.569	3077
822.709	3188
822.849	3100
822.99	3100
823.13	3157
823.27	3207
823.41	3093
823.55	3157
823.69	3123
823.83	3150
823.97	3127
824.11	3032
824.25	3020
824.389	3077
824.529	3119
824.669	3097
824.809	3245
824.949	3264
825.089	3291
825.228	3192
825.368	3001
825.508	2982
825.648	2994
825.787	3036
825.927	3085
826.067	3005
826.206	2963
826.346	3077
826.485	3093
826.625	3100
826.765	3241
826.904	3256
827.044	2986
827.183	2956
827.323	2883
827.462	2971
827.601	2918
827.741	2922
827.88	2948
828.02	2902
828.159	2944
828.298	3066
828.437	3123
828.577	3058
828.716	3214
828.855	3047
828.994	2925
829.134	2880
829.273	2922
829.412	2872
829.551	2883
829.69	2906
829.829	3001
829.968	3108
830.107	3036
830.246	3020
830.385	2963
830.524	2883
830.663	2823
830.802	2796
830.941	2686
831.08	2670
831.219	2739
831.357	2804
831.496	2979
831.635	2708
831.774	2701
831.913	2670
832.051	2556
832.19	2594
832.329	2708
832.467	2564
832.606	2480
832.744	2598
832.883	2583
833.022	2579
833.16	2686
833.299	2674
833.437	2701
833.576	2689
833.714	2712
833.852	2746
833.991	2811
834.129	2853
834.267	2826
834.406	2800
834.544	2883
834.682	2883
834.821	2887
834.959	3081
835.097	2914
835.235	3081
835.373	3047
835.511	3028
835.65	2948
835.788	2933
835.926	2857
836.064	2826
836.202	2838
836.34	3100
836.478	3135
836.615	3077
836.753	3108
836.891	3214
837.029	3180
837.167	3116
837.305	3058
837.443	3047
837.58	2960
837.718	3150
837.856	3097
837.993	3036
838.131	3176
838.269	3123
838.406	3138
838.544	3097
838.681	2948
838.819	2902
838.956	2834
839.094	2864
839.231	2918
839.369	3009
839.506	3382
839.643	3237
839.781	3020
839.918	2971
840.055	3058
840.193	3039
840.33	3112
840.467	3135
840.604	3119
840.742	3431
840.879	3058
841.016	3036
841.153	3138
841.29	3317
841.427	3264
841.564	3268
841.701	3294
841.838	3233
841.975	3203
842.112	3199
842.249	3081
842.385	3097
842.522	3249
842.659	3150
842.796	3039
842.933	3089
843.069	3032
843.206	3066
843.343	3184
843.479	3116
843.616	3173
843.752	2876
843.889	2876
844.025	3108
844.162	2880
844.298	3062
844.435	2956
844.571	2883
844.708	3123
844.844	3211
844.98	3260
845.117	3146
845.253	3047
845.389	2994
845.525	3116
845.661	3097
845.798	3032
845.934	3097
846.07	3036
846.206	3203
846.342	3336
846.478	3214
846.614	3119
846.75	3051
846.886	3013
847.022	3199
847.158	3119
847.294	3207
847.429	3272
847.565	3207
847.701	3485
847.837	3032
847.972	3001
848.108	3165
848.244	3127
848.379	2963
848.515	2948
848.65	2952
848.786	2979
848.921	3028
849.057	3127
849.192	3150
849.328	3074
849.463	3127
849.598	3058
849.734	3017
849.869	2971
850.004	2922
850.14	2960
850.275	2944
850.41	2823
850.545	2857
850.68	2979
850.815	2956
850.95	2986
851.085	3211
851.22	3123
851.355	3036
851.49	2979
851.625	3009
851.76	3020
851.895	2941
852.03	2910
852.165	3058
852.299	3119
852.434	3169
852.569	3150
852.703	3195
852.838	3222
852.973	3340
853.107	3336
853.242	3116
853.376	3112
853.511	2982
853.645	3028
853.78	3214
853.914	3108
854.048	3127
854.183	3085
854.317	3135
854.451	3306
854.585	3108
854.72	3138
854.854	3226
854.988	3089
855.122	3085
855.256	2986
855.39	3119
855.524	3230
855.658	3169
855.792	3161
855.926	3218
856.06	3222
856.194	3264
856.327	3157
856.461	3043
856.595	3089
856.729	3058
856.862	3211
856.996	3135
857.13	3214
857.263	3241
857.397	3279
857.53	3135
857.664	3161
857.797	3199
857.931	3226
858.064	3169
858.197	3230
858.331	3176
858.464	3077
858.597	3039
858.731	3123
858.864	3150
858.997	3093
859.13	3157
859.263	3184
859.396	3195
859.529	3097
859.662	3104
859.795	3039
859.928	3116
860.061	3256
860.194	3287
860.327	3116
860.46	3085
860.592	3241
860.725	3260
860.858	3222
860.99	3108
861.123	3058
861.256	3032
861.388	3135
861.521	3861
861.653	3028
861.786	2937
861.918	3028
862.05	3070
862.183	3081
862.315	3093
862.447	3192
862.58	3081
862.712	2952
862.844	2861
862.976	3020
863.108	2967
863.24	3431
863.372	2842
863.504	2979
863.636	2967
863.768	3043
863.9	3043
864.032	2872
864.164	2956
864.296	3009
864.428	3100
864.559	3089
864.691	3093
864.823	3081
864.954	3028
865.086	3001
865.217	2986
865.349	2941
865.48	2963
865.612	3001
865.743	3154
865.875	2960
866.006	2941
866.137	2952
866.269	2929
866.4	2944
866.531	2937
866.662	2883
866.793	2899
866.924	2902
867.055	2979
867.186	2948
867.317	2887
867.448	2834
867.579	2849
867.71	2861
867.841	2807
867.972	2929
868.103	2937
868.233	2861
868.364	2845
868.495	2941
868.625	3051
868.756	3157
868.886	2937
869.017	3009
869.147	3150
869.278	3116
869.408	3039
869.539	3043
869.669	3062
869.799	3055
869.929	3100
870.06	3112
870.19	3340
870.32	3260
870.45	3283
870.58	3348
870.71	3450
870.84	3431
870.97	3291
871.1	3199
871.23	3492
871.36	3431
871.489	3363
871.619	3397
871.749	3397
871.879	3409
872.008	3504
872.138	3351
872.267	3306
872.397	3142
872.526	3066
872.656	3013
872.785	3100
872.915	3268
873.044	3275
873.173	3203
873.303	3218
873.432	3233
873.561	3245
873.69	3157
873.819	3138
873.948	3203
874.077	3100
874.206	3074
874.335	3100
874.464	3211
874.593	3332
874.722	3222
874.851	3378
874.979	3329
875.108	3306
875.237	3192
875.365	3135
875.494	3199
875.623	3264
875.751	3066
875.88	3093
876.008	3150
876.136	3256
876.265	3386
876.393	3481
876.521	3393
876.65	3336
876.778	3317
876.906	3241
877.034	3203
877.162	3192
877.29	3173
877.418	3275
877.546	3203
877.674	3275
877.802	3256
877.93	3233
878.058	3131
878.185	3116
878.313	3207
878.441	3218
878.568	3093
878.696	3169
878.824	3256
878.951	3294
879.079	3485
879.206	3606
879.333	3420
879.461	3317
879.588	3348
879.715	3488
879.842	3603
879.97	3382
880.097	3169
880.224	3108
880.351	3180
880.478	3291
880.605	3203
880.732	3184
880.859	3496
880.986	3306
881.112	3317
881.239	3230
881.366	3089
881.493	3024
881.619	2994
881.746	3047
881.872	3089
881.999	3097
882.125	3157
882.252	3211
882.378	3294
882.505	3443
882.631	3268
882.757	3142
882.883	3199
883.01	3214
883.136	3138
883.262	3089
883.388	3135
883.514	3310
883.64	3336
883.766	3317
883.892	3195
884.018	3268
884.143	3401
884.269	3523
884.395	3214
884.52	3207
884.646	3165
884.772	3169
884.897	3100
885.023	3195
885.148	3355
885.274	3428
885.399	3382
885.524	3283
885.65	3279
885.775	3298
885.9	3313
886.025	3412
886.15	3336
886.275	3306
886.4	3192
886.525	3291
886.65	3306
886.775	3249
886.9	3488
887.025	3633
887.149	3389
887.274	3226
887.399	3161
887.523	3203
887.648	3214
887.773	3161
887.897	3378
888.021	3416
888.146	3310
888.27	3439
888.395	3511
888.519	3416
888.643	3469
888.767	3466
888.891	3302
889.015	3222
889.139	3264
889.263	3241
889.387	3344
889.511	3519
889.635	3443
889.759	3302
889.883	3291
890.006	3367
890.13	3488
890.254	3230
890.377	3351
890.501	3180
890.624	3211
890.748	3298
890.871	3188
890.995	3112
891.118	3070
891.241	3222
891.364	3241
891.488	3306
891.611	3157
891.734	3214
891.857	3310
891.98	3260
892.103	3332
892.226	3310
892.349	3237
892.471	3135
892.594	3249
892.717	3298
892.839	3241
892.962	3294
893.085	3359
893.207	3294
893.33	3119
893.452	3192
893.575	3321
893.697	3245
893.819	3500
893.941	3492
894.064	3447
894.186	3279
894.308	3272
894.43	3409
894.552	3545
894.674	3485
894.796	3287
894.918	3310
895.04	3283
895.161	3397
895.283	3401
895.405	3302
895.526	3374
895.648	3416
895.769	3424
895.891	3439
896.012	3477
896.134	3450
896.255	3382
896.376	3393
896.498	3386
896.619	3473
896.74	3378
896.861	3367
896.982	3679
897.103	3854
897.224	3656
897.345	3507
897.466	3416
897.587	3542
897.708	3587
897.828	3595
897.949	3416
898.07	3344
898.19	3409
898.311	3591
898.431	3405
898.552	3500
898.672	3549
898.792	3584
898.913	3511
899.033	3458
899.153	3275
899.273	3249
899.393	3287
899.513	3340
899.633	3302
899.753	3359
899.873	3287
899.993	3355
900.113	3310
900.232	3405
900.352	3344
900.472	3275
900.591	3233
900.711	3294
900.83	3218
900.95	3416
901.069	3507
901.189	3325
901.308	3173
901.427	3108
901.546	3184
901.665	3294
901.784	3310
901.904	3203
902.023	3112
902.141	3013
902.26	2948
902.379	3119
902.498	3085
902.617	3062
902.735	3237
902.854	3222
902.973	3146
903.091	3058
903.21	3058
903.328	3142
903.446	3108
903.565	3055
903.683	3218
903.801	3161
903.919	3218
904.038	3287
904.156	3165
904.274	3287
904.392	3218
904.51	3287
904.627	3306
904.745	3469
904.863	3473
904.981	3230
905.098	3150
905.216	3203
905.334	3294
905.451	3332
905.569	3264
905.686	3397
905.803	3416
905.921	3260
906.038	3393
906.155	3348
906.272	3283
906.389	3340
906.506	3203
906.623	3245
906.74	3283
906.857	3169
906.974	3256
907.091	3469
907.208	3568
907.324	3454
907.441	3386
907.557	3214
907.674	3249
907.79	3233
907.907	3268
908.023	3348
908.139	3355
908.256	3313
908.372	3370
908.488	3378
908.604	3279
908.72	3237
908.836	3241
908.952	3302
909.068	3317
909.184	3500
909.3	3355
909.415	3530
909.531	3466
909.647	3272
909.762	3298
909.878	3260
909.993	3378
910.108	3325
910.224	3351
910.339	3393
910.454	3363
910.57	3264
910.685	3256
910.8	3599
910.915	3564
911.03	3428
911.145	3279
911.259	3245
911.374	3321
911.489	3260
911.604	3214
911.718	3097
911.833	3138
911.947	3058
912.062	2994
912.176	3173
912.291	3165
912.405	3192
912.519	3424
912.633	3492
912.748	3329
912.862	3264
912.976	3142
913.09	3047
913.204	3119
913.318	3214
913.431	3332
913.545	3306
913.659	3401
913.772	3359
913.886	3188
914	3218
914.113	3355
914.226	3439
914.34	3386
914.453	3214
914.566	3386
914.68	3302
914.793	3291
914.906	3142
915.019	3085
915.132	3036
915.245	3161
915.358	3188
915.47	3249
915.583	3226
915.696	3268
915.809	3412
915.921	3450
916.034	3321
916.146	3283
916.259	3214
916.371	3397
916.483	3336
916.595	3241
916.708	3332
916.82	3302
916.932	3317
917.044	3363
917.156	3340
917.268	3272
917.38	3283
917.491	3310
917.603	3344
917.715	3450
917.826	3416
917.938	3386
918.049	3268
918.161	3462
918.272	3584
918.384	3561
918.495	3515
918.606	3348
918.717	3272
918.828	3370
918.939	3416
919.05	3279
919.161	3340
919.272	3173
919.383	3264
919.494	3485
919.604	3686
919.715	3496
919.826	3382
919.936	3416
920.047	3561
920.157	3523
920.267	3774
920.378	3599
920.488	3568
920.598	3778
920.708	3922
920.818	3865
920.928	3823
921.038	3994
921.148	3949
921.258	3679
921.368	3629
921.477	3603
921.587	3530
921.697	3389
921.806	3622
921.916	3496
922.025	3329
922.134	3367
922.244	3256
922.353	3409
922.462	3260
922.571	3256
922.68	3108
922.789	3085
922.898	3093
923.007	3112
923.116	3222
923.224	3184
923.333	3173
923.442	3108
923.55	3074
923.659	3127
923.767	3176
923.876	3116
923.984	3207
924.092	3089
924.201	3199
924.309	3199
924.417	3245
924.525	3165
924.633	3226
924.741	4200
924.849	3081
924.956	3272
925.064	3108
925.172	3066
925.279	3097
925.387	3211
925.494	3176
925.602	3367
925.709	3325
925.816	3157
925.924	3287
926.031	3370
926.138	3344
926.245	3401
926.352	3260
926.459	3389
926.566	3488
926.673	3321
926.779	3218
926.886	3241
926.993	3135
927.099	3089
927.206	3131
927.312	3108
927.419	3180
927.525	3180
927.631	3245
927.737	3173
927.843	3138
927.95	3066
928.056	3100
928.162	3180
928.267	3241
928.373	3770
928.479	3275
928.585	3070
928.69	3256
928.796	3256
928.901	3165
929.007	3089
929.112	3211
929.218	3188
929.323	3127
929.428	3154
929.533	3287
929.638	3131
929.743	3180
929.848	3260
929.953	3203
930.058	3146
930.163	2956
930.267	3066
930.372	3249
930.477	3024
930.581	3336
930.685	3173
930.79	3089
930.894	3123
930.998	3066
931.103	3264
931.207	2963
931.311	2918
931.415	2902
931.519	2785
931.623	2819
