Data from test_V78500241_1075.txt Node
Date: Fri Mar 25 16:22:38 CST 2022
User: usil
Spectrometer: V785-0024
Trigger mode: 0
Integration Time (sec): 4.000000E-1
Scans to average: 1
Nonlinearity correction enabled: false
Boxcar width: 0
Storing dark spectrum: false
XAxis mode: Wavelengths
Number of Pixels in Spectrum: 1024
>>>>>Begin Spectral Data<<<<<
801.071	2914
801.214	2933
801.356	2857
801.499	2872
801.641	2880
801.783	2899
801.926	3051
802.068	2990
802.211	2998
802.353	3017
802.496	2948
802.638	3005
802.78	3051
802.923	3051
803.065	2910
803.208	2895
803.35	2895
803.492	2922
803.635	2914
803.777	2811
803.919	2849
804.061	3184
804.204	2952
804.346	2895
804.488	2834
804.63	2990
804.773	2861
804.915	2883
805.057	3070
805.199	2914
805.341	2952
805.483	3039
805.626	3017
805.768	2918
805.91	3070
806.052	3085
806.194	2994
806.336	3195
806.478	3036
806.62	2933
806.762	2944
806.904	3074
807.046	3138
807.188	3009
807.33	2918
807.472	2960
807.614	2910
807.756	2967
807.898	2910
808.04	2891
808.182	2960
808.324	2918
808.465	2857
808.607	2857
808.749	2766
808.891	2815
809.033	2975
809.174	2960
809.316	2857
809.458	2872
809.6	2739
809.741	2777
809.883	2724
810.025	2834
810.166	2826
810.308	2815
810.45	2830
810.591	2762
810.733	2727
810.875	2788
811.016	2739
811.158	2766
811.299	2811
811.441	2883
811.582	2864
811.724	2815
811.865	2849
812.007	2891
812.148	2872
812.29	2834
812.431	2880
812.573	2906
812.714	2941
812.855	3024
812.997	3051
813.138	3097
813.279	2986
813.421	2990
813.562	2956
813.703	2819
813.845	2872
813.986	2750
814.127	2724
814.268	2819
814.41	2853
814.551	2807
814.692	2830
814.833	2826
814.974	2872
815.115	2979
815.256	2800
815.397	2857
815.539	2838
815.68	2773
815.821	2754
815.962	2937
816.103	2880
816.244	2861
816.385	2880
816.526	2952
816.666	2925
816.807	2727
816.948	2842
817.089	2902
817.23	2830
817.371	2769
817.512	2800
817.653	2861
817.793	2845
817.934	2868
818.075	2944
818.216	2982
818.356	3020
818.497	2880
818.638	2788
818.778	2807
818.919	2815
819.06	2735
819.2	2864
819.341	2769
819.481	2807
819.622	2914
819.762	3081
819.903	3028
820.043	2910
820.184	2887
820.324	2929
820.465	3001
820.605	2979
820.746	3024
820.886	2933
821.026	3093
821.167	3127
821.307	3249
821.447	3245
821.588	3214
821.728	3207
821.868	3192
822.008	3051
822.149	3207
822.289	3195
822.429	3093
822.569	3077
822.709	3150
822.849	3013
822.99	3039
823.13	3138
823.27	3195
823.41	3062
823.55	3157
823.69	3157
823.83	3188
823.97	3066
824.11	3001
824.25	2979
824.389	3051
824.529	3127
824.669	3066
824.809	3203
824.949	3260
825.089	3211
825.228	3135
825.368	2963
825.508	2967
825.648	2941
825.787	3001
825.927	3005
826.067	2982
826.206	2956
826.346	3020
826.485	3028
826.625	3116
826.765	3230
826.904	3180
827.044	3024
827.183	2899
827.323	2845
827.462	2979
827.601	2910
827.741	2929
827.88	2990
828.02	2815
828.159	2971
828.298	3047
828.437	3097
828.577	3055
828.716	3253
828.855	3081
828.994	2891
829.134	2868
829.273	2933
829.412	2864
829.551	2883
829.69	2910
829.829	2975
829.968	3157
830.107	3085
830.246	3043
830.385	2933
830.524	2883
830.663	2830
830.802	2788
830.941	2674
831.08	2659
831.219	2785
831.357	2762
831.496	2990
831.635	2716
831.774	2705
831.913	2716
832.051	2579
832.19	2594
832.329	2712
832.467	2568
832.606	2503
832.744	2640
832.883	2625
833.022	2617
833.16	2705
833.299	2743
833.437	2731
833.576	2769
833.714	2750
833.852	2773
833.991	2781
834.129	2872
834.267	2887
834.406	2800
834.544	2880
834.682	2880
834.821	2891
834.959	3112
835.097	2914
835.235	3097
835.373	3028
835.511	3047
835.65	2982
835.788	3001
835.926	2857
836.064	2853
836.202	2887
836.34	3161
836.478	3199
836.615	3062
836.753	3199
836.891	3245
837.029	3218
837.167	3123
837.305	3108
837.443	3097
837.58	2998
837.718	3176
837.856	3100
837.993	3093
838.131	3142
838.269	3135
838.406	3119
838.544	3142
838.681	2948
838.819	2963
838.956	2853
839.094	2853
839.231	2956
839.369	3089
839.506	3393
839.643	3237
839.781	3047
839.918	3001
840.055	3074
840.193	3062
840.33	3131
840.467	3123
840.604	3173
840.742	3428
840.879	3123
841.016	3100
841.153	3093
841.29	3363
841.427	3302
841.564	3291
841.701	3363
841.838	3268
841.975	3188
842.112	3253
842.249	3093
842.385	3024
842.522	3287
842.659	3100
842.796	3081
842.933	3116
843.069	3074
843.206	3047
843.343	3199
843.479	3146
843.616	3154
843.752	2914
843.889	2902
844.025	3127
844.162	2891
844.298	3119
844.435	2971
844.571	2933
844.708	3116
844.844	3195
844.98	3275
845.117	3226
845.253	3070
845.389	3013
845.525	3165
845.661	3138
845.798	3036
845.934	3154
846.07	3093
846.206	3233
846.342	3367
846.478	3279
846.614	3123
846.75	3032
846.886	3020
847.022	3287
847.158	3131
847.294	3173
847.429	3302
847.565	3230
847.701	3504
847.837	3013
847.972	3047
848.108	3195
848.244	3154
848.379	3017
848.515	3009
848.65	2963
848.786	2982
848.921	3032
849.057	3146
849.192	3169
849.328	3077
849.463	3146
849.598	3119
849.734	3066
849.869	3020
850.004	2967
850.14	2990
850.275	2990
850.41	2819
850.545	2922
850.68	2982
850.815	2990
850.95	2967
851.085	3253
851.22	3112
851.355	3028
851.49	2986
851.625	3024
851.76	3055
851.895	2971
852.03	2994
852.165	3043
852.299	3123
852.434	3226
852.569	3188
852.703	3203
852.838	3283
852.973	3363
853.107	3374
853.242	3199
853.376	3146
853.511	3028
853.645	3039
853.78	3222
853.914	3157
854.048	3142
854.183	3131
854.317	3161
854.451	3336
854.585	3146
854.72	3108
854.854	3256
854.988	3108
855.122	3116
855.256	3036
855.39	3116
855.524	3237
855.658	3211
855.792	3192
855.926	3249
856.06	3237
856.194	3264
856.327	3184
856.461	3070
856.595	3093
856.729	3135
856.862	3241
856.996	3184
857.13	3230
857.263	3283
857.397	3291
857.53	3161
857.664	3203
857.797	3287
857.931	3302
858.064	3195
858.197	3241
858.331	3192
858.464	3108
858.597	3032
858.731	3142
858.864	3157
858.997	3135
859.13	3192
859.263	3211
859.396	3207
859.529	3104
859.662	3104
859.795	3055
859.928	3161
860.061	3306
860.194	3256
860.327	3184
860.46	3089
860.592	3268
860.725	3256
860.858	3245
860.99	3135
861.123	3119
861.256	3070
861.388	3188
861.521	3770
861.653	3070
861.786	3032
861.918	3047
862.05	3085
862.183	3112
862.315	3161
862.447	3233
862.58	3123
862.712	2948
862.844	2933
862.976	3070
863.108	3013
863.24	3344
863.372	2922
863.504	2971
863.636	2960
863.768	3058
863.9	3017
864.032	2937
864.164	2944
864.296	3020
864.428	3138
864.559	3097
864.691	3081
864.823	3093
864.954	3077
865.086	3058
865.217	3009
865.349	3005
865.48	3039
865.612	3043
865.743	3146
865.875	3005
866.006	2956
866.137	2979
866.269	3005
866.4	2990
866.531	2979
866.662	2910
866.793	2933
866.924	2929
867.055	2979
867.186	2956
867.317	2906
867.448	2834
867.579	2883
867.71	2834
867.841	2845
867.972	2933
868.103	2883
868.233	2925
868.364	2914
868.495	2925
868.625	3123
868.756	3199
868.886	2990
869.017	3028
869.147	3123
869.278	3161
869.408	3070
869.539	3039
869.669	3138
869.799	3066
869.929	3108
870.06	3135
870.19	3329
870.32	3264
870.45	3317
870.58	3386
870.71	3458
870.84	3481
870.97	3363
871.1	3275
871.23	3500
871.36	3462
871.489	3378
871.619	3431
871.749	3454
871.879	3504
872.008	3488
872.138	3370
872.267	3317
872.397	3176
872.526	3077
872.656	3077
872.785	3097
872.915	3233
873.044	3321
873.173	3218
873.303	3272
873.432	3279
873.561	3237
873.69	3192
873.819	3195
873.948	3195
874.077	3142
874.206	3074
874.335	3081
874.464	3241
874.593	3397
874.722	3264
874.851	3431
874.979	3382
875.108	3351
875.237	3249
875.365	3195
875.494	3222
875.623	3272
875.751	3116
875.88	3146
876.008	3233
876.136	3241
876.265	3359
876.393	3538
876.521	3450
876.65	3397
876.778	3332
876.906	3298
877.034	3237
877.162	3241
877.29	3192
877.418	3291
877.546	3256
877.674	3268
877.802	3291
877.93	3279
878.058	3176
878.185	3123
878.313	3214
878.441	3214
878.568	3100
878.696	3176
878.824	3241
878.951	3302
879.079	3492
879.206	3633
879.333	3492
879.461	3359
879.588	3382
879.715	3477
879.842	3564
879.97	3374
880.097	3142
880.224	3157
880.351	3237
880.478	3260
880.605	3226
880.732	3192
880.859	3511
880.986	3313
881.112	3313
881.239	3211
881.366	3104
881.493	3036
881.619	3005
881.746	3070
881.872	3135
881.999	3104
882.125	3161
882.252	3260
882.378	3294
882.505	3439
882.631	3329
882.757	3165
882.883	3180
883.01	3287
883.136	3180
883.262	3119
883.388	3135
883.514	3329
883.64	3374
883.766	3306
883.892	3233
884.018	3203
884.143	3428
884.269	3553
884.395	3214
884.52	3188
884.646	3180
884.772	3138
884.897	3123
885.023	3195
885.148	3332
885.274	3412
885.399	3378
885.524	3294
885.65	3298
885.775	3325
885.9	3241
886.025	3439
886.15	3355
886.275	3283
886.4	3249
886.525	3325
886.65	3279
886.775	3329
886.9	3511
887.025	3625
887.149	3466
887.274	3294
887.399	3207
887.523	3222
887.648	3214
887.773	3199
887.897	3386
888.021	3428
888.146	3336
888.27	3454
888.395	3553
888.519	3485
888.643	3454
888.767	3469
888.891	3332
889.015	3268
889.139	3279
889.263	3249
889.387	3420
889.511	3538
889.635	3447
889.759	3306
889.883	3363
890.006	3409
890.13	3530
890.254	3268
890.377	3355
890.501	3230
890.624	3173
890.748	3310
890.871	3203
890.995	3116
891.118	3085
891.241	3237
891.364	3249
891.488	3317
891.611	3165
891.734	3188
891.857	3313
891.98	3222
892.103	3340
892.226	3264
892.349	3245
892.471	3154
892.594	3245
892.717	3310
892.839	3268
892.962	3294
893.085	3370
893.207	3348
893.33	3127
893.452	3211
893.575	3370
893.697	3253
893.819	3485
893.941	3496
894.064	3473
894.186	3264
894.308	3237
894.43	3439
894.552	3542
894.674	3462
894.796	3275
894.918	3317
895.04	3329
895.161	3450
895.283	3409
895.405	3302
895.526	3313
895.648	3405
895.769	3431
895.891	3454
896.012	3473
896.134	3458
896.255	3393
896.376	3370
896.498	3397
896.619	3454
896.74	3378
896.861	3405
896.982	3682
897.103	3865
897.224	3599
897.345	3526
897.466	3435
897.587	3496
897.708	3641
897.828	3584
897.949	3443
898.07	3344
898.19	3409
898.311	3610
898.431	3466
898.552	3523
898.672	3553
898.792	3622
898.913	3515
899.033	3424
899.153	3275
899.273	3230
899.393	3279
899.513	3325
899.633	3310
899.753	3355
899.873	3310
899.993	3389
900.113	3370
900.232	3420
900.352	3340
900.472	3302
900.591	3195
900.711	3329
900.83	3283
900.95	3393
901.069	3530
901.189	3351
901.308	3157
901.427	3123
901.546	3195
901.665	3264
901.784	3340
901.904	3199
902.023	3123
902.141	3005
902.26	3020
902.379	3112
902.498	3081
902.617	3097
902.735	3203
902.854	3237
902.973	3222
903.091	3047
903.21	3066
903.328	3146
903.446	3150
903.565	3085
903.683	3222
903.801	3123
903.919	3260
904.038	3256
904.156	3165
904.274	3294
904.392	3306
904.51	3363
904.627	3348
904.745	3420
904.863	3485
904.981	3268
905.098	3184
905.216	3256
905.334	3272
905.451	3291
905.569	3294
905.686	3454
905.803	3462
905.921	3310
906.038	3420
906.155	3355
906.272	3268
906.389	3313
906.506	3268
906.623	3272
906.74	3249
906.857	3176
906.974	3256
907.091	3428
907.208	3549
907.324	3515
907.441	3378
907.557	3253
907.674	3291
907.79	3230
907.907	3310
908.023	3424
908.139	3401
908.256	3348
908.372	3397
908.488	3363
908.604	3294
908.72	3237
908.836	3302
908.952	3272
909.068	3336
909.184	3504
909.3	3367
909.415	3526
909.531	3458
909.647	3294
909.762	3279
909.878	3298
909.993	3389
910.108	3325
910.224	3359
910.339	3412
910.454	3332
910.57	3317
910.685	3256
910.8	3610
910.915	3564
911.03	3469
911.145	3272
911.259	3294
911.374	3340
911.489	3245
911.604	3253
911.718	3138
911.833	3184
911.947	3047
912.062	3043
912.176	3184
912.291	3195
912.405	3203
912.519	3454
912.633	3473
912.748	3332
912.862	3264
912.976	3207
913.09	3108
913.204	3127
913.318	3226
913.431	3306
913.545	3374
913.659	3405
913.772	3355
913.886	3245
914	3218
914.113	3340
914.226	3439
914.34	3355
914.453	3203
914.566	3420
914.68	3279
914.793	3317
914.906	3131
915.019	3123
915.132	3039
915.245	3222
915.358	3199
915.47	3241
915.583	3294
915.696	3313
915.809	3389
915.921	3424
916.034	3298
916.146	3275
916.259	3211
916.371	3359
916.483	3378
916.595	3287
916.708	3332
916.82	3355
916.932	3332
917.044	3325
917.156	3321
917.268	3272
917.38	3325
917.491	3306
917.603	3359
917.715	3492
917.826	3481
917.938	3370
918.049	3249
918.161	3431
918.272	3614
918.384	3572
918.495	3485
918.606	3332
918.717	3302
918.828	3359
918.939	3370
919.05	3321
919.161	3367
919.272	3173
919.383	3279
919.494	3481
919.604	3671
919.715	3542
919.826	3386
919.936	3450
920.047	3561
920.157	3584
920.267	3759
920.378	3610
920.488	3580
920.598	3762
920.708	3968
920.818	3808
920.928	3823
921.038	3987
921.148	4013
921.258	3724
921.368	3622
921.477	3580
921.587	3584
921.697	3431
921.806	3656
921.916	3485
922.025	3363
922.134	3374
922.244	3348
922.353	3454
922.462	3283
922.571	3241
922.68	3104
922.789	3112
922.898	3150
923.007	3074
923.116	3226
923.224	3188
923.333	3199
923.442	3123
923.55	3066
923.659	3112
923.767	3222
923.876	3135
923.984	3237
924.092	3074
924.201	3226
924.309	3207
924.417	3230
924.525	3176
924.633	3241
924.741	3994
924.849	3024
924.956	3256
925.064	3123
925.172	3032
925.279	3112
925.387	3188
925.494	3222
925.602	3355
925.709	3321
925.816	3199
925.924	3268
926.031	3355
926.138	3317
926.245	3393
926.352	3249
926.459	3428
926.566	3462
926.673	3313
926.779	3256
926.886	3253
926.993	3146
927.099	3165
927.206	3104
927.312	3093
927.419	3256
927.525	3165
927.631	3275
927.737	3123
927.843	3157
927.95	3043
928.056	3097
928.162	3199
928.267	3241
928.373	3838
928.479	3291
928.585	3062
928.69	3192
928.796	3291
928.901	3176
929.007	3055
929.112	3226
929.218	3195
929.323	3123
929.428	3161
929.533	3313
929.638	3108
929.743	3161
929.848	3279
929.953	3195
930.058	3142
930.163	3028
930.267	3055
930.372	3218
930.477	3047
930.581	3306
930.685	3184
930.79	3028
930.894	3112
930.998	3100
931.103	3306
931.207	2910
931.311	2956
931.415	2914
931.519	2750
931.623	2815
