Data from test_V78500241_283.txt Node
Date: Fri Mar 25 16:17:09 CST 2022
User: usil
Spectrometer: V785-0024
Trigger mode: 0
Integration Time (sec): 4.000000E-1
Scans to average: 1
Nonlinearity correction enabled: false
Boxcar width: 0
Storing dark spectrum: false
XAxis mode: Wavelengths
Number of Pixels in Spectrum: 1024
>>>>>Begin Spectral Data<<<<<
801.071	2906
801.214	2929
801.356	2899
801.499	2918
801.641	2895
801.783	2933
801.926	3062
802.068	2998
802.211	3024
802.353	3100
802.496	2967
802.638	3028
802.78	3043
802.923	3066
803.065	2982
803.208	2887
803.35	2933
803.492	2952
803.635	2967
803.777	2781
803.919	2872
804.061	3184
804.204	2971
804.346	2918
804.488	2887
804.63	2994
804.773	2906
804.915	2960
805.057	3085
805.199	2914
805.341	3032
805.483	3070
805.626	3017
805.768	2998
805.91	3146
806.052	3123
806.194	3055
806.336	3253
806.478	3047
806.62	2975
806.762	2998
806.904	3108
807.046	3180
807.188	3020
807.33	2952
807.472	3020
807.614	2925
807.756	3020
807.898	2944
808.04	2906
808.182	3017
808.324	2963
808.465	2891
808.607	2902
808.749	2845
808.891	2891
809.033	3013
809.174	2982
809.316	2944
809.458	2914
809.6	2830
809.741	2811
809.883	2811
810.025	2876
810.166	2872
810.308	2880
810.45	2891
810.591	2815
810.733	2773
810.875	2880
811.016	2766
811.158	2785
811.299	2819
811.441	2956
811.582	2948
811.724	2845
811.865	2845
812.007	2944
812.148	2906
812.29	2849
812.431	2918
812.573	2910
812.714	2986
812.855	3085
812.997	3097
813.138	3165
813.279	3017
813.421	2994
813.562	3001
813.703	2899
813.845	2876
813.986	2811
814.127	2754
814.268	2823
814.41	2864
814.551	2823
814.692	2899
814.833	2826
814.974	2929
815.115	2971
815.256	2849
815.397	2823
815.539	2876
815.68	2811
815.821	2826
815.962	2948
816.103	2933
816.244	2902
816.385	2891
816.526	2975
816.666	2941
816.807	2773
816.948	2910
817.089	2937
817.23	2876
817.371	2800
817.512	2830
817.653	2830
817.793	2838
817.934	2880
818.075	2952
818.216	2986
818.356	3077
818.497	2948
818.638	2830
818.778	2804
818.919	2826
819.06	2777
819.2	2895
819.341	2830
819.481	2838
819.622	2971
819.762	3077
819.903	3070
820.043	2937
820.184	2929
820.324	2922
820.465	3028
820.605	3024
820.746	3009
820.886	2986
821.026	3161
821.167	3180
821.307	3260
821.447	3287
821.588	3253
821.728	3214
821.868	3218
822.008	3081
822.149	3184
822.289	3233
822.429	3047
822.569	3081
822.709	3154
822.849	3013
822.99	3070
823.13	3184
823.27	3249
823.41	3116
823.55	3165
823.69	3154
823.83	3218
823.97	3097
824.11	3024
824.25	3001
824.389	3093
824.529	3138
824.669	3074
824.809	3169
824.949	3268
825.089	3279
825.228	3192
825.368	2982
825.508	2971
825.648	2979
825.787	3032
825.927	3058
826.067	3020
826.206	2956
826.346	3047
826.485	3100
826.625	3097
826.765	3241
826.904	3218
827.044	2994
827.183	2967
827.323	2845
827.462	2979
827.601	2933
827.741	2944
827.88	2986
828.02	2883
828.159	2952
828.298	3066
828.437	3081
828.577	3039
828.716	3283
828.855	3131
828.994	2929
829.134	2899
829.273	2952
829.412	2883
829.551	2872
829.69	2891
829.829	2990
829.968	3119
830.107	3024
830.246	3013
830.385	2937
830.524	2880
830.663	2845
830.802	2731
830.941	2697
831.08	2636
831.219	2785
831.357	2777
831.496	2960
831.635	2773
831.774	2663
831.913	2659
832.051	2526
832.19	2583
832.329	2701
832.467	2564
832.606	2495
832.744	2625
832.883	2598
833.022	2579
833.16	2670
833.299	2708
833.437	2659
833.576	2697
833.714	2750
833.852	2724
833.991	2777
834.129	2849
834.267	2845
834.406	2785
834.544	2849
834.682	2868
834.821	2872
834.959	3055
835.097	2887
835.235	3077
835.373	2979
835.511	3024
835.65	3009
835.788	2967
835.926	2826
836.064	2834
836.202	2838
836.34	3077
836.478	3142
836.615	3062
836.753	3127
836.891	3188
837.029	3161
837.167	3100
837.305	3100
837.443	3077
837.58	2960
837.718	3112
837.856	3077
837.993	3036
838.131	3135
838.269	3131
838.406	3097
838.544	3077
838.681	2948
838.819	2960
838.956	2792
839.094	2842
839.231	2948
839.369	2998
839.506	3412
839.643	3188
839.781	3051
839.918	3017
840.055	3077
840.193	3009
840.33	3070
840.467	3058
840.604	3150
840.742	3431
840.879	3077
841.016	3032
841.153	3150
841.29	3287
841.427	3279
841.564	3291
841.701	3317
841.838	3222
841.975	3230
842.112	3226
842.249	3066
842.385	3020
842.522	3287
842.659	3104
842.796	3051
842.933	3051
843.069	3058
843.206	3055
843.343	3218
843.479	3157
843.616	3150
843.752	2864
843.889	2849
844.025	3051
844.162	2914
844.298	3055
844.435	2975
844.571	2937
844.708	3089
844.844	3180
844.98	3203
845.117	3249
845.253	3051
845.389	3039
845.525	3089
845.661	3093
845.798	2990
845.934	3157
846.07	3043
846.206	3203
846.342	3310
846.478	3211
846.614	3058
846.75	3047
846.886	3039
847.022	3260
847.158	3150
847.294	3230
847.429	3226
847.565	3214
847.701	3458
847.837	3020
847.972	3039
848.108	3146
848.244	3138
848.379	3009
848.515	2922
848.65	2937
848.786	2960
848.921	3017
849.057	3138
849.192	3161
849.328	3077
849.463	3116
849.598	3077
849.734	3055
849.869	2960
850.004	2910
850.14	2979
850.275	2899
850.41	2834
850.545	2857
850.68	2952
850.815	2925
850.95	3001
851.085	3173
851.22	3100
851.355	3066
851.49	2971
851.625	3013
851.76	3032
851.895	2971
852.03	2925
852.165	3058
852.299	3081
852.434	3222
852.569	3142
852.703	3173
852.838	3241
852.973	3336
853.107	3302
853.242	3135
853.376	3077
853.511	2979
853.645	3043
853.78	3241
853.914	3104
854.048	3142
854.183	3081
854.317	3161
854.451	3302
854.585	3116
854.72	3097
854.854	3256
854.988	3043
855.122	3100
855.256	2963
855.39	3116
855.524	3279
855.658	3188
855.792	3142
855.926	3195
856.06	3233
856.194	3302
856.327	3169
856.461	3070
856.595	3097
856.729	3097
856.862	3218
856.996	3161
857.13	3211
857.263	3226
857.397	3264
857.53	3108
857.664	3192
857.797	3180
857.931	3237
858.064	3188
858.197	3230
858.331	3119
858.464	3097
858.597	3043
858.731	3119
858.864	3135
858.997	3074
859.13	3146
859.263	3169
859.396	3195
859.529	3055
859.662	3047
859.795	3058
859.928	3119
860.061	3298
860.194	3287
860.327	3116
860.46	3116
860.592	3230
860.725	3233
860.858	3245
860.99	3112
861.123	3100
861.256	3055
861.388	3157
861.521	3896
861.653	3024
861.786	2963
861.918	3005
862.05	3066
862.183	3081
862.315	3188
862.447	3195
862.58	3112
862.712	2937
862.844	2899
862.976	3070
863.108	2998
863.24	3287
863.372	2883
863.504	2979
863.636	2944
863.768	3009
863.9	2998
864.032	2914
864.164	2960
864.296	3001
864.428	3070
864.559	3116
864.691	3043
864.823	3104
864.954	3081
865.086	3051
865.217	3017
865.349	2952
865.48	3013
865.612	2990
865.743	3138
865.875	2979
866.006	2960
866.137	2979
866.269	2937
866.4	2918
866.531	2933
866.662	2944
866.793	2895
866.924	2914
867.055	2956
867.186	2933
867.317	2891
867.448	2807
867.579	2845
867.71	2853
867.841	2823
867.972	2895
868.103	2891
868.233	2880
868.364	2861
868.495	2933
868.625	3062
868.756	3176
868.886	2963
869.017	3020
869.147	3161
869.278	3184
869.408	3047
869.539	3024
869.669	3138
869.799	3036
869.929	3104
870.06	3081
870.19	3348
870.32	3275
870.45	3302
870.58	3340
870.71	3412
870.84	3458
870.97	3298
871.1	3260
871.23	3481
871.36	3466
871.489	3336
871.619	3416
871.749	3420
871.879	3462
872.008	3458
872.138	3367
872.267	3294
872.397	3161
872.526	3097
872.656	2994
872.785	3097
872.915	3233
873.044	3321
873.173	3230
873.303	3230
873.432	3279
873.561	3287
873.69	3180
873.819	3123
873.948	3188
874.077	3150
874.206	3024
874.335	3089
874.464	3226
874.593	3367
874.722	3222
874.851	3382
874.979	3329
875.108	3310
875.237	3157
875.365	3154
875.494	3184
875.623	3211
875.751	3047
875.88	3112
876.008	3195
876.136	3237
876.265	3348
876.393	3488
876.521	3431
876.65	3386
876.778	3374
876.906	3237
877.034	3195
877.162	3199
877.29	3161
877.418	3260
877.546	3237
877.674	3233
877.802	3283
877.93	3203
878.058	3157
878.185	3123
878.313	3192
878.441	3176
878.568	3047
878.696	3165
878.824	3279
878.951	3249
879.079	3462
879.206	3618
879.333	3435
879.461	3348
879.588	3344
879.715	3469
879.842	3606
879.97	3386
880.097	3150
880.224	3173
880.351	3165
880.478	3233
880.605	3207
880.732	3165
880.859	3511
880.986	3310
881.112	3306
881.239	3218
881.366	3081
881.493	3020
881.619	3024
881.746	3085
881.872	3097
881.999	3104
882.125	3195
882.252	3237
882.378	3249
882.505	3420
882.631	3237
882.757	3184
882.883	3199
883.01	3222
883.136	3154
883.262	3100
883.388	3108
883.514	3275
883.64	3393
883.766	3332
883.892	3245
884.018	3241
884.143	3393
884.269	3523
884.395	3207
884.52	3157
884.646	3165
884.772	3123
884.897	3142
885.023	3169
885.148	3310
885.274	3420
885.399	3397
885.524	3291
885.65	3260
885.775	3325
885.9	3275
886.025	3466
886.15	3332
886.275	3256
886.4	3195
886.525	3310
886.65	3249
886.775	3268
886.9	3511
887.025	3671
887.149	3409
887.274	3298
887.399	3173
887.523	3222
887.648	3165
887.773	3199
887.897	3359
888.021	3378
888.146	3329
888.27	3450
888.395	3557
888.519	3405
888.643	3443
888.767	3477
888.891	3272
889.015	3222
889.139	3260
889.263	3291
889.387	3397
889.511	3485
889.635	3428
889.759	3283
889.883	3329
890.006	3374
890.13	3462
890.254	3272
890.377	3329
890.501	3207
890.624	3188
890.748	3325
890.871	3226
890.995	3112
891.118	3058
891.241	3188
891.364	3222
891.488	3370
891.611	3157
891.734	3230
891.857	3253
891.98	3260
892.103	3355
892.226	3294
892.349	3230
892.471	3085
892.594	3260
892.717	3332
892.839	3302
892.962	3302
893.085	3374
893.207	3325
893.33	3131
893.452	3226
893.575	3332
893.697	3272
893.819	3469
893.941	3481
894.064	3481
894.186	3275
894.308	3260
894.43	3420
894.552	3542
894.674	3435
894.796	3272
894.918	3329
895.04	3287
895.161	3405
895.283	3367
895.405	3325
895.526	3397
895.648	3412
895.769	3466
895.891	3466
896.012	3481
896.134	3458
896.255	3447
896.376	3397
896.498	3351
896.619	3424
896.74	3336
896.861	3382
896.982	3698
897.103	3857
897.224	3595
897.345	3496
897.466	3412
897.587	3458
897.708	3648
897.828	3572
897.949	3412
898.07	3332
898.19	3409
898.311	3576
898.431	3447
898.552	3504
898.672	3603
898.792	3553
898.913	3584
899.033	3420
899.153	3283
899.273	3233
899.393	3279
899.513	3313
899.633	3302
899.753	3344
899.873	3302
899.993	3405
900.113	3348
900.232	3393
900.352	3355
900.472	3332
900.591	3203
900.711	3272
900.83	3275
900.95	3389
901.069	3496
901.189	3370
901.308	3173
901.427	3123
901.546	3180
901.665	3279
901.784	3272
901.904	3207
902.023	3180
902.141	3036
902.26	3062
902.379	3138
902.498	3062
902.617	3013
902.735	3188
902.854	3241
902.973	3188
903.091	3043
903.21	3074
903.328	3146
903.446	3123
903.565	3138
903.683	3241
903.801	3093
903.919	3272
904.038	3321
904.156	3150
904.274	3275
904.392	3268
904.51	3279
904.627	3302
904.745	3443
904.863	3466
904.981	3237
905.098	3184
905.216	3226
905.334	3321
905.451	3313
905.569	3310
905.686	3401
905.803	3439
905.921	3264
906.038	3416
906.155	3370
906.272	3302
906.389	3321
906.506	3218
906.623	3279
906.74	3302
906.857	3199
906.974	3294
907.091	3428
907.208	3576
907.324	3466
907.441	3363
907.557	3173
907.674	3253
907.79	3218
907.907	3291
908.023	3378
908.139	3389
908.256	3332
908.372	3393
908.488	3367
908.604	3260
908.72	3249
908.836	3336
908.952	3283
909.068	3302
909.184	3488
909.3	3386
909.415	3481
909.531	3488
909.647	3283
909.762	3287
909.878	3272
909.993	3370
910.108	3306
910.224	3348
910.339	3389
910.454	3344
910.57	3283
910.685	3256
910.8	3568
910.915	3526
911.03	3428
911.145	3256
911.259	3275
911.374	3344
911.489	3245
911.604	3230
911.718	3123
911.833	3131
911.947	3043
912.062	2975
912.176	3188
912.291	3157
912.405	3214
912.519	3412
912.633	3462
912.748	3336
912.862	3275
912.976	3207
913.09	3028
913.204	3119
913.318	3226
913.431	3306
913.545	3306
913.659	3447
913.772	3355
913.886	3214
914	3226
914.113	3340
914.226	3416
914.34	3374
914.453	3279
914.566	3393
914.68	3325
914.793	3332
914.906	3123
915.019	3131
915.132	3085
915.245	3165
915.358	3214
915.47	3230
915.583	3245
915.696	3317
915.809	3386
915.921	3428
916.034	3294
916.146	3272
916.259	3237
916.371	3382
916.483	3370
916.595	3226
916.708	3351
916.82	3317
916.932	3348
917.044	3367
917.156	3344
917.268	3253
917.38	3260
917.491	3256
917.603	3382
917.715	3431
917.826	3469
917.938	3374
918.049	3298
918.161	3431
918.272	3568
918.384	3564
918.495	3469
918.606	3344
918.717	3298
918.828	3416
918.939	3397
919.05	3306
919.161	3370
919.272	3180
919.383	3275
919.494	3538
919.604	3690
919.715	3458
919.826	3424
919.936	3469
920.047	3610
920.157	3549
920.267	3793
920.378	3606
920.488	3587
920.598	3812
920.708	3968
920.818	3835
920.928	3819
921.038	4013
921.148	4021
921.258	3740
921.368	3633
921.477	3568
921.587	3526
921.697	3466
921.806	3660
921.916	3496
922.025	3359
922.134	3397
922.244	3348
922.353	3401
922.462	3241
922.571	3222
922.68	3123
922.789	3081
922.898	3188
923.007	3123
923.116	3203
923.224	3169
923.333	3165
923.442	3104
923.55	3119
923.659	3173
923.767	3211
923.876	3112
923.984	3256
924.092	3127
924.201	3222
924.309	3268
924.417	3253
924.525	3188
924.633	3241
924.741	4219
924.849	3066
924.956	3279
925.064	3123
925.172	3036
925.279	3135
925.387	3233
925.494	3203
925.602	3367
925.709	3340
925.816	3157
925.924	3329
926.031	3367
926.138	3351
926.245	3355
926.352	3249
926.459	3424
926.566	3473
926.673	3302
926.779	3275
926.886	3279
926.993	3138
927.099	3116
927.206	3097
927.312	3108
927.419	3245
927.525	3199
927.631	3283
927.737	3161
927.843	3138
927.95	3017
928.056	3116
928.162	3188
928.267	3260
928.373	3888
928.479	3306
928.585	3066
928.69	3214
928.796	3272
928.901	3188
929.007	3051
929.112	3230
929.218	3222
929.323	3131
929.428	3180
929.533	3302
929.638	3100
929.743	3180
929.848	3256
929.953	3245
930.058	3184
930.163	2982
930.267	3066
930.372	3214
930.477	3051
930.581	3351
930.685	3180
930.79	3032
930.894	3138
930.998	3093
931.103	3279
931.207	2948
931.311	2963
931.415	2902
931.519	2811
931.623	2830
