Data from test_V78500241_1155.txt Node
Date: Fri Mar 25 16:23:12 CST 2022
User: usil
Spectrometer: V785-0024
Trigger mode: 0
Integration Time (sec): 4.000000E-1
Scans to average: 1
Nonlinearity correction enabled: false
Boxcar width: 0
Storing dark spectrum: false
XAxis mode: Wavelengths
Number of Pixels in Spectrum: 1024
>>>>>Begin Spectral Data<<<<<
801.071	2906
801.214	2925
801.356	2887
801.499	2864
801.641	2868
801.783	2963
801.926	3047
802.068	2971
802.211	3020
802.353	3020
802.496	2979
802.638	2998
802.78	3005
802.923	3043
803.065	3001
803.208	2895
803.35	2956
803.492	2918
803.635	2944
803.777	2739
803.919	2883
804.061	3188
804.204	2998
804.346	2899
804.488	2815
804.63	2982
804.773	2826
804.915	2910
805.057	3081
805.199	2929
805.341	2975
805.483	3028
805.626	2967
805.768	2975
805.91	3062
806.052	3116
806.194	3028
806.336	3272
806.478	2994
806.62	2948
806.762	2941
806.904	3074
807.046	3138
807.188	2986
807.33	2925
807.472	2937
807.614	2910
807.756	2982
807.898	2941
808.04	2876
808.182	2975
808.324	2963
808.465	2883
808.607	2876
808.749	2785
808.891	2804
809.033	2956
809.174	2994
809.316	2895
809.458	2868
809.6	2777
809.741	2785
809.883	2754
810.025	2838
810.166	2868
810.308	2842
810.45	2872
810.591	2746
810.733	2785
810.875	2815
811.016	2773
811.158	2731
811.299	2785
811.441	2941
811.582	2861
811.724	2815
811.865	2864
812.007	2914
812.148	2880
812.29	2880
812.431	2861
812.573	2922
812.714	2944
812.855	3024
812.997	3039
813.138	3138
813.279	3013
813.421	3001
813.562	2910
813.703	2883
813.845	2880
813.986	2769
814.127	2735
814.268	2807
814.41	2857
814.551	2815
814.692	2887
814.833	2819
814.974	2937
815.115	2944
815.256	2815
815.397	2823
815.539	2861
815.68	2750
815.821	2815
815.962	2948
816.103	2902
816.244	2906
816.385	2868
816.526	2963
816.666	2922
816.807	2739
816.948	2876
817.089	2910
817.23	2887
817.371	2792
817.512	2777
817.653	2830
817.793	2807
817.934	2849
818.075	2906
818.216	3005
818.356	3020
818.497	2891
818.638	2781
818.778	2819
818.919	2750
819.06	2743
819.2	2849
819.341	2785
819.481	2819
819.622	2902
819.762	3089
819.903	3024
820.043	2891
820.184	2914
820.324	2918
820.465	3005
820.605	2998
820.746	3043
820.886	2914
821.026	3093
821.167	3154
821.307	3249
821.447	3291
821.588	3241
821.728	3188
821.868	3211
822.008	3081
822.149	3154
822.289	3218
822.429	3104
822.569	3119
822.709	3188
822.849	2979
822.99	3058
823.13	3146
823.27	3199
823.41	3077
823.55	3116
823.69	3119
823.83	3176
823.97	3066
824.11	3001
824.25	2982
824.389	3051
824.529	3104
824.669	3066
824.809	3154
824.949	3260
825.089	3180
825.228	3135
825.368	2986
825.508	2952
825.648	2948
825.787	3024
825.927	3043
826.067	2948
826.206	2960
826.346	3039
826.485	3077
826.625	3112
826.765	3226
826.904	3195
827.044	2986
827.183	2922
827.323	2845
827.462	2986
827.601	2929
827.741	2899
827.88	2929
828.02	2861
828.159	2960
828.298	3039
828.437	3077
828.577	3062
828.716	3260
828.855	3089
828.994	2922
829.134	2868
829.273	2906
829.412	2872
829.551	2857
829.69	2895
829.829	2963
829.968	3100
830.107	3017
830.246	3047
830.385	2918
830.524	2864
830.663	2804
830.802	2693
830.941	2640
831.08	2659
831.219	2731
831.357	2739
831.496	2963
831.635	2724
831.774	2636
831.913	2636
832.051	2518
832.19	2560
832.329	2689
832.467	2552
832.606	2476
832.744	2568
832.883	2579
833.022	2556
833.16	2663
833.299	2678
833.437	2720
833.576	2693
833.714	2689
833.852	2697
833.991	2746
834.129	2826
834.267	2811
834.406	2773
834.544	2872
834.682	2868
834.821	2899
834.959	3047
835.097	2895
835.235	3058
835.373	2982
835.511	3032
835.65	2937
835.788	2952
835.926	2815
836.064	2807
836.202	2830
836.34	3039
836.478	3131
836.615	3055
836.753	3108
836.891	3184
837.029	3150
837.167	3077
837.305	3051
837.443	3047
837.58	2990
837.718	3184
837.856	3001
837.993	3047
838.131	3112
838.269	3116
838.406	3070
838.544	3093
838.681	2967
838.819	2910
838.956	2807
839.094	2838
839.231	2895
839.369	2975
839.506	3348
839.643	3195
839.781	3017
839.918	2948
840.055	3051
840.193	3043
840.33	3024
840.467	3066
840.604	3146
840.742	3370
840.879	3055
841.016	3017
841.153	3051
841.29	3302
841.427	3272
841.564	3237
841.701	3294
841.838	3214
841.975	3176
842.112	3226
842.249	3116
842.385	3066
842.522	3260
842.659	3055
842.796	3043
842.933	3081
843.069	3005
843.206	3047
843.343	3161
843.479	3116
843.616	3116
843.752	2899
843.889	2857
844.025	3085
844.162	2849
844.298	3055
844.435	2956
844.571	2914
844.708	3077
844.844	3146
844.98	3226
845.117	3146
845.253	3047
845.389	2982
845.525	3093
845.661	3119
845.798	2986
845.934	3119
846.07	3039
846.206	3207
846.342	3302
846.478	3207
846.614	3077
846.75	3032
846.886	3001
847.022	3233
847.158	3142
847.294	3192
847.429	3230
847.565	3226
847.701	3523
847.837	3001
847.972	3013
848.108	3135
848.244	3161
848.379	3009
848.515	2925
848.65	2941
848.786	2944
848.921	3020
849.057	3119
849.192	3119
849.328	3077
849.463	3097
849.598	3077
849.734	3032
849.869	2925
850.004	2902
850.14	2971
850.275	2925
850.41	2842
850.545	2899
850.68	2933
850.815	2944
850.95	2979
851.085	3154
851.22	3089
851.355	3013
851.49	2990
851.625	3009
851.76	3017
851.895	2899
852.03	2891
852.165	3039
852.299	3108
852.434	3154
852.569	3104
852.703	3157
852.838	3211
852.973	3340
853.107	3332
853.242	3138
853.376	3077
853.511	2960
853.645	3005
853.78	3237
853.914	3127
854.048	3070
854.183	3028
854.317	3131
854.451	3329
854.585	3119
854.72	3074
854.854	3157
854.988	3001
855.122	3097
855.256	2979
855.39	3097
855.524	3207
855.658	3142
855.792	3165
855.926	3165
856.06	3237
856.194	3233
856.327	3157
856.461	3093
856.595	3055
856.729	3097
856.862	3249
856.996	3154
857.13	3169
857.263	3226
857.397	3264
857.53	3123
857.664	3184
857.797	3218
857.931	3241
858.064	3150
858.197	3230
858.331	3112
858.464	3051
858.597	3009
858.731	3104
858.864	3085
858.997	3097
859.13	3138
859.263	3176
859.396	3195
859.529	3070
859.662	3112
859.795	3055
859.928	3119
860.061	3245
860.194	3264
860.327	3142
860.46	3116
860.592	3230
860.725	3253
860.858	3245
860.99	3100
861.123	3081
861.256	3024
861.388	3135
861.521	3709
861.653	3009
861.786	2990
861.918	2994
862.05	3066
862.183	3104
862.315	3119
862.447	3180
862.58	3100
862.712	2963
862.844	2887
862.976	3005
863.108	2979
863.24	3272
863.372	2891
863.504	2967
863.636	2933
863.768	3013
863.9	2960
864.032	2891
864.164	2975
864.296	3005
864.428	3051
864.559	3097
864.691	3100
864.823	3074
864.954	3043
865.086	3047
865.217	3013
865.349	2914
865.48	2979
865.612	3058
865.743	3146
865.875	2956
866.006	2918
866.137	2967
866.269	2922
866.4	2925
866.531	2883
866.662	2883
866.793	2857
866.924	2876
867.055	2941
867.186	2883
867.317	2883
867.448	2830
867.579	2857
867.71	2804
867.841	2754
867.972	2891
868.103	2876
868.233	2902
868.364	2853
868.495	2895
868.625	3119
868.756	3154
868.886	2960
869.017	2998
869.147	3176
869.278	3176
869.408	3036
869.539	3013
869.669	3066
869.799	3017
869.929	3138
870.06	3093
870.19	3313
870.32	3272
870.45	3275
870.58	3386
870.71	3454
870.84	3462
870.97	3294
871.1	3230
871.23	3507
871.36	3431
871.489	3325
871.619	3389
871.749	3374
871.879	3424
872.008	3447
872.138	3306
872.267	3264
872.397	3142
872.526	3100
872.656	3005
872.785	3074
872.915	3222
873.044	3325
873.173	3199
873.303	3245
873.432	3245
873.561	3222
873.69	3131
873.819	3146
873.948	3176
874.077	3100
874.206	3028
874.335	3089
874.464	3203
874.593	3298
874.722	3241
874.851	3374
874.979	3317
875.108	3332
875.237	3176
875.365	3173
875.494	3184
875.623	3222
875.751	3028
875.88	3055
876.008	3184
876.136	3222
876.265	3344
876.393	3492
876.521	3397
876.65	3374
876.778	3313
876.906	3241
877.034	3173
877.162	3214
877.29	3199
877.418	3237
877.546	3256
877.674	3222
877.802	3184
877.93	3218
878.058	3146
878.185	3108
878.313	3192
878.441	3211
878.568	3074
878.696	3146
878.824	3222
878.951	3313
879.079	3458
879.206	3606
879.333	3447
879.461	3313
879.588	3370
879.715	3477
879.842	3534
879.97	3340
880.097	3165
880.224	3123
880.351	3218
880.478	3195
880.605	3157
880.732	3142
880.859	3485
880.986	3272
881.112	3287
881.239	3188
881.366	3077
881.493	3024
881.619	2994
881.746	3108
881.872	3104
881.999	3093
882.125	3142
882.252	3226
882.378	3260
882.505	3409
882.631	3275
882.757	3116
882.883	3203
883.01	3207
883.136	3154
883.262	3093
883.388	3112
883.514	3302
883.64	3370
883.766	3268
883.892	3211
884.018	3222
884.143	3412
884.269	3557
884.395	3230
884.52	3112
884.646	3154
884.772	3093
884.897	3055
885.023	3180
885.148	3291
885.274	3344
885.399	3378
885.524	3283
885.65	3287
885.775	3298
885.9	3291
886.025	3435
886.15	3302
886.275	3291
886.4	3253
886.525	3283
886.65	3245
886.775	3230
886.9	3488
887.025	3614
887.149	3405
887.274	3207
887.399	3173
887.523	3165
887.648	3165
887.773	3169
887.897	3374
888.021	3359
888.146	3325
888.27	3420
888.395	3530
888.519	3393
888.643	3420
888.767	3412
888.891	3317
889.015	3226
889.139	3241
889.263	3199
889.387	3386
889.511	3496
889.635	3443
889.759	3275
889.883	3283
890.006	3393
890.13	3439
890.254	3245
890.377	3329
890.501	3180
890.624	3176
890.748	3275
890.871	3176
890.995	3081
891.118	3108
891.241	3173
891.364	3188
891.488	3272
891.611	3188
891.734	3230
891.857	3287
891.98	3176
892.103	3325
892.226	3287
892.349	3211
892.471	3085
892.594	3211
892.717	3275
892.839	3283
892.962	3272
893.085	3321
893.207	3283
893.33	3131
893.452	3203
893.575	3355
893.697	3226
893.819	3435
893.941	3431
894.064	3458
894.186	3268
894.308	3279
894.43	3412
894.552	3485
894.674	3412
894.796	3264
894.918	3317
895.04	3291
895.161	3435
895.283	3409
895.405	3317
895.526	3382
895.648	3435
895.769	3428
895.891	3458
896.012	3462
896.134	3454
896.255	3412
896.376	3409
896.498	3370
896.619	3439
896.74	3412
896.861	3435
896.982	3705
897.103	3850
897.224	3599
897.345	3530
897.466	3435
897.587	3561
897.708	3686
897.828	3614
897.949	3504
898.07	3332
898.19	3424
898.311	3629
898.431	3462
898.552	3553
898.672	3618
898.792	3618
898.913	3553
899.033	3420
899.153	3310
899.273	3249
899.393	3321
899.513	3355
899.633	3329
899.753	3351
899.873	3348
899.993	3424
900.113	3367
900.232	3409
900.352	3367
900.472	3306
900.591	3218
900.711	3310
900.83	3291
900.95	3428
901.069	3504
901.189	3412
901.308	3211
901.427	3180
901.546	3211
901.665	3302
901.784	3351
901.904	3226
902.023	3214
902.141	3055
902.26	2998
902.379	3165
902.498	3127
902.617	3135
902.735	3268
902.854	3226
902.973	3207
903.091	3066
903.21	3108
903.328	3184
903.446	3135
903.565	3169
903.683	3214
903.801	3135
903.919	3310
904.038	3367
904.156	3253
904.274	3340
904.392	3306
904.51	3313
904.627	3363
904.745	3504
904.863	3557
904.981	3283
905.098	3233
905.216	3275
905.334	3359
905.451	3336
905.569	3313
905.686	3454
905.803	3450
905.921	3325
906.038	3477
906.155	3378
906.272	3321
906.389	3393
906.506	3264
906.623	3294
906.74	3275
906.857	3203
906.974	3298
907.091	3507
907.208	3584
907.324	3538
907.441	3409
907.557	3256
907.674	3294
907.79	3237
907.907	3306
908.023	3389
908.139	3397
908.256	3359
908.372	3374
908.488	3370
908.604	3294
908.72	3260
908.836	3336
908.952	3317
909.068	3317
909.184	3523
909.3	3450
909.415	3553
909.531	3500
909.647	3275
909.762	3325
909.878	3264
909.993	3355
910.108	3370
910.224	3359
910.339	3469
910.454	3378
910.57	3298
910.685	3264
910.8	3622
910.915	3568
911.03	3454
911.145	3310
911.259	3275
911.374	3363
911.489	3249
911.604	3253
911.718	3112
911.833	3165
911.947	3077
912.062	3013
912.176	3192
912.291	3199
912.405	3211
912.519	3466
912.633	3462
912.748	3340
912.862	3317
912.976	3188
913.09	3100
913.204	3192
913.318	3237
913.431	3355
913.545	3359
913.659	3409
913.772	3355
913.886	3256
914	3226
914.113	3370
914.226	3439
914.34	3409
914.453	3275
914.566	3431
914.68	3355
914.793	3317
914.906	3173
915.019	3154
915.132	3116
915.245	3203
915.358	3253
915.47	3195
915.583	3287
915.696	3332
915.809	3416
915.921	3450
916.034	3302
916.146	3260
916.259	3222
916.371	3409
916.483	3317
916.595	3302
916.708	3359
916.82	3370
916.932	3382
917.044	3378
917.156	3393
917.268	3298
917.38	3351
917.491	3340
917.603	3397
917.715	3458
917.826	3469
917.938	3405
918.049	3321
918.161	3447
918.272	3610
918.384	3591
918.495	3519
918.606	3370
918.717	3363
918.828	3405
918.939	3447
919.05	3268
919.161	3412
919.272	3237
919.383	3313
919.494	3530
919.604	3698
919.715	3515
919.826	3473
919.936	3477
920.047	3644
920.157	3633
920.267	3808
920.378	3652
920.488	3603
920.598	3816
920.708	3960
920.818	3842
920.928	3869
921.038	4086
921.148	4032
921.258	3755
921.368	3648
921.477	3618
921.587	3564
921.697	3450
921.806	3656
921.916	3553
922.025	3359
922.134	3382
922.244	3359
922.353	3507
922.462	3294
922.571	3249
922.68	3180
922.789	3116
922.898	3165
923.007	3108
923.116	3214
923.224	3192
923.333	3245
923.442	3169
923.55	3108
923.659	3154
923.767	3272
923.876	3154
923.984	3279
924.092	3116
924.201	3211
924.309	3256
924.417	3245
924.525	3192
924.633	3283
924.741	4063
924.849	3058
924.956	3302
925.064	3108
925.172	3085
925.279	3093
925.387	3226
925.494	3230
925.602	3351
925.709	3336
925.816	3207
925.924	3298
926.031	3405
926.138	3355
926.245	3374
926.352	3256
926.459	3466
926.566	3523
926.673	3359
926.779	3279
926.886	3268
926.993	3192
927.099	3154
927.206	3138
927.312	3146
927.419	3222
927.525	3226
927.631	3321
927.737	3146
927.843	3157
927.95	3055
928.056	3173
928.162	3180
928.267	3275
928.373	3934
928.479	3367
928.585	3154
928.69	3268
928.796	3306
928.901	3188
929.007	3070
929.112	3188
929.218	3188
929.323	3173
929.428	3173
929.533	3313
929.638	3135
929.743	3211
929.848	3237
929.953	3256
930.058	3157
930.163	3051
930.267	3116
930.372	3180
930.477	3074
930.581	3329
930.685	3199
930.79	3089
930.894	3138
930.998	3104
931.103	3294
931.207	2990
931.311	2979
931.415	2960
931.519	2792
931.623	2849
