Data from test_V78500241_458.txt Node
Date: Fri Mar 25 16:18:22 CST 2022
User: usil
Spectrometer: V785-0024
Trigger mode: 0
Integration Time (sec): 4.000000E-1
Scans to average: 1
Nonlinearity correction enabled: false
Boxcar width: 0
Storing dark spectrum: false
XAxis mode: Wavelengths
Number of Pixels in Spectrum: 1024
>>>>>Begin Spectral Data<<<<<
801.071	2929
801.214	2937
801.356	2906
801.499	2922
801.641	2891
801.783	2956
801.926	3058
802.068	2944
802.211	3028
802.353	3005
802.496	2979
802.638	3036
802.78	3058
802.923	3108
803.065	3013
803.208	2914
803.35	2902
803.492	2956
803.635	2937
803.777	2724
803.919	2876
804.061	3230
804.204	2960
804.346	2929
804.488	2868
804.63	3001
804.773	2910
804.915	2906
805.057	3131
805.199	2948
805.341	2960
805.483	3051
805.626	3017
805.768	3009
805.91	3089
806.052	3127
806.194	3047
806.336	3245
806.478	3028
806.62	2952
806.762	2986
806.904	3066
807.046	3184
807.188	3005
807.33	2899
807.472	3043
807.614	2918
807.756	2975
807.898	2975
808.04	2941
808.182	2960
808.324	2944
808.465	2895
808.607	2872
808.749	2804
808.891	2830
809.033	2948
809.174	3001
809.316	2891
809.458	2899
809.6	2777
809.741	2788
809.883	2800
810.025	2868
810.166	2872
810.308	2864
810.45	2887
810.591	2792
810.733	2777
810.875	2826
811.016	2773
811.158	2750
811.299	2823
811.441	2960
811.582	2925
811.724	2830
811.865	2834
812.007	2906
812.148	2880
812.29	2857
812.431	2918
812.573	2967
812.714	2986
812.855	3066
812.997	3058
813.138	3123
813.279	2990
813.421	2979
813.562	2963
813.703	2864
813.845	2902
813.986	2754
814.127	2735
814.268	2834
814.41	2826
814.551	2796
814.692	2834
814.833	2807
814.974	2872
815.115	2952
815.256	2857
815.397	2785
815.539	2883
815.68	2773
815.821	2819
815.962	2963
816.103	2979
816.244	2861
816.385	2857
816.526	2933
816.666	2914
816.807	2746
816.948	2883
817.089	2922
817.23	2853
817.371	2807
817.512	2804
817.653	2857
817.793	2819
817.934	2895
818.075	2986
818.216	3005
818.356	3001
818.497	2887
818.638	2796
818.778	2819
818.919	2830
819.06	2754
819.2	2906
819.341	2811
819.481	2788
819.622	2944
819.762	3081
819.903	3036
820.043	2929
820.184	2895
820.324	2891
820.465	3009
820.605	3028
820.746	3013
820.886	2937
821.026	3104
821.167	3154
821.307	3256
821.447	3294
821.588	3226
821.728	3230
821.868	3233
822.008	3093
822.149	3176
822.289	3214
822.429	3104
822.569	3093
822.709	3184
822.849	3039
822.99	3043
823.13	3135
823.27	3214
823.41	3066
823.55	3142
823.69	3135
823.83	3207
823.97	3154
824.11	3013
824.25	2990
824.389	3055
824.529	3173
824.669	3089
824.809	3195
824.949	3272
825.089	3233
825.228	3146
825.368	3001
825.508	2956
825.648	2979
825.787	3013
825.927	3013
826.067	2967
826.206	2937
826.346	3017
826.485	3047
826.625	3127
826.765	3272
826.904	3226
827.044	2967
827.183	2933
827.323	2864
827.462	3043
827.601	2906
827.741	2925
827.88	2952
828.02	2826
828.159	2979
828.298	3020
828.437	3085
828.577	3032
828.716	3218
828.855	3077
828.994	2880
829.134	2868
829.273	2899
829.412	2899
829.551	2864
829.69	2876
829.829	3028
829.968	3131
830.107	3005
830.246	3032
830.385	2933
830.524	2834
830.663	2857
830.802	2739
830.941	2632
831.08	2640
831.219	2773
831.357	2777
831.496	2937
831.635	2697
831.774	2663
831.913	2659
832.051	2552
832.19	2568
832.329	2689
832.467	2545
832.606	2457
832.744	2598
832.883	2568
833.022	2590
833.16	2636
833.299	2686
833.437	2697
833.576	2705
833.714	2743
833.852	2727
833.991	2769
834.129	2823
834.267	2857
834.406	2769
834.544	2861
834.682	2864
834.821	2899
834.959	3024
835.097	2868
835.235	3070
835.373	3036
835.511	3020
835.65	2971
835.788	2922
835.926	2811
836.064	2804
836.202	2826
836.34	3085
836.478	3188
836.615	3043
836.753	3119
836.891	3222
837.029	3169
837.167	3112
837.305	3047
837.443	3009
837.58	2948
837.718	3108
837.856	3036
837.993	3024
838.131	3100
838.269	3085
838.406	3062
838.544	3093
838.681	2948
838.819	2880
838.956	2804
839.094	2849
839.231	2906
839.369	2998
839.506	3378
839.643	3199
839.781	2990
839.918	2922
840.055	3051
840.193	3051
840.33	3039
840.467	3112
840.604	3173
840.742	3386
840.879	3066
841.016	3051
841.153	3112
841.29	3336
841.427	3249
841.564	3245
841.701	3306
841.838	3233
841.975	3157
842.112	3165
842.249	3043
842.385	3036
842.522	3245
842.659	3104
842.796	3051
842.933	3074
843.069	3039
843.206	3028
843.343	3207
843.479	3100
843.616	3112
843.752	2887
843.889	2861
844.025	3047
844.162	2880
844.298	3100
844.435	2963
844.571	2933
844.708	3074
844.844	3165
844.98	3245
845.117	3169
845.253	3036
845.389	2990
845.525	3062
845.661	3070
845.798	2960
845.934	3116
846.07	3077
846.206	3184
846.342	3291
846.478	3180
846.614	3074
846.75	3043
846.886	3028
847.022	3230
847.158	3154
847.294	3188
847.429	3268
847.565	3211
847.701	3469
847.837	3020
847.972	3028
848.108	3127
848.244	3123
848.379	2994
848.515	2925
848.65	2944
848.786	2994
848.921	2986
849.057	3100
849.192	3161
849.328	3024
849.463	3142
849.598	3077
849.734	3051
849.869	2948
850.004	2918
850.14	2956
850.275	2899
850.41	2853
850.545	2887
850.68	2902
850.815	2910
850.95	2963
851.085	3161
851.22	3093
851.355	3028
851.49	2975
851.625	2990
851.76	3005
851.895	2948
852.03	2876
852.165	3036
852.299	3131
852.434	3211
852.569	3173
852.703	3154
852.838	3245
852.973	3332
853.107	3317
853.242	3104
853.376	3051
853.511	2956
853.645	3036
853.78	3253
853.914	3112
854.048	3108
854.183	3055
854.317	3135
854.451	3253
854.585	3142
854.72	3089
854.854	3222
854.988	3043
855.122	3123
855.256	2990
855.39	3085
855.524	3253
855.658	3180
855.792	3146
855.926	3188
856.06	3260
856.194	3233
856.327	3150
856.461	3024
856.595	3104
856.729	3127
856.862	3192
856.996	3176
857.13	3169
857.263	3226
857.397	3272
857.53	3127
857.664	3180
857.797	3207
857.931	3222
858.064	3169
858.197	3226
858.331	3135
858.464	3070
858.597	2971
858.731	3108
858.864	3097
858.997	3081
859.13	3142
859.263	3154
859.396	3165
859.529	3085
859.662	3089
859.795	3055
859.928	3135
860.061	3268
860.194	3302
860.327	3097
860.46	3077
860.592	3249
860.725	3218
860.858	3199
860.99	3146
861.123	3039
861.256	3043
861.388	3142
861.521	3915
861.653	3032
861.786	2990
861.918	2990
862.05	3047
862.183	3085
862.315	3157
862.447	3173
862.58	3058
862.712	2971
862.844	2876
862.976	3020
863.108	2990
863.24	3287
863.372	2853
863.504	2982
863.636	2914
863.768	3039
863.9	2960
864.032	2868
864.164	2971
864.296	3036
864.428	3074
864.559	3093
864.691	3032
864.823	3066
864.954	3028
865.086	3028
865.217	3013
865.349	2914
865.48	2986
865.612	3017
865.743	3135
865.875	2994
866.006	2922
866.137	2963
866.269	2937
866.4	2925
866.531	2922
866.662	2864
866.793	2925
866.924	2899
867.055	3005
867.186	2925
867.317	2868
867.448	2819
867.579	2834
867.71	2830
867.841	2777
867.972	2838
868.103	2891
868.233	2880
868.364	2891
868.495	2922
868.625	3039
868.756	3161
868.886	2960
869.017	3005
869.147	3127
869.278	3161
869.408	3013
869.539	3009
869.669	3097
869.799	3047
869.929	3154
870.06	3104
870.19	3279
870.32	3256
870.45	3306
870.58	3367
870.71	3454
870.84	3409
870.97	3268
871.1	3203
871.23	3454
871.36	3473
871.489	3321
871.619	3397
871.749	3420
871.879	3435
872.008	3420
872.138	3340
872.267	3226
872.397	3135
872.526	3123
872.656	2994
872.785	3062
872.915	3211
873.044	3294
873.173	3237
873.303	3249
873.432	3253
873.561	3214
873.69	3157
873.819	3127
873.948	3195
874.077	3055
874.206	3024
874.335	3070
874.464	3233
874.593	3298
874.722	3222
874.851	3393
874.979	3310
875.108	3272
875.237	3207
875.365	3131
875.494	3157
875.623	3218
875.751	3062
875.88	3093
876.008	3154
876.136	3230
876.265	3363
876.393	3485
876.521	3378
876.65	3397
876.778	3340
876.906	3264
877.034	3195
877.162	3207
877.29	3176
877.418	3222
877.546	3264
877.674	3180
877.802	3211
877.93	3226
878.058	3138
878.185	3093
878.313	3195
878.441	3192
878.568	3039
878.696	3165
878.824	3241
878.951	3298
879.079	3443
879.206	3599
879.333	3416
879.461	3325
879.588	3378
879.715	3477
879.842	3580
879.97	3374
880.097	3169
880.224	3154
880.351	3199
880.478	3222
880.605	3195
880.732	3173
880.859	3481
880.986	3253
881.112	3325
881.239	3222
881.366	3077
881.493	3043
881.619	3020
881.746	3066
881.872	3108
881.999	3097
882.125	3142
882.252	3241
882.378	3325
882.505	3439
882.631	3279
882.757	3131
882.883	3192
883.01	3203
883.136	3157
883.262	3043
883.388	3081
883.514	3291
883.64	3367
883.766	3272
883.892	3173
884.018	3218
884.143	3401
884.269	3545
884.395	3176
884.52	3165
884.646	3165
884.772	3085
884.897	3085
885.023	3214
885.148	3355
885.274	3359
885.399	3382
885.524	3264
885.65	3283
885.775	3291
885.9	3272
886.025	3443
886.15	3359
886.275	3291
886.4	3222
886.525	3317
886.65	3214
886.775	3241
886.9	3500
887.025	3629
887.149	3450
887.274	3226
887.399	3184
887.523	3176
887.648	3180
887.773	3195
887.897	3367
888.021	3359
888.146	3348
888.27	3405
888.395	3545
888.519	3439
888.643	3431
888.767	3420
888.891	3302
889.015	3211
889.139	3279
889.263	3264
889.387	3370
889.511	3481
889.635	3458
889.759	3272
889.883	3245
890.006	3336
890.13	3462
890.254	3256
890.377	3363
890.501	3203
890.624	3211
890.748	3321
890.871	3138
890.995	3108
891.118	3055
891.241	3203
891.364	3199
891.488	3291
891.611	3173
891.734	3226
891.857	3245
891.98	3249
892.103	3325
892.226	3279
892.349	3207
892.471	3097
892.594	3173
892.717	3275
892.839	3256
892.962	3233
893.085	3370
893.207	3294
893.33	3104
893.452	3214
893.575	3363
893.697	3272
893.819	3416
893.941	3496
894.064	3424
894.186	3233
894.308	3317
894.43	3485
894.552	3530
894.674	3439
894.796	3291
894.918	3283
895.04	3272
895.161	3412
895.283	3389
895.405	3291
895.526	3359
895.648	3412
895.769	3409
895.891	3473
896.012	3424
896.134	3454
896.255	3420
896.376	3355
896.498	3359
896.619	3409
896.74	3367
896.861	3428
896.982	3698
897.103	3797
897.224	3564
897.345	3477
897.466	3424
897.587	3488
897.708	3591
897.828	3515
897.949	3443
898.07	3332
898.19	3397
898.311	3610
898.431	3458
898.552	3492
898.672	3580
898.792	3564
898.913	3553
899.033	3374
899.153	3294
899.273	3207
899.393	3294
899.513	3268
899.633	3321
899.753	3329
899.873	3283
899.993	3405
900.113	3340
900.232	3374
900.352	3325
900.472	3306
900.591	3195
900.711	3287
900.83	3226
900.95	3386
901.069	3477
901.189	3321
901.308	3169
901.427	3123
901.546	3157
901.665	3325
901.784	3355
901.904	3199
902.023	3127
902.141	3020
902.26	3001
902.379	3138
902.498	3062
902.617	3051
902.735	3173
902.854	3253
902.973	3180
903.091	3066
903.21	3055
903.328	3138
903.446	3112
903.565	3097
903.683	3157
903.801	3112
903.919	3211
904.038	3260
904.156	3142
904.274	3294
904.392	3260
904.51	3317
904.627	3336
904.745	3443
904.863	3492
904.981	3249
905.098	3142
905.216	3218
905.334	3272
905.451	3287
905.569	3268
905.686	3397
905.803	3435
905.921	3294
906.038	3431
906.155	3325
906.272	3268
906.389	3348
906.506	3203
906.623	3302
906.74	3279
906.857	3161
906.974	3226
907.091	3458
907.208	3538
907.324	3424
907.441	3401
907.557	3222
907.674	3218
907.79	3169
907.907	3298
908.023	3367
908.139	3367
908.256	3287
908.372	3386
908.488	3374
908.604	3218
908.72	3214
908.836	3275
908.952	3264
909.068	3363
909.184	3466
909.3	3386
909.415	3500
909.531	3466
909.647	3260
909.762	3233
909.878	3256
909.993	3317
910.108	3386
910.224	3336
910.339	3397
910.454	3336
910.57	3279
910.685	3211
910.8	3587
910.915	3515
911.03	3447
911.145	3237
911.259	3237
911.374	3298
911.489	3260
911.604	3195
911.718	3112
911.833	3135
911.947	3028
912.062	2963
912.176	3165
912.291	3253
912.405	3188
912.519	3412
912.633	3431
912.748	3321
912.862	3264
912.976	3169
913.09	3009
913.204	3138
913.318	3222
913.431	3313
913.545	3332
913.659	3389
913.772	3302
913.886	3214
914	3188
914.113	3359
914.226	3374
914.34	3325
914.453	3195
914.566	3378
914.68	3264
914.793	3272
914.906	3154
915.019	3100
915.132	3066
915.245	3131
915.358	3180
915.47	3207
915.583	3249
915.696	3268
915.809	3420
915.921	3420
916.034	3241
916.146	3237
916.259	3203
916.371	3355
916.483	3363
916.595	3253
916.708	3355
916.82	3306
916.932	3279
917.044	3298
917.156	3340
917.268	3203
917.38	3287
917.491	3287
917.603	3355
917.715	3428
917.826	3458
917.938	3378
918.049	3294
918.161	3420
918.272	3553
918.384	3568
918.495	3504
918.606	3310
918.717	3264
918.828	3374
918.939	3443
919.05	3294
919.161	3393
919.272	3203
919.383	3313
919.494	3488
919.604	3671
919.715	3500
919.826	3386
919.936	3496
920.047	3614
920.157	3572
920.267	3793
920.378	3606
920.488	3580
920.598	3816
920.708	3983
920.818	3808
920.928	3819
921.038	4067
921.148	4044
921.258	3728
921.368	3675
921.477	3572
921.587	3572
921.697	3462
921.806	3671
921.916	3564
922.025	3420
922.134	3348
922.244	3378
922.353	3477
922.462	3294
922.571	3226
922.68	3135
922.789	3131
922.898	3169
923.007	3104
923.116	3272
923.224	3192
923.333	3199
923.442	3123
923.55	3146
923.659	3142
923.767	3233
923.876	3138
923.984	3256
924.092	3131
924.201	3253
924.309	3268
924.417	3310
924.525	3222
924.633	3283
924.741	4063
924.849	3112
924.956	3321
925.064	3135
925.172	3108
925.279	3146
925.387	3241
925.494	3237
925.602	3374
925.709	3317
925.816	3233
925.924	3294
926.031	3439
926.138	3382
926.245	3340
926.352	3260
926.459	3450
926.566	3481
926.673	3329
926.779	3272
926.886	3310
926.993	3214
927.099	3199
927.206	3192
927.312	3180
927.419	3272
927.525	3237
927.631	3313
927.737	3203
927.843	3150
927.95	3013
928.056	3195
928.162	3180
928.267	3279
928.373	3819
928.479	3310
928.585	3081
928.69	3245
928.796	3317
928.901	3230
929.007	3085
929.112	3249
929.218	3184
929.323	3150
929.428	3214
929.533	3329
929.638	3157
929.743	3184
929.848	3302
929.953	3264
930.058	3180
930.163	3039
930.267	3055
930.372	3222
930.477	3077
930.581	3367
930.685	3176
930.79	3081
930.894	3142
930.998	3142
931.103	3325
931.207	2960
931.311	2960
931.415	2960
931.519	2807
931.623	2872
