Data from test_V78500241_1133.txt Node
Date: Fri Mar 25 16:23:03 CST 2022
User: usil
Spectrometer: V785-0024
Trigger mode: 0
Integration Time (sec): 4.000000E-1
Scans to average: 1
Nonlinearity correction enabled: false
Boxcar width: 0
Storing dark spectrum: false
XAxis mode: Wavelengths
Number of Pixels in Spectrum: 1024
>>>>>Begin Spectral Data<<<<<
801.071	2872
801.214	2937
801.356	2872
801.499	2895
801.641	2857
801.783	2925
801.926	3074
802.068	2952
802.211	2998
802.353	3032
802.496	2948
802.638	3005
802.78	3013
802.923	3036
803.065	3009
803.208	2891
803.35	2922
803.492	2918
803.635	2914
803.777	2750
803.919	2857
804.061	3188
804.204	2982
804.346	2880
804.488	2845
804.63	2979
804.773	2864
804.915	2910
805.057	3062
805.199	2902
805.341	2975
805.483	3047
805.626	2982
805.768	2986
805.91	3093
806.052	3119
806.194	3070
806.336	3211
806.478	3020
806.62	2937
806.762	2944
806.904	3055
807.046	3131
807.188	2967
807.33	2914
807.472	2948
807.614	2933
807.756	2994
807.898	2944
808.04	2876
808.182	2975
808.324	2975
808.465	2853
808.607	2876
808.749	2769
808.891	2853
809.033	2963
809.174	2967
809.316	2941
809.458	2880
809.6	2796
809.741	2754
809.883	2754
810.025	2842
810.166	2838
810.308	2845
810.45	2857
810.591	2750
810.733	2762
810.875	2838
811.016	2777
811.158	2750
811.299	2819
811.441	2925
811.582	2880
811.724	2804
811.865	2819
812.007	2937
812.148	2895
812.29	2842
812.431	2872
812.573	2929
812.714	2937
812.855	3028
812.997	3077
813.138	3097
813.279	3013
813.421	2990
813.562	2941
813.703	2853
813.845	2883
813.986	2788
814.127	2754
814.268	2845
814.41	2857
814.551	2800
814.692	2868
814.833	2804
814.974	2876
815.115	2975
815.256	2849
815.397	2773
815.539	2849
815.68	2766
815.821	2746
815.962	2941
816.103	2933
816.244	2899
816.385	2872
816.526	2979
816.666	2937
816.807	2739
816.948	2922
817.089	2922
817.23	2868
817.371	2746
817.512	2754
817.653	2826
817.793	2804
817.934	2872
818.075	2956
818.216	2994
818.356	3028
818.497	2849
818.638	2788
818.778	2823
818.919	2792
819.06	2758
819.2	2834
819.341	2792
819.481	2811
819.622	2925
819.762	3097
819.903	3032
820.043	2925
820.184	2876
820.324	2899
820.465	3009
820.605	3032
820.746	3001
820.886	2910
821.026	3135
821.167	3169
821.307	3253
821.447	3241
821.588	3211
821.728	3218
821.868	3214
822.008	3074
822.149	3169
822.289	3226
822.429	3089
822.569	3112
822.709	3211
822.849	3032
822.99	3077
823.13	3154
823.27	3195
823.41	3089
823.55	3135
823.69	3157
823.83	3180
823.97	3100
824.11	2990
824.25	3001
824.389	3055
824.529	3112
824.669	3077
824.809	3199
824.949	3241
825.089	3207
825.228	3176
825.368	2975
825.508	2967
825.648	3013
825.787	3032
825.927	3032
826.067	2971
826.206	2952
826.346	3013
826.485	3058
826.625	3100
826.765	3226
826.904	3233
827.044	2986
827.183	2910
827.323	2880
827.462	2986
827.601	2952
827.741	2971
827.88	2975
828.02	2857
828.159	2986
828.298	3039
828.437	3093
828.577	3036
828.716	3230
828.855	3093
828.994	2880
829.134	2899
829.273	2910
829.412	2895
829.551	2861
829.69	2937
829.829	2967
829.968	3173
830.107	3013
830.246	3001
830.385	2910
830.524	2872
830.663	2788
830.802	2754
830.941	2648
831.08	2629
831.219	2766
831.357	2739
831.496	2918
831.635	2708
831.774	2651
831.913	2644
832.051	2533
832.19	2568
832.329	2678
832.467	2549
832.606	2469
832.744	2590
832.883	2568
833.022	2610
833.16	2651
833.299	2640
833.437	2697
833.576	2689
833.714	2693
833.852	2758
833.991	2769
834.129	2849
834.267	2830
834.406	2766
834.544	2853
834.682	2864
834.821	2845
834.959	3047
835.097	2891
835.235	3051
835.373	2967
835.511	3020
835.65	2941
835.788	2933
835.926	2842
836.064	2766
836.202	2849
836.34	3112
836.478	3119
836.615	3024
836.753	3119
836.891	3203
837.029	3131
837.167	3112
837.305	3070
837.443	3043
837.58	2918
837.718	3138
837.856	3074
837.993	3062
838.131	3093
838.269	3104
838.406	3100
838.544	3089
838.681	2971
838.819	2887
838.956	2804
839.094	2830
839.231	2899
839.369	3062
839.506	3374
839.643	3173
839.781	3020
839.918	2963
840.055	3009
840.193	3039
840.33	3093
840.467	3104
840.604	3100
840.742	3420
840.879	3074
841.016	3077
841.153	3146
841.29	3313
841.427	3321
841.564	3264
841.701	3264
841.838	3192
841.975	3154
842.112	3173
842.249	3070
842.385	3039
842.522	3256
842.659	3070
842.796	3058
842.933	3104
843.069	3055
843.206	3036
843.343	3157
843.479	3112
843.616	3100
843.752	2883
843.889	2876
844.025	3081
844.162	2853
844.298	3039
844.435	2937
844.571	2910
844.708	3058
844.844	3176
844.98	3233
845.117	3195
845.253	3032
845.389	2979
845.525	3070
845.661	3100
845.798	3013
845.934	3135
846.07	3062
846.206	3222
846.342	3306
846.478	3188
846.614	3070
846.75	3036
846.886	3017
847.022	3264
847.158	3127
847.294	3214
847.429	3203
847.565	3211
847.701	3473
847.837	3013
847.972	3028
848.108	3127
848.244	3119
848.379	2998
848.515	2944
848.65	2925
848.786	2986
848.921	2979
849.057	3066
849.192	3112
849.328	3074
849.463	3039
849.598	3039
849.734	2998
849.869	2979
850.004	2895
850.14	2975
850.275	2910
850.41	2842
850.545	2906
850.68	2906
850.815	2937
850.95	2948
851.085	3157
851.22	3077
851.355	3028
851.49	2948
851.625	3032
851.76	3039
851.895	2937
852.03	2902
852.165	3039
852.299	3077
852.434	3169
852.569	3135
852.703	3184
852.838	3245
852.973	3332
853.107	3332
853.242	3142
853.376	3081
853.511	2975
853.645	3020
853.78	3199
853.914	3180
854.048	3119
854.183	3093
854.317	3135
854.451	3294
854.585	3104
854.72	3093
854.854	3188
854.988	3062
855.122	3077
855.256	2982
855.39	3135
855.524	3214
855.658	3173
855.792	3138
855.926	3192
856.06	3222
856.194	3245
856.327	3123
856.461	3051
856.595	3074
856.729	3104
856.862	3207
856.996	3146
857.13	3184
857.263	3211
857.397	3306
857.53	3119
857.664	3188
857.797	3264
857.931	3268
858.064	3169
858.197	3176
858.331	3097
858.464	3081
858.597	3005
858.731	3119
858.864	3131
858.997	3074
859.13	3154
859.263	3173
859.396	3192
859.529	3051
859.662	3070
859.795	3077
859.928	3142
860.061	3275
860.194	3256
860.327	3119
860.46	3074
860.592	3222
860.725	3218
860.858	3218
860.99	3097
861.123	3028
861.256	3047
861.388	3169
861.521	3778
861.653	3020
861.786	2956
861.918	3001
862.05	3028
862.183	3070
862.315	3165
862.447	3184
862.58	3070
862.712	2971
862.844	2891
862.976	3013
863.108	2975
863.24	3313
863.372	2864
863.504	2967
863.636	2956
863.768	3020
863.9	2960
864.032	2887
864.164	2948
864.296	2994
864.428	3070
864.559	3085
864.691	3058
864.823	3043
864.954	3032
865.086	3085
865.217	2956
865.349	2948
865.48	2994
865.612	3017
865.743	3123
865.875	2975
866.006	2937
866.137	2994
866.269	2937
866.4	2902
866.531	2941
866.662	2910
866.793	2864
866.924	2895
867.055	3028
867.186	2944
867.317	2883
867.448	2811
867.579	2849
867.71	2872
867.841	2800
867.972	2906
868.103	2887
868.233	2906
868.364	2861
868.495	2876
868.625	3058
868.756	3176
868.886	2975
869.017	3005
869.147	3154
869.278	3150
869.408	3058
869.539	3005
869.669	3093
869.799	2971
869.929	3161
870.06	3108
870.19	3340
870.32	3275
870.45	3268
870.58	3370
870.71	3469
870.84	3386
870.97	3256
871.1	3207
871.23	3500
871.36	3416
871.489	3370
871.619	3405
871.749	3393
871.879	3378
872.008	3515
872.138	3378
872.267	3226
872.397	3135
872.526	3097
872.656	2990
872.785	3100
872.915	3214
873.044	3302
873.173	3218
873.303	3260
873.432	3249
873.561	3226
873.69	3138
873.819	3138
873.948	3230
874.077	3077
874.206	3066
874.335	3089
874.464	3195
874.593	3340
874.722	3241
874.851	3382
874.979	3348
875.108	3313
875.237	3184
875.365	3135
875.494	3173
875.623	3214
875.751	3093
875.88	3180
876.008	3180
876.136	3237
876.265	3363
876.393	3496
876.521	3389
876.65	3355
876.778	3340
876.906	3230
877.034	3192
877.162	3233
877.29	3203
877.418	3245
877.546	3283
877.674	3241
877.802	3222
877.93	3211
878.058	3176
878.185	3093
878.313	3207
878.441	3203
878.568	3017
878.696	3161
878.824	3237
878.951	3294
879.079	3428
879.206	3595
879.333	3420
879.461	3340
879.588	3367
879.715	3477
879.842	3610
879.97	3389
880.097	3150
880.224	3112
880.351	3173
880.478	3199
880.605	3199
880.732	3161
880.859	3492
880.986	3298
881.112	3294
881.239	3203
881.366	3085
881.493	3036
881.619	3020
881.746	3070
881.872	3066
881.999	3097
882.125	3146
882.252	3211
882.378	3298
882.505	3420
882.631	3264
882.757	3176
882.883	3226
883.01	3195
883.136	3165
883.262	3100
883.388	3123
883.514	3306
883.64	3378
883.766	3283
883.892	3165
884.018	3222
884.143	3412
884.269	3568
884.395	3226
884.52	3150
884.646	3192
884.772	3150
884.897	3070
885.023	3203
885.148	3310
885.274	3397
885.399	3386
885.524	3264
885.65	3264
885.775	3355
885.9	3253
886.025	3431
886.15	3359
886.275	3275
886.4	3211
886.525	3317
886.65	3294
886.775	3298
886.9	3492
887.025	3599
887.149	3397
887.274	3241
887.399	3150
887.523	3188
887.648	3180
887.773	3157
887.897	3336
888.021	3397
888.146	3310
888.27	3428
888.395	3557
888.519	3424
888.643	3397
888.767	3420
888.891	3298
889.015	3241
889.139	3268
889.263	3222
889.387	3393
889.511	3515
889.635	3450
889.759	3283
889.883	3279
890.006	3344
890.13	3488
890.254	3272
890.377	3348
890.501	3195
890.624	3214
890.748	3306
890.871	3188
890.995	3104
891.118	3077
891.241	3199
891.364	3222
891.488	3321
891.611	3142
891.734	3237
891.857	3272
891.98	3222
892.103	3317
892.226	3268
892.349	3180
892.471	3104
892.594	3230
892.717	3283
892.839	3253
892.962	3264
893.085	3359
893.207	3283
893.33	3154
893.452	3173
893.575	3325
893.697	3233
893.819	3481
893.941	3523
894.064	3454
894.186	3313
894.308	3253
894.43	3443
894.552	3485
894.674	3485
894.796	3260
894.918	3306
895.04	3306
895.161	3450
895.283	3367
895.405	3302
895.526	3344
895.648	3428
895.769	3382
895.891	3443
896.012	3454
896.134	3481
896.255	3401
896.376	3393
896.498	3336
896.619	3435
896.74	3355
896.861	3386
896.982	3671
897.103	3816
897.224	3595
897.345	3485
897.466	3424
897.587	3473
897.708	3568
897.828	3526
897.949	3447
898.07	3287
898.19	3374
898.311	3561
898.431	3435
898.552	3492
898.672	3622
898.792	3534
898.913	3515
899.033	3424
899.153	3283
899.273	3188
899.393	3264
899.513	3302
899.633	3302
899.753	3310
899.873	3351
899.993	3412
900.113	3313
900.232	3374
900.352	3291
900.472	3264
900.591	3199
900.711	3310
900.83	3287
900.95	3420
901.069	3523
901.189	3367
901.308	3169
901.427	3154
901.546	3142
901.665	3298
901.784	3370
901.904	3211
902.023	3131
902.141	3005
902.26	2967
902.379	3123
902.498	3058
902.617	3093
902.735	3211
902.854	3222
902.973	3214
903.091	3017
903.21	3070
903.328	3150
903.446	3104
903.565	3119
903.683	3195
903.801	3123
903.919	3233
904.038	3268
904.156	3157
904.274	3298
904.392	3268
904.51	3287
904.627	3298
904.745	3424
904.863	3507
904.981	3230
905.098	3188
905.216	3230
905.334	3268
905.451	3306
905.569	3317
905.686	3416
905.803	3431
905.921	3268
906.038	3428
906.155	3367
906.272	3222
906.389	3359
906.506	3207
906.623	3283
906.74	3264
906.857	3184
906.974	3241
907.091	3401
907.208	3542
907.324	3481
907.441	3378
907.557	3207
907.674	3222
907.79	3233
907.907	3279
908.023	3363
908.139	3363
908.256	3317
908.372	3363
908.488	3344
908.604	3260
908.72	3233
908.836	3287
908.952	3260
909.068	3287
909.184	3485
909.3	3405
909.415	3492
909.531	3458
909.647	3249
909.762	3291
909.878	3230
909.993	3382
910.108	3298
910.224	3351
910.339	3416
910.454	3378
910.57	3325
910.685	3237
910.8	3523
910.915	3542
911.03	3389
911.145	3241
911.259	3249
911.374	3317
911.489	3264
911.604	3226
911.718	3138
911.833	3154
911.947	3017
912.062	2979
912.176	3180
912.291	3211
912.405	3214
912.519	3428
912.633	3466
912.748	3359
912.862	3275
912.976	3207
913.09	3055
913.204	3131
913.318	3222
913.431	3348
913.545	3332
913.659	3416
913.772	3313
913.886	3199
914	3218
914.113	3351
914.226	3351
914.34	3386
914.453	3218
914.566	3386
914.68	3275
914.793	3317
914.906	3116
915.019	3085
915.132	3058
915.245	3146
915.358	3192
915.47	3241
915.583	3268
915.696	3310
915.809	3389
915.921	3412
916.034	3264
916.146	3291
916.259	3199
916.371	3374
916.483	3405
916.595	3272
916.708	3329
916.82	3329
916.932	3351
917.044	3363
917.156	3336
917.268	3226
917.38	3245
917.491	3279
917.603	3329
917.715	3477
917.826	3458
917.938	3386
918.049	3302
918.161	3454
918.272	3591
918.384	3572
918.495	3439
918.606	3370
918.717	3256
918.828	3306
918.939	3386
919.05	3310
919.161	3355
919.272	3195
919.383	3268
919.494	3511
919.604	3713
919.715	3466
919.826	3397
919.936	3424
920.047	3538
920.157	3584
920.267	3724
920.378	3610
920.488	3564
920.598	3759
920.708	3987
920.818	3827
920.928	3827
921.038	3998
921.148	4010
921.258	3682
921.368	3610
921.477	3557
921.587	3530
921.697	3477
921.806	3652
921.916	3515
922.025	3336
922.134	3370
922.244	3351
922.353	3450
922.462	3287
922.571	3233
922.68	3108
922.789	3112
922.898	3150
923.007	3104
923.116	3192
923.224	3199
923.333	3203
923.442	3070
923.55	3097
923.659	3131
923.767	3222
923.876	3100
923.984	3268
924.092	3089
924.201	3169
924.309	3218
924.417	3237
924.525	3214
924.633	3192
924.741	4032
924.849	3020
924.956	3264
925.064	3066
925.172	3024
925.279	3131
925.387	3169
925.494	3195
925.602	3382
925.709	3321
925.816	3173
925.924	3275
926.031	3424
926.138	3306
926.245	3340
926.352	3260
926.459	3363
926.566	3435
926.673	3351
926.779	3245
926.886	3226
926.993	3154
927.099	3127
927.206	3112
927.312	3135
927.419	3230
927.525	3169
927.631	3291
927.737	3138
927.843	3112
927.95	3001
928.056	3150
928.162	3138
928.267	3207
928.373	3861
928.479	3325
928.585	3047
928.69	3207
928.796	3264
928.901	3176
929.007	3062
929.112	3165
929.218	3161
929.323	3093
929.428	3135
929.533	3310
929.638	3131
929.743	3157
929.848	3249
929.953	3214
930.058	3157
930.163	2986
930.267	3017
930.372	3176
930.477	3028
930.581	3313
930.685	3180
930.79	3039
930.894	3119
930.998	3112
931.103	3302
931.207	2922
931.311	2895
931.415	2906
931.519	2788
931.623	2804
