Data from test_V78500241_163.txt Node
Date: Fri Mar 25 16:16:20 CST 2022
User: usil
Spectrometer: V785-0024
Trigger mode: 0
Integration Time (sec): 4.000000E-1
Scans to average: 1
Nonlinearity correction enabled: false
Boxcar width: 0
Storing dark spectrum: false
XAxis mode: Wavelengths
Number of Pixels in Spectrum: 1024
>>>>>Begin Spectral Data<<<<<
801.071	2960
801.214	2956
801.356	2922
801.499	2956
801.641	2933
801.783	2963
801.926	3093
802.068	3001
802.211	3028
802.353	3036
802.496	3005
802.638	3009
802.78	3093
802.923	3119
803.065	3043
803.208	2922
803.35	2944
803.492	2963
803.635	2910
803.777	2792
803.919	2902
804.061	3169
804.204	2990
804.346	2933
804.488	2838
804.63	3005
804.773	2895
804.915	2952
805.057	3131
805.199	2956
805.341	3001
805.483	3055
805.626	3017
805.768	2975
805.91	3097
806.052	3161
806.194	3039
806.336	3268
806.478	3036
806.62	2952
806.762	3005
806.904	3074
807.046	3180
807.188	3009
807.33	2941
807.472	3017
807.614	2948
807.756	3020
807.898	2944
808.04	2914
808.182	2990
808.324	3005
808.465	2895
808.607	2887
808.749	2861
808.891	2830
809.033	2979
809.174	3020
809.316	2933
809.458	2941
809.6	2788
809.741	2788
809.883	2769
810.025	2883
810.166	2868
810.308	2830
810.45	2887
810.591	2830
810.733	2804
810.875	2864
811.016	2796
811.158	2792
811.299	2849
811.441	2944
811.582	2933
811.724	2845
811.865	2845
812.007	2929
812.148	2944
812.29	2838
812.431	2906
812.573	2971
812.714	3017
812.855	3089
812.997	3085
813.138	3150
813.279	2990
813.421	2986
813.562	2944
813.703	2872
813.845	2910
813.986	2785
814.127	2754
814.268	2864
814.41	2864
814.551	2804
814.692	2845
814.833	2853
814.974	2914
815.115	2967
815.256	2880
815.397	2883
815.539	2899
815.68	2823
815.821	2800
815.962	2933
816.103	2922
816.244	2944
816.385	2880
816.526	2986
816.666	2933
816.807	2769
816.948	2902
817.089	2933
817.23	2899
817.371	2773
817.512	2838
817.653	2842
817.793	2883
817.934	2910
818.075	3024
818.216	3039
818.356	3074
818.497	2918
818.638	2815
818.778	2861
818.919	2823
819.06	2788
819.2	2910
819.341	2815
819.481	2849
819.622	2944
819.762	3142
819.903	3055
820.043	2963
820.184	2941
820.324	2937
820.465	3032
820.605	3013
820.746	3051
820.886	2963
821.026	3123
821.167	3173
821.307	3294
821.447	3283
821.588	3268
821.728	3218
821.868	3233
822.008	3074
822.149	3207
822.289	3264
822.429	3116
822.569	3104
822.709	3173
822.849	3055
822.99	3108
823.13	3218
823.27	3207
823.41	3116
823.55	3165
823.69	3173
823.83	3207
823.97	3138
824.11	2994
824.25	2994
824.389	3085
824.529	3157
824.669	3089
824.809	3230
824.949	3272
825.089	3264
825.228	3195
825.368	3036
825.508	2948
825.648	2979
825.787	3036
825.927	3051
826.067	2963
826.206	2979
826.346	3058
826.485	3089
826.625	3097
826.765	3310
826.904	3218
827.044	2998
827.183	2944
827.323	2914
827.462	3017
827.601	2929
827.741	2944
827.88	3013
828.02	2861
828.159	2960
828.298	3043
828.437	3097
828.577	3043
828.716	3245
828.855	3089
828.994	2956
829.134	2910
829.273	2933
829.412	2918
829.551	2906
829.69	2906
829.829	3020
829.968	3150
830.107	3051
830.246	3062
830.385	2910
830.524	2872
830.663	2864
830.802	2766
830.941	2644
831.08	2667
831.219	2788
831.357	2754
831.496	2998
831.635	2739
831.774	2659
831.913	2670
832.051	2545
832.19	2583
832.329	2731
832.467	2556
832.606	2495
832.744	2602
832.883	2545
833.022	2606
833.16	2659
833.299	2712
833.437	2689
833.576	2697
833.714	2727
833.852	2739
833.991	2796
834.129	2857
834.267	2830
834.406	2815
834.544	2864
834.682	2880
834.821	2842
834.959	3097
835.097	2895
835.235	3036
835.373	2986
835.511	3001
835.65	2960
835.788	2967
835.926	2857
836.064	2849
836.202	2845
836.34	3116
836.478	3138
836.615	3077
836.753	3131
836.891	3230
837.029	3173
837.167	3112
837.305	3043
837.443	3066
837.58	2982
837.718	3138
837.856	3097
837.993	3051
838.131	3119
838.269	3112
838.406	3077
838.544	3116
838.681	2971
838.819	2971
838.956	2834
839.094	2845
839.231	2933
839.369	3036
839.506	3401
839.643	3245
839.781	3028
839.918	2960
840.055	3093
840.193	3062
840.33	3070
840.467	3119
840.604	3146
840.742	3443
840.879	3104
841.016	3093
841.153	3138
841.29	3340
841.427	3348
841.564	3260
841.701	3321
841.838	3237
841.975	3154
842.112	3249
842.249	3100
842.385	3047
842.522	3279
842.659	3085
842.796	3066
842.933	3146
843.069	3024
843.206	3039
843.343	3184
843.479	3100
843.616	3188
843.752	2895
843.889	2899
844.025	3077
844.162	2887
844.298	3089
844.435	2986
844.571	2944
844.708	3047
844.844	3211
844.98	3275
845.117	3195
845.253	3055
845.389	3032
845.525	3119
845.661	3127
845.798	3036
845.934	3097
846.07	3085
846.206	3245
846.342	3325
846.478	3264
846.614	3085
846.75	3055
846.886	3039
847.022	3256
847.158	3150
847.294	3222
847.429	3233
847.565	3218
847.701	3488
847.837	3017
847.972	3013
848.108	3199
848.244	3161
848.379	2971
848.515	2956
848.65	2948
848.786	2979
848.921	2998
849.057	3127
849.192	3146
849.328	3024
849.463	3150
849.598	3070
849.734	3062
849.869	2994
850.004	2952
850.14	2990
850.275	2925
850.41	2834
850.545	2895
850.68	2960
850.815	2971
850.95	2998
851.085	3226
851.22	3097
851.355	3032
851.49	2982
851.625	3005
851.76	3005
851.895	2960
852.03	2929
852.165	3024
852.299	3138
852.434	3203
852.569	3157
852.703	3211
852.838	3313
852.973	3359
853.107	3340
853.242	3150
853.376	3112
853.511	2937
853.645	3062
853.78	3264
853.914	3116
854.048	3123
854.183	3100
854.317	3119
854.451	3306
854.585	3176
854.72	3089
854.854	3226
854.988	3081
855.122	3123
855.256	2986
855.39	3116
855.524	3264
855.658	3165
855.792	3173
855.926	3176
856.06	3233
856.194	3272
856.327	3176
856.461	3081
856.595	3081
856.729	3077
856.862	3260
856.996	3169
857.13	3218
857.263	3233
857.397	3306
857.53	3146
857.664	3188
857.797	3222
857.931	3253
858.064	3176
858.197	3230
858.331	3135
858.464	3055
858.597	3017
858.731	3116
858.864	3142
858.997	3070
859.13	3188
859.263	3150
859.396	3241
859.529	3112
859.662	3089
859.795	3089
859.928	3195
860.061	3249
860.194	3291
860.327	3135
860.46	3104
860.592	3294
860.725	3264
860.858	3256
860.99	3104
861.123	3066
861.256	3093
861.388	3138
861.521	3713
861.653	3039
861.786	2975
861.918	3036
862.05	3055
862.183	3119
862.315	3127
862.447	3214
862.58	3089
862.712	2952
862.844	2922
862.976	3036
863.108	3043
863.24	3332
863.372	2899
863.504	3032
863.636	2967
863.768	3009
863.9	2998
864.032	2937
864.164	2982
864.296	3024
864.428	3108
864.559	3119
864.691	3093
864.823	3097
864.954	3051
865.086	3032
865.217	2990
865.349	2967
865.48	3009
865.612	3032
865.743	3142
865.875	2994
866.006	2990
866.137	2979
866.269	2944
866.4	2933
866.531	2941
866.662	2887
866.793	2933
866.924	2929
867.055	2967
867.186	2918
867.317	2910
867.448	2861
867.579	2853
867.71	2883
867.841	2845
867.972	2922
868.103	2906
868.233	2864
868.364	2891
868.495	2922
868.625	3112
868.756	3161
868.886	3013
869.017	3009
869.147	3173
869.278	3192
869.408	3070
869.539	2998
869.669	3116
869.799	3119
869.929	3165
870.06	3108
870.19	3348
870.32	3294
870.45	3325
870.58	3351
870.71	3458
870.84	3481
870.97	3329
871.1	3253
871.23	3507
871.36	3458
871.489	3325
871.619	3443
871.749	3424
871.879	3424
872.008	3496
872.138	3332
872.267	3283
872.397	3161
872.526	3116
872.656	3020
872.785	3089
872.915	3249
873.044	3363
873.173	3253
873.303	3260
873.432	3253
873.561	3253
873.69	3157
873.819	3165
873.948	3203
874.077	3116
874.206	3032
874.335	3100
874.464	3222
874.593	3363
874.722	3241
874.851	3420
874.979	3355
875.108	3313
875.237	3260
875.365	3165
875.494	3169
875.623	3264
875.751	3058
875.88	3119
876.008	3192
876.136	3222
876.265	3370
876.393	3469
876.521	3447
876.65	3424
876.778	3344
876.906	3272
877.034	3214
877.162	3241
877.29	3199
877.418	3268
877.546	3245
877.674	3272
877.802	3260
877.93	3256
878.058	3142
878.185	3116
878.313	3214
878.441	3211
878.568	3093
878.696	3207
878.824	3233
878.951	3367
879.079	3454
879.206	3614
879.333	3466
879.461	3359
879.588	3374
879.715	3481
879.842	3656
879.97	3386
880.097	3157
880.224	3131
880.351	3176
880.478	3230
880.605	3214
880.732	3207
880.859	3523
880.986	3344
881.112	3302
881.239	3207
881.366	3112
881.493	3039
881.619	3001
881.746	3093
881.872	3123
881.999	3100
882.125	3173
882.252	3222
882.378	3302
882.505	3428
882.631	3298
882.757	3157
882.883	3195
883.01	3241
883.136	3138
883.262	3089
883.388	3142
883.514	3298
883.64	3389
883.766	3325
883.892	3188
884.018	3237
884.143	3412
884.269	3564
884.395	3222
884.52	3192
884.646	3199
884.772	3138
884.897	3108
885.023	3233
885.148	3344
885.274	3431
885.399	3416
885.524	3291
885.65	3294
885.775	3344
885.9	3310
886.025	3439
886.15	3397
886.275	3306
886.4	3245
886.525	3313
886.65	3302
886.775	3306
886.9	3519
887.025	3679
887.149	3428
887.274	3214
887.399	3176
887.523	3237
887.648	3176
887.773	3188
887.897	3355
888.021	3416
888.146	3302
888.27	3416
888.395	3538
888.519	3481
888.643	3439
888.767	3469
888.891	3313
889.015	3260
889.139	3336
889.263	3249
889.387	3393
889.511	3538
889.635	3462
889.759	3321
889.883	3291
890.006	3386
890.13	3439
890.254	3321
890.377	3302
890.501	3180
890.624	3192
890.748	3332
890.871	3214
890.995	3127
891.118	3047
891.241	3237
891.364	3222
891.488	3340
891.611	3218
891.734	3203
891.857	3306
891.98	3260
892.103	3329
892.226	3264
892.349	3218
892.471	3077
892.594	3245
892.717	3256
892.839	3237
892.962	3291
893.085	3374
893.207	3351
893.33	3138
893.452	3211
893.575	3344
893.697	3241
893.819	3485
893.941	3477
894.064	3450
894.186	3291
894.308	3283
894.43	3450
894.552	3530
894.674	3515
894.796	3283
894.918	3306
895.04	3325
895.161	3454
895.283	3405
895.405	3272
895.526	3405
895.648	3428
895.769	3458
895.891	3466
896.012	3485
896.134	3469
896.255	3416
896.376	3409
896.498	3393
896.619	3405
896.74	3367
896.861	3397
896.982	3660
897.103	3865
897.224	3652
897.345	3580
897.466	3473
897.587	3504
897.708	3629
897.828	3572
897.949	3454
898.07	3317
898.19	3405
898.311	3641
898.431	3466
898.552	3511
898.672	3614
898.792	3553
898.913	3504
899.033	3435
899.153	3249
899.273	3275
899.393	3275
899.513	3344
899.633	3374
899.753	3355
899.873	3321
899.993	3386
900.113	3363
900.232	3420
900.352	3389
900.472	3287
900.591	3180
900.711	3302
900.83	3195
900.95	3466
901.069	3492
901.189	3378
901.308	3169
901.427	3169
901.546	3207
901.665	3336
901.784	3348
901.904	3207
902.023	3150
902.141	3039
902.26	3013
902.379	3138
902.498	3062
902.617	3051
902.735	3192
902.854	3253
902.973	3211
903.091	3058
903.21	3116
903.328	3150
903.446	3131
903.565	3100
903.683	3214
903.801	3119
903.919	3245
904.038	3287
904.156	3188
904.274	3310
904.392	3237
904.51	3310
904.627	3325
904.745	3447
904.863	3492
904.981	3291
905.098	3180
905.216	3207
905.334	3310
905.451	3332
905.569	3344
905.686	3447
905.803	3454
905.921	3302
906.038	3469
906.155	3386
906.272	3310
906.389	3332
906.506	3264
906.623	3264
906.74	3256
906.857	3207
906.974	3253
907.091	3428
907.208	3584
907.324	3515
907.441	3393
907.557	3237
907.674	3245
907.79	3218
907.907	3291
908.023	3378
908.139	3367
908.256	3329
908.372	3416
908.488	3367
908.604	3264
908.72	3245
908.836	3291
908.952	3306
909.068	3321
909.184	3511
909.3	3393
909.415	3523
909.531	3496
909.647	3268
909.762	3325
909.878	3268
909.993	3382
910.108	3317
910.224	3321
910.339	3428
910.454	3359
910.57	3233
910.685	3256
910.8	3553
910.915	3523
911.03	3458
911.145	3275
911.259	3306
911.374	3283
911.489	3237
911.604	3211
911.718	3150
911.833	3192
911.947	3032
912.062	2971
912.176	3165
912.291	3195
912.405	3169
912.519	3469
912.633	3504
912.748	3340
912.862	3298
912.976	3218
913.09	3077
913.204	3138
913.318	3211
913.431	3344
913.545	3389
913.659	3409
913.772	3363
913.886	3222
914	3249
914.113	3359
914.226	3405
914.34	3382
914.453	3211
914.566	3447
914.68	3317
914.793	3359
914.906	3142
915.019	3108
915.132	3062
915.245	3180
915.358	3222
915.47	3233
915.583	3272
915.696	3306
915.809	3454
915.921	3428
916.034	3211
916.146	3306
916.259	3268
916.371	3409
916.483	3389
916.595	3310
916.708	3370
916.82	3359
916.932	3348
917.044	3412
917.156	3409
917.268	3302
917.38	3359
917.491	3332
917.603	3416
917.715	3477
917.826	3496
917.938	3462
918.049	3306
918.161	3466
918.272	3606
918.384	3629
918.495	3519
918.606	3382
918.717	3306
918.828	3431
918.939	3500
919.05	3340
919.161	3397
919.272	3237
919.383	3374
919.494	3542
919.604	3720
919.715	3564
919.826	3428
919.936	3549
920.047	3641
920.157	3610
920.267	3846
920.378	3656
920.488	3629
920.598	3827
920.708	4010
920.818	3884
920.928	3880
921.038	4120
921.148	4063
921.258	3774
921.368	3682
921.477	3610
921.587	3606
921.697	3549
921.806	3713
921.916	3561
922.025	3412
922.134	3412
922.244	3393
922.353	3519
922.462	3340
922.571	3313
922.68	3135
922.789	3150
922.898	3195
923.007	3154
923.116	3287
923.224	3245
923.333	3256
923.442	3169
923.55	3165
923.659	3226
923.767	3268
923.876	3173
923.984	3348
924.092	3161
924.201	3275
924.309	3260
924.417	3332
924.525	3192
924.633	3275
924.741	4238
924.849	3093
924.956	3310
925.064	3138
925.172	3062
925.279	3150
925.387	3272
925.494	3275
925.602	3378
925.709	3378
925.816	3253
925.924	3317
926.031	3409
926.138	3386
926.245	3382
926.352	3283
926.459	3439
926.566	3511
926.673	3363
926.779	3340
926.886	3351
926.993	3218
927.099	3184
927.206	3195
927.312	3161
927.419	3306
927.525	3245
927.631	3348
927.737	3214
927.843	3195
927.95	3070
928.056	3214
928.162	3241
928.267	3279
928.373	3941
928.479	3336
928.585	3108
928.69	3253
928.796	3283
928.901	3195
929.007	3112
929.112	3249
929.218	3260
929.323	3226
929.428	3203
929.533	3370
929.638	3165
929.743	3192
929.848	3348
929.953	3268
930.058	3199
930.163	3055
930.267	3070
930.372	3249
930.477	3097
930.581	3374
930.685	3226
930.79	3116
930.894	3192
930.998	3138
931.103	3340
931.207	2998
931.311	2986
931.415	2963
931.519	2807
931.623	2857
