Data from test_V78500241_2036.txt Node
Date: Fri Mar 25 16:29:18 CST 2022
User: usil
Spectrometer: V785-0024
Trigger mode: 0
Integration Time (sec): 4.000000E-1
Scans to average: 1
Nonlinearity correction enabled: false
Boxcar width: 0
Storing dark spectrum: false
XAxis mode: Wavelengths
Number of Pixels in Spectrum: 1024
>>>>>Begin Spectral Data<<<<<
801.071	2910
801.214	2918
801.356	2830
801.499	2891
801.641	2891
801.783	2922
801.926	3028
802.068	2986
802.211	3005
802.353	3020
802.496	2971
802.638	3020
802.78	3032
802.923	3081
803.065	2986
803.208	2861
803.35	2895
803.492	2944
803.635	2929
803.777	2769
803.919	2826
804.061	3195
804.204	2963
804.346	2883
804.488	2788
804.63	3005
804.773	2864
804.915	2914
805.057	3081
805.199	2933
805.341	2944
805.483	3058
805.626	2998
805.768	2982
805.91	3093
806.052	3089
806.194	3051
806.336	3203
806.478	2979
806.62	2918
806.762	2971
806.904	3055
807.046	3165
807.188	2960
807.33	2922
807.472	3013
807.614	2906
807.756	2986
807.898	2956
808.04	2880
808.182	2979
808.324	2960
808.465	2910
808.607	2868
808.749	2788
808.891	2853
809.033	2979
809.174	2952
809.316	2872
809.458	2861
809.6	2769
809.741	2739
809.883	2766
810.025	2853
810.166	2857
810.308	2830
810.45	2845
810.591	2746
810.733	2750
810.875	2838
811.016	2781
811.158	2739
811.299	2804
811.441	2910
811.582	2868
811.724	2849
811.865	2838
812.007	2895
812.148	2857
812.29	2880
812.431	2861
812.573	2941
812.714	2956
812.855	3013
812.997	3028
813.138	3150
813.279	2998
813.421	2971
813.562	2933
813.703	2891
813.845	2902
813.986	2792
814.127	2724
814.268	2796
814.41	2830
814.551	2792
814.692	2899
814.833	2830
814.974	2872
815.115	2952
815.256	2830
815.397	2811
815.539	2842
815.68	2781
815.821	2781
815.962	2922
816.103	2902
816.244	2883
816.385	2864
816.526	2956
816.666	2910
816.807	2773
816.948	2902
817.089	2880
817.23	2864
817.371	2777
817.512	2739
817.653	2823
817.793	2792
817.934	2906
818.075	2948
818.216	3001
818.356	3017
818.497	2895
818.638	2804
818.778	2826
818.919	2800
819.06	2731
819.2	2872
819.341	2800
819.481	2792
819.622	2933
819.762	3112
819.903	3055
820.043	2887
820.184	2853
820.324	2914
820.465	2994
820.605	3013
820.746	3028
820.886	2944
821.026	3085
821.167	3142
821.307	3253
821.447	3317
821.588	3180
821.728	3192
821.868	3230
822.008	3066
822.149	3173
822.289	3207
822.429	3081
822.569	3081
822.709	3154
822.849	3001
822.99	3051
823.13	3169
823.27	3188
823.41	3089
823.55	3142
823.69	3131
823.83	3169
823.97	3085
824.11	2998
824.25	3024
824.389	3089
824.529	3100
824.669	3081
824.809	3176
824.949	3253
825.089	3253
825.228	3135
825.368	3005
825.508	2967
825.648	2963
825.787	3013
825.927	3005
826.067	2990
826.206	2960
826.346	2990
826.485	3089
826.625	3093
826.765	3279
826.904	3279
827.044	2994
827.183	2929
827.323	2845
827.462	2975
827.601	2895
827.741	2941
827.88	2967
828.02	2861
828.159	2952
828.298	3043
828.437	3074
828.577	3028
828.716	3249
828.855	3104
828.994	2906
829.134	2880
829.273	2918
829.412	2895
829.551	2857
829.69	2880
829.829	3009
829.968	3108
830.107	2994
830.246	3005
830.385	2963
830.524	2853
830.663	2842
830.802	2712
830.941	2621
831.08	2648
831.219	2746
831.357	2773
831.496	2944
831.635	2708
831.774	2655
831.913	2659
832.051	2560
832.19	2575
832.329	2705
832.467	2530
832.606	2465
832.744	2587
832.883	2571
833.022	2556
833.16	2648
833.299	2708
833.437	2697
833.576	2674
833.714	2720
833.852	2762
833.991	2762
834.129	2815
834.267	2811
834.406	2807
834.544	2883
834.682	2887
834.821	2868
834.959	3028
835.097	2857
835.235	3074
835.373	2948
835.511	3017
835.65	2956
835.788	2944
835.926	2826
836.064	2792
836.202	2800
836.34	3089
836.478	3154
836.615	3062
836.753	3116
836.891	3192
837.029	3131
837.167	3085
837.305	3020
837.443	3058
837.58	2982
837.718	3085
837.856	3043
837.993	3013
838.131	3074
838.269	3112
838.406	3062
838.544	3051
838.681	2944
838.819	2906
838.956	2811
839.094	2826
839.231	2933
839.369	3013
839.506	3374
839.643	3218
839.781	3013
839.918	2982
840.055	3047
840.193	3020
840.33	3062
840.467	3070
840.604	3123
840.742	3405
840.879	3058
841.016	3036
841.153	3135
841.29	3302
841.427	3275
841.564	3264
841.701	3313
841.838	3192
841.975	3150
842.112	3214
842.249	3066
842.385	3001
842.522	3211
842.659	3108
842.796	3058
842.933	3097
843.069	3043
843.206	3024
843.343	3245
843.479	3108
843.616	3123
843.752	2861
843.889	2838
844.025	3074
844.162	2906
844.298	3066
844.435	2963
844.571	2929
844.708	3089
844.844	3176
844.98	3249
845.117	3195
845.253	3039
845.389	2998
845.525	3108
845.661	3062
845.798	3009
845.934	3123
846.07	3039
846.206	3226
846.342	3310
846.478	3211
846.614	3081
846.75	3051
846.886	3032
847.022	3237
847.158	3131
847.294	3161
847.429	3192
847.565	3150
847.701	3428
847.837	3043
847.972	3009
848.108	3146
848.244	3108
848.379	2979
848.515	2967
848.65	2925
848.786	2937
848.921	3013
849.057	3108
849.192	3093
849.328	3085
849.463	3116
849.598	3062
849.734	2990
849.869	2971
850.004	2891
850.14	2933
850.275	2918
850.41	2842
850.545	2914
850.68	2922
850.815	2933
850.95	2944
851.085	3211
851.22	3070
851.355	3036
851.49	2956
851.625	3005
851.76	2982
851.895	2914
852.03	2910
852.165	3001
852.299	3081
852.434	3165
852.569	3135
852.703	3138
852.838	3222
852.973	3313
853.107	3298
853.242	3169
853.376	3077
853.511	2998
853.645	3047
853.78	3207
853.914	3131
854.048	3077
854.183	3055
854.317	3138
854.451	3317
854.585	3097
854.72	3062
854.854	3199
854.988	2994
855.122	3135
855.256	2986
855.39	3100
855.524	3275
855.658	3214
855.792	3146
855.926	3192
856.06	3222
856.194	3241
856.327	3127
856.461	3032
856.595	3085
856.729	3089
856.862	3207
856.996	3127
857.13	3157
857.263	3195
857.397	3268
857.53	3157
857.664	3161
857.797	3256
857.931	3268
858.064	3176
858.197	3214
858.331	3108
858.464	3093
858.597	3001
858.731	3100
858.864	3165
858.997	3036
859.13	3150
859.263	3161
859.396	3169
859.529	3081
859.662	3062
859.795	3024
859.928	3123
860.061	3230
860.194	3264
860.327	3142
860.46	3077
860.592	3230
860.725	3256
860.858	3245
860.99	3085
861.123	3077
861.256	3058
861.388	3089
861.521	3831
861.653	3017
861.786	2967
861.918	2998
862.05	3051
862.183	3074
862.315	3157
862.447	3192
862.58	3077
862.712	2929
862.844	2853
862.976	3009
863.108	3024
863.24	3298
863.372	2842
863.504	2944
863.636	2876
863.768	3017
863.9	2952
864.032	2895
864.164	2937
864.296	3020
864.428	3081
864.559	3085
864.691	3070
864.823	3051
864.954	3032
865.086	3039
865.217	2982
865.349	2937
865.48	2944
865.612	3013
865.743	3146
865.875	2990
866.006	2956
866.137	2967
866.269	2899
866.4	2925
866.531	2899
866.662	2880
866.793	2876
866.924	2895
867.055	2986
867.186	2952
867.317	2880
867.448	2830
867.579	2845
867.71	2807
867.841	2800
867.972	2902
868.103	2899
868.233	2872
868.364	2861
868.495	2933
868.625	3085
868.756	3131
868.886	2979
869.017	3017
869.147	3154
869.278	3131
869.408	3039
869.539	3039
869.669	3093
869.799	3020
869.929	3131
870.06	3093
870.19	3298
870.32	3275
870.45	3272
870.58	3344
870.71	3443
870.84	3431
870.97	3279
871.1	3230
871.23	3466
871.36	3431
871.489	3367
871.619	3409
871.749	3424
871.879	3450
872.008	3439
872.138	3363
872.267	3283
872.397	3131
872.526	3074
872.656	2994
872.785	3097
872.915	3249
873.044	3298
873.173	3176
873.303	3233
873.432	3203
873.561	3260
873.69	3150
873.819	3123
873.948	3192
874.077	3070
874.206	3039
874.335	3066
874.464	3211
874.593	3321
874.722	3253
874.851	3389
874.979	3340
875.108	3348
875.237	3173
875.365	3173
875.494	3146
875.623	3241
875.751	3074
875.88	3097
876.008	3173
876.136	3203
876.265	3340
876.393	3488
876.521	3389
876.65	3416
876.778	3294
876.906	3226
877.034	3195
877.162	3226
877.29	3169
877.418	3233
877.546	3241
877.674	3256
877.802	3249
877.93	3161
878.058	3119
878.185	3093
878.313	3180
878.441	3226
878.568	3058
878.696	3165
878.824	3268
878.951	3298
879.079	3439
879.206	3614
879.333	3386
879.461	3302
879.588	3367
879.715	3473
879.842	3545
879.97	3370
880.097	3157
880.224	3100
880.351	3184
880.478	3241
880.605	3169
880.732	3173
880.859	3477
880.986	3298
881.112	3298
881.239	3218
881.366	3116
881.493	3020
881.619	2986
881.746	3093
881.872	3070
881.999	3131
882.125	3112
882.252	3214
882.378	3279
882.505	3409
882.631	3249
882.757	3150
882.883	3230
883.01	3207
883.136	3131
883.262	3089
883.388	3119
883.514	3332
883.64	3370
883.766	3294
883.892	3169
884.018	3226
884.143	3428
884.269	3515
884.395	3222
884.52	3203
884.646	3199
884.772	3100
884.897	3123
885.023	3218
885.148	3317
885.274	3412
885.399	3336
885.524	3268
885.65	3245
885.775	3317
885.9	3272
886.025	3454
886.15	3363
886.275	3268
886.4	3233
886.525	3275
886.65	3241
886.775	3287
886.9	3523
887.025	3606
887.149	3424
887.274	3253
887.399	3165
887.523	3199
887.648	3169
887.773	3165
887.897	3355
888.021	3355
888.146	3291
888.27	3416
888.395	3477
888.519	3420
888.643	3424
888.767	3469
888.891	3302
889.015	3249
889.139	3287
889.263	3180
889.387	3386
889.511	3485
889.635	3466
889.759	3260
889.883	3256
890.006	3359
890.13	3485
890.254	3268
890.377	3378
890.501	3199
890.624	3184
890.748	3310
890.871	3207
890.995	3119
891.118	3036
891.241	3176
891.364	3214
891.488	3283
891.611	3192
891.734	3214
891.857	3226
891.98	3214
892.103	3317
892.226	3298
892.349	3230
892.471	3123
892.594	3237
892.717	3275
892.839	3241
892.962	3294
893.085	3386
893.207	3302
893.33	3123
893.452	3218
893.575	3317
893.697	3214
893.819	3485
893.941	3492
894.064	3405
894.186	3214
894.308	3275
894.43	3397
894.552	3507
894.674	3466
894.796	3291
894.918	3283
895.04	3313
895.161	3431
895.283	3374
895.405	3279
895.526	3348
895.648	3382
895.769	3370
895.891	3447
896.012	3443
896.134	3454
896.255	3420
896.376	3386
896.498	3367
896.619	3401
896.74	3405
896.861	3428
896.982	3671
897.103	3846
897.224	3606
897.345	3450
897.466	3409
897.587	3507
897.708	3606
897.828	3557
897.949	3439
898.07	3351
898.19	3420
898.311	3587
898.431	3428
898.552	3485
898.672	3584
898.792	3564
898.913	3492
899.033	3439
899.153	3317
899.273	3237
899.393	3302
899.513	3317
899.633	3298
899.753	3321
899.873	3294
899.993	3355
900.113	3317
900.232	3367
900.352	3336
900.472	3249
900.591	3237
900.711	3283
900.83	3226
900.95	3416
901.069	3473
901.189	3336
901.308	3142
901.427	3154
901.546	3161
901.665	3317
901.784	3325
901.904	3256
902.023	3165
902.141	3051
902.26	2982
902.379	3127
902.498	3074
902.617	3039
902.735	3218
902.854	3256
902.973	3211
903.091	3036
903.21	3074
903.328	3150
903.446	3104
903.565	3093
903.683	3195
903.801	3123
903.919	3268
904.038	3249
904.156	3150
904.274	3329
904.392	3245
904.51	3268
904.627	3313
904.745	3412
904.863	3439
904.981	3245
905.098	3142
905.216	3230
905.334	3302
905.451	3306
905.569	3283
905.686	3416
905.803	3412
905.921	3264
906.038	3450
906.155	3348
906.272	3310
906.389	3329
906.506	3211
906.623	3245
906.74	3283
906.857	3207
906.974	3233
907.091	3450
907.208	3561
907.324	3469
907.441	3374
907.557	3222
907.674	3180
907.79	3214
907.907	3272
908.023	3386
908.139	3363
908.256	3332
908.372	3348
908.488	3310
908.604	3260
908.72	3233
908.836	3325
908.952	3325
909.068	3340
909.184	3477
909.3	3389
909.415	3481
909.531	3447
909.647	3329
909.762	3272
909.878	3291
909.993	3351
910.108	3348
910.224	3340
910.339	3378
910.454	3336
910.57	3298
910.685	3222
910.8	3610
910.915	3511
911.03	3416
911.145	3283
911.259	3256
911.374	3321
911.489	3249
911.604	3249
911.718	3142
911.833	3127
911.947	3009
912.062	2986
912.176	3184
912.291	3226
912.405	3207
912.519	3443
912.633	3504
912.748	3306
912.862	3291
912.976	3138
913.09	3081
913.204	3146
913.318	3180
913.431	3329
913.545	3332
913.659	3378
913.772	3336
913.886	3199
914	3192
914.113	3386
914.226	3401
914.34	3367
914.453	3214
914.566	3401
914.68	3336
914.793	3291
914.906	3184
915.019	3097
915.132	3039
915.245	3135
915.358	3184
915.47	3184
915.583	3214
915.696	3279
915.809	3382
915.921	3397
916.034	3283
916.146	3230
916.259	3207
916.371	3367
916.483	3355
916.595	3249
916.708	3306
916.82	3344
916.932	3291
917.044	3344
917.156	3351
917.268	3279
917.38	3279
917.491	3287
917.603	3405
917.715	3473
917.826	3466
917.938	3386
918.049	3275
918.161	3458
918.272	3603
918.384	3526
918.495	3519
918.606	3344
918.717	3249
918.828	3370
918.939	3420
919.05	3268
919.161	3363
919.272	3169
919.383	3291
919.494	3481
919.604	3663
919.715	3462
919.826	3386
919.936	3469
920.047	3576
920.157	3545
920.267	3755
920.378	3610
920.488	3595
920.598	3762
920.708	3968
920.818	3785
920.928	3823
921.038	4002
921.148	3983
921.258	3694
921.368	3576
921.477	3610
921.587	3542
921.697	3450
921.806	3633
921.916	3530
922.025	3367
922.134	3340
922.244	3325
922.353	3409
922.462	3291
922.571	3195
922.68	3077
922.789	3051
922.898	3135
923.007	3123
923.116	3157
923.224	3169
923.333	3211
923.442	3108
923.55	3093
923.659	3138
923.767	3218
923.876	3116
923.984	3230
924.092	3085
924.201	3192
924.309	3195
924.417	3268
924.525	3192
924.633	3176
924.741	4116
924.849	3032
924.956	3233
925.064	3093
925.172	2994
925.279	3077
925.387	3207
925.494	3180
925.602	3313
925.709	3321
925.816	3165
925.924	3233
926.031	3389
926.138	3336
926.245	3344
926.352	3195
926.459	3416
926.566	3431
926.673	3302
926.779	3253
926.886	3245
926.993	3146
927.099	3131
927.206	3142
927.312	3097
927.419	3180
927.525	3230
927.631	3310
927.737	3169
927.843	3138
927.95	3066
928.056	3089
928.162	3199
928.267	3256
928.373	3884
928.479	3325
928.585	3051
928.69	3222
928.796	3294
928.901	3161
929.007	3013
929.112	3188
929.218	3176
929.323	3138
929.428	3154
929.533	3313
929.638	3089
929.743	3138
929.848	3279
929.953	3176
930.058	3184
930.163	2986
930.267	3062
930.372	3207
930.477	3039
930.581	3287
930.685	3207
930.79	3058
930.894	3097
930.998	3089
931.103	3268
931.207	2914
931.311	2960
931.415	2902
931.519	2762
931.623	2766
