Data from test_V78500241_1731.txt Node
Date: Fri Mar 25 16:27:11 CST 2022
User: usil
Spectrometer: V785-0024
Trigger mode: 0
Integration Time (sec): 4.000000E-1
Scans to average: 1
Nonlinearity correction enabled: false
Boxcar width: 0
Storing dark spectrum: false
XAxis mode: Wavelengths
Number of Pixels in Spectrum: 1024
>>>>>Begin Spectral Data<<<<<
801.071	2895
801.214	2948
801.356	2891
801.499	2876
801.641	2861
801.783	2941
801.926	3039
802.068	2971
802.211	2994
802.353	3058
802.496	2990
802.638	2982
802.78	3005
802.923	3070
803.065	2967
803.208	2914
803.35	2899
803.492	2922
803.635	2906
803.777	2762
803.919	2834
804.061	3188
804.204	2929
804.346	2906
804.488	2857
804.63	3024
804.773	2861
804.915	2922
805.057	3093
805.199	2887
805.341	2956
805.483	3039
805.626	2982
805.768	2948
805.91	3074
806.052	3112
806.194	3051
806.336	3245
806.478	3032
806.62	2960
806.762	2937
806.904	3043
807.046	3184
807.188	2948
807.33	2914
807.472	2979
807.614	2891
807.756	2986
807.898	2891
808.04	2872
808.182	2975
808.324	2929
808.465	2872
808.607	2872
808.749	2800
808.891	2842
809.033	2979
809.174	2986
809.316	2880
809.458	2880
809.6	2746
809.741	2781
809.883	2781
810.025	2819
810.166	2830
810.308	2826
810.45	2834
810.591	2804
810.733	2815
810.875	2853
811.016	2800
811.158	2766
811.299	2792
811.441	2952
811.582	2883
811.724	2830
811.865	2845
812.007	2922
812.148	2868
812.29	2823
812.431	2895
812.573	2941
812.714	2941
812.855	3020
812.997	3028
813.138	3119
813.279	2998
813.421	3001
813.562	2937
813.703	2838
813.845	2906
813.986	2754
814.127	2716
814.268	2804
814.41	2826
814.551	2811
814.692	2876
814.833	2868
814.974	2887
815.115	2956
815.256	2792
815.397	2811
815.539	2902
815.68	2769
815.821	2781
815.962	2956
816.103	2910
816.244	2872
816.385	2868
816.526	2960
816.666	2925
816.807	2746
816.948	2864
817.089	2914
817.23	2861
817.371	2800
817.512	2819
817.653	2857
817.793	2811
817.934	2895
818.075	2971
818.216	2986
818.356	3001
818.497	2887
818.638	2781
818.778	2823
818.919	2785
819.06	2750
819.2	2864
819.341	2819
819.481	2785
819.622	2922
819.762	3066
819.903	3036
820.043	2918
820.184	2895
820.324	2880
820.465	3009
820.605	2998
820.746	3024
820.886	2887
821.026	3146
821.167	3127
821.307	3283
821.447	3283
821.588	3214
821.728	3218
821.868	3169
822.008	3047
822.149	3195
822.289	3230
822.429	3123
822.569	3104
822.709	3195
822.849	3013
822.99	3097
823.13	3188
823.27	3176
823.41	3112
823.55	3154
823.69	3123
823.83	3184
823.97	3085
824.11	3001
824.25	2990
824.389	3089
824.529	3112
824.669	3043
824.809	3207
824.949	3275
825.089	3195
825.228	3131
825.368	3028
825.508	2948
825.648	2967
825.787	2998
825.927	3001
826.067	2937
826.206	2948
826.346	3017
826.485	3089
826.625	3089
826.765	3260
826.904	3218
827.044	2960
827.183	2925
827.323	2834
827.462	3001
827.601	2925
827.741	2872
827.88	2963
828.02	2883
828.159	2971
828.298	3020
828.437	3150
828.577	3024
828.716	3233
828.855	3097
828.994	2906
829.134	2887
829.273	2922
829.412	2872
829.551	2853
829.69	2918
829.829	2979
829.968	3127
830.107	3001
830.246	3036
830.385	2906
830.524	2872
830.663	2819
830.802	2716
830.941	2667
831.08	2648
831.219	2708
831.357	2724
831.496	2929
831.635	2701
831.774	2621
831.913	2636
832.051	2530
832.19	2587
832.329	2724
832.467	2533
832.606	2495
832.744	2545
832.883	2590
833.022	2579
833.16	2663
833.299	2682
833.437	2708
833.576	2705
833.714	2689
833.852	2743
833.991	2746
834.129	2834
834.267	2792
834.406	2766
834.544	2868
834.682	2868
834.821	2864
834.959	3062
835.097	2933
835.235	3032
835.373	2986
835.511	3032
835.65	2960
835.788	2963
835.926	2834
836.064	2769
836.202	2830
836.34	3108
836.478	3157
836.615	3005
836.753	3100
836.891	3176
837.029	3192
837.167	3081
837.305	3058
837.443	3047
837.58	2948
837.718	3138
837.856	3043
837.993	3024
838.131	3123
838.269	3104
838.406	3077
838.544	3055
838.681	2948
838.819	2895
838.956	2796
839.094	2823
839.231	2899
839.369	3039
839.506	3351
839.643	3237
839.781	3020
839.918	2941
840.055	3039
840.193	3032
840.33	3039
840.467	3093
840.604	3135
840.742	3401
840.879	3032
841.016	3032
841.153	3131
841.29	3355
841.427	3294
841.564	3272
841.701	3310
841.838	3237
841.975	3157
842.112	3211
842.249	3085
842.385	3043
842.522	3253
842.659	3085
842.796	3066
842.933	3104
843.069	3009
843.206	3039
843.343	3169
843.479	3070
843.616	3116
843.752	2906
843.889	2838
844.025	3081
844.162	2815
844.298	3047
844.435	2952
844.571	2902
844.708	3074
844.844	3169
844.98	3207
845.117	3199
845.253	3058
845.389	3020
845.525	3093
845.661	3089
845.798	3013
845.934	3104
846.07	3039
846.206	3207
846.342	3332
846.478	3218
846.614	3085
846.75	3047
846.886	3020
847.022	3203
847.158	3135
847.294	3188
847.429	3279
847.565	3222
847.701	3462
847.837	3028
847.972	3013
848.108	3150
848.244	3184
848.379	2956
848.515	2948
848.65	2937
848.786	2952
848.921	3005
849.057	3085
849.192	3127
849.328	3077
849.463	3081
849.598	3047
849.734	3005
849.869	2967
850.004	2895
850.14	2979
850.275	2948
850.41	2857
850.545	2887
850.68	2929
850.815	2971
850.95	2971
851.085	3203
851.22	3127
851.355	3028
851.49	3001
851.625	3009
851.76	2998
851.895	2944
852.03	2963
852.165	3043
852.299	3097
852.434	3188
852.569	3077
852.703	3150
852.838	3222
852.973	3321
853.107	3363
853.242	3157
853.376	3047
853.511	2941
853.645	3009
853.78	3249
853.914	3150
854.048	3108
854.183	3051
854.317	3138
854.451	3275
854.585	3119
854.72	3062
854.854	3184
854.988	3036
855.122	3066
855.256	2990
855.39	3097
855.524	3237
855.658	3184
855.792	3123
855.926	3161
856.06	3188
856.194	3241
856.327	3154
856.461	3119
856.595	3104
856.729	3081
856.862	3207
856.996	3119
857.13	3180
857.263	3230
857.397	3260
857.53	3100
857.664	3199
857.797	3237
857.931	3264
858.064	3123
858.197	3241
858.331	3123
858.464	3089
858.597	3020
858.731	3123
858.864	3131
858.997	3062
859.13	3119
859.263	3180
859.396	3180
859.529	3089
859.662	3058
859.795	3058
859.928	3157
860.061	3287
860.194	3283
860.327	3123
860.46	3097
860.592	3233
860.725	3233
860.858	3226
860.99	3081
861.123	3081
861.256	3028
861.388	3150
861.521	3911
861.653	3005
861.786	2998
861.918	2975
862.05	3062
862.183	3112
862.315	3127
862.447	3146
862.58	3047
862.712	2929
862.844	2880
862.976	3001
863.108	3020
863.24	3306
863.372	2861
863.504	2979
863.636	2922
863.768	2994
863.9	2994
864.032	2922
864.164	2922
864.296	3005
864.428	3043
864.559	3131
864.691	3085
864.823	3070
864.954	2990
865.086	3043
865.217	2998
865.349	3001
865.48	2990
865.612	3028
865.743	3135
865.875	2994
866.006	2922
866.137	2979
866.269	2948
866.4	2925
866.531	2971
866.662	2853
866.793	2861
866.924	2883
867.055	2963
867.186	2971
867.317	2899
867.448	2830
867.579	2842
867.71	2800
867.841	2838
867.972	2922
868.103	2895
868.233	2876
868.364	2864
868.495	2887
868.625	3093
868.756	3150
868.886	2967
869.017	3017
869.147	3154
869.278	3157
869.408	3020
869.539	3001
869.669	3077
869.799	3024
869.929	3097
870.06	3100
870.19	3351
870.32	3268
870.45	3294
870.58	3355
870.71	3435
870.84	3424
870.97	3287
871.1	3245
871.23	3504
871.36	3450
871.489	3332
871.619	3386
871.749	3435
871.879	3458
872.008	3477
872.138	3382
872.267	3275
872.397	3150
872.526	3062
872.656	3001
872.785	3093
872.915	3207
873.044	3279
873.173	3218
873.303	3264
873.432	3253
873.561	3241
873.69	3131
873.819	3157
873.948	3180
874.077	3077
874.206	3051
874.335	3074
874.464	3203
874.593	3321
874.722	3256
874.851	3386
874.979	3332
875.108	3310
875.237	3218
875.365	3176
875.494	3146
875.623	3233
875.751	3081
875.88	3138
876.008	3211
876.136	3203
876.265	3332
876.393	3519
876.521	3431
876.65	3386
876.778	3359
876.906	3218
877.034	3203
877.162	3226
877.29	3169
877.418	3218
877.546	3233
877.674	3230
877.802	3253
877.93	3233
878.058	3176
878.185	3081
878.313	3161
878.441	3169
878.568	3116
878.696	3112
878.824	3256
878.951	3287
879.079	3439
879.206	3591
879.333	3397
879.461	3344
879.588	3348
879.715	3473
879.842	3564
879.97	3428
880.097	3093
880.224	3127
880.351	3192
880.478	3192
880.605	3214
880.732	3173
880.859	3466
880.986	3272
881.112	3298
881.239	3176
881.366	3085
881.493	3017
881.619	3047
881.746	3116
881.872	3058
881.999	3058
882.125	3131
882.252	3253
882.378	3260
882.505	3431
882.631	3294
882.757	3154
882.883	3176
883.01	3214
883.136	3146
883.262	3093
883.388	3123
883.514	3332
883.64	3397
883.766	3283
883.892	3180
884.018	3249
884.143	3424
884.269	3526
884.395	3211
884.52	3173
884.646	3173
884.772	3123
884.897	3081
885.023	3211
885.148	3344
885.274	3416
885.399	3389
885.524	3275
885.65	3211
885.775	3325
885.9	3272
886.025	3409
886.15	3370
886.275	3294
886.4	3268
886.525	3348
886.65	3230
886.775	3241
886.9	3523
887.025	3610
887.149	3439
887.274	3233
887.399	3161
887.523	3180
887.648	3195
887.773	3184
887.897	3405
888.021	3397
888.146	3275
888.27	3443
888.395	3515
888.519	3420
888.643	3431
888.767	3435
888.891	3351
889.015	3264
889.139	3241
889.263	3245
889.387	3382
889.511	3492
889.635	3447
889.759	3237
889.883	3283
890.006	3344
890.13	3507
890.254	3283
890.377	3310
890.501	3211
890.624	3199
890.748	3260
890.871	3176
890.995	3093
891.118	3077
891.241	3165
891.364	3230
891.488	3313
891.611	3180
891.734	3203
891.857	3256
891.98	3237
892.103	3348
892.226	3275
892.349	3199
892.471	3112
892.594	3237
892.717	3279
892.839	3275
892.962	3253
893.085	3310
893.207	3260
893.33	3138
893.452	3233
893.575	3332
893.697	3214
893.819	3462
893.941	3500
894.064	3443
894.186	3275
894.308	3233
894.43	3412
894.552	3523
894.674	3454
894.796	3268
894.918	3302
895.04	3287
895.161	3409
895.283	3386
895.405	3302
895.526	3389
895.648	3416
895.769	3409
895.891	3481
896.012	3450
896.134	3477
896.255	3431
896.376	3405
896.498	3351
896.619	3389
896.74	3329
896.861	3401
896.982	3663
897.103	3827
897.224	3568
897.345	3492
897.466	3424
897.587	3469
897.708	3610
897.828	3519
897.949	3412
898.07	3321
898.19	3416
898.311	3545
898.431	3416
898.552	3511
898.672	3618
898.792	3584
898.913	3466
899.033	3412
899.153	3233
899.273	3211
899.393	3283
899.513	3275
899.633	3294
899.753	3325
899.873	3317
899.993	3367
900.113	3340
900.232	3367
900.352	3344
900.472	3294
900.591	3203
900.711	3317
900.83	3275
900.95	3389
901.069	3477
901.189	3336
901.308	3150
901.427	3119
901.546	3184
901.665	3256
901.784	3325
901.904	3237
902.023	3161
902.141	3047
902.26	2979
902.379	3116
902.498	3043
902.617	3024
902.735	3192
902.854	3279
902.973	3180
903.091	3039
903.21	3108
903.328	3146
903.446	3131
903.565	3074
903.683	3218
903.801	3131
903.919	3272
904.038	3233
904.156	3161
904.274	3279
904.392	3287
904.51	3249
904.627	3310
904.745	3428
904.863	3504
904.981	3260
905.098	3180
905.216	3249
905.334	3325
905.451	3302
905.569	3279
905.686	3393
905.803	3439
905.921	3298
906.038	3435
906.155	3344
906.272	3256
906.389	3298
906.506	3226
906.623	3264
906.74	3275
906.857	3180
906.974	3256
907.091	3420
907.208	3557
907.324	3485
907.441	3409
907.557	3214
907.674	3233
907.79	3192
907.907	3287
908.023	3405
908.139	3340
908.256	3332
908.372	3409
908.488	3344
908.604	3272
908.72	3222
908.836	3256
908.952	3241
909.068	3306
909.184	3481
909.3	3401
909.415	3488
909.531	3454
909.647	3268
909.762	3272
909.878	3233
909.993	3351
910.108	3306
910.224	3321
910.339	3393
910.454	3325
910.57	3306
910.685	3226
910.8	3549
910.915	3538
911.03	3454
911.145	3264
911.259	3291
911.374	3310
911.489	3230
911.604	3226
911.718	3097
911.833	3112
911.947	3028
912.062	2956
912.176	3131
912.291	3192
912.405	3233
912.519	3431
912.633	3477
912.748	3348
912.862	3275
912.976	3135
913.09	3039
913.204	3127
913.318	3218
913.431	3298
913.545	3329
913.659	3363
913.772	3317
913.886	3237
914	3226
914.113	3351
914.226	3409
914.34	3348
914.453	3211
914.566	3416
914.68	3291
914.793	3310
914.906	3135
915.019	3081
915.132	3058
915.245	3173
915.358	3180
915.47	3165
915.583	3256
915.696	3325
915.809	3397
915.921	3416
916.034	3291
916.146	3287
916.259	3214
916.371	3401
916.483	3363
916.595	3249
916.708	3359
916.82	3348
916.932	3329
917.044	3351
917.156	3340
917.268	3272
917.38	3317
917.491	3233
917.603	3382
917.715	3439
917.826	3473
917.938	3382
918.049	3268
918.161	3424
918.272	3568
918.384	3584
918.495	3488
918.606	3310
918.717	3298
918.828	3363
918.939	3416
919.05	3294
919.161	3378
919.272	3169
919.383	3279
919.494	3553
919.604	3686
919.715	3507
919.826	3428
919.936	3443
920.047	3591
920.157	3557
920.267	3781
920.378	3591
920.488	3580
920.598	3736
920.708	3956
920.818	3808
920.928	3819
921.038	4044
921.148	4025
921.258	3713
921.368	3599
921.477	3534
921.587	3549
921.697	3443
921.806	3599
921.916	3545
922.025	3344
922.134	3329
922.244	3298
922.353	3401
922.462	3256
922.571	3245
922.68	3119
922.789	3058
922.898	3165
923.007	3093
923.116	3233
923.224	3154
923.333	3184
923.442	3135
923.55	3100
923.659	3138
923.767	3199
923.876	3146
923.984	3260
924.092	3108
924.201	3165
924.309	3222
924.417	3241
924.525	3173
924.633	3260
924.741	4044
924.849	3062
924.956	3249
925.064	3097
925.172	3043
925.279	3119
925.387	3203
925.494	3176
925.602	3336
925.709	3317
925.816	3207
925.924	3283
926.031	3386
926.138	3317
926.245	3329
926.352	3226
926.459	3374
926.566	3469
926.673	3336
926.779	3291
926.886	3237
926.993	3123
927.099	3104
927.206	3127
927.312	3089
927.419	3256
927.525	3237
927.631	3249
927.737	3142
927.843	3135
927.95	3009
928.056	3100
928.162	3176
928.267	3245
928.373	3869
928.479	3302
928.585	3097
928.69	3161
928.796	3268
928.901	3131
929.007	3058
929.112	3211
929.218	3154
929.323	3150
929.428	3131
929.533	3310
929.638	3123
929.743	3165
929.848	3245
929.953	3207
930.058	3135
930.163	2982
930.267	3047
930.372	3199
930.477	3028
930.581	3313
930.685	3195
930.79	3051
930.894	3119
930.998	3093
931.103	3283
931.207	2941
931.311	2941
931.415	2906
931.519	2762
931.623	2785
