Data from test_V78500241_756.txt Node
Date: Fri Mar 25 16:20:26 CST 2022
User: usil
Spectrometer: V785-0024
Trigger mode: 0
Integration Time (sec): 4.000000E-1
Scans to average: 1
Nonlinearity correction enabled: false
Boxcar width: 0
Storing dark spectrum: false
XAxis mode: Wavelengths
Number of Pixels in Spectrum: 1024
>>>>>Begin Spectral Data<<<<<
801.071	2902
801.214	2975
801.356	2902
801.499	2963
801.641	2864
801.783	2979
801.926	3077
802.068	3009
802.211	3020
802.353	3074
802.496	3005
802.638	3051
802.78	3066
802.923	3081
803.065	3005
803.208	2887
803.35	2914
803.492	2963
803.635	2906
803.777	2769
803.919	2872
804.061	3211
804.204	2960
804.346	2914
804.488	2883
804.63	2982
804.773	2883
804.915	2922
805.057	3108
805.199	2910
805.341	2971
805.483	3028
805.626	3036
805.768	2990
805.91	3070
806.052	3093
806.194	3051
806.336	3264
806.478	3009
806.62	2948
806.762	2925
806.904	3077
807.046	3176
807.188	3020
807.33	2895
807.472	2994
807.614	2941
807.756	3005
807.898	2963
808.04	2922
808.182	2944
808.324	2979
808.465	2876
808.607	2887
808.749	2766
808.891	2826
809.033	2986
809.174	2960
809.316	2902
809.458	2918
809.6	2773
809.741	2811
809.883	2800
810.025	2857
810.166	2857
810.308	2838
810.45	2868
810.591	2781
810.733	2758
810.875	2830
811.016	2788
811.158	2777
811.299	2834
811.441	2933
811.582	2895
811.724	2815
811.865	2853
812.007	2895
812.148	2880
812.29	2834
812.431	2937
812.573	2971
812.714	3009
812.855	3058
812.997	3074
813.138	3142
813.279	3047
813.421	2967
813.562	3005
813.703	2876
813.845	2895
813.986	2773
814.127	2731
814.268	2842
814.41	2857
814.551	2823
814.692	2910
814.833	2804
814.974	2910
815.115	2979
815.256	2861
815.397	2796
815.539	2868
815.68	2781
815.821	2788
815.962	2910
816.103	2948
816.244	2861
816.385	2868
816.526	2982
816.666	2952
816.807	2769
816.948	2899
817.089	2914
817.23	2842
817.371	2766
817.512	2788
817.653	2845
817.793	2819
817.934	2872
818.075	2956
818.216	2971
818.356	3017
818.497	2868
818.638	2781
818.778	2811
818.919	2823
819.06	2777
819.2	2902
819.341	2800
819.481	2834
819.622	2914
819.762	3108
819.903	3043
820.043	2952
820.184	2899
820.324	2910
820.465	3047
820.605	3039
820.746	3036
820.886	2941
821.026	3089
821.167	3176
821.307	3306
821.447	3287
821.588	3226
821.728	3199
821.868	3203
822.008	3081
822.149	3150
822.289	3226
822.429	3119
822.569	3089
822.709	3195
822.849	3028
822.99	3055
823.13	3173
823.27	3173
823.41	3097
823.55	3165
823.69	3154
823.83	3211
823.97	3116
824.11	2979
824.25	2986
824.389	3055
824.529	3146
824.669	3066
824.809	3180
824.949	3275
825.089	3245
825.228	3203
825.368	3013
825.508	2944
825.648	2971
825.787	3024
825.927	2994
826.067	2971
826.206	3005
826.346	3009
826.485	3066
826.625	3123
826.765	3253
826.904	3203
827.044	2994
827.183	2922
827.323	2864
827.462	2998
827.601	2899
827.741	2929
827.88	2937
828.02	2830
828.159	2948
828.298	3024
828.437	3131
828.577	3077
828.716	3260
828.855	3077
828.994	2963
829.134	2922
829.273	2944
829.412	2861
829.551	2845
829.69	2883
829.829	2960
829.968	3146
830.107	2990
830.246	3043
830.385	2941
830.524	2899
830.663	2826
830.802	2731
830.941	2670
831.08	2651
831.219	2781
831.357	2754
831.496	2952
831.635	2769
831.774	2667
831.913	2682
832.051	2549
832.19	2568
832.329	2716
832.467	2560
832.606	2473
832.744	2556
832.883	2610
833.022	2602
833.16	2655
833.299	2678
833.437	2697
833.576	2686
833.714	2735
833.852	2758
833.991	2754
834.129	2796
834.267	2845
834.406	2777
834.544	2868
834.682	2902
834.821	2895
834.959	3039
835.097	2887
835.235	3055
835.373	3036
835.511	3028
835.65	2956
835.788	2941
835.926	2849
836.064	2823
836.202	2845
836.34	3066
836.478	3142
836.615	3039
836.753	3146
836.891	3195
837.029	3104
837.167	3119
837.305	3085
837.443	3047
837.58	2948
837.718	3108
837.856	3058
837.993	3017
838.131	3089
838.269	3112
838.406	3070
838.544	3093
838.681	2906
838.819	2956
838.956	2834
839.094	2826
839.231	2922
839.369	3013
839.506	3389
839.643	3241
839.781	3020
839.918	2952
840.055	3039
840.193	3074
840.33	3051
840.467	3112
840.604	3138
840.742	3382
840.879	3047
841.016	3062
841.153	3108
841.29	3344
841.427	3325
841.564	3256
841.701	3291
841.838	3256
841.975	3150
842.112	3218
842.249	3085
842.385	3047
842.522	3245
842.659	3074
842.796	3051
842.933	3104
843.069	3062
843.206	3020
843.343	3184
843.479	3112
843.616	3165
843.752	2910
843.889	2872
844.025	3077
844.162	2845
844.298	3081
844.435	2952
844.571	2872
844.708	3058
844.844	3150
844.98	3275
845.117	3207
845.253	3058
845.389	2975
845.525	3116
845.661	3093
845.798	3024
845.934	3119
846.07	3058
846.206	3214
846.342	3336
846.478	3245
846.614	3066
846.75	3020
846.886	2998
847.022	3260
847.158	3112
847.294	3237
847.429	3237
847.565	3230
847.701	3485
847.837	3028
847.972	2982
848.108	3150
848.244	3138
848.379	2994
848.515	2963
848.65	2925
848.786	2948
848.921	3005
849.057	3104
849.192	3146
849.328	3104
849.463	3108
849.598	3039
849.734	3039
849.869	2994
850.004	2963
850.14	2986
850.275	2902
850.41	2830
850.545	2895
850.68	2925
850.815	2952
850.95	2994
851.085	3188
851.22	3104
851.355	3062
851.49	2979
851.625	2979
851.76	3028
851.895	2906
852.03	2910
852.165	3051
852.299	3123
852.434	3138
852.569	3135
852.703	3173
852.838	3256
852.973	3336
853.107	3310
853.242	3142
853.376	3081
853.511	2982
853.645	3024
853.78	3226
853.914	3112
854.048	3108
854.183	3051
854.317	3161
854.451	3294
854.585	3116
854.72	3070
854.854	3214
854.988	3043
855.122	3074
855.256	2982
855.39	3097
855.524	3214
855.658	3195
855.792	3142
855.926	3169
856.06	3241
856.194	3256
856.327	3150
856.461	3089
856.595	3089
856.729	3074
856.862	3180
856.996	3154
857.13	3184
857.263	3241
857.397	3283
857.53	3131
857.664	3173
857.797	3249
857.931	3237
858.064	3127
858.197	3237
858.331	3150
858.464	3070
858.597	3005
858.731	3116
858.864	3176
858.997	3070
859.13	3146
859.263	3173
859.396	3233
859.529	3051
859.662	3055
859.795	3024
859.928	3161
860.061	3279
860.194	3272
860.327	3119
860.46	3089
860.592	3214
860.725	3199
860.858	3211
860.99	3070
861.123	3032
861.256	3032
861.388	3150
861.521	3899
861.653	3032
861.786	2979
861.918	2971
862.05	3062
862.183	3081
862.315	3150
862.447	3176
862.58	3074
862.712	2933
862.844	2883
862.976	3039
863.108	2975
863.24	3435
863.372	2883
863.504	2975
863.636	2937
863.768	3024
863.9	2944
864.032	2941
864.164	2914
864.296	3001
864.428	3089
864.559	3097
864.691	3039
864.823	3051
864.954	3055
865.086	3043
865.217	2967
865.349	2994
865.48	3009
865.612	2998
865.743	3108
865.875	2986
866.006	2910
866.137	2941
866.269	2971
866.4	2933
866.531	2925
866.662	2868
866.793	2899
866.924	2895
867.055	2982
867.186	2925
867.317	2883
867.448	2849
867.579	2849
867.71	2842
867.841	2838
867.972	2887
868.103	2883
868.233	2876
868.364	2883
868.495	2906
868.625	3036
868.756	3146
868.886	2990
869.017	3001
869.147	3176
869.278	3116
869.408	3032
869.539	3005
869.669	3058
869.799	3020
869.929	3085
870.06	3093
870.19	3283
870.32	3226
870.45	3275
870.58	3370
870.71	3431
870.84	3431
870.97	3272
871.1	3245
871.23	3496
871.36	3435
871.489	3344
871.619	3416
871.749	3397
871.879	3435
872.008	3450
872.138	3367
872.267	3256
872.397	3173
872.526	3077
872.656	3043
872.785	3100
872.915	3245
873.044	3287
873.173	3226
873.303	3245
873.432	3230
873.561	3256
873.69	3157
873.819	3150
873.948	3199
874.077	3085
874.206	3039
874.335	3074
874.464	3142
874.593	3336
874.722	3199
874.851	3355
874.979	3348
875.108	3287
875.237	3218
875.365	3157
875.494	3131
875.623	3245
875.751	3104
875.88	3119
876.008	3195
876.136	3222
876.265	3344
876.393	3504
876.521	3439
876.65	3412
876.778	3351
876.906	3199
877.034	3226
877.162	3241
877.29	3150
877.418	3237
877.546	3253
877.674	3230
877.802	3199
877.93	3218
878.058	3154
878.185	3089
878.313	3180
878.441	3199
878.568	3047
878.696	3169
878.824	3253
878.951	3302
879.079	3450
879.206	3641
879.333	3435
879.461	3325
879.588	3325
879.715	3469
879.842	3549
879.97	3363
880.097	3169
880.224	3157
880.351	3127
880.478	3245
880.605	3173
880.732	3169
880.859	3473
880.986	3348
881.112	3283
881.239	3161
881.366	3089
881.493	3032
881.619	3009
881.746	3062
881.872	3089
881.999	3089
882.125	3169
882.252	3214
882.378	3291
882.505	3420
882.631	3272
882.757	3142
882.883	3188
883.01	3230
883.136	3165
883.262	3077
883.388	3127
883.514	3336
883.64	3405
883.766	3310
883.892	3180
884.018	3207
884.143	3431
884.269	3530
884.395	3169
884.52	3154
884.646	3184
884.772	3077
884.897	3089
885.023	3207
885.148	3294
885.274	3428
885.399	3401
885.524	3298
885.65	3256
885.775	3317
885.9	3249
886.025	3409
886.15	3348
886.275	3268
886.4	3195
886.525	3317
886.65	3283
886.775	3230
886.9	3519
887.025	3629
887.149	3393
887.274	3272
887.399	3154
887.523	3154
887.648	3154
887.773	3184
887.897	3389
888.021	3393
888.146	3310
888.27	3454
888.395	3538
888.519	3462
888.643	3447
888.767	3439
888.891	3340
889.015	3260
889.139	3302
889.263	3199
889.387	3424
889.511	3530
889.635	3469
889.759	3325
889.883	3260
890.006	3382
890.13	3477
890.254	3279
890.377	3302
890.501	3184
890.624	3214
890.748	3291
890.871	3173
890.995	3127
891.118	3100
891.241	3211
891.364	3233
891.488	3302
891.611	3188
891.734	3195
891.857	3275
891.98	3226
892.103	3306
892.226	3272
892.349	3211
892.471	3127
892.594	3207
892.717	3298
892.839	3272
892.962	3275
893.085	3370
893.207	3306
893.33	3157
893.452	3195
893.575	3344
893.697	3256
893.819	3477
893.941	3485
894.064	3443
894.186	3233
894.308	3275
894.43	3458
894.552	3534
894.674	3485
894.796	3302
894.918	3329
895.04	3287
895.161	3397
895.283	3393
895.405	3287
895.526	3344
895.648	3450
895.769	3389
895.891	3447
896.012	3485
896.134	3481
896.255	3393
896.376	3355
896.498	3382
896.619	3450
896.74	3332
896.861	3359
896.982	3713
897.103	3857
897.224	3599
897.345	3481
897.466	3416
897.587	3496
897.708	3603
897.828	3591
897.949	3431
898.07	3298
898.19	3363
898.311	3595
898.431	3443
898.552	3477
898.672	3618
898.792	3580
898.913	3526
899.033	3428
899.153	3264
899.273	3226
899.393	3291
899.513	3294
899.633	3325
899.753	3367
899.873	3313
899.993	3382
900.113	3321
900.232	3378
900.352	3348
900.472	3317
900.591	3226
900.711	3222
900.83	3226
900.95	3428
901.069	3538
901.189	3336
901.308	3184
901.427	3131
901.546	3157
901.665	3287
901.784	3317
901.904	3222
902.023	3154
902.141	3001
902.26	3017
902.379	3116
902.498	3074
902.617	3009
902.735	3211
902.854	3211
902.973	3173
903.091	3032
903.21	3089
903.328	3127
903.446	3108
903.565	3135
903.683	3199
903.801	3119
903.919	3237
904.038	3268
904.156	3131
904.274	3233
904.392	3260
904.51	3291
904.627	3287
904.745	3443
904.863	3496
904.981	3298
905.098	3142
905.216	3218
905.334	3310
905.451	3313
905.569	3306
905.686	3428
905.803	3462
905.921	3298
906.038	3435
906.155	3355
906.272	3291
906.389	3344
906.506	3211
906.623	3275
906.74	3264
906.857	3169
906.974	3230
907.091	3428
907.208	3549
907.324	3462
907.441	3386
907.557	3237
907.674	3230
907.79	3218
907.907	3253
908.023	3386
908.139	3355
908.256	3302
908.372	3412
908.488	3363
908.604	3275
908.72	3249
908.836	3283
908.952	3294
909.068	3313
909.184	3439
909.3	3374
909.415	3515
909.531	3435
909.647	3275
909.762	3294
909.878	3256
909.993	3374
910.108	3310
910.224	3294
910.339	3386
910.454	3363
910.57	3321
910.685	3237
910.8	3576
910.915	3496
911.03	3428
911.145	3275
911.259	3302
911.374	3268
911.489	3253
911.604	3222
911.718	3150
911.833	3165
911.947	3005
912.062	2971
912.176	3165
912.291	3199
912.405	3192
912.519	3454
912.633	3504
912.748	3313
912.862	3226
912.976	3142
913.09	3077
913.204	3150
913.318	3180
913.431	3363
913.545	3355
913.659	3393
913.772	3340
913.886	3207
914	3195
914.113	3313
914.226	3405
914.34	3348
914.453	3237
914.566	3416
914.68	3279
914.793	3329
914.906	3131
915.019	3104
915.132	3089
915.245	3169
915.358	3154
915.47	3192
915.583	3256
915.696	3317
915.809	3416
915.921	3401
916.034	3268
916.146	3268
916.259	3195
916.371	3367
916.483	3367
916.595	3222
916.708	3317
916.82	3317
916.932	3306
917.044	3313
917.156	3340
917.268	3226
917.38	3275
917.491	3245
917.603	3378
917.715	3447
917.826	3481
917.938	3351
918.049	3253
918.161	3454
918.272	3587
918.384	3591
918.495	3511
918.606	3317
918.717	3287
918.828	3397
918.939	3374
919.05	3283
919.161	3344
919.272	3199
919.383	3272
919.494	3504
919.604	3743
919.715	3492
919.826	3405
919.936	3450
920.047	3591
920.157	3564
920.267	3766
920.378	3572
920.488	3542
920.598	3823
920.708	3922
920.818	3846
920.928	3884
921.038	4021
921.148	4010
921.258	3743
921.368	3584
921.477	3587
921.587	3526
921.697	3466
921.806	3618
921.916	3477
922.025	3367
922.134	3355
922.244	3306
922.353	3443
922.462	3253
922.571	3245
922.68	3097
922.789	3058
922.898	3142
923.007	3066
923.116	3195
923.224	3157
923.333	3203
923.442	3085
923.55	3108
923.659	3161
923.767	3214
923.876	3131
923.984	3230
924.092	3085
924.201	3207
924.309	3199
924.417	3249
924.525	3157
924.633	3241
924.741	4139
924.849	3005
924.956	3291
925.064	3097
925.172	3036
925.279	3116
925.387	3207
925.494	3195
925.602	3355
925.709	3291
925.816	3188
925.924	3275
926.031	3386
926.138	3237
926.245	3351
926.352	3272
926.459	3443
926.566	3450
926.673	3310
926.779	3237
926.886	3268
926.993	3222
927.099	3138
927.206	3119
927.312	3127
927.419	3161
927.525	3211
927.631	3283
927.737	3108
927.843	3138
927.95	2998
928.056	3150
928.162	3192
928.267	3260
928.373	3812
928.479	3291
928.585	3100
928.69	3211
928.796	3306
928.901	3161
929.007	3081
929.112	3195
929.218	3146
929.323	3123
929.428	3146
929.533	3325
929.638	3104
929.743	3154
929.848	3279
929.953	3188
930.058	3150
930.163	2990
930.267	3051
930.372	3199
930.477	3009
930.581	3272
930.685	3176
930.79	3085
930.894	3093
930.998	3058
931.103	3283
931.207	2922
931.311	2925
931.415	2906
931.519	2804
931.623	2838
