Data from test_V78500241_705.txt Node
Date: Fri Mar 25 16:20:05 CST 2022
User: usil
Spectrometer: V785-0024
Trigger mode: 0
Integration Time (sec): 4.000000E-1
Scans to average: 1
Nonlinearity correction enabled: false
Boxcar width: 0
Storing dark spectrum: false
XAxis mode: Wavelengths
Number of Pixels in Spectrum: 1024
>>>>>Begin Spectral Data<<<<<
801.071	2902
801.214	2933
801.356	2872
801.499	2868
801.641	2872
801.783	2906
801.926	3001
802.068	2914
802.211	2986
802.353	3039
802.496	2956
802.638	2982
802.78	3047
802.923	3066
803.065	2994
803.208	2876
803.35	2914
803.492	2941
803.635	2910
803.777	2762
803.919	2861
804.061	3199
804.204	2941
804.346	2895
804.488	2823
804.63	2948
804.773	2887
804.915	2902
805.057	3032
805.199	2887
805.341	2963
805.483	2998
805.626	3009
805.768	2960
805.91	3089
806.052	3119
806.194	3051
806.336	3199
806.478	3020
806.62	2880
806.762	3009
806.904	3020
807.046	3131
807.188	2979
807.33	2895
807.472	2982
807.614	2876
807.756	2967
807.898	2918
808.04	2876
808.182	2960
808.324	2929
808.465	2864
808.607	2914
808.749	2781
808.891	2834
809.033	2941
809.174	2952
809.316	2902
809.458	2861
809.6	2769
809.741	2792
809.883	2754
810.025	2823
810.166	2845
810.308	2826
810.45	2845
810.591	2766
810.733	2743
810.875	2849
811.016	2735
811.158	2792
811.299	2792
811.441	2914
811.582	2902
811.724	2800
811.865	2796
812.007	2910
812.148	2876
812.29	2872
812.431	2910
812.573	2933
812.714	2948
812.855	3017
812.997	3055
813.138	3119
813.279	3013
813.421	2963
813.562	2948
813.703	2891
813.845	2906
813.986	2773
814.127	2720
814.268	2811
814.41	2815
814.551	2781
814.692	2880
814.833	2785
814.974	2868
815.115	2910
815.256	2823
815.397	2773
815.539	2868
815.68	2766
815.821	2769
815.962	2937
816.103	2883
816.244	2861
816.385	2899
816.526	2956
816.666	2925
816.807	2727
816.948	2914
817.089	2929
817.23	2849
817.371	2727
817.512	2792
817.653	2823
817.793	2800
817.934	2872
818.075	2971
818.216	2967
818.356	2986
818.497	2853
818.638	2785
818.778	2834
818.919	2792
819.06	2743
819.2	2876
819.341	2807
819.481	2800
819.622	2929
819.762	3089
819.903	3066
820.043	2918
820.184	2864
820.324	2902
820.465	2986
820.605	3058
820.746	3043
820.886	2925
821.026	3104
821.167	3157
821.307	3279
821.447	3283
821.588	3230
821.728	3188
821.868	3165
822.008	3112
822.149	3173
822.289	3207
822.429	3089
822.569	3066
822.709	3169
822.849	3017
822.99	3051
823.13	3176
823.27	3188
823.41	3093
823.55	3138
823.69	3131
823.83	3176
823.97	3100
824.11	3024
824.25	2986
824.389	3028
824.529	3146
824.669	3066
824.809	3203
824.949	3222
825.089	3253
825.228	3146
825.368	3039
825.508	2963
825.648	2971
825.787	2975
825.927	2994
826.067	2929
826.206	2967
826.346	2975
826.485	3085
826.625	3085
826.765	3253
826.904	3253
827.044	2982
827.183	2944
827.323	2849
827.462	2960
827.601	2899
827.741	2925
827.88	2960
828.02	2861
828.159	2929
828.298	3043
828.437	3074
828.577	3051
828.716	3226
828.855	3104
828.994	2925
829.134	2883
829.273	2929
829.412	2880
829.551	2872
829.69	2880
829.829	3005
829.968	3093
830.107	2986
830.246	3009
830.385	2937
830.524	2876
830.663	2800
830.802	2705
830.941	2651
831.08	2659
831.219	2773
831.357	2727
831.496	2918
831.635	2708
831.774	2632
831.913	2667
832.051	2514
832.19	2560
832.329	2644
832.467	2499
832.606	2457
832.744	2564
832.883	2602
833.022	2587
833.16	2663
833.299	2659
833.437	2716
833.576	2712
833.714	2701
833.852	2720
833.991	2746
834.129	2823
834.267	2804
834.406	2777
834.544	2876
834.682	2864
834.821	2826
834.959	3097
835.097	2895
835.235	3017
835.373	2960
835.511	3005
835.65	2937
835.788	2933
835.926	2834
836.064	2838
836.202	2830
836.34	3077
836.478	3138
836.615	3028
836.753	3066
836.891	3192
837.029	3173
837.167	3097
837.305	3047
837.443	3028
837.58	2937
837.718	3127
837.856	3009
837.993	3039
838.131	3104
838.269	3089
838.406	3127
838.544	3081
838.681	2937
838.819	2937
838.956	2792
839.094	2800
839.231	2895
839.369	3017
839.506	3329
839.643	3214
839.781	3001
839.918	2971
840.055	3032
840.193	3051
840.33	3047
840.467	3081
840.604	3165
840.742	3386
840.879	3020
841.016	3043
841.153	3108
841.29	3351
841.427	3275
841.564	3283
841.701	3291
841.838	3176
841.975	3188
842.112	3203
842.249	3058
842.385	3005
842.522	3245
842.659	3100
842.796	3062
842.933	3066
843.069	3009
843.206	3028
843.343	3165
843.479	3097
843.616	3146
843.752	2937
843.889	2864
844.025	3074
844.162	2872
844.298	3058
844.435	2922
844.571	2887
844.708	3058
844.844	3169
844.98	3222
845.117	3161
845.253	3020
845.389	2998
845.525	3074
845.661	3058
845.798	3017
845.934	3085
846.07	3077
846.206	3218
846.342	3336
846.478	3230
846.614	3036
846.75	3028
846.886	3024
847.022	3211
847.158	3161
847.294	3135
847.429	3203
847.565	3230
847.701	3466
847.837	3036
847.972	2998
848.108	3146
848.244	3131
848.379	3009
848.515	2922
848.65	2986
848.786	2986
848.921	2979
849.057	3055
849.192	3123
849.328	3070
849.463	3074
849.598	3062
849.734	3009
849.869	2986
850.004	2910
850.14	2975
850.275	2937
850.41	2792
850.545	2880
850.68	2922
850.815	2937
850.95	2929
851.085	3146
851.22	3077
851.355	3009
851.49	2986
851.625	2990
851.76	3001
851.895	2914
852.03	2883
852.165	2971
852.299	3100
852.434	3146
852.569	3131
852.703	3146
852.838	3218
852.973	3321
853.107	3306
853.242	3154
853.376	3089
853.511	2990
853.645	3077
853.78	3272
853.914	3093
854.048	3135
854.183	3089
854.317	3146
854.451	3249
854.585	3150
854.72	3024
854.854	3211
854.988	3093
855.122	3089
855.256	2941
855.39	3074
855.524	3256
855.658	3161
855.792	3112
855.926	3169
856.06	3218
856.194	3237
856.327	3161
856.461	3089
856.595	3081
856.729	3070
856.862	3230
856.996	3138
857.13	3195
857.263	3237
857.397	3249
857.53	3108
857.664	3173
857.797	3226
857.931	3230
858.064	3142
858.197	3188
858.331	3135
858.464	3081
858.597	2982
858.731	3154
858.864	3093
858.997	3081
859.13	3135
859.263	3169
859.396	3184
859.529	3047
859.662	3047
859.795	3043
859.928	3104
860.061	3272
860.194	3272
860.327	3108
860.46	3104
860.592	3249
860.725	3230
860.858	3253
860.99	3123
861.123	3047
861.256	3013
861.388	3131
861.521	3911
861.653	3013
861.786	2994
861.918	3024
862.05	3058
862.183	3055
862.315	3135
862.447	3154
862.58	3074
862.712	2952
862.844	2838
862.976	3020
863.108	3017
863.24	3424
863.372	2876
863.504	2937
863.636	2948
863.768	3032
863.9	2963
864.032	2929
864.164	2948
864.296	3024
864.428	3093
864.559	3085
864.691	3028
864.823	3039
864.954	3001
865.086	3028
865.217	2979
865.349	2914
865.48	3009
865.612	3009
865.743	3104
865.875	3009
866.006	2933
866.137	2948
866.269	2933
866.4	2914
866.531	2914
866.662	2891
866.793	2914
866.924	2883
867.055	2960
867.186	2914
867.317	2880
867.448	2834
867.579	2811
867.71	2815
867.841	2800
867.972	2906
868.103	2914
868.233	2891
868.364	2853
868.495	2906
868.625	3074
868.756	3184
868.886	2956
869.017	3024
869.147	3157
869.278	3138
869.408	3058
869.539	3001
869.669	3055
869.799	3032
869.929	3161
870.06	3131
870.19	3302
870.32	3237
870.45	3256
870.58	3340
870.71	3439
870.84	3382
870.97	3249
871.1	3199
871.23	3477
871.36	3435
871.489	3348
871.619	3325
871.749	3389
871.879	3473
872.008	3466
872.138	3378
872.267	3291
872.397	3112
872.526	3093
872.656	3009
872.785	3116
872.915	3214
873.044	3306
873.173	3184
873.303	3233
873.432	3241
873.561	3230
873.69	3131
873.819	3135
873.948	3203
874.077	3093
874.206	3047
874.335	3066
874.464	3222
874.593	3332
874.722	3214
874.851	3355
874.979	3336
875.108	3321
875.237	3180
875.365	3169
875.494	3157
875.623	3241
875.751	3081
875.88	3097
876.008	3203
876.136	3230
876.265	3370
876.393	3500
876.521	3416
876.65	3382
876.778	3321
876.906	3302
877.034	3192
877.162	3222
877.29	3146
877.418	3253
877.546	3237
877.674	3226
877.802	3264
877.93	3195
878.058	3138
878.185	3055
878.313	3180
878.441	3207
878.568	3036
878.696	3116
878.824	3233
878.951	3264
879.079	3435
879.206	3568
879.333	3428
879.461	3283
879.588	3313
879.715	3481
879.842	3561
879.97	3355
880.097	3138
880.224	3104
880.351	3230
880.478	3226
880.605	3199
880.732	3142
880.859	3492
880.986	3294
881.112	3348
881.239	3161
881.366	3074
881.493	3020
881.619	3020
881.746	3058
881.872	3051
881.999	3097
882.125	3154
882.252	3264
882.378	3313
882.505	3405
882.631	3241
882.757	3135
882.883	3157
883.01	3245
883.136	3169
883.262	3089
883.388	3074
883.514	3272
883.64	3344
883.766	3279
883.892	3165
884.018	3268
884.143	3370
884.269	3576
884.395	3218
884.52	3146
884.646	3176
884.772	3116
884.897	3070
885.023	3180
885.148	3351
885.274	3412
885.399	3351
885.524	3264
885.65	3272
885.775	3260
885.9	3298
886.025	3386
886.15	3351
886.275	3241
886.4	3207
886.525	3294
886.65	3237
886.775	3253
886.9	3504
887.025	3587
887.149	3397
887.274	3245
887.399	3165
887.523	3150
887.648	3161
887.773	3173
887.897	3340
888.021	3401
888.146	3264
888.27	3405
888.395	3492
888.519	3428
888.643	3393
888.767	3443
888.891	3310
889.015	3268
889.139	3310
889.263	3249
889.387	3389
889.511	3504
889.635	3443
889.759	3302
889.883	3287
890.006	3359
890.13	3492
890.254	3275
890.377	3336
890.501	3176
890.624	3169
890.748	3279
890.871	3195
890.995	3104
891.118	3074
891.241	3180
891.364	3253
891.488	3370
891.611	3188
891.734	3218
891.857	3310
891.98	3279
892.103	3359
892.226	3332
892.349	3222
892.471	3131
892.594	3256
892.717	3325
892.839	3283
892.962	3336
893.085	3351
893.207	3279
893.33	3195
893.452	3272
893.575	3374
893.697	3313
893.819	3500
893.941	3542
894.064	3477
894.186	3291
894.308	3340
894.43	3473
894.552	3561
894.674	3530
894.796	3287
894.918	3325
895.04	3332
895.161	3469
895.283	3431
895.405	3355
895.526	3405
895.648	3473
895.769	3450
895.891	3473
896.012	3500
896.134	3507
896.255	3466
896.376	3420
896.498	3355
896.619	3507
896.74	3393
896.861	3477
896.982	3713
897.103	3865
897.224	3610
897.345	3519
897.466	3466
897.587	3557
897.708	3682
897.828	3599
897.949	3488
898.07	3317
898.19	3485
898.311	3679
898.431	3545
898.552	3557
898.672	3606
898.792	3610
898.913	3568
899.033	3428
899.153	3340
899.273	3237
899.393	3313
899.513	3389
899.633	3351
899.753	3378
899.873	3332
899.993	3416
900.113	3355
900.232	3412
900.352	3389
900.472	3329
900.591	3260
900.711	3340
900.83	3226
900.95	3492
901.069	3496
901.189	3370
901.308	3199
901.427	3146
901.546	3260
901.665	3310
901.784	3336
901.904	3230
902.023	3207
902.141	3043
902.26	3017
902.379	3176
902.498	3116
902.617	3123
902.735	3268
902.854	3264
902.973	3173
903.091	3081
903.21	3104
903.328	3157
903.446	3146
903.565	3123
903.683	3233
903.801	3192
903.919	3294
904.038	3344
904.156	3199
904.274	3313
904.392	3256
904.51	3310
904.627	3359
904.745	3492
904.863	3538
904.981	3264
905.098	3230
905.216	3298
905.334	3306
905.451	3313
905.569	3310
905.686	3439
905.803	3485
905.921	3310
906.038	3500
906.155	3351
906.272	3351
906.389	3397
906.506	3287
906.623	3260
906.74	3294
906.857	3218
906.974	3298
907.091	3485
907.208	3625
907.324	3454
907.441	3412
907.557	3256
907.674	3237
907.79	3214
907.907	3294
908.023	3431
908.139	3351
908.256	3313
908.372	3374
908.488	3355
908.604	3275
908.72	3287
908.836	3329
908.952	3310
909.068	3351
909.184	3511
909.3	3420
909.415	3530
909.531	3485
909.647	3306
909.762	3329
909.878	3272
909.993	3393
910.108	3393
910.224	3397
910.339	3431
910.454	3340
910.57	3321
910.685	3230
910.8	3648
910.915	3549
911.03	3454
911.145	3325
911.259	3287
911.374	3340
911.489	3287
911.604	3260
911.718	3154
911.833	3188
911.947	3055
912.062	3043
912.176	3188
912.291	3241
912.405	3279
912.519	3477
912.633	3542
912.748	3340
912.862	3306
912.976	3207
913.09	3089
913.204	3169
913.318	3253
913.431	3416
913.545	3374
913.659	3435
913.772	3336
913.886	3237
914	3256
914.113	3401
914.226	3382
914.34	3389
914.453	3268
914.566	3466
914.68	3348
914.793	3344
914.906	3176
915.019	3131
915.132	3119
915.245	3192
915.358	3241
915.47	3272
915.583	3325
915.696	3313
915.809	3454
915.921	3412
916.034	3283
916.146	3253
916.259	3226
916.371	3420
916.483	3378
916.595	3317
916.708	3367
916.82	3382
916.932	3359
917.044	3359
917.156	3378
917.268	3283
917.38	3370
917.491	3367
917.603	3382
917.715	3469
917.826	3450
917.938	3374
918.049	3325
918.161	3458
918.272	3625
918.384	3606
918.495	3534
918.606	3336
918.717	3336
918.828	3405
918.939	3420
919.05	3348
919.161	3386
919.272	3218
919.383	3329
919.494	3519
919.604	3705
919.715	3485
919.826	3443
919.936	3500
920.047	3580
920.157	3580
920.267	3797
920.378	3667
920.488	3591
920.598	3800
920.708	3945
920.818	3857
920.928	3884
921.038	4082
921.148	4010
921.258	3743
921.368	3682
921.477	3618
921.587	3545
921.697	3492
921.806	3652
921.916	3534
922.025	3393
922.134	3420
922.244	3355
922.353	3477
922.462	3340
922.571	3287
922.68	3131
922.789	3100
922.898	3184
923.007	3138
923.116	3222
923.224	3207
923.333	3214
923.442	3123
923.55	3123
923.659	3207
923.767	3226
923.876	3150
923.984	3245
924.092	3157
924.201	3256
924.309	3214
924.417	3275
924.525	3214
924.633	3230
924.741	4223
924.849	3070
924.956	3260
925.064	3131
925.172	3020
925.279	3123
925.387	3211
925.494	3237
925.602	3370
925.709	3370
925.816	3192
925.924	3302
926.031	3409
926.138	3367
926.245	3344
926.352	3237
926.459	3431
926.566	3496
926.673	3374
926.779	3287
926.886	3302
926.993	3176
927.099	3184
927.206	3131
927.312	3131
927.419	3260
927.525	3207
927.631	3302
927.737	3165
927.843	3142
927.95	3085
928.056	3192
928.162	3211
928.267	3294
928.373	3899
928.479	3340
928.585	3051
928.69	3199
928.796	3287
928.901	3173
929.007	3089
929.112	3218
929.218	3203
929.323	3165
929.428	3180
929.533	3344
929.638	3157
929.743	3211
929.848	3279
929.953	3237
930.058	3161
930.163	3028
930.267	3081
930.372	3249
930.477	3047
930.581	3310
930.685	3192
930.79	3028
930.894	3146
930.998	3131
931.103	3317
931.207	2982
931.311	2952
931.415	2933
931.519	2769
931.623	2834
