Data from test_V78500241_1981.txt Node
Date: Fri Mar 25 16:28:55 CST 2022
User: usil
Spectrometer: V785-0024
Trigger mode: 0
Integration Time (sec): 4.000000E-1
Scans to average: 1
Nonlinearity correction enabled: false
Boxcar width: 0
Storing dark spectrum: false
XAxis mode: Wavelengths
Number of Pixels in Spectrum: 1024
>>>>>Begin Spectral Data<<<<<
801.071	2876
801.214	2948
801.356	2868
801.499	2872
801.641	2861
801.783	2918
801.926	3039
802.068	2952
802.211	2986
802.353	3001
802.496	2929
802.638	2994
802.78	3055
802.923	3062
803.065	2971
803.208	2876
803.35	2929
803.492	2929
803.635	2929
803.777	2777
803.919	2811
804.061	3218
804.204	2960
804.346	2929
804.488	2861
804.63	2994
804.773	2842
804.915	2902
805.057	3077
805.199	2902
805.341	2979
805.483	3024
805.626	2994
805.768	2944
805.91	3097
806.052	3089
806.194	3028
806.336	3211
806.478	3024
806.62	2925
806.762	2990
806.904	3055
807.046	3135
807.188	2952
807.33	2933
807.472	3009
807.614	2906
807.756	2979
807.898	2918
808.04	2899
808.182	2960
808.324	2941
808.465	2868
808.607	2872
808.749	2807
808.891	2845
809.033	2986
809.174	2952
809.316	2910
809.458	2887
809.6	2773
809.741	2766
809.883	2773
810.025	2834
810.166	2857
810.308	2842
810.45	2849
810.591	2777
810.733	2762
810.875	2830
811.016	2769
811.158	2739
811.299	2796
811.441	2899
811.582	2906
811.724	2826
811.865	2811
812.007	2902
812.148	2880
812.29	2861
812.431	2906
812.573	2902
812.714	2899
812.855	3039
812.997	3017
813.138	3127
813.279	3028
813.421	2979
813.562	2933
813.703	2880
813.845	2899
813.986	2743
814.127	2762
814.268	2838
814.41	2849
814.551	2834
814.692	2887
814.833	2815
814.974	2906
815.115	2922
815.256	2845
815.397	2838
815.539	2849
815.68	2777
815.821	2727
815.962	2918
816.103	2914
816.244	2868
816.385	2876
816.526	2982
816.666	2918
816.807	2735
816.948	2876
817.089	2925
817.23	2857
817.371	2807
817.512	2815
817.653	2830
817.793	2834
817.934	2922
818.075	2948
818.216	2979
818.356	3043
818.497	2887
818.638	2758
818.778	2807
818.919	2811
819.06	2773
819.2	2891
819.341	2823
819.481	2807
819.622	2933
819.762	3093
819.903	3028
820.043	2880
820.184	2868
820.324	2902
820.465	2998
820.605	3009
820.746	3020
820.886	2918
821.026	3119
821.167	3157
821.307	3230
821.447	3279
821.588	3245
821.728	3188
821.868	3222
822.008	3062
822.149	3180
822.289	3226
822.429	3097
822.569	3055
822.709	3165
822.849	3058
822.99	3074
823.13	3176
823.27	3188
823.41	3085
823.55	3165
823.69	3104
823.83	3184
823.97	3074
824.11	2975
824.25	2967
824.389	3055
824.529	3097
824.669	3112
824.809	3207
824.949	3237
825.089	3222
825.228	3112
825.368	3001
825.508	2956
825.648	2975
825.787	3005
825.927	3017
826.067	2967
826.206	2925
826.346	3028
826.485	3077
826.625	3100
826.765	3222
826.904	3230
827.044	2963
827.183	2902
827.323	2906
827.462	2971
827.601	2941
827.741	2933
827.88	2960
828.02	2845
828.159	2941
828.298	3036
828.437	3097
828.577	3047
828.716	3218
828.855	3066
828.994	2876
829.134	2883
829.273	2857
829.412	2849
829.551	2853
829.69	2868
829.829	2963
829.968	3085
830.107	3009
830.246	2998
830.385	2902
830.524	2883
830.663	2807
830.802	2720
830.941	2651
831.08	2644
831.219	2766
831.357	2766
831.496	2944
831.635	2727
831.774	2632
831.913	2644
832.051	2541
832.19	2587
832.329	2659
832.467	2541
832.606	2457
832.744	2625
832.883	2556
833.022	2568
833.16	2636
833.299	2678
833.437	2689
833.576	2659
833.714	2716
833.852	2705
833.991	2754
834.129	2845
834.267	2815
834.406	2785
834.544	2834
834.682	2883
834.821	2853
834.959	3017
835.097	2918
835.235	3036
835.373	3009
835.511	3001
835.65	2925
835.788	2956
835.926	2849
836.064	2804
836.202	2842
836.34	3051
836.478	3154
836.615	3055
836.753	3100
836.891	3157
837.029	3135
837.167	3108
837.305	3047
837.443	3036
837.58	2918
837.718	3100
837.856	3032
837.993	3047
838.131	3112
838.269	3119
838.406	3123
838.544	3051
838.681	2933
838.819	2910
838.956	2796
839.094	2830
839.231	2899
839.369	2994
839.506	3348
839.643	3195
839.781	2963
839.918	2975
840.055	3039
840.193	2994
840.33	3055
840.467	3089
840.604	3123
840.742	3401
840.879	3055
841.016	2979
841.153	3074
841.29	3329
841.427	3306
841.564	3245
841.701	3294
841.838	3222
841.975	3230
842.112	3188
842.249	3085
842.385	3028
842.522	3249
842.659	3100
842.796	3024
842.933	3108
843.069	3055
843.206	3032
843.343	3188
843.479	3131
843.616	3127
843.752	2876
843.889	2887
844.025	3104
844.162	2868
844.298	3066
844.435	2944
844.571	2918
844.708	3066
844.844	3161
844.98	3249
845.117	3203
845.253	3055
845.389	3001
845.525	3123
845.661	3062
845.798	3013
845.934	3119
846.07	3070
846.206	3230
846.342	3283
846.478	3199
846.614	3047
846.75	3070
846.886	3017
847.022	3233
847.158	3154
847.294	3161
847.429	3226
847.565	3188
847.701	3462
847.837	3058
847.972	2982
848.108	3142
848.244	3161
848.379	2948
848.515	2937
848.65	2952
848.786	2971
848.921	3001
849.057	3108
849.192	3119
849.328	3043
849.463	3119
849.598	3062
849.734	3001
849.869	2937
850.004	2925
850.14	2929
850.275	2925
850.41	2834
850.545	2857
850.68	2941
850.815	2929
850.95	2979
851.085	3180
851.22	3081
851.355	2986
851.49	2933
851.625	2990
851.76	3028
851.895	2956
852.03	2899
852.165	2990
852.299	3093
852.434	3165
852.569	3112
852.703	3188
852.838	3256
852.973	3302
853.107	3329
853.242	3142
853.376	3119
853.511	2982
853.645	3024
853.78	3253
853.914	3127
854.048	3116
854.183	3039
854.317	3131
854.451	3279
854.585	3138
854.72	3089
854.854	3184
854.988	3047
855.122	3070
855.256	2975
855.39	3127
855.524	3226
855.658	3214
855.792	3150
855.926	3211
856.06	3230
856.194	3253
856.327	3165
856.461	3062
856.595	3093
856.729	3062
856.862	3192
856.996	3173
857.13	3180
857.263	3214
857.397	3283
857.53	3085
857.664	3180
857.797	3207
857.931	3233
858.064	3154
858.197	3226
858.331	3161
858.464	3085
858.597	2998
858.731	3131
858.864	3154
858.997	3085
859.13	3146
859.263	3157
859.396	3192
859.529	3077
859.662	3077
859.795	3028
859.928	3138
860.061	3264
860.194	3268
860.327	3150
860.46	3127
860.592	3214
860.725	3211
860.858	3230
860.99	3085
861.123	3062
861.256	3024
861.388	3142
861.521	3816
861.653	2990
861.786	2990
861.918	2971
862.05	3058
862.183	3127
862.315	3142
862.447	3180
862.58	3074
862.712	2971
862.844	2876
862.976	2998
863.108	3039
863.24	3405
863.372	2864
863.504	2975
863.636	2941
863.768	3047
863.9	2990
864.032	2922
864.164	2944
864.296	3039
864.428	3085
864.559	3097
864.691	3028
864.823	3070
864.954	3070
865.086	3013
865.217	2956
865.349	2952
865.48	2960
865.612	3001
865.743	3112
865.875	2975
866.006	2910
866.137	2963
866.269	2918
866.4	2918
866.531	2883
866.662	2914
866.793	2929
866.924	2868
867.055	2971
867.186	2933
867.317	2880
867.448	2834
867.579	2823
867.71	2815
867.841	2830
867.972	2906
868.103	2895
868.233	2872
868.364	2849
868.495	2883
868.625	3058
868.756	3131
868.886	2956
869.017	3036
869.147	3188
869.278	3131
869.408	3051
869.539	3017
869.669	3055
869.799	3051
869.929	3135
870.06	3112
870.19	3344
870.32	3306
870.45	3302
870.58	3386
870.71	3473
870.84	3447
870.97	3298
871.1	3241
871.23	3488
871.36	3439
871.489	3317
871.619	3412
871.749	3348
871.879	3428
872.008	3466
872.138	3382
872.267	3283
872.397	3161
872.526	3127
872.656	2998
872.785	3062
872.915	3218
873.044	3287
873.173	3214
873.303	3260
873.432	3207
873.561	3226
873.69	3154
873.819	3142
873.948	3199
874.077	3066
874.206	3047
874.335	3077
874.464	3192
874.593	3321
874.722	3222
874.851	3420
874.979	3355
875.108	3287
875.237	3195
875.365	3135
875.494	3161
875.623	3237
875.751	3100
875.88	3131
876.008	3135
876.136	3249
876.265	3367
876.393	3511
876.521	3374
876.65	3374
876.778	3344
876.906	3233
877.034	3180
877.162	3241
877.29	3199
877.418	3260
877.546	3241
877.674	3241
877.802	3214
877.93	3226
878.058	3108
878.185	3077
878.313	3176
878.441	3184
878.568	3070
878.696	3150
878.824	3245
878.951	3256
879.079	3458
879.206	3606
879.333	3412
879.461	3325
879.588	3336
879.715	3447
879.842	3576
879.97	3363
880.097	3203
880.224	3131
880.351	3169
880.478	3222
880.605	3211
880.732	3203
880.859	3473
880.986	3317
881.112	3348
881.239	3192
881.366	3104
881.493	3032
881.619	2975
881.746	3055
881.872	3112
881.999	3100
882.125	3138
882.252	3214
882.378	3279
882.505	3431
882.631	3253
882.757	3138
882.883	3211
883.01	3192
883.136	3146
883.262	3100
883.388	3097
883.514	3302
883.64	3359
883.766	3302
883.892	3184
884.018	3218
884.143	3382
884.269	3557
884.395	3218
884.52	3165
884.646	3207
884.772	3123
884.897	3116
885.023	3214
885.148	3317
885.274	3424
885.399	3294
885.524	3272
885.65	3245
885.775	3306
885.9	3313
886.025	3431
886.15	3348
886.275	3264
886.4	3233
886.525	3325
886.65	3279
886.775	3245
886.9	3477
887.025	3629
887.149	3416
887.274	3249
887.399	3199
887.523	3192
887.648	3203
887.773	3184
887.897	3359
888.021	3332
888.146	3310
888.27	3435
888.395	3511
888.519	3412
888.643	3439
888.767	3435
888.891	3336
889.015	3199
889.139	3275
889.263	3264
889.387	3424
889.511	3485
889.635	3405
889.759	3294
889.883	3291
890.006	3382
890.13	3462
890.254	3291
890.377	3344
890.501	3176
890.624	3165
890.748	3291
890.871	3176
890.995	3119
891.118	3047
891.241	3157
891.364	3180
891.488	3272
891.611	3176
891.734	3207
891.857	3279
891.98	3260
892.103	3332
892.226	3268
892.349	3218
892.471	3116
892.594	3233
892.717	3287
892.839	3249
892.962	3264
893.085	3344
893.207	3275
893.33	3184
893.452	3214
893.575	3336
893.697	3192
893.819	3443
893.941	3500
894.064	3458
894.186	3264
894.308	3256
894.43	3393
894.552	3530
894.674	3496
894.796	3287
894.918	3332
895.04	3279
895.161	3424
895.283	3378
895.405	3317
895.526	3332
895.648	3485
895.769	3389
895.891	3416
896.012	3466
896.134	3393
896.255	3397
896.376	3370
896.498	3386
896.619	3401
896.74	3367
896.861	3420
896.982	3679
897.103	3842
897.224	3568
897.345	3447
897.466	3416
897.587	3526
897.708	3622
897.828	3530
897.949	3393
898.07	3321
898.19	3374
898.311	3610
898.431	3435
898.552	3553
898.672	3580
898.792	3614
898.913	3511
899.033	3405
899.153	3272
899.273	3214
899.393	3287
899.513	3287
899.633	3313
899.753	3317
899.873	3245
899.993	3344
900.113	3363
900.232	3382
900.352	3325
900.472	3298
900.591	3214
900.711	3264
900.83	3237
900.95	3363
901.069	3515
901.189	3336
901.308	3165
901.427	3142
901.546	3214
901.665	3294
901.784	3344
901.904	3226
902.023	3165
902.141	2990
902.26	2967
902.379	3180
902.498	3077
902.617	3062
902.735	3173
902.854	3241
902.973	3176
903.091	3024
903.21	3047
903.328	3093
903.446	3074
903.565	3100
903.683	3180
903.801	3135
903.919	3222
904.038	3283
904.156	3173
904.274	3294
904.392	3230
904.51	3294
904.627	3336
904.745	3443
904.863	3507
904.981	3291
905.098	3165
905.216	3241
905.334	3302
905.451	3321
905.569	3325
905.686	3435
905.803	3439
905.921	3298
906.038	3435
906.155	3329
906.272	3306
906.389	3355
906.506	3230
906.623	3287
906.74	3268
906.857	3169
906.974	3253
907.091	3424
907.208	3591
907.324	3500
907.441	3389
907.557	3218
907.674	3195
907.79	3211
907.907	3241
908.023	3374
908.139	3344
908.256	3348
908.372	3363
908.488	3340
908.604	3294
908.72	3226
908.836	3302
908.952	3230
909.068	3329
909.184	3507
909.3	3378
909.415	3477
909.531	3443
909.647	3237
909.762	3310
909.878	3264
909.993	3359
910.108	3348
910.224	3336
910.339	3393
910.454	3340
910.57	3287
910.685	3230
910.8	3580
910.915	3568
911.03	3504
911.145	3272
911.259	3260
911.374	3291
911.489	3207
911.604	3233
911.718	3089
911.833	3131
911.947	3043
912.062	2963
912.176	3188
912.291	3192
912.405	3199
912.519	3401
912.633	3492
912.748	3306
912.862	3264
912.976	3169
913.09	3066
913.204	3146
913.318	3180
913.431	3336
913.545	3287
913.659	3409
913.772	3325
913.886	3237
914	3188
914.113	3370
914.226	3382
914.34	3386
914.453	3188
914.566	3420
914.68	3325
914.793	3336
914.906	3108
915.019	3089
915.132	3089
915.245	3157
915.358	3176
915.47	3218
915.583	3211
915.696	3287
915.809	3401
915.921	3393
916.034	3218
916.146	3256
916.259	3222
916.371	3389
916.483	3348
916.595	3275
916.708	3344
916.82	3329
916.932	3321
917.044	3363
917.156	3348
917.268	3241
917.38	3306
917.491	3272
917.603	3386
917.715	3466
917.826	3450
917.938	3329
918.049	3275
918.161	3401
918.272	3553
918.384	3576
918.495	3477
918.606	3325
918.717	3249
918.828	3321
918.939	3424
919.05	3287
919.161	3359
919.272	3154
919.383	3283
919.494	3454
919.604	3675
919.715	3450
919.826	3397
919.936	3450
920.047	3568
920.157	3542
920.267	3759
920.378	3606
920.488	3564
920.598	3759
920.708	3926
920.818	3778
920.928	3816
921.038	3960
921.148	3987
921.258	3698
921.368	3641
921.477	3545
921.587	3515
921.697	3435
921.806	3591
921.916	3504
922.025	3340
922.134	3325
922.244	3317
922.353	3405
922.462	3260
922.571	3218
922.68	3093
922.789	3066
922.898	3154
923.007	3081
923.116	3161
923.224	3176
923.333	3199
923.442	3112
923.55	3093
923.659	3146
923.767	3268
923.876	3089
923.984	3233
924.092	3123
924.201	3188
924.309	3195
924.417	3199
924.525	3173
924.633	3253
924.741	4131
924.849	3013
924.956	3260
925.064	3062
925.172	3051
925.279	3112
925.387	3173
925.494	3192
925.602	3348
925.709	3317
925.816	3192
925.924	3268
926.031	3370
926.138	3283
926.245	3393
926.352	3226
926.459	3454
926.566	3462
926.673	3317
926.779	3249
926.886	3264
926.993	3123
927.099	3146
927.206	3104
927.312	3093
927.419	3203
927.525	3214
927.631	3253
927.737	3146
927.843	3100
927.95	2990
928.056	3169
928.162	3203
928.267	3245
928.373	3850
928.479	3298
928.585	3093
928.69	3180
928.796	3237
928.901	3184
929.007	3043
929.112	3180
929.218	3154
929.323	3146
929.428	3097
929.533	3302
929.638	3100
929.743	3195
929.848	3218
929.953	3195
930.058	3154
930.163	3001
930.267	3043
930.372	3184
930.477	3020
930.581	3294
930.685	3165
930.79	3039
930.894	3100
930.998	3039
931.103	3249
931.207	2922
931.311	2963
931.415	2918
931.519	2769
931.623	2823
