Data from test_V78500241_1339.txt Node
Date: Fri Mar 25 16:24:28 CST 2022
User: usil
Spectrometer: V785-0024
Trigger mode: 0
Integration Time (sec): 4.000000E-1
Scans to average: 1
Nonlinearity correction enabled: false
Boxcar width: 0
Storing dark spectrum: false
XAxis mode: Wavelengths
Number of Pixels in Spectrum: 1024
>>>>>Begin Spectral Data<<<<<
801.071	2952
801.214	2960
801.356	2887
801.499	2899
801.641	2883
801.783	2895
801.926	3051
802.068	2944
802.211	3020
802.353	3066
802.496	2960
802.638	2998
802.78	3032
802.923	3104
803.065	3032
803.208	2906
803.35	2906
803.492	2979
803.635	2933
803.777	2785
803.919	2876
804.061	3184
804.204	2967
804.346	2887
804.488	2849
804.63	3009
804.773	2845
804.915	2864
805.057	3066
805.199	2929
805.341	3005
805.483	3051
805.626	2990
805.768	3001
805.91	3081
806.052	3104
806.194	3043
806.336	3230
806.478	3032
806.62	2948
806.762	2982
806.904	3039
807.046	3146
807.188	3001
807.33	2910
807.472	3001
807.614	2941
807.756	3005
807.898	2902
808.04	2929
808.182	2994
808.324	2986
808.465	2902
808.607	2906
808.749	2815
808.891	2853
809.033	2979
809.174	2982
809.316	2902
809.458	2899
809.6	2754
809.741	2762
809.883	2777
810.025	2838
810.166	2868
810.308	2819
810.45	2819
810.591	2804
810.733	2804
810.875	2826
811.016	2781
811.158	2785
811.299	2819
811.441	2925
811.582	2914
811.724	2804
811.865	2842
812.007	2902
812.148	2883
812.29	2891
812.431	2891
812.573	2952
812.714	2956
812.855	3074
812.997	3055
813.138	3097
813.279	3032
813.421	2975
813.562	2990
813.703	2883
813.845	2925
813.986	2777
814.127	2743
814.268	2811
814.41	2845
814.551	2842
814.692	2876
814.833	2826
814.974	2914
815.115	2952
815.256	2838
815.397	2815
815.539	2895
815.68	2743
815.821	2781
815.962	2975
816.103	2925
816.244	2872
816.385	2880
816.526	2979
816.666	2925
816.807	2811
816.948	2864
817.089	2944
817.23	2826
817.371	2762
817.512	2788
817.653	2834
817.793	2819
817.934	2902
818.075	2979
818.216	3005
818.356	3013
818.497	2853
818.638	2766
818.778	2845
818.919	2754
819.06	2792
819.2	2883
819.341	2792
819.481	2823
819.622	2937
819.762	3116
819.903	3047
820.043	2937
820.184	2902
820.324	2910
820.465	3001
820.605	3036
820.746	3036
820.886	2941
821.026	3108
821.167	3142
821.307	3249
821.447	3302
821.588	3256
821.728	3195
821.868	3184
822.008	3074
822.149	3173
822.289	3233
822.429	3055
822.569	3077
822.709	3195
822.849	3032
822.99	3070
823.13	3150
823.27	3199
823.41	3138
823.55	3173
823.69	3188
823.83	3211
823.97	3112
824.11	2998
824.25	2990
824.389	3077
824.529	3116
824.669	3146
824.809	3207
824.949	3260
825.089	3233
825.228	3150
825.368	3028
825.508	2956
825.648	2979
825.787	2998
825.927	3024
826.067	2963
826.206	2960
826.346	3028
826.485	3058
826.625	3108
826.765	3294
826.904	3165
827.044	2982
827.183	2963
827.323	2868
827.462	2994
827.601	2937
827.741	2956
827.88	2918
828.02	2849
828.159	2971
828.298	3024
828.437	3108
828.577	3020
828.716	3287
828.855	3062
828.994	2944
829.134	2876
829.273	2929
829.412	2876
829.551	2838
829.69	2918
829.829	2994
829.968	3123
830.107	3032
830.246	3032
830.385	2952
830.524	2887
830.663	2823
830.802	2735
830.941	2651
831.08	2682
831.219	2746
831.357	2792
831.496	2944
831.635	2716
831.774	2644
831.913	2632
832.051	2518
832.19	2602
832.329	2689
832.467	2541
832.606	2492
832.744	2587
832.883	2575
833.022	2598
833.16	2644
833.299	2697
833.437	2693
833.576	2689
833.714	2701
833.852	2754
833.991	2754
834.129	2845
834.267	2826
834.406	2796
834.544	2872
834.682	2891
834.821	2895
834.959	3066
835.097	2876
835.235	3047
835.373	3013
835.511	2979
835.65	2937
835.788	2967
835.926	2834
836.064	2796
836.202	2845
836.34	3108
836.478	3150
836.615	3017
836.753	3116
836.891	3230
837.029	3169
837.167	3123
837.305	3077
837.443	3032
837.58	2960
837.718	3176
837.856	3058
837.993	3039
838.131	3100
838.269	3055
838.406	3093
838.544	3100
838.681	2963
838.819	2941
838.956	2857
839.094	2815
839.231	2922
839.369	3028
839.506	3340
839.643	3260
839.781	3047
839.918	2941
840.055	3020
840.193	3066
840.33	3055
840.467	3104
840.604	3150
840.742	3389
840.879	3066
841.016	3062
841.153	3070
841.29	3321
841.427	3291
841.564	3237
841.701	3329
841.838	3237
841.975	3180
842.112	3260
842.249	3077
842.385	3093
842.522	3237
842.659	3077
842.796	3081
842.933	3127
843.069	3024
843.206	3051
843.343	3184
843.479	3093
843.616	3165
843.752	2929
843.889	2849
844.025	3051
844.162	2887
844.298	3070
844.435	2944
844.571	2937
844.708	3070
844.844	3157
844.98	3207
845.117	3241
845.253	3097
845.389	2979
845.525	3089
845.661	3074
845.798	2979
845.934	3089
846.07	3043
846.206	3199
846.342	3321
846.478	3241
846.614	3081
846.75	3047
846.886	3032
847.022	3256
847.158	3157
847.294	3188
847.429	3233
847.565	3237
847.701	3447
847.837	3024
847.972	2967
848.108	3173
848.244	3138
848.379	2986
848.515	2906
848.65	2925
848.786	2971
848.921	2998
849.057	3066
849.192	3138
849.328	3097
849.463	3108
849.598	3097
849.734	3020
849.869	2975
850.004	2925
850.14	2941
850.275	2902
850.41	2819
850.545	2891
850.68	2941
850.815	2941
850.95	2982
851.085	3199
851.22	3108
851.355	3036
851.49	2952
851.625	2994
851.76	3020
851.895	2960
852.03	2914
852.165	3036
852.299	3108
852.434	3169
852.569	3161
852.703	3131
852.838	3211
852.973	3370
853.107	3340
853.242	3116
853.376	3062
853.511	2971
853.645	3013
853.78	3226
853.914	3100
854.048	3104
854.183	3089
854.317	3097
854.451	3287
854.585	3085
854.72	3051
854.854	3188
854.988	3055
855.122	3070
855.256	2971
855.39	3116
855.524	3241
855.658	3173
855.792	3119
855.926	3173
856.06	3169
856.194	3222
856.327	3150
856.461	3062
856.595	3116
856.729	3093
856.862	3203
856.996	3161
857.13	3184
857.263	3188
857.397	3249
857.53	3176
857.664	3218
857.797	3230
857.931	3260
858.064	3169
858.197	3249
858.331	3154
858.464	3047
858.597	2960
858.731	3108
858.864	3135
858.997	3089
859.13	3146
859.263	3184
859.396	3195
859.529	3074
859.662	3062
859.795	3024
859.928	3161
860.061	3211
860.194	3253
860.327	3150
860.46	3077
860.592	3207
860.725	3214
860.858	3226
860.99	3119
861.123	3077
861.256	3055
861.388	3104
861.521	3686
861.653	2998
861.786	2998
861.918	3020
862.05	3070
862.183	3093
862.315	3127
862.447	3192
862.58	3112
862.712	2941
862.844	2853
862.976	2986
863.108	3001
863.24	3340
863.372	2849
863.504	2956
863.636	2952
863.768	3001
863.9	2933
864.032	2918
864.164	2979
864.296	3036
864.428	3104
864.559	3119
864.691	3036
864.823	3062
864.954	3047
865.086	3058
865.217	2956
865.349	2929
865.48	2979
865.612	2998
865.743	3123
865.875	2994
866.006	2941
866.137	2933
866.269	2979
866.4	2918
866.531	2902
866.662	2895
866.793	2883
866.924	2899
867.055	2952
867.186	2910
867.317	2902
867.448	2823
867.579	2838
867.71	2845
867.841	2792
867.972	2918
868.103	2914
868.233	2918
868.364	2857
868.495	2925
868.625	3047
868.756	3150
868.886	2986
869.017	3043
869.147	3218
869.278	3169
869.408	3074
869.539	3005
869.669	3058
869.799	3036
869.929	3112
870.06	3085
870.19	3279
870.32	3256
870.45	3310
870.58	3378
870.71	3428
870.84	3450
870.97	3283
871.1	3256
871.23	3447
871.36	3458
871.489	3401
871.619	3393
871.749	3397
871.879	3428
872.008	3458
872.138	3351
872.267	3287
872.397	3154
872.526	3070
872.656	3017
872.785	3043
872.915	3249
873.044	3283
873.173	3245
873.303	3207
873.432	3237
873.561	3226
873.69	3116
873.819	3138
873.948	3222
874.077	3135
874.206	3020
874.335	3066
874.464	3188
874.593	3351
874.722	3249
874.851	3397
874.979	3363
875.108	3294
875.237	3173
875.365	3180
875.494	3188
875.623	3264
875.751	3093
875.88	3104
876.008	3165
876.136	3150
876.265	3336
876.393	3488
876.521	3370
876.65	3359
876.778	3340
876.906	3222
877.034	3154
877.162	3233
877.29	3146
877.418	3222
877.546	3245
877.674	3233
877.802	3233
877.93	3241
878.058	3165
878.185	3104
878.313	3176
878.441	3211
878.568	3032
878.696	3176
878.824	3260
878.951	3279
879.079	3435
879.206	3633
879.333	3428
879.461	3351
879.588	3382
879.715	3492
879.842	3606
879.97	3340
880.097	3195
880.224	3112
880.351	3180
880.478	3226
880.605	3188
880.732	3161
880.859	3454
880.986	3291
881.112	3348
881.239	3218
881.366	3058
881.493	3005
881.619	3036
881.746	3058
881.872	3085
881.999	3112
882.125	3112
882.252	3199
882.378	3298
882.505	3409
882.631	3264
882.757	3173
882.883	3192
883.01	3214
883.136	3097
883.262	3100
883.388	3043
883.514	3317
883.64	3355
883.766	3291
883.892	3180
884.018	3203
884.143	3363
884.269	3526
884.395	3176
884.52	3131
884.646	3150
884.772	3142
884.897	3093
885.023	3222
885.148	3359
885.274	3435
885.399	3344
885.524	3302
885.65	3264
885.775	3317
885.9	3283
886.025	3458
886.15	3389
886.275	3298
886.4	3211
886.525	3306
886.65	3287
886.775	3306
886.9	3477
887.025	3641
887.149	3431
887.274	3218
887.399	3169
887.523	3214
887.648	3146
887.773	3214
887.897	3329
888.021	3405
888.146	3306
888.27	3416
888.395	3523
888.519	3435
888.643	3462
888.767	3462
888.891	3306
889.015	3222
889.139	3298
889.263	3241
889.387	3386
889.511	3477
889.635	3435
889.759	3260
889.883	3302
890.006	3386
890.13	3492
890.254	3283
890.377	3340
890.501	3173
890.624	3169
890.748	3313
890.871	3218
890.995	3142
891.118	3070
891.241	3199
891.364	3184
891.488	3317
891.611	3150
891.734	3192
891.857	3260
891.98	3233
892.103	3287
892.226	3321
892.349	3222
892.471	3127
892.594	3241
892.717	3256
892.839	3275
892.962	3306
893.085	3344
893.207	3283
893.33	3131
893.452	3173
893.575	3355
893.697	3233
893.819	3416
893.941	3523
894.064	3447
894.186	3241
894.308	3230
894.43	3443
894.552	3515
894.674	3439
894.796	3302
894.918	3302
895.04	3253
895.161	3473
895.283	3367
895.405	3264
895.526	3397
895.648	3420
895.769	3386
895.891	3492
896.012	3458
896.134	3458
896.255	3443
896.376	3370
896.498	3378
896.619	3409
896.74	3359
896.861	3439
896.982	3675
897.103	3857
897.224	3584
897.345	3523
897.466	3447
897.587	3511
897.708	3603
897.828	3530
897.949	3409
898.07	3298
898.19	3416
898.311	3572
898.431	3420
898.552	3496
898.672	3591
898.792	3568
898.913	3545
899.033	3409
899.153	3245
899.273	3211
899.393	3268
899.513	3294
899.633	3332
899.753	3359
899.873	3306
899.993	3363
900.113	3344
900.232	3431
900.352	3344
900.472	3306
900.591	3203
900.711	3302
900.83	3241
900.95	3355
901.069	3458
901.189	3344
901.308	3127
901.427	3138
901.546	3173
901.665	3279
901.784	3313
901.904	3211
902.023	3131
902.141	3013
902.26	2994
902.379	3161
902.498	3066
902.617	3097
902.735	3188
902.854	3233
902.973	3214
903.091	3062
903.21	3077
903.328	3119
903.446	3112
903.565	3074
903.683	3222
903.801	3104
903.919	3245
904.038	3313
904.156	3222
904.274	3298
904.392	3218
904.51	3291
904.627	3336
904.745	3420
904.863	3481
904.981	3256
905.098	3138
905.216	3222
905.334	3321
905.451	3287
905.569	3329
905.686	3405
905.803	3409
905.921	3298
906.038	3424
906.155	3348
906.272	3264
906.389	3351
906.506	3207
906.623	3253
906.74	3245
906.857	3195
906.974	3264
907.091	3439
907.208	3584
907.324	3443
907.441	3374
907.557	3245
907.674	3233
907.79	3195
907.907	3199
908.023	3378
908.139	3370
908.256	3298
908.372	3393
908.488	3340
908.604	3245
908.72	3264
908.836	3272
908.952	3302
909.068	3294
909.184	3504
909.3	3443
909.415	3469
909.531	3424
909.647	3332
909.762	3317
909.878	3279
909.993	3348
910.108	3317
910.224	3359
910.339	3416
910.454	3329
910.57	3287
910.685	3195
910.8	3545
910.915	3530
911.03	3416
911.145	3226
911.259	3249
911.374	3279
911.489	3211
911.604	3241
911.718	3135
911.833	3108
911.947	3051
912.062	2967
912.176	3135
912.291	3195
912.405	3226
912.519	3447
912.633	3424
912.748	3359
912.862	3260
912.976	3157
913.09	3116
913.204	3138
913.318	3211
913.431	3332
913.545	3367
913.659	3439
913.772	3340
913.886	3226
914	3230
914.113	3378
914.226	3401
914.34	3359
914.453	3195
914.566	3340
914.68	3279
914.793	3310
914.906	3138
915.019	3104
915.132	3036
915.245	3176
915.358	3214
915.47	3256
915.583	3253
915.696	3279
915.809	3359
915.921	3405
916.034	3272
916.146	3264
916.259	3192
916.371	3397
916.483	3389
916.595	3291
916.708	3325
916.82	3272
916.932	3298
917.044	3344
917.156	3348
917.268	3230
917.38	3279
917.491	3306
917.603	3355
917.715	3462
917.826	3458
917.938	3329
918.049	3245
918.161	3416
918.272	3549
918.384	3595
918.495	3477
918.606	3348
918.717	3253
918.828	3370
918.939	3397
919.05	3268
919.161	3363
919.272	3123
919.383	3298
919.494	3477
919.604	3675
919.715	3488
919.826	3405
919.936	3443
920.047	3587
920.157	3606
920.267	3759
920.378	3580
920.488	3545
920.598	3751
920.708	3960
920.818	3857
920.928	3850
921.038	4017
921.148	4006
921.258	3705
921.368	3595
921.477	3603
921.587	3545
921.697	3469
921.806	3603
921.916	3519
922.025	3370
922.134	3340
922.244	3310
922.353	3447
922.462	3272
922.571	3184
922.68	3116
922.789	3036
922.898	3119
923.007	3112
923.116	3226
923.224	3157
923.333	3188
923.442	3112
923.55	3070
923.659	3135
923.767	3241
923.876	3116
923.984	3264
924.092	3104
924.201	3214
924.309	3218
924.417	3279
924.525	3154
924.633	3260
924.741	3975
924.849	3055
924.956	3272
925.064	3100
925.172	3039
925.279	3119
925.387	3184
925.494	3192
925.602	3359
925.709	3374
925.816	3199
925.924	3253
926.031	3382
926.138	3329
926.245	3359
926.352	3249
926.459	3450
926.566	3469
926.673	3310
926.779	3249
926.886	3302
926.993	3142
927.099	3127
927.206	3085
927.312	3131
927.419	3199
927.525	3207
927.631	3275
927.737	3146
927.843	3150
927.95	3032
928.056	3108
928.162	3180
928.267	3260
928.373	3873
928.479	3283
928.585	3089
928.69	3192
928.796	3275
928.901	3180
929.007	3074
929.112	3150
929.218	3169
929.323	3188
929.428	3165
929.533	3306
929.638	3089
929.743	3184
929.848	3249
929.953	3192
930.058	3127
930.163	3005
930.267	3066
930.372	3176
930.477	3055
930.581	3321
930.685	3199
930.79	3055
930.894	3154
930.998	3089
931.103	3275
931.207	2956
931.311	2960
931.415	2929
931.519	2781
931.623	2785
