Data from test_V78500241_420.txt Node
Date: Fri Mar 25 16:18:06 CST 2022
User: usil
Spectrometer: V785-0024
Trigger mode: 0
Integration Time (sec): 4.000000E-1
Scans to average: 1
Nonlinearity correction enabled: false
Boxcar width: 0
Storing dark spectrum: false
XAxis mode: Wavelengths
Number of Pixels in Spectrum: 1024
>>>>>Begin Spectral Data<<<<<
801.071	2918
801.214	2960
801.356	2857
801.499	2876
801.641	2922
801.783	2925
801.926	3047
802.068	2967
802.211	2998
802.353	3062
802.496	2929
802.638	2990
802.78	3024
802.923	3055
803.065	3017
803.208	2895
803.35	2902
803.492	2925
803.635	2910
803.777	2754
803.919	2883
804.061	3184
804.204	2933
804.346	2876
804.488	2845
804.63	2956
804.773	2838
804.915	2891
805.057	3077
805.199	2914
805.341	2952
805.483	3009
805.626	2994
805.768	2960
805.91	3062
806.052	3127
806.194	3036
806.336	3222
806.478	3020
806.62	2937
806.762	2963
806.904	3017
807.046	3154
807.188	2956
807.33	2941
807.472	2986
807.614	2902
807.756	2956
807.898	2922
808.04	2895
808.182	2952
808.324	2956
808.465	2853
808.607	2861
808.749	2800
808.891	2853
809.033	2952
809.174	2922
809.316	2868
809.458	2910
809.6	2735
809.741	2762
809.883	2727
810.025	2857
810.166	2834
810.308	2796
810.45	2830
810.591	2792
810.733	2735
810.875	2830
811.016	2800
811.158	2743
811.299	2826
811.441	2902
811.582	2834
811.724	2804
811.865	2819
812.007	2899
812.148	2864
812.29	2853
812.431	2899
812.573	2944
812.714	2952
812.855	3001
812.997	3009
813.138	3127
813.279	3001
813.421	2941
813.562	2929
813.703	2849
813.845	2872
813.986	2750
814.127	2731
814.268	2834
814.41	2834
814.551	2781
814.692	2853
814.833	2800
814.974	2895
815.115	2944
815.256	2845
815.397	2830
815.539	2830
815.68	2769
815.821	2769
815.962	2922
816.103	2895
816.244	2883
816.385	2872
816.526	2971
816.666	2883
816.807	2766
816.948	2864
817.089	2937
817.23	2876
817.371	2766
817.512	2811
817.653	2819
817.793	2823
817.934	2842
818.075	2941
818.216	3001
818.356	3047
818.497	2857
818.638	2811
818.778	2834
818.919	2804
819.06	2785
819.2	2861
819.341	2830
819.481	2781
819.622	2929
819.762	3093
819.903	3070
820.043	2910
820.184	2906
820.324	2910
820.465	3028
820.605	3028
820.746	3005
820.886	2933
821.026	3081
821.167	3188
821.307	3253
821.447	3256
821.588	3237
821.728	3203
821.868	3192
822.008	3085
822.149	3195
822.289	3226
822.429	3066
822.569	3089
822.709	3142
822.849	3020
822.99	3074
823.13	3192
823.27	3135
823.41	3097
823.55	3161
823.69	3161
823.83	3180
823.97	3085
824.11	3005
824.25	3017
824.389	3039
824.529	3116
824.669	3043
824.809	3203
824.949	3237
825.089	3207
825.228	3138
825.368	3001
825.508	2952
825.648	2975
825.787	3028
825.927	3036
826.067	2952
826.206	2967
826.346	2998
826.485	3081
826.625	3085
826.765	3237
826.904	3214
827.044	2990
827.183	2937
827.323	2876
827.462	2994
827.601	2899
827.741	2880
827.88	2967
828.02	2845
828.159	2933
828.298	3009
828.437	3070
828.577	3039
828.716	3180
828.855	3047
828.994	2887
829.134	2864
829.273	2963
829.412	2868
829.551	2876
829.69	2876
829.829	2979
829.968	3154
830.107	2967
830.246	2998
830.385	2906
830.524	2902
830.663	2830
830.802	2727
830.941	2663
831.08	2651
831.219	2743
831.357	2754
831.496	2933
831.635	2727
831.774	2613
831.913	2632
832.051	2545
832.19	2533
832.329	2686
832.467	2537
832.606	2484
832.744	2564
832.883	2556
833.022	2575
833.16	2686
833.299	2674
833.437	2670
833.576	2705
833.714	2693
833.852	2720
833.991	2754
834.129	2804
834.267	2807
834.406	2777
834.544	2868
834.682	2883
834.821	2857
834.959	3089
835.097	2910
835.235	2998
835.373	2998
835.511	3005
835.65	2963
835.788	2956
835.926	2830
836.064	2792
836.202	2819
836.34	3089
836.478	3135
836.615	3036
836.753	3127
836.891	3207
837.029	3165
837.167	3070
837.305	3039
837.443	3051
837.58	2914
837.718	3131
837.856	3058
837.993	2990
838.131	3093
838.269	3058
838.406	3112
838.544	3077
838.681	2891
838.819	2876
838.956	2834
839.094	2811
839.231	2956
839.369	3024
839.506	3367
839.643	3180
839.781	3013
839.918	2925
840.055	3043
840.193	3001
840.33	3051
840.467	3097
840.604	3192
840.742	3340
840.879	3066
841.016	3077
841.153	3089
841.29	3344
841.427	3321
841.564	3264
841.701	3302
841.838	3230
841.975	3180
842.112	3199
842.249	3066
842.385	3058
842.522	3233
842.659	3077
842.796	3051
842.933	3055
843.069	3055
843.206	3032
843.343	3146
843.479	3066
843.616	3161
843.752	2883
843.889	2845
844.025	3100
844.162	2826
844.298	3051
844.435	2914
844.571	2887
844.708	3047
844.844	3138
844.98	3237
845.117	3180
845.253	3047
845.389	2979
845.525	3074
845.661	3100
845.798	3036
845.934	3104
846.07	3032
846.206	3146
846.342	3310
846.478	3230
846.614	3051
846.75	3036
846.886	3028
847.022	3241
847.158	3135
847.294	3173
847.429	3218
847.565	3222
847.701	3488
847.837	3032
847.972	2971
848.108	3116
848.244	3131
848.379	2982
848.515	2944
848.65	2895
848.786	2941
848.921	2979
849.057	3081
849.192	3173
849.328	3074
849.463	3119
849.598	3051
849.734	3043
849.869	2956
850.004	2902
850.14	2944
850.275	2941
850.41	2762
850.545	2853
850.68	2899
850.815	2990
850.95	2956
851.085	3150
851.22	3097
851.355	3009
851.49	2971
851.625	2979
851.76	2982
851.895	2910
852.03	2906
852.165	2982
852.299	3112
852.434	3184
852.569	3131
852.703	3173
852.838	3203
852.973	3298
853.107	3336
853.242	3138
853.376	3089
853.511	2956
853.645	3028
853.78	3230
853.914	3077
854.048	3081
854.183	3020
854.317	3123
854.451	3275
854.585	3127
854.72	3085
854.854	3184
854.988	3009
855.122	3074
855.256	2975
855.39	3077
855.524	3256
855.658	3142
855.792	3131
855.926	3165
856.06	3188
856.194	3264
856.327	3138
856.461	3055
856.595	3070
856.729	3062
856.862	3195
856.996	3138
857.13	3157
857.263	3192
857.397	3294
857.53	3100
857.664	3176
857.797	3222
857.931	3218
858.064	3169
858.197	3173
858.331	3146
858.464	3089
858.597	2990
858.731	3089
858.864	3119
858.997	3081
859.13	3154
859.263	3192
859.396	3226
859.529	3070
859.662	3100
859.795	3032
859.928	3169
860.061	3245
860.194	3325
860.327	3161
860.46	3085
860.592	3233
860.725	3260
860.858	3230
860.99	3081
861.123	3058
861.256	3074
861.388	3161
861.521	4006
861.653	3062
861.786	2990
861.918	2998
862.05	3119
862.183	3093
862.315	3173
862.447	3268
862.58	3123
862.712	2971
862.844	2933
862.976	3047
863.108	3009
863.24	3329
863.372	2956
863.504	2975
863.636	2998
863.768	3020
863.9	2963
864.032	2941
864.164	2979
864.296	3074
864.428	3119
864.559	3135
864.691	3104
864.823	3085
864.954	3074
865.086	3070
865.217	3039
865.349	2994
865.48	3058
865.612	3043
865.743	3222
865.875	3024
866.006	2971
866.137	3017
866.269	3001
866.4	2971
866.531	2998
866.662	2906
866.793	2929
866.924	2948
867.055	2960
867.186	2990
867.317	2918
867.448	2883
867.579	2914
867.71	2887
867.841	2883
867.972	2929
868.103	2944
868.233	2895
868.364	2887
868.495	2902
868.625	3070
868.756	3199
868.886	2982
869.017	3020
869.147	3176
869.278	3218
869.408	3108
869.539	3043
869.669	3180
869.799	3066
869.929	3142
870.06	3135
870.19	3386
870.32	3321
870.45	3344
870.58	3401
870.71	3504
870.84	3473
870.97	3332
871.1	3291
871.23	3500
871.36	3504
871.489	3363
871.619	3416
871.749	3462
871.879	3488
872.008	3515
872.138	3420
872.267	3306
872.397	3188
872.526	3142
872.656	3039
872.785	3131
872.915	3302
873.044	3344
873.173	3310
873.303	3256
873.432	3237
873.561	3302
873.69	3218
873.819	3188
873.948	3211
874.077	3108
874.206	3100
874.335	3138
874.464	3268
874.593	3389
874.722	3294
874.851	3428
874.979	3401
875.108	3374
875.237	3253
875.365	3214
875.494	3176
875.623	3287
875.751	3138
875.88	3131
876.008	3207
876.136	3279
876.265	3363
876.393	3534
876.521	3428
876.65	3416
876.778	3382
876.906	3291
877.034	3241
877.162	3253
877.29	3188
877.418	3233
877.546	3317
877.674	3272
877.802	3268
877.93	3245
878.058	3146
878.185	3135
878.313	3245
878.441	3241
878.568	3089
878.696	3192
878.824	3279
878.951	3321
879.079	3477
879.206	3603
879.333	3439
879.461	3348
879.588	3420
879.715	3511
879.842	3606
879.97	3431
880.097	3192
880.224	3135
880.351	3173
880.478	3207
880.605	3218
880.732	3222
880.859	3515
880.986	3348
881.112	3325
881.239	3226
881.366	3135
881.493	3028
881.619	3051
881.746	3093
881.872	3112
881.999	3116
882.125	3154
882.252	3294
882.378	3313
882.505	3443
882.631	3306
882.757	3207
882.883	3245
883.01	3253
883.136	3218
883.262	3119
883.388	3146
883.514	3336
883.64	3412
883.766	3306
883.892	3184
884.018	3233
884.143	3443
884.269	3580
884.395	3199
884.52	3180
884.646	3180
884.772	3176
884.897	3154
885.023	3207
885.148	3348
885.274	3454
885.399	3409
885.524	3302
885.65	3256
885.775	3310
885.9	3313
886.025	3454
886.15	3389
886.275	3336
886.4	3294
886.525	3344
886.65	3348
886.775	3310
886.9	3492
887.025	3637
887.149	3420
887.274	3264
887.399	3192
887.523	3226
887.648	3157
887.773	3211
887.897	3431
888.021	3431
888.146	3344
888.27	3500
888.395	3561
888.519	3435
888.643	3458
888.767	3523
888.891	3325
889.015	3264
889.139	3310
889.263	3313
889.387	3416
889.511	3515
889.635	3462
889.759	3321
889.883	3340
890.006	3424
890.13	3500
890.254	3298
890.377	3348
890.501	3237
890.624	3211
890.748	3340
890.871	3214
890.995	3154
891.118	3112
891.241	3192
891.364	3241
891.488	3348
891.611	3222
891.734	3199
891.857	3313
891.98	3249
892.103	3363
892.226	3317
892.349	3272
892.471	3154
892.594	3226
892.717	3321
892.839	3264
892.962	3306
893.085	3367
893.207	3344
893.33	3184
893.452	3237
893.575	3283
893.697	3298
893.819	3538
893.941	3504
894.064	3454
894.186	3313
894.308	3272
894.43	3439
894.552	3564
894.674	3504
894.796	3302
894.918	3325
895.04	3351
895.161	3458
895.283	3374
895.405	3351
895.526	3393
895.648	3458
895.769	3405
895.891	3481
896.012	3500
896.134	3473
896.255	3424
896.376	3393
896.498	3363
896.619	3424
896.74	3386
896.861	3443
896.982	3728
897.103	3884
897.224	3587
897.345	3519
897.466	3481
897.587	3538
897.708	3671
897.828	3580
897.949	3462
898.07	3321
898.19	3416
898.311	3606
898.431	3466
898.552	3561
898.672	3603
898.792	3606
898.913	3534
899.033	3443
899.153	3378
899.273	3260
899.393	3287
899.513	3370
899.633	3355
899.753	3351
899.873	3359
899.993	3393
900.113	3359
900.232	3389
900.352	3336
900.472	3332
900.591	3199
900.711	3317
900.83	3249
900.95	3431
901.069	3507
901.189	3344
901.308	3176
901.427	3165
901.546	3230
901.665	3313
901.784	3317
901.904	3279
902.023	3169
902.141	3032
902.26	3001
902.379	3165
902.498	3112
902.617	3077
902.735	3241
902.854	3253
902.973	3207
903.091	3089
903.21	3116
903.328	3154
903.446	3108
903.565	3142
903.683	3222
903.801	3131
903.919	3302
904.038	3306
904.156	3195
904.274	3321
904.392	3279
904.51	3253
904.627	3344
904.745	3428
904.863	3500
904.981	3260
905.098	3146
905.216	3275
905.334	3287
905.451	3283
905.569	3340
905.686	3462
905.803	3447
905.921	3275
906.038	3469
906.155	3363
906.272	3313
906.389	3355
906.506	3253
906.623	3279
906.74	3325
906.857	3199
906.974	3256
907.091	3477
907.208	3587
907.324	3507
907.441	3466
907.557	3230
907.674	3279
907.79	3241
907.907	3306
908.023	3370
908.139	3424
908.256	3351
908.372	3382
908.488	3340
908.604	3283
908.72	3211
908.836	3325
908.952	3272
909.068	3386
909.184	3496
909.3	3412
909.415	3481
909.531	3485
909.647	3310
909.762	3306
909.878	3256
909.993	3363
910.108	3367
910.224	3397
910.339	3439
910.454	3348
910.57	3294
910.685	3272
910.8	3644
910.915	3557
911.03	3447
911.145	3275
911.259	3317
911.374	3317
911.489	3230
911.604	3233
911.718	3150
911.833	3180
911.947	3066
912.062	3020
912.176	3188
912.291	3211
912.405	3222
912.519	3450
912.633	3454
912.748	3306
912.862	3275
912.976	3184
913.09	3085
913.204	3188
913.318	3233
913.431	3348
913.545	3351
913.659	3450
913.772	3329
913.886	3256
914	3233
914.113	3340
914.226	3420
914.34	3389
914.453	3222
914.566	3412
914.68	3283
914.793	3298
914.906	3161
915.019	3104
915.132	3112
915.245	3165
915.358	3249
915.47	3253
915.583	3260
915.696	3310
915.809	3481
915.921	3416
916.034	3298
916.146	3317
916.259	3275
916.371	3401
916.483	3363
916.595	3313
916.708	3344
916.82	3310
916.932	3370
917.044	3367
917.156	3405
917.268	3245
917.38	3275
917.491	3321
917.603	3355
917.715	3458
917.826	3477
917.938	3374
918.049	3325
918.161	3424
918.272	3542
918.384	3599
918.495	3466
918.606	3310
918.717	3249
918.828	3389
918.939	3401
919.05	3359
919.161	3401
919.272	3184
919.383	3336
919.494	3485
919.604	3686
919.715	3454
919.826	3416
919.936	3447
920.047	3595
920.157	3553
920.267	3797
920.378	3633
920.488	3572
920.598	3808
920.708	3941
920.818	3816
920.928	3873
921.038	4002
921.148	3991
921.258	3713
921.368	3625
921.477	3595
921.587	3584
921.697	3469
921.806	3663
921.916	3530
922.025	3359
922.134	3359
922.244	3321
922.353	3458
922.462	3287
922.571	3207
922.68	3131
922.789	3077
922.898	3176
923.007	3135
923.116	3188
923.224	3188
923.333	3154
923.442	3108
923.55	3108
923.659	3123
923.767	3218
923.876	3104
923.984	3310
924.092	3085
924.201	3203
924.309	3253
924.417	3264
924.525	3199
924.633	3211
924.741	4177
924.849	3062
924.956	3264
925.064	3112
925.172	3055
925.279	3108
925.387	3150
925.494	3256
925.602	3348
925.709	3329
925.816	3207
925.924	3294
926.031	3382
926.138	3351
926.245	3401
926.352	3245
926.459	3416
926.566	3447
926.673	3310
926.779	3260
926.886	3291
926.993	3138
927.099	3165
927.206	3165
927.312	3135
927.419	3237
927.525	3195
927.631	3283
927.737	3142
927.843	3150
927.95	3047
928.056	3169
928.162	3222
928.267	3313
928.373	3907
928.479	3313
928.585	3119
928.69	3264
928.796	3310
928.901	3241
929.007	3074
929.112	3207
929.218	3188
929.323	3195
929.428	3180
929.533	3367
929.638	3165
929.743	3233
929.848	3272
929.953	3272
930.058	3188
930.163	3058
930.267	3097
930.372	3253
930.477	3047
930.581	3393
930.685	3203
930.79	3123
930.894	3116
930.998	3146
931.103	3336
931.207	2994
931.311	2990
931.415	2971
931.519	2815
931.623	2834
