Data from test_V78500241_1770.txt Node
Date: Fri Mar 25 16:27:27 CST 2022
User: usil
Spectrometer: V785-0024
Trigger mode: 0
Integration Time (sec): 4.000000E-1
Scans to average: 1
Nonlinearity correction enabled: false
Boxcar width: 0
Storing dark spectrum: false
XAxis mode: Wavelengths
Number of Pixels in Spectrum: 1024
>>>>>Begin Spectral Data<<<<<
801.071	2925
801.214	2952
801.356	2902
801.499	2925
801.641	2918
801.783	2975
801.926	3066
802.068	2998
802.211	3013
802.353	3062
802.496	2971
802.638	3043
802.78	3055
802.923	3119
803.065	3028
803.208	2922
803.35	2895
803.492	2982
803.635	2982
803.777	2773
803.919	2857
804.061	3207
804.204	3001
804.346	2941
804.488	2849
804.63	3032
804.773	2883
804.915	2918
805.057	3085
805.199	2952
805.341	2979
805.483	3047
805.626	2994
805.768	2922
805.91	3089
806.052	3116
806.194	3066
806.336	3260
806.478	3058
806.62	2967
806.762	2986
806.904	3070
807.046	3169
807.188	3047
807.33	2925
807.472	2982
807.614	2922
807.756	3020
807.898	2910
808.04	2925
808.182	2998
808.324	2933
808.465	2883
808.607	2876
808.749	2796
808.891	2842
809.033	2979
809.174	3001
809.316	2887
809.458	2899
809.6	2754
809.741	2750
809.883	2762
810.025	2880
810.166	2880
810.308	2861
810.45	2853
810.591	2777
810.733	2754
810.875	2842
811.016	2804
811.158	2766
811.299	2830
811.441	2937
811.582	2902
811.724	2826
811.865	2853
812.007	2910
812.148	2872
812.29	2849
812.431	2891
812.573	2952
812.714	2982
812.855	3066
812.997	3066
813.138	3142
813.279	3024
813.421	2952
813.562	2963
813.703	2891
813.845	2891
813.986	2746
814.127	2716
814.268	2807
814.41	2857
814.551	2868
814.692	2883
814.833	2823
814.974	2914
815.115	2971
815.256	2842
815.397	2823
815.539	2876
815.68	2785
815.821	2800
815.962	2994
816.103	2914
816.244	2857
816.385	2880
816.526	2990
816.666	2925
816.807	2773
816.948	2899
817.089	2914
817.23	2853
817.371	2800
817.512	2819
817.653	2864
817.793	2834
817.934	2861
818.075	2963
818.216	2998
818.356	3020
818.497	2864
818.638	2811
818.778	2845
818.919	2826
819.06	2796
819.2	2853
819.341	2815
819.481	2804
819.622	2941
819.762	3077
819.903	3036
820.043	2952
820.184	2925
820.324	2918
820.465	2994
820.605	3039
820.746	3043
820.886	2956
821.026	3123
821.167	3142
821.307	3268
821.447	3291
821.588	3226
821.728	3199
821.868	3211
822.008	3089
822.149	3211
822.289	3245
822.429	3112
822.569	3112
822.709	3161
822.849	3058
822.99	3085
823.13	3150
823.27	3169
823.41	3116
823.55	3154
823.69	3173
823.83	3203
823.97	3112
824.11	2994
824.25	2971
824.389	3058
824.529	3119
824.669	3062
824.809	3207
824.949	3268
825.089	3218
825.228	3173
825.368	3024
825.508	2994
825.648	2971
825.787	2994
825.927	2986
826.067	2952
826.206	2956
826.346	3039
826.485	3081
826.625	3131
826.765	3283
826.904	3218
827.044	3005
827.183	2944
827.323	2849
827.462	2967
827.601	2933
827.741	2933
827.88	2975
828.02	2868
828.159	2990
828.298	3020
828.437	3108
828.577	3039
828.716	3222
828.855	3100
828.994	2910
829.134	2910
829.273	2918
829.412	2887
829.551	2876
829.69	2914
829.829	3043
829.968	3161
830.107	3051
830.246	3036
830.385	2922
830.524	2891
830.663	2807
830.802	2750
830.941	2667
831.08	2659
831.219	2777
831.357	2743
831.496	2971
831.635	2754
831.774	2655
831.913	2667
832.051	2568
832.19	2594
832.329	2689
832.467	2518
832.606	2488
832.744	2617
832.883	2598
833.022	2610
833.16	2644
833.299	2689
833.437	2682
833.576	2716
833.714	2712
833.852	2731
833.991	2758
834.129	2838
834.267	2834
834.406	2781
834.544	2872
834.682	2895
834.821	2842
834.959	3085
835.097	2899
835.235	3081
835.373	2963
835.511	3032
835.65	2956
835.788	2986
835.926	2845
836.064	2796
836.202	2857
836.34	3097
836.478	3150
836.615	3058
836.753	3150
836.891	3253
837.029	3195
837.167	3089
837.305	3066
837.443	3055
837.58	2971
837.718	3146
837.856	3093
837.993	3051
838.131	3108
838.269	3112
838.406	3100
838.544	3077
838.681	2918
838.819	2891
838.956	2819
839.094	2838
839.231	2891
839.369	3028
839.506	3386
839.643	3211
839.781	3032
839.918	2956
840.055	3066
840.193	3039
840.33	3089
840.467	3100
840.604	3161
840.742	3401
840.879	3074
841.016	3028
841.153	3104
841.29	3336
841.427	3325
841.564	3268
841.701	3287
841.838	3218
841.975	3173
842.112	3230
842.249	3074
842.385	3047
842.522	3279
842.659	3097
842.796	3032
842.933	3089
843.069	3005
843.206	3043
843.343	3188
843.479	3100
843.616	3138
843.752	2895
843.889	2864
844.025	3135
844.162	2883
844.298	3085
844.435	2937
844.571	2941
844.708	3043
844.844	3154
844.98	3230
845.117	3176
845.253	3043
845.389	3013
845.525	3112
845.661	3123
845.798	3017
845.934	3097
846.07	3058
846.206	3207
846.342	3272
846.478	3264
846.614	3100
846.75	3062
846.886	3081
847.022	3260
847.158	3146
847.294	3233
847.429	3264
847.565	3245
847.701	3458
847.837	3017
847.972	3013
848.108	3146
848.244	3119
848.379	2990
848.515	2941
848.65	2929
848.786	2975
848.921	3017
849.057	3097
849.192	3112
849.328	3047
849.463	3108
849.598	3081
849.734	3013
849.869	2960
850.004	2925
850.14	2982
850.275	2948
850.41	2807
850.545	2872
850.68	2918
850.815	2895
850.95	2963
851.085	3207
851.22	3116
851.355	3051
851.49	2971
851.625	3020
851.76	2994
851.895	2933
852.03	2887
852.165	3058
852.299	3100
852.434	3203
852.569	3146
852.703	3218
852.838	3226
852.973	3298
853.107	3336
853.242	3150
853.376	3108
853.511	3020
853.645	3081
853.78	3256
853.914	3157
854.048	3104
854.183	3062
854.317	3146
854.451	3302
854.585	3123
854.72	3104
854.854	3199
854.988	3074
855.122	3055
855.256	2971
855.39	3112
855.524	3245
855.658	3188
855.792	3157
855.926	3195
856.06	3211
856.194	3237
856.327	3142
856.461	3119
856.595	3062
856.729	3104
856.862	3211
856.996	3150
857.13	3180
857.263	3180
857.397	3268
857.53	3123
857.664	3180
857.797	3245
857.931	3203
858.064	3161
858.197	3203
858.331	3123
858.464	3089
858.597	3055
858.731	3135
858.864	3116
858.997	3085
859.13	3146
859.263	3192
859.396	3157
859.529	3074
859.662	3104
859.795	3039
859.928	3119
860.061	3256
860.194	3287
860.327	3154
860.46	3104
860.592	3230
860.725	3230
860.858	3214
860.99	3112
861.123	3039
861.256	3032
861.388	3146
861.521	3854
861.653	2948
861.786	2971
861.918	2994
862.05	3093
862.183	3108
862.315	3142
862.447	3176
862.58	3074
862.712	2910
862.844	2880
862.976	3020
863.108	3017
863.24	3313
863.372	2910
863.504	2963
863.636	2971
863.768	3013
863.9	2982
864.032	2902
864.164	2933
864.296	3039
864.428	3097
864.559	3116
864.691	3077
864.823	3074
864.954	3043
865.086	3020
865.217	2986
865.349	2937
865.48	2967
865.612	2990
865.743	3154
865.875	2971
866.006	2956
866.137	2975
866.269	2941
866.4	2902
866.531	2918
866.662	2906
866.793	2902
866.924	2902
867.055	2960
867.186	2929
867.317	2849
867.448	2849
867.579	2834
867.71	2857
867.841	2842
867.972	2918
868.103	2876
868.233	2914
868.364	2876
868.495	2922
868.625	3058
868.756	3180
868.886	2941
869.017	3028
869.147	3184
869.278	3116
869.408	3058
869.539	3005
869.669	3104
869.799	3039
869.929	3093
870.06	3089
870.19	3325
870.32	3275
870.45	3313
870.58	3336
870.71	3447
870.84	3397
870.97	3310
871.1	3207
871.23	3428
871.36	3447
871.489	3340
871.619	3409
871.749	3405
871.879	3424
872.008	3477
872.138	3325
872.267	3260
872.397	3154
872.526	3100
872.656	3001
872.785	3070
872.915	3268
873.044	3321
873.173	3207
873.303	3264
873.432	3298
873.561	3233
873.69	3173
873.819	3161
873.948	3203
874.077	3085
874.206	3039
874.335	3097
874.464	3214
874.593	3363
874.722	3222
874.851	3401
874.979	3340
875.108	3298
875.237	3188
875.365	3184
875.494	3135
875.623	3218
875.751	3066
875.88	3135
876.008	3157
876.136	3188
876.265	3351
876.393	3469
876.521	3389
876.65	3355
876.778	3317
876.906	3275
877.034	3226
877.162	3207
877.29	3176
877.418	3268
877.546	3256
877.674	3256
877.802	3218
877.93	3195
878.058	3146
878.185	3119
878.313	3222
878.441	3203
878.568	3047
878.696	3199
878.824	3268
878.951	3313
879.079	3424
879.206	3603
879.333	3428
879.461	3313
879.588	3344
879.715	3458
879.842	3576
879.97	3412
880.097	3161
880.224	3119
880.351	3165
880.478	3203
880.605	3218
880.732	3157
880.859	3485
880.986	3291
881.112	3306
881.239	3214
881.366	3104
881.493	3062
881.619	3036
881.746	3066
881.872	3104
881.999	3116
882.125	3146
882.252	3245
882.378	3302
882.505	3447
882.631	3275
882.757	3161
882.883	3173
883.01	3226
883.136	3146
883.262	3112
883.388	3157
883.514	3332
883.64	3374
883.766	3310
883.892	3123
884.018	3253
884.143	3435
884.269	3500
884.395	3180
884.52	3146
884.646	3150
884.772	3142
884.897	3077
885.023	3233
885.148	3287
885.274	3367
885.399	3351
885.524	3287
885.65	3275
885.775	3310
885.9	3260
886.025	3473
886.15	3344
886.275	3283
886.4	3233
886.525	3329
886.65	3260
886.775	3283
886.9	3500
887.025	3652
887.149	3374
887.274	3241
887.399	3146
887.523	3165
887.648	3180
887.773	3192
887.897	3367
888.021	3428
888.146	3306
888.27	3458
888.395	3519
888.519	3409
888.643	3412
888.767	3439
888.891	3294
889.015	3222
889.139	3275
889.263	3249
889.387	3382
889.511	3492
889.635	3431
889.759	3272
889.883	3264
890.006	3370
890.13	3462
890.254	3294
890.377	3313
890.501	3203
890.624	3165
890.748	3344
890.871	3157
890.995	3062
891.118	3062
891.241	3169
891.364	3192
891.488	3310
891.611	3165
891.734	3237
891.857	3310
891.98	3260
892.103	3363
892.226	3275
892.349	3214
892.471	3157
892.594	3218
892.717	3302
892.839	3294
892.962	3268
893.085	3306
893.207	3317
893.33	3154
893.452	3211
893.575	3374
893.697	3249
893.819	3492
893.941	3515
894.064	3469
894.186	3291
894.308	3256
894.43	3439
894.552	3511
894.674	3454
894.796	3275
894.918	3306
895.04	3256
895.161	3420
895.283	3340
895.405	3253
895.526	3351
895.648	3424
895.769	3409
895.891	3443
896.012	3458
896.134	3454
896.255	3405
896.376	3370
896.498	3363
896.619	3389
896.74	3321
896.861	3393
896.982	3663
897.103	3838
897.224	3591
897.345	3530
897.466	3401
897.587	3507
897.708	3625
897.828	3561
897.949	3447
898.07	3317
898.19	3420
898.311	3618
898.431	3485
898.552	3488
898.672	3576
898.792	3572
898.913	3500
899.033	3462
899.153	3294
899.273	3192
899.393	3272
899.513	3275
899.633	3317
899.753	3351
899.873	3336
899.993	3344
900.113	3329
900.232	3370
900.352	3367
900.472	3268
900.591	3207
900.711	3249
900.83	3211
900.95	3389
901.069	3439
901.189	3325
901.308	3173
901.427	3116
901.546	3195
901.665	3298
901.784	3332
901.904	3176
902.023	3195
902.141	3001
902.26	3013
902.379	3119
902.498	3142
902.617	3036
902.735	3195
902.854	3207
902.973	3184
903.091	3062
903.21	3062
903.328	3146
903.446	3104
903.565	3112
903.683	3214
903.801	3104
903.919	3226
904.038	3268
904.156	3176
904.274	3264
904.392	3268
904.51	3279
904.627	3313
904.745	3416
904.863	3504
904.981	3214
905.098	3180
905.216	3233
905.334	3310
905.451	3298
905.569	3329
905.686	3420
905.803	3431
905.921	3302
906.038	3405
906.155	3367
906.272	3245
906.389	3336
906.506	3226
906.623	3230
906.74	3253
906.857	3203
906.974	3245
907.091	3477
907.208	3545
907.324	3439
907.441	3374
907.557	3226
907.674	3222
907.79	3211
907.907	3256
908.023	3397
908.139	3409
908.256	3283
908.372	3382
908.488	3329
908.604	3253
908.72	3226
908.836	3279
908.952	3268
909.068	3370
909.184	3462
909.3	3382
909.415	3488
909.531	3447
909.647	3287
909.762	3279
909.878	3294
909.993	3367
910.108	3294
910.224	3367
910.339	3435
910.454	3355
910.57	3321
910.685	3245
910.8	3591
910.915	3488
911.03	3435
911.145	3302
911.259	3291
911.374	3329
911.489	3241
911.604	3211
911.718	3119
911.833	3138
911.947	3051
912.062	2979
912.176	3119
912.291	3199
912.405	3226
912.519	3424
912.633	3466
912.748	3344
912.862	3264
912.976	3176
913.09	3047
913.204	3138
913.318	3199
913.431	3370
913.545	3370
913.659	3359
913.772	3306
913.886	3214
914	3218
914.113	3374
914.226	3397
914.34	3332
914.453	3218
914.566	3386
914.68	3264
914.793	3313
914.906	3104
915.019	3127
915.132	3077
915.245	3180
915.358	3180
915.47	3218
915.583	3260
915.696	3329
915.809	3397
915.921	3443
916.034	3230
916.146	3260
916.259	3199
916.371	3363
916.483	3367
916.595	3275
916.708	3332
916.82	3351
916.932	3325
917.044	3340
917.156	3348
917.268	3256
917.38	3279
917.491	3302
917.603	3336
917.715	3447
917.826	3412
917.938	3382
918.049	3302
918.161	3458
918.272	3545
918.384	3603
918.495	3466
918.606	3355
918.717	3279
918.828	3378
918.939	3378
919.05	3249
919.161	3367
919.272	3165
919.383	3268
919.494	3504
919.604	3633
919.715	3504
919.826	3420
919.936	3439
920.047	3614
920.157	3496
920.267	3732
920.378	3580
920.488	3538
920.598	3743
920.708	3956
920.818	3831
920.928	3854
921.038	4021
921.148	4025
921.258	3701
921.368	3599
921.477	3530
921.587	3545
921.697	3443
921.806	3648
921.916	3500
922.025	3344
922.134	3332
922.244	3272
922.353	3424
922.462	3272
922.571	3203
922.68	3093
922.789	3085
922.898	3131
923.007	3081
923.116	3150
923.224	3150
923.333	3165
923.442	3127
923.55	3093
923.659	3165
923.767	3218
923.876	3119
923.984	3214
924.092	3131
924.201	3192
924.309	3192
924.417	3253
924.525	3207
924.633	3218
924.741	3998
924.849	3058
924.956	3260
925.064	3074
925.172	3032
925.279	3093
925.387	3192
925.494	3218
925.602	3367
925.709	3313
925.816	3165
925.924	3222
926.031	3416
926.138	3351
926.245	3370
926.352	3226
926.459	3370
926.566	3462
926.673	3321
926.779	3237
926.886	3256
926.993	3142
927.099	3119
927.206	3097
927.312	3100
927.419	3192
927.525	3165
927.631	3241
927.737	3108
927.843	3169
927.95	3020
928.056	3146
928.162	3169
928.267	3230
928.373	3865
928.479	3306
928.585	3051
928.69	3226
928.796	3287
928.901	3195
929.007	3058
929.112	3142
929.218	3131
929.323	3142
929.428	3123
929.533	3302
929.638	3112
929.743	3173
929.848	3253
929.953	3241
930.058	3142
930.163	2994
930.267	3077
930.372	3207
930.477	3028
930.581	3351
930.685	3184
930.79	3058
930.894	3150
930.998	3123
931.103	3287
931.207	2948
931.311	2944
931.415	2929
931.519	2769
931.623	2826
