Data from test_V78500241_1710.txt Node
Date: Fri Mar 25 16:27:02 CST 2022
User: usil
Spectrometer: V785-0024
Trigger mode: 0
Integration Time (sec): 4.000000E-1
Scans to average: 1
Nonlinearity correction enabled: false
Boxcar width: 0
Storing dark spectrum: false
XAxis mode: Wavelengths
Number of Pixels in Spectrum: 1024
>>>>>Begin Spectral Data<<<<<
801.071	2933
801.214	2944
801.356	2849
801.499	2861
801.641	2849
801.783	2910
801.926	3055
802.068	2952
802.211	2979
802.353	3074
802.496	2933
802.638	3028
802.78	3032
802.923	3062
803.065	2963
803.208	2902
803.35	2918
803.492	2910
803.635	2922
803.777	2708
803.919	2880
804.061	3188
804.204	2956
804.346	2887
804.488	2864
804.63	2971
804.773	2872
804.915	2925
805.057	3070
805.199	2914
805.341	2967
805.483	3058
805.626	3024
805.768	2990
805.91	3047
806.052	3093
806.194	3005
806.336	3211
806.478	3028
806.62	2986
806.762	2979
806.904	3055
807.046	3154
807.188	2948
807.33	2918
807.472	2998
807.614	2887
807.756	2948
807.898	2910
808.04	2876
808.182	2990
808.324	2910
808.465	2857
808.607	2876
808.749	2823
808.891	2823
809.033	2956
809.174	2979
809.316	2895
809.458	2895
809.6	2777
809.741	2777
809.883	2788
810.025	2845
810.166	2849
810.308	2853
810.45	2807
810.591	2777
810.733	2762
810.875	2864
811.016	2754
811.158	2777
811.299	2823
811.441	2963
811.582	2914
811.724	2838
811.865	2849
812.007	2902
812.148	2834
812.29	2826
812.431	2899
812.573	2925
812.714	2918
812.855	3024
812.997	3005
813.138	3135
813.279	3001
813.421	2956
813.562	2975
813.703	2853
813.845	2872
813.986	2804
814.127	2739
814.268	2823
814.41	2838
814.551	2762
814.692	2868
814.833	2815
814.974	2891
815.115	2963
815.256	2857
815.397	2800
815.539	2861
815.68	2766
815.821	2796
815.962	2925
816.103	2933
816.244	2857
816.385	2838
816.526	2952
816.666	2895
816.807	2708
816.948	2872
817.089	2872
817.23	2842
817.371	2777
817.512	2823
817.653	2857
817.793	2838
817.934	2842
818.075	2979
818.216	2986
818.356	3005
818.497	2868
818.638	2804
818.778	2792
818.919	2785
819.06	2743
819.2	2864
819.341	2834
819.481	2769
819.622	2948
819.762	3093
819.903	3074
820.043	2922
820.184	2910
820.324	2910
820.465	2990
820.605	3001
820.746	3024
820.886	2963
821.026	3051
821.167	3157
821.307	3218
821.447	3275
821.588	3237
821.728	3176
821.868	3195
822.008	3055
822.149	3154
822.289	3230
822.429	3070
822.569	3039
822.709	3176
822.849	3055
822.99	3047
823.13	3138
823.27	3184
823.41	3062
823.55	3116
823.69	3119
823.83	3214
823.97	3093
824.11	2952
824.25	3005
824.389	3066
824.529	3074
824.669	3051
824.809	3203
824.949	3249
825.089	3199
825.228	3165
825.368	3005
825.508	2963
825.648	2971
825.787	3017
825.927	3013
826.067	2975
826.206	2956
826.346	3032
826.485	3047
826.625	3104
826.765	3260
826.904	3245
827.044	2971
827.183	2918
827.323	2815
827.462	3009
827.601	2895
827.741	2906
827.88	2933
828.02	2872
828.159	2944
828.298	3043
828.437	3100
828.577	3032
828.716	3195
828.855	3036
828.994	2887
829.134	2868
829.273	2944
829.412	2857
829.551	2853
829.69	2910
829.829	2952
829.968	3104
830.107	3005
830.246	3005
830.385	2910
830.524	2861
830.663	2811
830.802	2697
830.941	2659
831.08	2651
831.219	2769
831.357	2746
831.496	2941
831.635	2724
831.774	2610
831.913	2682
832.051	2556
832.19	2568
832.329	2689
832.467	2545
832.606	2492
832.744	2560
832.883	2571
833.022	2571
833.16	2632
833.299	2693
833.437	2697
833.576	2689
833.714	2689
833.852	2701
833.991	2743
834.129	2804
834.267	2861
834.406	2788
834.544	2849
834.682	2899
834.821	2861
834.959	3039
835.097	2883
835.235	3062
835.373	3024
835.511	3051
835.65	2963
835.788	2960
835.926	2815
836.064	2811
836.202	2819
836.34	3047
836.478	3157
836.615	3055
836.753	3150
836.891	3161
837.029	3131
837.167	3062
837.305	3039
837.443	3043
837.58	2944
837.718	3157
837.856	3024
837.993	2986
838.131	3097
838.269	3100
838.406	3100
838.544	3077
838.681	2941
838.819	2914
838.956	2796
839.094	2861
839.231	2906
839.369	3047
839.506	3332
839.643	3195
839.781	3032
839.918	2937
840.055	3043
840.193	3028
840.33	3089
840.467	3058
840.604	3154
840.742	3355
840.879	3032
841.016	3062
841.153	3112
841.29	3291
841.427	3310
841.564	3268
841.701	3291
841.838	3199
841.975	3173
842.112	3211
842.249	3070
842.385	3005
842.522	3245
842.659	3093
842.796	3028
842.933	3081
843.069	3024
843.206	3032
843.343	3150
843.479	3070
843.616	3123
843.752	2857
843.889	2826
844.025	3077
844.162	2872
844.298	3074
844.435	2937
844.571	2891
844.708	3058
844.844	3169
844.98	3222
845.117	3169
845.253	3047
845.389	2990
845.525	3062
845.661	3100
845.798	2982
845.934	3100
846.07	3032
846.206	3199
846.342	3348
846.478	3218
846.614	3039
846.75	3009
846.886	3013
847.022	3233
847.158	3150
847.294	3203
847.429	3241
847.565	3184
847.701	3485
847.837	2990
847.972	2986
848.108	3142
848.244	3112
848.379	3017
848.515	2914
848.65	2906
848.786	2925
848.921	3024
849.057	3074
849.192	3150
849.328	3055
849.463	3085
849.598	3001
849.734	3017
849.869	2990
850.004	2918
850.14	2960
850.275	2899
850.41	2857
850.545	2883
850.68	2910
850.815	2948
850.95	2960
851.085	3218
851.22	3097
851.355	2998
851.49	2971
851.625	3009
851.76	3005
851.895	2952
852.03	2883
852.165	3017
852.299	3066
852.434	3146
852.569	3131
852.703	3161
852.838	3226
852.973	3355
853.107	3336
853.242	3165
853.376	3074
853.511	2948
853.645	3028
853.78	3260
853.914	3123
854.048	3100
854.183	3097
854.317	3100
854.451	3275
854.585	3138
854.72	3074
854.854	3199
854.988	3039
855.122	3108
855.256	2937
855.39	3127
855.524	3207
855.658	3150
855.792	3150
855.926	3157
856.06	3214
856.194	3260
856.327	3142
856.461	3043
856.595	3009
856.729	3085
856.862	3165
856.996	3157
857.13	3176
857.263	3192
857.397	3272
857.53	3097
857.664	3203
857.797	3218
857.931	3226
858.064	3150
858.197	3218
858.331	3135
858.464	3070
858.597	2975
858.731	3108
858.864	3108
858.997	3085
859.13	3157
859.263	3165
859.396	3192
859.529	3077
859.662	3116
859.795	3085
859.928	3138
860.061	3260
860.194	3310
860.327	3135
860.46	3074
860.592	3211
860.725	3226
860.858	3241
860.99	3097
861.123	3043
861.256	3062
861.388	3173
861.521	3922
861.653	3043
861.786	2925
861.918	2979
862.05	3047
862.183	3089
862.315	3131
862.447	3173
862.58	3081
862.712	2960
862.844	2883
862.976	3017
863.108	3005
863.24	3443
863.372	2861
863.504	2952
863.636	2956
863.768	3009
863.9	2967
864.032	2918
864.164	2922
864.296	3032
864.428	3127
864.559	3093
864.691	3055
864.823	3058
864.954	3043
865.086	3062
865.217	2929
865.349	2960
865.48	2986
865.612	3001
865.743	3135
865.875	2975
866.006	2895
866.137	2990
866.269	2944
866.4	2895
866.531	2922
866.662	2891
866.793	2868
866.924	2895
867.055	2982
867.186	2910
867.317	2895
867.448	2842
867.579	2868
867.71	2872
867.841	2811
867.972	2914
868.103	2925
868.233	2891
868.364	2834
868.495	2861
868.625	3100
868.756	3138
868.886	2963
869.017	3009
869.147	3116
869.278	3161
869.408	3055
869.539	3013
869.669	3066
869.799	3024
869.929	3108
870.06	3089
870.19	3325
870.32	3249
870.45	3306
870.58	3359
870.71	3443
870.84	3405
870.97	3302
871.1	3173
871.23	3458
871.36	3454
871.489	3359
871.619	3355
871.749	3397
871.879	3454
872.008	3450
872.138	3298
872.267	3291
872.397	3116
872.526	3070
872.656	2948
872.785	3077
872.915	3207
873.044	3294
873.173	3195
873.303	3245
873.432	3226
873.561	3199
873.69	3131
873.819	3116
873.948	3207
874.077	3081
874.206	3017
874.335	3070
874.464	3233
874.593	3329
874.722	3256
874.851	3370
874.979	3302
875.108	3294
875.237	3199
875.365	3165
875.494	3157
875.623	3264
875.751	3081
875.88	3112
876.008	3169
876.136	3207
876.265	3340
876.393	3519
876.521	3393
876.65	3397
876.778	3294
876.906	3207
877.034	3150
877.162	3233
877.29	3169
877.418	3237
877.546	3218
877.674	3230
877.802	3249
877.93	3169
878.058	3154
878.185	3135
878.313	3188
878.441	3195
878.568	3074
878.696	3131
878.824	3241
878.951	3302
879.079	3439
879.206	3599
879.333	3450
879.461	3344
879.588	3363
879.715	3469
879.842	3568
879.97	3344
880.097	3146
880.224	3112
880.351	3184
880.478	3230
880.605	3207
880.732	3173
880.859	3500
880.986	3310
881.112	3306
881.239	3180
881.366	3051
881.493	3001
881.619	3013
881.746	3066
881.872	3108
881.999	3093
882.125	3165
882.252	3245
882.378	3294
882.505	3431
882.631	3294
882.757	3161
882.883	3184
883.01	3233
883.136	3123
883.262	3066
883.388	3116
883.514	3275
883.64	3389
883.766	3287
883.892	3199
884.018	3222
884.143	3401
884.269	3496
884.395	3203
884.52	3135
884.646	3203
884.772	3119
884.897	3104
885.023	3188
885.148	3310
885.274	3405
885.399	3393
885.524	3272
885.65	3287
885.775	3264
885.9	3237
886.025	3431
886.15	3363
886.275	3245
886.4	3233
886.525	3283
886.65	3268
886.775	3302
886.9	3481
887.025	3606
887.149	3382
887.274	3256
887.399	3169
887.523	3226
887.648	3184
887.773	3218
887.897	3367
888.021	3409
888.146	3283
888.27	3397
888.395	3561
888.519	3431
888.643	3424
888.767	3450
888.891	3321
889.015	3222
889.139	3230
889.263	3294
889.387	3378
889.511	3492
889.635	3424
889.759	3291
889.883	3317
890.006	3355
890.13	3473
890.254	3287
890.377	3321
890.501	3214
890.624	3173
890.748	3291
890.871	3192
890.995	3081
891.118	3039
891.241	3173
891.364	3188
891.488	3355
891.611	3146
891.734	3214
891.857	3260
891.98	3207
892.103	3355
892.226	3272
892.349	3222
892.471	3093
892.594	3237
892.717	3298
892.839	3192
892.962	3317
893.085	3310
893.207	3283
893.33	3112
893.452	3199
893.575	3321
893.697	3283
893.819	3450
893.941	3458
894.064	3462
894.186	3264
894.308	3275
894.43	3458
894.552	3530
894.674	3439
894.796	3253
894.918	3279
895.04	3272
895.161	3412
895.283	3332
895.405	3279
895.526	3359
895.648	3397
895.769	3363
895.891	3439
896.012	3462
896.134	3435
896.255	3382
896.376	3378
896.498	3332
896.619	3420
896.74	3329
896.861	3397
896.982	3675
897.103	3816
897.224	3629
897.345	3511
897.466	3443
897.587	3481
897.708	3629
897.828	3538
897.949	3431
898.07	3336
898.19	3424
898.311	3576
898.431	3439
898.552	3458
898.672	3625
898.792	3584
898.913	3519
899.033	3378
899.153	3253
899.273	3218
899.393	3310
899.513	3287
899.633	3321
899.753	3367
899.873	3298
899.993	3348
900.113	3298
900.232	3393
900.352	3302
900.472	3306
900.591	3165
900.711	3253
900.83	3199
900.95	3363
901.069	3481
901.189	3336
901.308	3138
901.427	3123
901.546	3192
901.665	3302
901.784	3321
901.904	3192
902.023	3154
902.141	3005
902.26	3036
902.379	3154
902.498	3077
902.617	3039
902.735	3230
902.854	3233
902.973	3184
903.091	3024
903.21	3055
903.328	3131
903.446	3116
903.565	3123
903.683	3184
903.801	3157
903.919	3226
904.038	3264
904.156	3161
904.274	3253
904.392	3253
904.51	3279
904.627	3321
904.745	3443
904.863	3473
904.981	3291
905.098	3119
905.216	3230
905.334	3283
905.451	3310
905.569	3310
905.686	3401
905.803	3454
905.921	3256
906.038	3454
906.155	3340
906.272	3245
906.389	3332
906.506	3226
906.623	3233
906.74	3317
906.857	3169
906.974	3245
907.091	3450
907.208	3523
907.324	3511
907.441	3382
907.557	3230
907.674	3218
907.79	3184
907.907	3275
908.023	3370
908.139	3367
908.256	3298
908.372	3363
908.488	3382
908.604	3260
908.72	3245
908.836	3275
908.952	3256
909.068	3348
909.184	3500
909.3	3424
909.415	3500
909.531	3469
909.647	3226
909.762	3249
909.878	3275
909.993	3340
910.108	3283
910.224	3313
910.339	3447
910.454	3275
910.57	3302
910.685	3218
910.8	3557
910.915	3515
911.03	3405
911.145	3241
911.259	3294
911.374	3260
911.489	3226
911.604	3237
911.718	3089
911.833	3173
911.947	3043
912.062	3017
912.176	3127
912.291	3188
912.405	3180
912.519	3454
912.633	3458
912.748	3313
912.862	3298
912.976	3157
913.09	3036
913.204	3146
913.318	3188
913.431	3291
913.545	3340
913.659	3374
913.772	3275
913.886	3211
914	3203
914.113	3348
914.226	3401
914.34	3340
914.453	3226
914.566	3378
914.68	3249
914.793	3256
914.906	3135
915.019	3116
915.132	3047
915.245	3165
915.358	3211
915.47	3180
915.583	3283
915.696	3260
915.809	3359
915.921	3439
916.034	3249
916.146	3260
916.259	3184
916.371	3363
916.483	3393
916.595	3298
916.708	3332
916.82	3336
916.932	3363
917.044	3401
917.156	3359
917.268	3214
917.38	3336
917.491	3321
917.603	3344
917.715	3477
917.826	3466
917.938	3393
918.049	3306
918.161	3420
918.272	3614
918.384	3603
918.495	3504
918.606	3409
918.717	3287
918.828	3412
918.939	3435
919.05	3291
919.161	3386
919.272	3249
919.383	3351
919.494	3534
919.604	3671
919.715	3504
919.826	3416
919.936	3526
920.047	3591
920.157	3568
920.267	3797
920.378	3625
920.488	3603
920.598	3842
920.708	4021
920.818	3869
920.928	3869
921.038	4051
921.148	4010
921.258	3747
921.368	3667
921.477	3610
921.587	3564
921.697	3511
921.806	3648
921.916	3553
922.025	3363
922.134	3409
922.244	3348
922.353	3488
922.462	3313
922.571	3260
922.68	3146
922.789	3116
922.898	3146
923.007	3161
923.116	3249
923.224	3214
923.333	3173
923.442	3146
923.55	3146
923.659	3203
923.767	3264
923.876	3161
923.984	3291
924.092	3131
924.201	3241
924.309	3256
924.417	3344
924.525	3237
924.633	3283
924.741	4040
924.849	3097
924.956	3302
925.064	3108
925.172	3116
925.279	3138
925.387	3214
925.494	3253
925.602	3374
925.709	3325
925.816	3264
925.924	3340
926.031	3428
926.138	3363
926.245	3389
926.352	3310
926.459	3420
926.566	3469
926.673	3348
926.779	3275
926.886	3355
926.993	3211
927.099	3146
927.206	3112
927.312	3154
927.419	3283
927.525	3245
927.631	3317
927.737	3188
927.843	3154
927.95	3028
928.056	3176
928.162	3199
928.267	3287
928.373	3869
928.479	3355
928.585	3116
928.69	3245
928.796	3298
928.901	3188
929.007	3062
929.112	3268
929.218	3188
929.323	3173
929.428	3169
929.533	3325
929.638	3142
929.743	3214
929.848	3310
929.953	3237
930.058	3176
930.163	3032
930.267	3062
930.372	3218
930.477	3058
930.581	3344
930.685	3241
930.79	3135
930.894	3203
930.998	3123
931.103	3313
931.207	2986
931.311	2979
931.415	2971
931.519	2826
931.623	2842
