Data from test_V78500241_1798.txt Node
Date: Fri Mar 25 16:27:39 CST 2022
User: usil
Spectrometer: V785-0024
Trigger mode: 0
Integration Time (sec): 4.000000E-1
Scans to average: 1
Nonlinearity correction enabled: false
Boxcar width: 0
Storing dark spectrum: false
XAxis mode: Wavelengths
Number of Pixels in Spectrum: 1024
>>>>>Begin Spectral Data<<<<<
801.071	2929
801.214	2952
801.356	2861
801.499	2933
801.641	2891
801.783	2937
801.926	3055
802.068	2998
802.211	2971
802.353	3055
802.496	2990
802.638	3039
802.78	3017
802.923	3062
803.065	3024
803.208	2902
803.35	2906
803.492	2952
803.635	2952
803.777	2746
803.919	2891
804.061	3226
804.204	2952
804.346	2925
804.488	2819
804.63	2994
804.773	2902
804.915	2906
805.057	3043
805.199	2929
805.341	2975
805.483	3028
805.626	3017
805.768	2937
805.91	3100
806.052	3081
806.194	3047
806.336	3180
806.478	3028
806.62	2952
806.762	2979
806.904	3028
807.046	3161
807.188	2998
807.33	2914
807.472	2986
807.614	2902
807.756	2979
807.898	2933
808.04	2918
808.182	2990
808.324	2956
808.465	2880
808.607	2891
808.749	2826
808.891	2876
809.033	2948
809.174	2963
809.316	2902
809.458	2880
809.6	2731
809.741	2758
809.883	2777
810.025	2796
810.166	2880
810.308	2842
810.45	2830
810.591	2815
810.733	2750
810.875	2861
811.016	2796
811.158	2754
811.299	2807
811.441	2929
811.582	2857
811.724	2792
811.865	2834
812.007	2887
812.148	2849
812.29	2845
812.431	2910
812.573	2929
812.714	2982
812.855	3062
812.997	3039
813.138	3127
813.279	2990
813.421	2982
813.562	2956
813.703	2895
813.845	2864
813.986	2739
814.127	2727
814.268	2845
814.41	2819
814.551	2788
814.692	2891
814.833	2811
814.974	2899
815.115	2914
815.256	2800
815.397	2792
815.539	2895
815.68	2788
815.821	2788
815.962	2937
816.103	2925
816.244	2876
816.385	2853
816.526	2990
816.666	2925
816.807	2758
816.948	2906
817.089	2895
817.23	2834
817.371	2781
817.512	2819
817.653	2864
817.793	2830
817.934	2857
818.075	2979
818.216	2990
818.356	3039
818.497	2864
818.638	2769
818.778	2811
818.919	2781
819.06	2743
819.2	2876
819.341	2819
819.481	2807
819.622	2937
819.762	3089
819.903	3020
820.043	2906
820.184	2906
820.324	2887
820.465	3024
820.605	3028
820.746	2982
820.886	2914
821.026	3100
821.167	3180
821.307	3279
821.447	3279
821.588	3264
821.728	3211
821.868	3180
822.008	3097
822.149	3173
822.289	3253
822.429	3116
822.569	3081
822.709	3241
822.849	3039
822.99	3070
823.13	3188
823.27	3249
823.41	3142
823.55	3161
823.69	3169
823.83	3222
823.97	3138
824.11	3028
824.25	2998
824.389	3100
824.529	3146
824.669	3089
824.809	3226
824.949	3291
825.089	3245
825.228	3176
825.368	3005
825.508	2998
825.648	3017
825.787	3005
825.927	3070
826.067	2998
826.206	3005
826.346	3085
826.485	3135
826.625	3135
826.765	3291
826.904	3253
827.044	3024
827.183	2982
827.323	2887
827.462	3020
827.601	3001
827.741	2960
827.88	2986
828.02	2933
828.159	3005
828.298	3077
828.437	3138
828.577	3097
828.716	3245
828.855	3089
828.994	2929
829.134	2891
829.273	2941
829.412	2891
829.551	2864
829.69	2891
829.829	2967
829.968	3161
830.107	3055
830.246	3051
830.385	2933
830.524	2914
830.663	2861
830.802	2796
830.941	2686
831.08	2670
831.219	2807
831.357	2773
831.496	2975
831.635	2777
831.774	2697
831.913	2640
832.051	2613
832.19	2568
832.329	2716
832.467	2564
832.606	2541
832.744	2575
832.883	2602
833.022	2606
833.16	2682
833.299	2682
833.437	2720
833.576	2735
833.714	2773
833.852	2788
833.991	2800
834.129	2883
834.267	2861
834.406	2830
834.544	2887
834.682	2902
834.821	2925
834.959	3104
835.097	2941
835.235	3100
835.373	3009
835.511	3062
835.65	3001
835.788	2982
835.926	2861
836.064	2834
836.202	2861
836.34	3142
836.478	3173
836.615	3058
836.753	3169
836.891	3222
837.029	3203
837.167	3119
837.305	3108
837.443	3085
837.58	3009
837.718	3165
837.856	3070
837.993	3055
838.131	3131
838.269	3127
838.406	3127
838.544	3085
838.681	2971
838.819	2922
838.956	2876
839.094	2845
839.231	2937
839.369	3070
839.506	3359
839.643	3260
839.781	3009
839.918	2990
840.055	3070
840.193	3085
840.33	3104
840.467	3123
840.604	3161
840.742	3439
840.879	3051
841.016	3047
841.153	3192
841.29	3370
841.427	3317
841.564	3287
841.701	3325
841.838	3237
841.975	3192
842.112	3230
842.249	3112
842.385	3058
842.522	3287
842.659	3112
842.796	3108
842.933	3142
843.069	3093
843.206	3085
843.343	3207
843.479	3116
843.616	3169
843.752	2929
843.889	2887
844.025	3127
844.162	2910
844.298	3066
844.435	2963
844.571	2941
844.708	3131
844.844	3207
844.98	3272
845.117	3214
845.253	3062
845.389	3005
845.525	3142
845.661	3135
845.798	3039
845.934	3161
846.07	3093
846.206	3214
846.342	3329
846.478	3237
846.614	3135
846.75	3081
846.886	3070
847.022	3268
847.158	3184
847.294	3237
847.429	3279
847.565	3233
847.701	3492
847.837	3032
847.972	3009
848.108	3169
848.244	3146
848.379	3024
848.515	2971
848.65	2963
848.786	3001
848.921	3017
849.057	3138
849.192	3192
849.328	3100
849.463	3123
849.598	3077
849.734	3077
849.869	3013
850.004	2941
850.14	2971
850.275	2925
850.41	2853
850.545	2918
850.68	2960
850.815	2963
850.95	3017
851.085	3211
851.22	3116
851.355	3028
851.49	2990
851.625	2990
851.76	2990
851.895	2967
852.03	2948
852.165	3089
852.299	3127
852.434	3180
852.569	3176
852.703	3199
852.838	3237
852.973	3363
853.107	3329
853.242	3165
853.376	3112
853.511	2998
853.645	3062
853.78	3264
853.914	3154
854.048	3127
854.183	3089
854.317	3173
854.451	3306
854.585	3142
854.72	3085
854.854	3306
854.988	3077
855.122	3127
855.256	3028
855.39	3146
855.524	3249
855.658	3214
855.792	3184
855.926	3184
856.06	3230
856.194	3325
856.327	3157
856.461	3093
856.595	3070
856.729	3089
856.862	3260
856.996	3157
857.13	3237
857.263	3226
857.397	3298
857.53	3157
857.664	3230
857.797	3264
857.931	3275
858.064	3169
858.197	3275
858.331	3169
858.464	3089
858.597	3036
858.731	3116
858.864	3127
858.997	3135
859.13	3154
859.263	3226
859.396	3195
859.529	3123
859.662	3150
859.795	3051
859.928	3135
860.061	3298
860.194	3291
860.327	3108
860.46	3104
860.592	3256
860.725	3279
860.858	3279
860.99	3138
861.123	3070
861.256	3047
861.388	3173
861.521	3823
861.653	3017
861.786	3005
861.918	3005
862.05	3085
862.183	3119
862.315	3123
862.447	3226
862.58	3097
862.712	2982
862.844	2891
862.976	3051
863.108	3001
863.24	3439
863.372	2929
863.504	3017
863.636	2952
863.768	3043
863.9	3028
864.032	2941
864.164	2986
864.296	3043
864.428	3104
864.559	3135
864.691	3074
864.823	3097
864.954	3058
865.086	3058
865.217	2994
865.349	2986
865.48	3001
865.612	3043
865.743	3146
865.875	2982
866.006	2960
866.137	2990
866.269	2956
866.4	2979
866.531	2914
866.662	2902
866.793	2902
866.924	2880
867.055	2982
867.186	2918
867.317	2880
867.448	2857
867.579	2826
867.71	2864
867.841	2830
867.972	2918
868.103	2910
868.233	2914
868.364	2895
868.495	2906
868.625	3081
868.756	3176
868.886	2952
869.017	3005
869.147	3119
869.278	3154
869.408	3089
869.539	3032
869.669	3146
869.799	3077
869.929	3203
870.06	3142
870.19	3344
870.32	3279
870.45	3329
870.58	3424
870.71	3412
870.84	3473
870.97	3302
871.1	3268
871.23	3538
871.36	3519
871.489	3374
871.619	3405
871.749	3458
871.879	3428
872.008	3500
872.138	3424
872.267	3275
872.397	3150
872.526	3138
872.656	2990
872.785	3097
872.915	3233
873.044	3355
873.173	3218
873.303	3233
873.432	3241
873.561	3207
873.69	3169
873.819	3180
873.948	3173
874.077	3112
874.206	3066
874.335	3070
874.464	3249
874.593	3359
874.722	3256
874.851	3397
874.979	3405
875.108	3336
875.237	3199
875.365	3188
875.494	3146
875.623	3207
875.751	3077
875.88	3142
876.008	3173
876.136	3211
876.265	3340
876.393	3538
876.521	3420
876.65	3424
876.778	3317
876.906	3241
877.034	3226
877.162	3199
877.29	3203
877.418	3268
877.546	3272
877.674	3245
877.802	3264
877.93	3260
878.058	3180
878.185	3108
878.313	3199
878.441	3199
878.568	3089
878.696	3154
878.824	3298
878.951	3317
879.079	3447
879.206	3671
879.333	3454
879.461	3310
879.588	3370
879.715	3447
879.842	3629
879.97	3351
880.097	3173
880.224	3154
880.351	3222
880.478	3283
880.605	3203
880.732	3184
880.859	3526
880.986	3329
881.112	3336
881.239	3207
881.366	3112
881.493	3032
881.619	3017
881.746	3089
881.872	3097
881.999	3104
882.125	3154
882.252	3245
882.378	3302
882.505	3458
882.631	3351
882.757	3123
882.883	3203
883.01	3233
883.136	3184
883.262	3116
883.388	3104
883.514	3313
883.64	3420
883.766	3275
883.892	3211
884.018	3298
884.143	3420
884.269	3561
884.395	3184
884.52	3169
884.646	3207
884.772	3138
884.897	3108
885.023	3222
885.148	3348
885.274	3439
885.399	3401
885.524	3294
885.65	3237
885.775	3329
885.9	3287
886.025	3450
886.15	3348
886.275	3325
886.4	3253
886.525	3313
886.65	3294
886.775	3306
886.9	3523
887.025	3656
887.149	3389
887.274	3222
887.399	3195
887.523	3214
887.648	3222
887.773	3218
887.897	3374
888.021	3405
888.146	3363
888.27	3412
888.395	3511
888.519	3450
888.643	3458
888.767	3469
888.891	3355
889.015	3241
889.139	3294
889.263	3253
889.387	3409
889.511	3515
889.635	3447
889.759	3325
889.883	3325
890.006	3409
890.13	3504
890.254	3313
890.377	3355
890.501	3222
890.624	3188
890.748	3294
890.871	3184
890.995	3104
891.118	3089
891.241	3211
891.364	3211
891.488	3325
891.611	3180
891.734	3268
891.857	3298
891.98	3279
892.103	3367
892.226	3287
892.349	3230
892.471	3116
892.594	3260
892.717	3298
892.839	3272
892.962	3291
893.085	3348
893.207	3298
893.33	3165
893.452	3233
893.575	3344
893.697	3256
893.819	3492
893.941	3500
894.064	3424
894.186	3249
894.308	3264
894.43	3492
894.552	3523
894.674	3515
894.796	3279
894.918	3317
895.04	3272
895.161	3389
895.283	3416
895.405	3317
895.526	3374
895.648	3409
895.769	3420
895.891	3447
896.012	3462
896.134	3488
896.255	3447
896.376	3393
896.498	3378
896.619	3466
896.74	3378
896.861	3378
896.982	3671
897.103	3846
897.224	3595
897.345	3504
897.466	3420
897.587	3504
897.708	3595
897.828	3549
897.949	3447
898.07	3332
898.19	3424
898.311	3614
898.431	3447
898.552	3530
898.672	3595
898.792	3542
898.913	3519
899.033	3416
899.153	3329
899.273	3207
899.393	3275
899.513	3355
899.633	3351
899.753	3363
899.873	3310
899.993	3409
900.113	3336
900.232	3401
900.352	3340
900.472	3298
900.591	3233
900.711	3332
900.83	3256
900.95	3386
901.069	3504
901.189	3367
901.308	3188
901.427	3146
901.546	3165
901.665	3302
901.784	3359
901.904	3218
902.023	3169
902.141	3024
902.26	2982
902.379	3127
902.498	3085
902.617	3058
902.735	3214
902.854	3203
902.973	3161
903.091	3028
903.21	3039
903.328	3165
903.446	3093
903.565	3089
903.683	3226
903.801	3119
903.919	3226
904.038	3313
904.156	3169
904.274	3340
904.392	3237
904.51	3256
904.627	3351
904.745	3469
904.863	3488
904.981	3256
905.098	3184
905.216	3233
905.334	3321
905.451	3302
905.569	3302
905.686	3450
905.803	3454
905.921	3294
906.038	3435
906.155	3344
906.272	3253
906.389	3336
906.506	3230
906.623	3253
906.74	3310
906.857	3188
906.974	3275
907.091	3424
907.208	3557
907.324	3473
907.441	3386
907.557	3241
907.674	3207
907.79	3218
907.907	3294
908.023	3348
908.139	3386
908.256	3321
908.372	3378
908.488	3363
908.604	3226
908.72	3260
908.836	3287
908.952	3272
909.068	3344
909.184	3481
909.3	3370
909.415	3519
909.531	3534
909.647	3260
909.762	3268
909.878	3268
909.993	3374
910.108	3359
910.224	3370
910.339	3412
910.454	3344
910.57	3302
910.685	3260
910.8	3606
910.915	3507
911.03	3450
911.145	3268
911.259	3283
911.374	3321
911.489	3249
911.604	3207
911.718	3123
911.833	3157
911.947	3017
912.062	2941
912.176	3176
912.291	3199
912.405	3188
912.519	3462
912.633	3469
912.748	3374
912.862	3291
912.976	3184
913.09	3039
913.204	3154
913.318	3192
913.431	3370
913.545	3340
913.659	3409
913.772	3332
913.886	3230
914	3199
914.113	3367
914.226	3393
914.34	3344
914.453	3199
914.566	3382
914.68	3268
914.793	3306
914.906	3135
915.019	3123
915.132	3070
915.245	3207
915.358	3199
915.47	3218
915.583	3241
915.696	3264
915.809	3393
915.921	3424
916.034	3253
916.146	3249
916.259	3256
916.371	3405
916.483	3344
916.595	3268
916.708	3294
916.82	3351
916.932	3313
917.044	3363
917.156	3363
917.268	3264
917.38	3291
917.491	3306
917.603	3382
917.715	3431
917.826	3469
917.938	3378
918.049	3264
918.161	3443
918.272	3576
918.384	3557
918.495	3492
918.606	3374
918.717	3287
918.828	3393
918.939	3401
919.05	3264
919.161	3367
919.272	3154
919.383	3268
919.494	3450
919.604	3667
919.715	3511
919.826	3401
919.936	3473
920.047	3561
920.157	3504
920.267	3736
920.378	3553
920.488	3591
920.598	3755
920.708	3945
920.818	3762
920.928	3819
921.038	3979
921.148	4002
921.258	3713
921.368	3587
921.477	3564
921.587	3530
921.697	3492
921.806	3644
921.916	3568
922.025	3313
922.134	3340
922.244	3332
922.353	3435
922.462	3313
922.571	3192
922.68	3085
922.789	3093
922.898	3131
923.007	3089
923.116	3222
923.224	3195
923.333	3207
923.442	3108
923.55	3077
923.659	3116
923.767	3233
923.876	3085
923.984	3214
924.092	3100
924.201	3203
924.309	3203
924.417	3283
924.525	3199
924.633	3226
924.741	4044
924.849	3024
924.956	3249
925.064	3112
925.172	3036
925.279	3085
925.387	3218
925.494	3169
925.602	3359
925.709	3321
925.816	3192
925.924	3325
926.031	3382
926.138	3332
926.245	3332
926.352	3256
926.459	3416
926.566	3511
926.673	3332
926.779	3218
926.886	3237
926.993	3135
927.099	3169
927.206	3104
927.312	3089
927.419	3233
927.525	3203
927.631	3268
927.737	3138
927.843	3135
927.95	3001
928.056	3119
928.162	3157
928.267	3214
928.373	3850
928.479	3260
928.585	3051
928.69	3207
928.796	3245
928.901	3150
929.007	3009
929.112	3218
929.218	3173
929.323	3165
929.428	3150
929.533	3275
929.638	3112
929.743	3173
929.848	3233
929.953	3203
930.058	3154
930.163	3024
930.267	3009
930.372	3214
930.477	3043
930.581	3321
930.685	3184
930.79	3039
930.894	3165
930.998	3119
931.103	3275
931.207	2933
931.311	2929
931.415	2941
931.519	2750
931.623	2823
