Data from test_V78500241_1299.txt Node
Date: Fri Mar 25 16:24:12 CST 2022
User: usil
Spectrometer: V785-0024
Trigger mode: 0
Integration Time (sec): 4.000000E-1
Scans to average: 1
Nonlinearity correction enabled: false
Boxcar width: 0
Storing dark spectrum: false
XAxis mode: Wavelengths
Number of Pixels in Spectrum: 1024
>>>>>Begin Spectral Data<<<<<
801.071	2918
801.214	2963
801.356	2880
801.499	2883
801.641	2876
801.783	2918
801.926	3055
802.068	2975
802.211	2994
802.353	3058
802.496	2937
802.638	3009
802.78	3009
802.923	3036
803.065	2933
803.208	2910
803.35	2941
803.492	2929
803.635	2941
803.777	2762
803.919	2849
804.061	3203
804.204	2937
804.346	2922
804.488	2861
804.63	2971
804.773	2876
804.915	2925
805.057	3081
805.199	2922
805.341	2971
805.483	3028
805.626	2990
805.768	2971
805.91	3066
806.052	3077
806.194	3024
806.336	3199
806.478	3013
806.62	2956
806.762	2956
806.904	3047
807.046	3173
807.188	2933
807.33	2876
807.472	2982
807.614	2914
807.756	2967
807.898	2979
808.04	2880
808.182	2948
808.324	2979
808.465	2861
808.607	2861
808.749	2792
808.891	2826
809.033	2933
809.174	2979
809.316	2876
809.458	2891
809.6	2785
809.741	2712
809.883	2773
810.025	2826
810.166	2845
810.308	2853
810.45	2842
810.591	2743
810.733	2762
810.875	2849
811.016	2781
811.158	2750
811.299	2800
811.441	2929
811.582	2887
811.724	2845
811.865	2819
812.007	2899
812.148	2872
812.29	2845
812.431	2914
812.573	2910
812.714	2971
812.855	3005
812.997	3055
813.138	3127
813.279	3036
813.421	2967
813.562	2956
813.703	2849
813.845	2864
813.986	2773
814.127	2701
814.268	2807
814.41	2883
814.551	2788
814.692	2887
814.833	2796
814.974	2899
815.115	2967
815.256	2842
815.397	2811
815.539	2872
815.68	2796
815.821	2815
815.962	2918
816.103	2925
816.244	2876
816.385	2872
816.526	2960
816.666	2861
816.807	2735
816.948	2868
817.089	2876
817.23	2872
817.371	2773
817.512	2804
817.653	2834
817.793	2830
817.934	2861
818.075	2944
818.216	2960
818.356	3005
818.497	2864
818.638	2754
818.778	2800
818.919	2788
819.06	2766
819.2	2849
819.341	2800
819.481	2785
819.622	2899
819.762	3119
819.903	3062
820.043	2944
820.184	2902
820.324	2918
820.465	2990
820.605	3013
820.746	3039
820.886	2910
821.026	3097
821.167	3207
821.307	3226
821.447	3272
821.588	3207
821.728	3218
821.868	3195
822.008	3081
822.149	3169
822.289	3256
822.429	3089
822.569	3051
822.709	3146
822.849	3032
822.99	3055
823.13	3176
823.27	3207
823.41	3116
823.55	3180
823.69	3150
823.83	3192
823.97	3135
824.11	2979
824.25	2986
824.389	3085
824.529	3097
824.669	3047
824.809	3207
824.949	3256
825.089	3188
825.228	3131
825.368	3001
825.508	2956
825.648	2933
825.787	3009
825.927	3017
826.067	2952
826.206	2914
826.346	3047
826.485	3039
826.625	3089
826.765	3264
826.904	3218
827.044	2994
827.183	2918
827.323	2842
827.462	3020
827.601	2937
827.741	2887
827.88	2937
828.02	2842
828.159	2956
828.298	3036
828.437	3077
828.577	3009
828.716	3245
828.855	3100
828.994	2914
829.134	2861
829.273	2887
829.412	2895
829.551	2864
829.69	2902
829.829	2979
829.968	3097
830.107	3020
830.246	3024
830.385	2918
830.524	2849
830.663	2830
830.802	2739
830.941	2629
831.08	2625
831.219	2773
831.357	2746
831.496	2986
831.635	2705
831.774	2621
831.913	2640
832.051	2530
832.19	2583
832.329	2667
832.467	2522
832.606	2503
832.744	2575
832.883	2552
833.022	2587
833.16	2674
833.299	2655
833.437	2705
833.576	2689
833.714	2731
833.852	2716
833.991	2754
834.129	2861
834.267	2826
834.406	2758
834.544	2849
834.682	2861
834.821	2857
834.959	3009
835.097	2902
835.235	3036
835.373	3001
835.511	3001
835.65	2963
835.788	2941
835.926	2815
836.064	2819
836.202	2815
836.34	3097
836.478	3195
836.615	3028
836.753	3146
836.891	3195
837.029	3119
837.167	3097
837.305	3051
837.443	3024
837.58	2990
837.718	3119
837.856	3062
837.993	3047
838.131	3135
838.269	3104
838.406	3108
838.544	3119
838.681	2948
838.819	2918
838.956	2815
839.094	2785
839.231	2910
839.369	2975
839.506	3359
839.643	3207
839.781	2990
839.918	2937
840.055	3100
840.193	3036
840.33	3024
840.467	3104
840.604	3184
840.742	3397
840.879	3047
841.016	3013
841.153	3112
841.29	3355
841.427	3298
841.564	3279
841.701	3294
841.838	3218
841.975	3157
842.112	3214
842.249	3081
842.385	3039
842.522	3268
842.659	3085
842.796	3043
842.933	3104
843.069	3055
843.206	3055
843.343	3184
843.479	3093
843.616	3123
843.752	2876
843.889	2849
844.025	3058
844.162	2876
844.298	3081
844.435	2963
844.571	2922
844.708	3032
844.844	3195
844.98	3207
845.117	3207
845.253	3036
845.389	3017
845.525	3112
845.661	3066
845.798	3013
845.934	3104
846.07	3047
846.206	3161
846.342	3302
846.478	3203
846.614	3112
846.75	3047
846.886	2982
847.022	3203
847.158	3169
847.294	3161
847.429	3233
847.565	3207
847.701	3439
847.837	2990
847.972	3017
848.108	3108
848.244	3116
848.379	2956
848.515	2956
848.65	2925
848.786	2952
848.921	2960
849.057	3085
849.192	3150
849.328	3074
849.463	3112
849.598	3051
849.734	3001
849.869	2948
850.004	2887
850.14	2956
850.275	2883
850.41	2830
850.545	2864
850.68	2944
850.815	2929
850.95	2941
851.085	3169
851.22	3089
851.355	3032
851.49	2929
851.625	2967
851.76	3039
851.895	2948
852.03	2883
852.165	3013
852.299	3138
852.434	3192
852.569	3150
852.703	3173
852.838	3245
852.973	3302
853.107	3306
853.242	3142
853.376	3081
853.511	2948
853.645	3005
853.78	3203
853.914	3138
854.048	3112
854.183	3074
854.317	3146
854.451	3321
854.585	3112
854.72	3104
854.854	3222
854.988	3043
855.122	3097
855.256	2956
855.39	3104
855.524	3222
855.658	3146
855.792	3157
855.926	3180
856.06	3188
856.194	3222
856.327	3135
856.461	3070
856.595	3089
856.729	3074
856.862	3222
856.996	3195
857.13	3157
857.263	3245
857.397	3287
857.53	3097
857.664	3188
857.797	3253
857.931	3237
858.064	3138
858.197	3211
858.331	3100
858.464	3104
858.597	2979
858.731	3097
858.864	3123
858.997	3085
859.13	3161
859.263	3161
859.396	3154
859.529	3100
859.662	3039
859.795	3009
859.928	3142
860.061	3256
860.194	3279
860.327	3066
860.46	3055
860.592	3199
860.725	3283
860.858	3218
860.99	3070
861.123	3062
861.256	3036
861.388	3112
861.521	3686
861.653	2994
861.786	2952
861.918	2971
862.05	3043
862.183	3058
862.315	3123
862.447	3169
862.58	3074
862.712	2933
862.844	2842
862.976	2998
863.108	3017
863.24	3344
863.372	2872
863.504	2910
863.636	2925
863.768	2998
863.9	2971
864.032	2872
864.164	2956
864.296	2998
864.428	3077
864.559	3070
864.691	3066
864.823	3036
864.954	3051
865.086	3032
865.217	3005
865.349	2929
865.48	3024
865.612	3001
865.743	3180
865.875	2986
866.006	2929
866.137	2979
866.269	2933
866.4	2948
866.531	2933
866.662	2857
866.793	2914
866.924	2906
867.055	2971
867.186	2868
867.317	2883
867.448	2842
867.579	2868
867.71	2864
867.841	2830
867.972	2880
868.103	2887
868.233	2876
868.364	2891
868.495	2910
868.625	3085
868.756	3131
868.886	2952
869.017	3028
869.147	3150
869.278	3127
869.408	3024
869.539	2994
869.669	3055
869.799	3032
869.929	3127
870.06	3081
870.19	3279
870.32	3298
870.45	3291
870.58	3340
870.71	3439
870.84	3458
870.97	3306
871.1	3237
871.23	3469
871.36	3469
871.489	3351
871.619	3386
871.749	3397
871.879	3443
872.008	3458
872.138	3336
872.267	3245
872.397	3146
872.526	3077
872.656	3032
872.785	3123
872.915	3199
873.044	3294
873.173	3161
873.303	3222
873.432	3214
873.561	3253
873.69	3146
873.819	3150
873.948	3184
874.077	3062
874.206	3036
874.335	3066
874.464	3199
874.593	3340
874.722	3214
874.851	3363
874.979	3344
875.108	3336
875.237	3195
875.365	3173
875.494	3184
875.623	3230
875.751	3051
875.88	3081
876.008	3161
876.136	3207
876.265	3374
876.393	3462
876.521	3412
876.65	3397
876.778	3348
876.906	3245
877.034	3173
877.162	3211
877.29	3119
877.418	3230
877.546	3237
877.674	3237
877.802	3211
877.93	3222
878.058	3165
878.185	3093
878.313	3192
878.441	3176
878.568	3089
878.696	3135
878.824	3218
878.951	3294
879.079	3435
879.206	3629
879.333	3405
879.461	3329
879.588	3382
879.715	3496
879.842	3580
879.97	3363
880.097	3127
880.224	3100
880.351	3165
880.478	3195
880.605	3211
880.732	3165
880.859	3458
880.986	3313
881.112	3321
881.239	3184
881.366	3070
881.493	3051
881.619	3028
881.746	3051
881.872	3108
881.999	3085
882.125	3127
882.252	3203
882.378	3264
882.505	3447
882.631	3275
882.757	3150
882.883	3157
883.01	3211
883.136	3142
883.262	3097
883.388	3116
883.514	3329
883.64	3332
883.766	3275
883.892	3154
884.018	3222
884.143	3405
884.269	3473
884.395	3142
884.52	3169
884.646	3211
884.772	3097
884.897	3093
885.023	3184
885.148	3332
885.274	3389
885.399	3355
885.524	3279
885.65	3233
885.775	3268
885.9	3253
886.025	3431
886.15	3382
886.275	3275
886.4	3214
886.525	3253
886.65	3294
886.775	3287
886.9	3454
887.025	3610
887.149	3412
887.274	3203
887.399	3195
887.523	3169
887.648	3195
887.773	3173
887.897	3336
888.021	3378
888.146	3233
888.27	3431
888.395	3492
888.519	3389
888.643	3389
888.767	3450
888.891	3283
889.015	3207
889.139	3275
889.263	3279
889.387	3367
889.511	3504
889.635	3401
889.759	3279
889.883	3283
890.006	3386
890.13	3481
890.254	3249
890.377	3298
890.501	3192
890.624	3142
890.748	3275
890.871	3176
890.995	3093
891.118	3089
891.241	3165
891.364	3207
891.488	3298
891.611	3161
891.734	3214
891.857	3302
891.98	3195
892.103	3317
892.226	3272
892.349	3230
892.471	3108
892.594	3199
892.717	3279
892.839	3249
892.962	3275
893.085	3351
893.207	3283
893.33	3127
893.452	3207
893.575	3317
893.697	3237
893.819	3443
893.941	3481
894.064	3431
894.186	3260
894.308	3264
894.43	3405
894.552	3523
894.674	3469
894.796	3237
894.918	3329
895.04	3272
895.161	3439
895.283	3386
895.405	3298
895.526	3359
895.648	3435
895.769	3412
895.891	3431
896.012	3458
896.134	3439
896.255	3424
896.376	3355
896.498	3336
896.619	3424
896.74	3363
896.861	3431
896.982	3660
897.103	3846
897.224	3580
897.345	3515
897.466	3393
897.587	3530
897.708	3576
897.828	3538
897.949	3431
898.07	3279
898.19	3435
898.311	3564
898.431	3458
898.552	3481
898.672	3557
898.792	3542
898.913	3519
899.033	3412
899.153	3249
899.273	3207
899.393	3283
899.513	3275
899.633	3279
899.753	3374
899.873	3283
899.993	3340
900.113	3310
900.232	3363
900.352	3340
900.472	3245
900.591	3192
900.711	3272
900.83	3180
900.95	3416
901.069	3469
901.189	3355
901.308	3131
901.427	3074
901.546	3161
901.665	3260
901.784	3325
901.904	3161
902.023	3119
902.141	2994
902.26	2979
902.379	3104
902.498	3058
902.617	3093
902.735	3154
902.854	3279
902.973	3192
903.091	3005
903.21	3070
903.328	3169
903.446	3119
903.565	3097
903.683	3233
903.801	3142
903.919	3249
904.038	3336
904.156	3192
904.274	3283
904.392	3268
904.51	3340
904.627	3363
904.745	3447
904.863	3545
904.981	3260
905.098	3203
905.216	3275
905.334	3275
905.451	3325
905.569	3336
905.686	3424
905.803	3447
905.921	3321
906.038	3450
906.155	3401
906.272	3336
906.389	3344
906.506	3249
906.623	3298
906.74	3313
906.857	3222
906.974	3321
907.091	3466
907.208	3614
907.324	3530
907.441	3409
907.557	3287
907.674	3249
907.79	3226
907.907	3283
908.023	3401
908.139	3420
908.256	3389
908.372	3409
908.488	3386
908.604	3264
908.72	3249
908.836	3359
908.952	3272
909.068	3401
909.184	3526
909.3	3428
909.415	3568
909.531	3485
909.647	3298
909.762	3340
909.878	3310
909.993	3378
910.108	3367
910.224	3378
910.339	3458
910.454	3351
910.57	3325
910.685	3249
910.8	3629
910.915	3557
911.03	3473
911.145	3325
911.259	3283
911.374	3332
911.489	3272
911.604	3256
911.718	3180
911.833	3207
911.947	3074
912.062	3036
912.176	3214
912.291	3218
912.405	3218
912.519	3462
912.633	3485
912.748	3313
912.862	3317
912.976	3256
913.09	3089
913.204	3195
913.318	3272
913.431	3409
913.545	3386
913.659	3439
913.772	3351
913.886	3260
914	3230
914.113	3382
914.226	3435
914.34	3431
914.453	3214
914.566	3405
914.68	3310
914.793	3313
914.906	3188
915.019	3154
915.132	3100
915.245	3173
915.358	3245
915.47	3268
915.583	3291
915.696	3317
915.809	3443
915.921	3466
916.034	3275
916.146	3287
916.259	3249
916.371	3412
916.483	3386
916.595	3306
916.708	3336
916.82	3401
916.932	3348
917.044	3397
917.156	3393
917.268	3272
917.38	3325
917.491	3325
917.603	3389
917.715	3428
917.826	3492
917.938	3401
918.049	3329
918.161	3473
918.272	3629
918.384	3618
918.495	3526
918.606	3397
918.717	3291
918.828	3416
918.939	3458
919.05	3344
919.161	3370
919.272	3195
919.383	3302
919.494	3534
919.604	3709
919.715	3507
919.826	3458
919.936	3462
920.047	3641
920.157	3606
920.267	3857
920.378	3629
920.488	3606
920.598	3789
920.708	3987
920.818	3823
920.928	3838
921.038	4071
921.148	4055
921.258	3720
921.368	3656
921.477	3625
921.587	3576
921.697	3500
921.806	3652
921.916	3538
922.025	3363
922.134	3393
922.244	3329
922.353	3439
922.462	3306
922.571	3268
922.68	3108
922.789	3093
922.898	3157
923.007	3131
923.116	3180
923.224	3233
923.333	3192
923.442	3138
923.55	3127
923.659	3184
923.767	3245
923.876	3142
923.984	3237
924.092	3142
924.201	3214
924.309	3237
924.417	3264
924.525	3226
924.633	3260
924.741	4059
924.849	3051
924.956	3294
925.064	3100
925.172	3100
925.279	3123
925.387	3222
925.494	3237
925.602	3401
925.709	3344
925.816	3176
925.924	3313
926.031	3401
926.138	3370
926.245	3416
926.352	3283
926.459	3428
926.566	3485
926.673	3348
926.779	3272
926.886	3264
926.993	3169
927.099	3154
927.206	3123
927.312	3157
927.419	3245
927.525	3256
927.631	3306
927.737	3150
927.843	3138
927.95	3020
928.056	3142
928.162	3207
928.267	3272
928.373	3896
928.479	3313
928.585	3089
928.69	3256
928.796	3283
928.901	3226
929.007	3077
929.112	3241
929.218	3214
929.323	3199
929.428	3150
929.533	3306
929.638	3150
929.743	3161
929.848	3264
929.953	3253
930.058	3161
930.163	3032
930.267	3085
930.372	3226
930.477	3055
930.581	3363
930.685	3192
930.79	3074
930.894	3146
930.998	3108
931.103	3355
931.207	3009
931.311	2979
931.415	2941
931.519	2796
931.623	2853
