Data from test_V78500241_926.txt Node
Date: Fri Mar 25 16:21:37 CST 2022
User: usil
Spectrometer: V785-0024
Trigger mode: 0
Integration Time (sec): 4.000000E-1
Scans to average: 1
Nonlinearity correction enabled: false
Boxcar width: 0
Storing dark spectrum: false
XAxis mode: Wavelengths
Number of Pixels in Spectrum: 1024
>>>>>Begin Spectral Data<<<<<
801.071	2895
801.214	2960
801.356	2868
801.499	2883
801.641	2876
801.783	2937
801.926	3062
802.068	2971
802.211	3036
802.353	3036
802.496	2956
802.638	3017
802.78	3085
802.923	3108
803.065	3032
803.208	2876
803.35	2910
803.492	2883
803.635	2967
803.777	2739
803.919	2872
804.061	3184
804.204	2963
804.346	2887
804.488	2849
804.63	2956
804.773	2857
804.915	2925
805.057	3039
805.199	2952
805.341	3001
805.483	3032
805.626	3036
805.768	2933
805.91	3123
806.052	3108
806.194	3036
806.336	3218
806.478	3028
806.62	2944
806.762	2960
806.904	3055
807.046	3180
807.188	2952
807.33	2902
807.472	2982
807.614	2876
807.756	2990
807.898	2899
808.04	2891
808.182	2910
808.324	2998
808.465	2868
808.607	2899
808.749	2777
808.891	2868
809.033	2975
809.174	2979
809.316	2891
809.458	2902
809.6	2754
809.741	2785
809.883	2731
810.025	2842
810.166	2864
810.308	2804
810.45	2883
810.591	2766
810.733	2769
810.875	2842
811.016	2777
811.158	2712
811.299	2815
811.441	2902
811.582	2902
811.724	2815
811.865	2819
812.007	2937
812.148	2899
812.29	2838
812.431	2902
812.573	2925
812.714	2967
812.855	3028
812.997	3047
813.138	3097
813.279	3013
813.421	2960
813.562	2960
813.703	2880
813.845	2895
813.986	2777
814.127	2743
814.268	2800
814.41	2796
814.551	2788
814.692	2891
814.833	2811
814.974	2929
815.115	2952
815.256	2872
815.397	2834
815.539	2887
815.68	2800
815.821	2792
815.962	2941
816.103	2960
816.244	2887
816.385	2868
816.526	2975
816.666	2876
816.807	2712
816.948	2872
817.089	2876
817.23	2861
817.371	2773
817.512	2769
817.653	2830
817.793	2815
817.934	2861
818.075	2963
818.216	2979
818.356	3039
818.497	2899
818.638	2777
818.778	2823
818.919	2811
819.06	2781
819.2	2857
819.341	2819
819.481	2830
819.622	2891
819.762	3108
819.903	3009
820.043	2929
820.184	2895
820.324	2880
820.465	3013
820.605	2998
820.746	3051
820.886	2899
821.026	3085
821.167	3154
821.307	3256
821.447	3287
821.588	3226
821.728	3211
821.868	3157
822.008	3047
822.149	3207
822.289	3199
822.429	3077
822.569	3062
822.709	3142
822.849	2986
822.99	3070
823.13	3176
823.27	3176
823.41	3104
823.55	3108
823.69	3165
823.83	3203
823.97	3055
824.11	2998
824.25	3001
824.389	3074
824.529	3097
824.669	3058
824.809	3188
824.949	3245
825.089	3214
825.228	3146
825.368	3001
825.508	2922
825.648	2937
825.787	3024
825.927	3013
826.067	2971
826.206	2944
826.346	3024
826.485	3066
826.625	3081
826.765	3207
826.904	3218
827.044	3001
827.183	2899
827.323	2880
827.462	2971
827.601	2929
827.741	2929
827.88	2941
828.02	2830
828.159	2952
828.298	3058
828.437	3108
828.577	3058
828.716	3245
828.855	3089
828.994	2895
829.134	2883
829.273	2944
829.412	2876
829.551	2857
829.69	2857
829.829	2971
829.968	3138
830.107	3032
830.246	3013
830.385	2967
830.524	2861
830.663	2819
830.802	2697
830.941	2655
831.08	2602
831.219	2766
831.357	2758
831.496	2925
831.635	2743
831.774	2651
831.913	2689
832.051	2568
832.19	2530
832.329	2663
832.467	2552
832.606	2473
832.744	2571
832.883	2602
833.022	2594
833.16	2678
833.299	2648
833.437	2693
833.576	2697
833.714	2716
833.852	2750
833.991	2750
834.129	2811
834.267	2815
834.406	2758
834.544	2857
834.682	2876
834.821	2880
834.959	3093
835.097	2883
835.235	3043
835.373	2998
835.511	2982
835.65	2952
835.788	2910
835.926	2857
836.064	2792
836.202	2861
836.34	3062
836.478	3119
836.615	3032
836.753	3108
836.891	3218
837.029	3176
837.167	3108
837.305	3081
837.443	3024
837.58	2952
837.718	3138
837.856	3043
837.993	3028
838.131	3100
838.269	3055
838.406	3123
838.544	3081
838.681	2944
838.819	2937
838.956	2800
839.094	2861
839.231	2910
839.369	3013
839.506	3363
839.643	3256
839.781	3001
839.918	2944
840.055	3020
840.193	3020
840.33	3036
840.467	3100
840.604	3123
840.742	3378
840.879	3081
841.016	3055
841.153	3081
841.29	3291
841.427	3317
841.564	3268
841.701	3332
841.838	3176
841.975	3203
842.112	3222
842.249	3066
842.385	3043
842.522	3260
842.659	3085
842.796	3055
842.933	3093
843.069	3028
843.206	3032
843.343	3180
843.479	3131
843.616	3157
843.752	2891
843.889	2845
844.025	3051
844.162	2899
844.298	3070
844.435	2937
844.571	2925
844.708	3074
844.844	3173
844.98	3253
845.117	3203
845.253	3066
845.389	2990
845.525	3100
845.661	3089
845.798	3001
845.934	3123
846.07	3058
846.206	3214
846.342	3291
846.478	3226
846.614	3070
846.75	3055
846.886	3013
847.022	3230
847.158	3146
847.294	3218
847.429	3260
847.565	3256
847.701	3500
847.837	2963
847.972	2979
848.108	3173
848.244	3138
848.379	2990
848.515	2956
848.65	2933
848.786	2975
848.921	2990
849.057	3112
849.192	3135
849.328	3058
849.463	3108
849.598	3074
849.734	3043
849.869	2967
850.004	2914
850.14	2998
850.275	2914
850.41	2804
850.545	2868
850.68	2937
850.815	2918
850.95	2952
851.085	3176
851.22	3104
851.355	3039
851.49	2971
851.625	2975
851.76	3024
851.895	2937
852.03	2906
852.165	2994
852.299	3093
852.434	3199
852.569	3157
852.703	3180
852.838	3230
852.973	3313
853.107	3332
853.242	3150
853.376	3116
853.511	2963
853.645	3039
853.78	3211
853.914	3108
854.048	3119
854.183	3077
854.317	3104
854.451	3313
854.585	3119
854.72	3116
854.854	3241
854.988	3028
855.122	3081
855.256	2952
855.39	3135
855.524	3233
855.658	3173
855.792	3127
855.926	3218
856.06	3184
856.194	3245
856.327	3135
856.461	3047
856.595	3058
856.729	3074
856.862	3192
856.996	3123
857.13	3203
857.263	3192
857.397	3264
857.53	3131
857.664	3214
857.797	3211
857.931	3199
858.064	3173
858.197	3214
858.331	3100
858.464	3062
858.597	2979
858.731	3138
858.864	3169
858.997	3058
859.13	3173
859.263	3157
859.396	3169
859.529	3074
859.662	3081
859.795	3036
859.928	3127
860.061	3260
860.194	3253
860.327	3093
860.46	3062
860.592	3279
860.725	3226
860.858	3222
860.99	3093
861.123	3032
861.256	3039
861.388	3119
861.521	3896
861.653	2998
861.786	2979
861.918	3005
862.05	3085
862.183	3085
862.315	3131
862.447	3184
862.58	3055
862.712	2956
862.844	2872
862.976	2994
863.108	2990
863.24	3287
863.372	2872
863.504	2956
863.636	2929
863.768	2986
863.9	2975
864.032	2891
864.164	3013
864.296	3001
864.428	3055
864.559	3085
864.691	3081
864.823	3055
864.954	3032
865.086	3020
865.217	2994
865.349	2960
865.48	2967
865.612	2982
865.743	3165
865.875	2948
866.006	2933
866.137	2979
866.269	2963
866.4	2918
866.531	2944
866.662	2864
866.793	2864
866.924	2872
867.055	2956
867.186	2906
867.317	2876
867.448	2853
867.579	2853
867.71	2838
867.841	2830
867.972	2880
868.103	2899
868.233	2868
868.364	2861
868.495	2895
868.625	3108
868.756	3165
868.886	2952
869.017	3032
869.147	3138
869.278	3104
869.408	3009
869.539	3024
869.669	3066
869.799	3028
869.929	3119
870.06	3066
870.19	3287
870.32	3264
870.45	3310
870.58	3363
870.71	3389
870.84	3431
870.97	3298
871.1	3253
871.23	3481
871.36	3473
871.489	3370
871.619	3420
871.749	3439
871.879	3458
872.008	3458
872.138	3344
872.267	3256
872.397	3154
872.526	3097
872.656	3009
872.785	3074
872.915	3233
873.044	3344
873.173	3218
873.303	3233
873.432	3233
873.561	3260
873.69	3116
873.819	3157
873.948	3218
874.077	3081
874.206	3032
874.335	3089
874.464	3199
874.593	3321
874.722	3253
874.851	3386
874.979	3344
875.108	3332
875.237	3184
875.365	3180
875.494	3116
875.623	3260
875.751	3066
875.88	3112
876.008	3226
876.136	3214
876.265	3351
876.393	3458
876.521	3351
876.65	3382
876.778	3302
876.906	3245
877.034	3184
877.162	3218
877.29	3192
877.418	3245
877.546	3283
877.674	3222
877.802	3241
877.93	3214
878.058	3161
878.185	3077
878.313	3184
878.441	3154
878.568	3055
878.696	3123
878.824	3218
878.951	3275
879.079	3428
879.206	3599
879.333	3428
879.461	3313
879.588	3359
879.715	3526
879.842	3633
879.97	3378
880.097	3131
880.224	3093
880.351	3180
880.478	3203
880.605	3142
880.732	3188
880.859	3538
880.986	3253
881.112	3298
881.239	3180
881.366	3085
881.493	3009
881.619	2990
881.746	3047
881.872	3085
881.999	3089
882.125	3154
882.252	3237
882.378	3268
882.505	3405
882.631	3264
882.757	3173
882.883	3188
883.01	3233
883.136	3093
883.262	3051
883.388	3093
883.514	3291
883.64	3351
883.766	3283
883.892	3142
884.018	3245
884.143	3351
884.269	3519
884.395	3176
884.52	3169
884.646	3154
884.772	3135
884.897	3112
885.023	3188
885.148	3336
885.274	3340
885.399	3378
885.524	3260
885.65	3214
885.775	3279
885.9	3260
886.025	3420
886.15	3351
886.275	3291
886.4	3214
886.525	3283
886.65	3302
886.775	3279
886.9	3469
887.025	3599
887.149	3412
887.274	3226
887.399	3176
887.523	3214
887.648	3173
887.773	3157
887.897	3389
888.021	3359
888.146	3317
888.27	3447
888.395	3549
888.519	3424
888.643	3443
888.767	3469
888.891	3340
889.015	3256
889.139	3329
889.263	3253
889.387	3393
889.511	3526
889.635	3458
889.759	3287
889.883	3302
890.006	3378
890.13	3504
890.254	3306
890.377	3351
890.501	3211
890.624	3203
890.748	3340
890.871	3211
890.995	3131
891.118	3074
891.241	3253
891.364	3222
891.488	3344
891.611	3226
891.734	3272
891.857	3287
891.98	3218
892.103	3340
892.226	3325
892.349	3256
892.471	3100
892.594	3279
892.717	3329
892.839	3317
892.962	3313
893.085	3393
893.207	3332
893.33	3176
893.452	3233
893.575	3405
893.697	3260
893.819	3488
893.941	3557
894.064	3481
894.186	3298
894.308	3291
894.43	3492
894.552	3584
894.674	3473
894.796	3302
894.918	3332
895.04	3317
895.161	3481
895.283	3488
895.405	3317
895.526	3420
895.648	3458
895.769	3443
895.891	3538
896.012	3488
896.134	3481
896.255	3454
896.376	3435
896.498	3370
896.619	3466
896.74	3382
896.861	3450
896.982	3713
897.103	3865
897.224	3667
897.345	3542
897.466	3443
897.587	3538
897.708	3652
897.828	3599
897.949	3469
898.07	3374
898.19	3420
898.311	3660
898.431	3458
898.552	3549
898.672	3629
898.792	3614
898.913	3564
899.033	3466
899.153	3321
899.273	3287
899.393	3363
899.513	3355
899.633	3317
899.753	3389
899.873	3344
899.993	3397
900.113	3363
900.232	3424
900.352	3374
900.472	3332
900.591	3237
900.711	3317
900.83	3306
900.95	3435
901.069	3515
901.189	3393
901.308	3253
901.427	3169
901.546	3214
901.665	3317
901.784	3367
901.904	3222
902.023	3199
902.141	3020
902.26	3032
902.379	3173
902.498	3081
902.617	3051
902.735	3237
902.854	3272
902.973	3207
903.091	3081
903.21	3074
903.328	3135
903.446	3112
903.565	3116
903.683	3226
903.801	3138
903.919	3268
904.038	3325
904.156	3199
904.274	3325
904.392	3294
904.51	3355
904.627	3367
904.745	3481
904.863	3492
904.981	3302
905.098	3199
905.216	3268
905.334	3310
905.451	3313
905.569	3325
905.686	3439
905.803	3466
905.921	3336
906.038	3439
906.155	3374
906.272	3306
906.389	3382
906.506	3256
906.623	3302
906.74	3321
906.857	3233
906.974	3287
907.091	3454
907.208	3580
907.324	3488
907.441	3431
907.557	3264
907.674	3233
907.79	3230
907.907	3298
908.023	3363
908.139	3424
908.256	3340
908.372	3382
908.488	3397
908.604	3241
908.72	3275
908.836	3287
908.952	3302
909.068	3370
909.184	3469
909.3	3412
909.415	3564
909.531	3515
909.647	3310
909.762	3298
909.878	3298
909.993	3401
910.108	3355
910.224	3370
910.339	3424
910.454	3370
910.57	3317
910.685	3291
910.8	3610
910.915	3534
911.03	3469
911.145	3287
911.259	3298
911.374	3317
911.489	3268
911.604	3241
911.718	3150
911.833	3131
911.947	3055
912.062	3032
912.176	3188
912.291	3192
912.405	3230
912.519	3450
912.633	3462
912.748	3370
912.862	3275
912.976	3226
913.09	3135
913.204	3199
913.318	3249
913.431	3363
913.545	3359
913.659	3469
913.772	3370
913.886	3268
914	3184
914.113	3393
914.226	3405
914.34	3386
914.453	3245
914.566	3473
914.68	3291
914.793	3359
914.906	3173
915.019	3165
915.132	3097
915.245	3192
915.358	3283
915.47	3253
915.583	3287
915.696	3313
915.809	3439
915.921	3450
916.034	3298
916.146	3287
916.259	3237
916.371	3367
916.483	3378
916.595	3272
916.708	3355
916.82	3325
916.932	3332
917.044	3351
917.156	3405
917.268	3306
917.38	3336
917.491	3340
917.603	3382
917.715	3477
917.826	3526
917.938	3405
918.049	3279
918.161	3473
918.272	3587
918.384	3568
918.495	3519
918.606	3359
918.717	3336
918.828	3412
918.939	3431
919.05	3355
919.161	3424
919.272	3226
919.383	3302
919.494	3500
919.604	3717
919.715	3515
919.826	3466
919.936	3496
920.047	3637
920.157	3603
920.267	3774
920.378	3641
920.488	3580
920.598	3831
920.708	3987
920.818	3827
920.928	3835
921.038	4021
921.148	4021
921.258	3766
921.368	3610
921.477	3610
921.587	3561
921.697	3542
921.806	3618
921.916	3523
922.025	3378
922.134	3382
922.244	3363
922.353	3466
922.462	3283
922.571	3272
922.68	3104
922.789	3093
922.898	3131
923.007	3123
923.116	3218
923.224	3173
923.333	3192
923.442	3100
923.55	3131
923.659	3195
923.767	3237
923.876	3161
923.984	3260
924.092	3127
924.201	3241
924.309	3222
924.417	3279
924.525	3218
924.633	3241
924.741	4215
924.849	3077
924.956	3317
925.064	3138
925.172	3058
925.279	3165
925.387	3233
925.494	3233
925.602	3367
925.709	3336
925.816	3207
925.924	3291
926.031	3401
926.138	3405
926.245	3374
926.352	3249
926.459	3405
926.566	3485
926.673	3329
926.779	3291
926.886	3272
926.993	3173
927.099	3173
927.206	3138
927.312	3116
927.419	3283
927.525	3241
927.631	3344
927.737	3138
927.843	3108
927.95	3036
928.056	3184
928.162	3230
928.267	3268
928.373	3880
928.479	3317
928.585	3070
928.69	3241
928.796	3291
928.901	3192
929.007	3077
929.112	3195
929.218	3214
929.323	3165
929.428	3142
929.533	3340
929.638	3165
929.743	3127
929.848	3226
929.953	3222
930.058	3184
930.163	2994
930.267	3028
930.372	3184
930.477	3081
930.581	3321
930.685	3195
930.79	3070
930.894	3123
930.998	3108
931.103	3298
931.207	3020
931.311	2982
931.415	2922
931.519	2807
931.623	2857
