Data from test_V78500241_1358.txt Node
Date: Fri Mar 25 16:24:36 CST 2022
User: usil
Spectrometer: V785-0024
Trigger mode: 0
Integration Time (sec): 4.000000E-1
Scans to average: 1
Nonlinearity correction enabled: false
Boxcar width: 0
Storing dark spectrum: false
XAxis mode: Wavelengths
Number of Pixels in Spectrum: 1024
>>>>>Begin Spectral Data<<<<<
801.071	2937
801.214	2975
801.356	2880
801.499	2922
801.641	2887
801.783	2902
801.926	3074
802.068	3001
802.211	3005
802.353	3032
802.496	2998
802.638	3005
802.78	3066
802.923	3142
803.065	3028
803.208	2872
803.35	2906
803.492	2967
803.635	2967
803.777	2796
803.919	2868
804.061	3230
804.204	2971
804.346	2914
804.488	2842
804.63	2994
804.773	2887
804.915	2937
805.057	3093
805.199	2906
805.341	2982
805.483	3062
805.626	2986
805.768	2998
805.91	3093
806.052	3108
806.194	3058
806.336	3249
806.478	3017
806.62	2933
806.762	2967
806.904	3089
807.046	3150
807.188	2990
807.33	2929
807.472	3028
807.614	2922
807.756	2971
807.898	2922
808.04	2899
808.182	2963
808.324	2963
808.465	2899
808.607	2861
808.749	2804
808.891	2872
809.033	3005
809.174	2963
809.316	2902
809.458	2910
809.6	2762
809.741	2758
809.883	2773
810.025	2845
810.166	2868
810.308	2788
810.45	2876
810.591	2815
810.733	2746
810.875	2811
811.016	2804
811.158	2777
811.299	2781
811.441	2914
811.582	2906
811.724	2834
811.865	2849
812.007	2914
812.148	2914
812.29	2845
812.431	2876
812.573	2933
812.714	3001
812.855	3085
812.997	3043
813.138	3085
813.279	3032
813.421	2975
813.562	2971
813.703	2864
813.845	2914
813.986	2754
814.127	2739
814.268	2830
814.41	2864
814.551	2838
814.692	2887
814.833	2823
814.974	2902
815.115	2952
815.256	2891
815.397	2826
815.539	2876
815.68	2777
815.821	2804
815.962	2925
816.103	2914
816.244	2876
816.385	2853
816.526	2979
816.666	2914
816.807	2727
816.948	2902
817.089	2895
817.23	2857
817.371	2826
817.512	2811
817.653	2845
817.793	2819
817.934	2872
818.075	2971
818.216	2986
818.356	3047
818.497	2857
818.638	2785
818.778	2819
818.919	2811
819.06	2785
819.2	2906
819.341	2796
819.481	2800
819.622	2933
819.762	3100
819.903	3032
820.043	2925
820.184	2952
820.324	2899
820.465	3028
820.605	3032
820.746	3009
820.886	2952
821.026	3097
821.167	3176
821.307	3264
821.447	3283
821.588	3256
821.728	3154
821.868	3218
822.008	3070
822.149	3161
822.289	3226
822.429	3100
822.569	3077
822.709	3211
822.849	3036
822.99	3055
823.13	3165
823.27	3207
823.41	3104
823.55	3123
823.69	3161
823.83	3207
823.97	3127
824.11	2998
824.25	3013
824.389	3070
824.529	3142
824.669	3070
824.809	3169
824.949	3291
825.089	3241
825.228	3138
825.368	2994
825.508	2948
825.648	2990
825.787	3047
825.927	3020
826.067	2941
826.206	2948
826.346	3024
826.485	3081
826.625	3066
826.765	3253
826.904	3222
827.044	2982
827.183	2910
827.323	2864
827.462	3024
827.601	2891
827.741	2914
827.88	2937
828.02	2864
828.159	3005
828.298	3058
828.437	3108
828.577	3028
828.716	3226
828.855	3089
828.994	2918
829.134	2887
829.273	2929
829.412	2891
829.551	2857
829.69	2910
829.829	2941
829.968	3138
830.107	3024
830.246	3013
830.385	2929
830.524	2872
830.663	2792
830.802	2735
830.941	2632
831.08	2629
831.219	2766
831.357	2746
831.496	2937
831.635	2716
831.774	2686
831.913	2632
832.051	2537
832.19	2545
832.329	2674
832.467	2530
832.606	2495
832.744	2590
832.883	2552
833.022	2583
833.16	2640
833.299	2720
833.437	2670
833.576	2705
833.714	2708
833.852	2731
833.991	2750
834.129	2819
834.267	2883
834.406	2796
834.544	2849
834.682	2883
834.821	2857
834.959	3062
835.097	2902
835.235	3036
835.373	3001
835.511	3017
835.65	2956
835.788	2971
835.926	2815
836.064	2819
836.202	2838
836.34	3108
836.478	3157
836.615	3077
836.753	3131
836.891	3214
837.029	3184
837.167	3104
837.305	3081
837.443	3032
837.58	2941
837.718	3116
837.856	3085
837.993	3017
838.131	3119
838.269	3119
838.406	3123
838.544	3066
838.681	2929
838.819	2891
838.956	2785
839.094	2823
839.231	2910
839.369	3024
839.506	3359
839.643	3184
839.781	2998
839.918	2948
840.055	3024
840.193	3055
840.33	3058
840.467	3116
840.604	3108
840.742	3397
840.879	3036
841.016	3036
841.153	3100
841.29	3344
841.427	3283
841.564	3268
841.701	3264
841.838	3230
841.975	3192
842.112	3173
842.249	3081
842.385	3058
842.522	3264
842.659	3074
842.796	3077
842.933	3100
843.069	3066
843.206	3036
843.343	3211
843.479	3097
843.616	3112
843.752	2880
843.889	2853
844.025	3116
844.162	2872
844.298	3116
844.435	2986
844.571	2941
844.708	3085
844.844	3176
844.98	3237
845.117	3154
845.253	3051
845.389	3036
845.525	3097
845.661	3119
845.798	3005
845.934	3119
846.07	3104
846.206	3260
846.342	3256
846.478	3214
846.614	3062
846.75	3062
846.886	3020
847.022	3249
847.158	3119
847.294	3188
847.429	3214
847.565	3203
847.701	3492
847.837	3043
847.972	3009
848.108	3135
848.244	3157
848.379	2986
848.515	2922
848.65	2922
848.786	2971
848.921	2986
849.057	3119
849.192	3127
849.328	3039
849.463	3066
849.598	3036
849.734	3058
849.869	3013
850.004	2941
850.14	2956
850.275	2918
850.41	2845
850.545	2853
850.68	2929
850.815	2971
850.95	2941
851.085	3180
851.22	3097
851.355	3013
851.49	2986
851.625	2979
851.76	3047
851.895	2929
852.03	2891
852.165	3039
852.299	3104
852.434	3188
852.569	3138
852.703	3173
852.838	3256
852.973	3317
853.107	3336
853.242	3138
853.376	3093
853.511	2982
853.645	3020
853.78	3195
853.914	3108
854.048	3097
854.183	3039
854.317	3123
854.451	3268
854.585	3135
854.72	3097
854.854	3188
854.988	3028
855.122	3112
855.256	2982
855.39	3108
855.524	3272
855.658	3192
855.792	3192
855.926	3207
856.06	3218
856.194	3275
856.327	3123
856.461	3055
856.595	3116
856.729	3116
856.862	3203
856.996	3180
857.13	3203
857.263	3268
857.397	3249
857.53	3093
857.664	3188
857.797	3165
857.931	3264
858.064	3169
858.197	3218
858.331	3131
858.464	3085
858.597	3001
858.731	3108
858.864	3100
858.997	3085
859.13	3192
859.263	3150
859.396	3176
859.529	3097
859.662	3089
859.795	3062
859.928	3104
860.061	3237
860.194	3279
860.327	3142
860.46	3085
860.592	3233
860.725	3222
860.858	3256
860.99	3093
861.123	3013
861.256	3058
861.388	3138
861.521	3652
861.653	3005
861.786	3009
861.918	3001
862.05	3039
862.183	3116
862.315	3138
862.447	3184
862.58	3131
862.712	2944
862.844	2899
862.976	3043
863.108	3051
863.24	3287
863.372	2876
863.504	2960
863.636	2948
863.768	3020
863.9	2994
864.032	2922
864.164	2948
864.296	2963
864.428	3074
864.559	3097
864.691	3085
864.823	3058
864.954	3074
865.086	3055
865.217	2975
865.349	2937
865.48	2967
865.612	2982
865.743	3138
865.875	2994
866.006	2941
866.137	3001
866.269	2914
866.4	2948
866.531	2922
866.662	2895
866.793	2895
866.924	2914
867.055	2975
867.186	2902
867.317	2910
867.448	2819
867.579	2849
867.71	2876
867.841	2800
867.972	2872
868.103	2887
868.233	2883
868.364	2895
868.495	2910
868.625	3055
868.756	3108
868.886	2952
869.017	3009
869.147	3165
869.278	3138
869.408	3051
869.539	2944
869.669	3070
869.799	3032
869.929	3157
870.06	3089
870.19	3351
870.32	3294
870.45	3298
870.58	3355
870.71	3443
870.84	3492
870.97	3241
871.1	3241
871.23	3454
871.36	3458
871.489	3374
871.619	3393
871.749	3386
871.879	3447
872.008	3458
872.138	3355
872.267	3264
872.397	3131
872.526	3070
872.656	2994
872.785	3127
872.915	3226
873.044	3294
873.173	3222
873.303	3195
873.432	3237
873.561	3249
873.69	3165
873.819	3142
873.948	3169
874.077	3116
874.206	3051
874.335	3081
874.464	3154
874.593	3313
874.722	3218
874.851	3424
874.979	3325
875.108	3298
875.237	3230
875.365	3165
875.494	3188
875.623	3237
875.751	3070
875.88	3070
876.008	3211
876.136	3230
876.265	3370
876.393	3477
876.521	3428
876.65	3374
876.778	3313
876.906	3260
877.034	3176
877.162	3218
877.29	3165
877.418	3241
877.546	3241
877.674	3230
877.802	3230
877.93	3226
878.058	3161
878.185	3116
878.313	3169
878.441	3173
878.568	3032
878.696	3188
878.824	3253
878.951	3332
879.079	3481
879.206	3599
879.333	3412
879.461	3329
879.588	3348
879.715	3477
879.842	3591
879.97	3344
880.097	3195
880.224	3104
880.351	3211
880.478	3214
880.605	3173
880.732	3211
880.859	3485
880.986	3294
881.112	3306
881.239	3173
881.366	3097
881.493	2998
881.619	3009
881.746	3051
881.872	3104
881.999	3104
882.125	3127
882.252	3272
882.378	3283
882.505	3424
882.631	3241
882.757	3165
882.883	3222
883.01	3233
883.136	3180
883.262	3070
883.388	3116
883.514	3298
883.64	3344
883.766	3294
883.892	3207
884.018	3249
884.143	3416
884.269	3534
884.395	3226
884.52	3176
884.646	3169
884.772	3104
884.897	3081
885.023	3211
885.148	3306
885.274	3397
885.399	3355
885.524	3275
885.65	3233
885.775	3298
885.9	3272
886.025	3439
886.15	3351
886.275	3294
886.4	3245
886.525	3302
886.65	3272
886.775	3310
886.9	3477
887.025	3618
887.149	3397
887.274	3260
887.399	3161
887.523	3188
887.648	3169
887.773	3218
887.897	3428
888.021	3397
888.146	3291
888.27	3405
888.395	3504
888.519	3416
888.643	3454
888.767	3481
888.891	3294
889.015	3245
889.139	3275
889.263	3211
889.387	3409
889.511	3526
889.635	3435
889.759	3249
889.883	3313
890.006	3359
890.13	3511
890.254	3272
890.377	3355
890.501	3218
890.624	3150
890.748	3260
890.871	3150
890.995	3104
891.118	3070
891.241	3176
891.364	3192
891.488	3283
891.611	3165
891.734	3199
891.857	3260
891.98	3241
892.103	3367
892.226	3241
892.349	3203
892.471	3085
892.594	3230
892.717	3294
892.839	3291
892.962	3291
893.085	3348
893.207	3291
893.33	3138
893.452	3211
893.575	3283
893.697	3241
893.819	3473
893.941	3519
894.064	3450
894.186	3226
894.308	3268
894.43	3412
894.552	3530
894.674	3473
894.796	3279
894.918	3294
895.04	3268
895.161	3462
895.283	3397
895.405	3298
895.526	3340
895.648	3397
895.769	3466
895.891	3466
896.012	3481
896.134	3428
896.255	3401
896.376	3393
896.498	3386
896.619	3424
896.74	3370
896.861	3412
896.982	3698
897.103	3827
897.224	3542
897.345	3515
897.466	3469
897.587	3523
897.708	3606
897.828	3553
897.949	3397
898.07	3294
898.19	3416
898.311	3580
898.431	3450
898.552	3504
898.672	3538
898.792	3557
898.913	3538
899.033	3431
899.153	3291
899.273	3218
899.393	3291
899.513	3287
899.633	3306
899.753	3325
899.873	3279
899.993	3405
900.113	3359
900.232	3313
900.352	3367
900.472	3302
900.591	3195
900.711	3306
900.83	3203
900.95	3405
901.069	3488
901.189	3325
901.308	3157
901.427	3127
901.546	3199
901.665	3256
901.784	3344
901.904	3173
902.023	3169
902.141	2998
902.26	2979
902.379	3108
902.498	3058
902.617	3036
902.735	3184
902.854	3233
902.973	3184
903.091	3009
903.21	3024
903.328	3176
903.446	3081
903.565	3116
903.683	3154
903.801	3131
903.919	3218
904.038	3260
904.156	3188
904.274	3264
904.392	3237
904.51	3298
904.627	3344
904.745	3382
904.863	3462
904.981	3218
905.098	3142
905.216	3188
905.334	3317
905.451	3310
905.569	3268
905.686	3454
905.803	3393
905.921	3283
906.038	3424
906.155	3336
906.272	3256
906.389	3310
906.506	3207
906.623	3260
906.74	3287
906.857	3131
906.974	3260
907.091	3431
907.208	3561
907.324	3538
907.441	3409
907.557	3237
907.674	3249
907.79	3226
907.907	3245
908.023	3329
908.139	3351
908.256	3310
908.372	3344
908.488	3313
908.604	3211
908.72	3218
908.836	3245
908.952	3256
909.068	3351
909.184	3454
909.3	3386
909.415	3500
909.531	3412
909.647	3256
909.762	3313
909.878	3283
909.993	3363
910.108	3325
910.224	3359
910.339	3348
910.454	3367
910.57	3253
910.685	3226
910.8	3553
910.915	3488
911.03	3435
911.145	3214
911.259	3211
911.374	3272
911.489	3249
911.604	3226
911.718	3070
911.833	3127
911.947	3032
912.062	2986
912.176	3104
912.291	3214
912.405	3169
912.519	3412
912.633	3454
912.748	3302
912.862	3287
912.976	3157
913.09	3055
913.204	3123
913.318	3214
913.431	3336
913.545	3310
913.659	3378
913.772	3310
913.886	3226
914	3222
914.113	3336
914.226	3397
914.34	3344
914.453	3214
914.566	3393
914.68	3264
914.793	3272
914.906	3131
915.019	3108
915.132	3039
915.245	3116
915.358	3207
915.47	3165
915.583	3287
915.696	3245
915.809	3386
915.921	3420
916.034	3218
916.146	3218
916.259	3203
916.371	3363
916.483	3336
916.595	3249
916.708	3355
916.82	3313
916.932	3348
917.044	3313
917.156	3321
917.268	3230
917.38	3272
917.491	3294
917.603	3374
917.715	3447
917.826	3435
917.938	3382
918.049	3272
918.161	3416
918.272	3576
918.384	3557
918.495	3473
918.606	3367
918.717	3317
918.828	3374
918.939	3420
919.05	3313
919.161	3370
919.272	3165
919.383	3287
919.494	3519
919.604	3690
919.715	3485
919.826	3469
919.936	3439
920.047	3629
920.157	3519
920.267	3804
920.378	3641
920.488	3599
920.598	3812
920.708	4017
920.818	3838
920.928	3869
921.038	4029
921.148	4021
921.258	3740
921.368	3629
921.477	3637
921.587	3595
921.697	3492
921.806	3682
921.916	3591
922.025	3374
922.134	3397
922.244	3355
922.353	3481
922.462	3253
922.571	3272
922.68	3142
922.789	3127
922.898	3165
923.007	3146
923.116	3226
923.224	3195
923.333	3233
923.442	3150
923.55	3131
923.659	3173
923.767	3253
923.876	3142
923.984	3260
924.092	3150
924.201	3245
924.309	3294
924.417	3291
924.525	3184
924.633	3283
924.741	3987
924.849	3104
924.956	3287
925.064	3119
925.172	3043
925.279	3161
925.387	3226
925.494	3226
925.602	3393
925.709	3370
925.816	3283
925.924	3317
926.031	3409
926.138	3348
926.245	3370
926.352	3268
926.459	3469
926.566	3469
926.673	3355
926.779	3298
926.886	3294
926.993	3176
927.099	3169
927.206	3188
927.312	3180
927.419	3283
927.525	3241
927.631	3317
927.737	3180
927.843	3146
927.95	3032
928.056	3142
928.162	3211
928.267	3283
928.373	3876
928.479	3355
928.585	3093
928.69	3241
928.796	3340
928.901	3207
929.007	3089
929.112	3253
929.218	3241
929.323	3173
929.428	3180
929.533	3359
929.638	3138
929.743	3199
929.848	3298
929.953	3237
930.058	3199
930.163	2994
930.267	3085
930.372	3245
930.477	3058
930.581	3378
930.685	3226
930.79	3112
930.894	3131
930.998	3131
931.103	3287
931.207	2971
931.311	2975
931.415	2960
931.519	2842
931.623	2861
