Data from test_V78500241_53.txt Node
Date: Fri Mar 25 16:15:34 CST 2022
User: usil
Spectrometer: V785-0024
Trigger mode: 0
Integration Time (sec): 4.000000E-1
Scans to average: 1
Nonlinearity correction enabled: false
Boxcar width: 0
Storing dark spectrum: false
XAxis mode: Wavelengths
Number of Pixels in Spectrum: 1024
>>>>>Begin Spectral Data<<<<<
801.071	2948
801.214	2960
801.356	2937
801.499	2944
801.641	2944
801.783	2967
801.926	3093
802.068	3028
802.211	3017
802.353	3058
802.496	2994
802.638	3055
802.78	3089
802.923	3093
803.065	3024
803.208	2910
803.35	2956
803.492	2979
803.635	3024
803.777	2842
803.919	2902
804.061	3237
804.204	3001
804.346	2933
804.488	2918
804.63	3001
804.773	2891
804.915	2922
805.057	3119
805.199	2960
805.341	3043
805.483	3047
805.626	3036
805.768	3024
805.91	3131
806.052	3142
806.194	3100
806.336	3283
806.478	3100
806.62	2975
806.762	3005
806.904	3112
807.046	3195
807.188	3001
807.33	2963
807.472	3055
807.614	2960
807.756	3036
807.898	2952
808.04	2918
808.182	2986
808.324	3017
808.465	2899
808.607	2925
808.749	2823
808.891	2857
809.033	3017
809.174	3001
809.316	2967
809.458	2906
809.6	2788
809.741	2811
809.883	2845
810.025	2853
810.166	2906
810.308	2891
810.45	2887
810.591	2781
810.733	2807
810.875	2853
811.016	2838
811.158	2750
811.299	2849
811.441	2979
811.582	2971
811.724	2883
811.865	2861
812.007	2929
812.148	2933
812.29	2891
812.431	2895
812.573	2967
812.714	3005
812.855	3051
812.997	3089
813.138	3138
813.279	3032
813.421	3036
813.562	3020
813.703	2906
813.845	2941
813.986	2815
814.127	2724
814.268	2853
814.41	2838
814.551	2864
814.692	2906
814.833	2819
814.974	2937
815.115	2971
815.256	2891
815.397	2861
815.539	2861
815.68	2815
815.821	2823
815.962	2967
816.103	3009
816.244	2906
816.385	2880
816.526	3009
816.666	2963
816.807	2777
816.948	2918
817.089	2941
817.23	2906
817.371	2838
817.512	2804
817.653	2864
817.793	2872
817.934	2910
818.075	2998
818.216	3024
818.356	3039
818.497	2883
818.638	2792
818.778	2845
818.919	2830
819.06	2762
819.2	2910
819.341	2853
819.481	2853
819.622	2948
819.762	3131
819.903	3070
820.043	2963
820.184	2933
820.324	2952
820.465	3055
820.605	3036
820.746	3062
820.886	2971
821.026	3138
821.167	3222
821.307	3287
821.447	3310
821.588	3291
821.728	3245
821.868	3237
822.008	3089
822.149	3222
822.289	3268
822.429	3127
822.569	3131
822.709	3211
822.849	3058
822.99	3112
823.13	3184
823.27	3218
823.41	3169
823.55	3173
823.69	3184
823.83	3245
823.97	3142
824.11	3032
824.25	3043
824.389	3066
824.529	3119
824.669	3097
824.809	3203
824.949	3275
825.089	3268
825.228	3184
825.368	3058
825.508	3001
825.648	3036
825.787	3036
825.927	3051
826.067	2998
826.206	2952
826.346	3070
826.485	3116
826.625	3142
826.765	3279
826.904	3253
827.044	3036
827.183	2979
827.323	2876
827.462	3028
827.601	2941
827.741	2982
827.88	2982
828.02	2857
828.159	3032
828.298	3108
828.437	3165
828.577	3070
828.716	3291
828.855	3119
828.994	2963
829.134	2918
829.273	2948
829.412	2914
829.551	2899
829.69	2937
829.829	3013
829.968	3146
830.107	3032
830.246	3112
830.385	2922
830.524	2925
830.663	2838
830.802	2766
830.941	2705
831.08	2708
831.219	2777
831.357	2785
831.496	2975
831.635	2758
831.774	2674
831.913	2705
832.051	2564
832.19	2594
832.329	2708
832.467	2549
832.606	2499
832.744	2606
832.883	2602
833.022	2655
833.16	2651
833.299	2739
833.437	2689
833.576	2735
833.714	2739
833.852	2746
833.991	2781
834.129	2899
834.267	2830
834.406	2811
834.544	2891
834.682	2902
834.821	2891
834.959	3127
835.097	2925
835.235	3112
835.373	3032
835.511	3024
835.65	2944
835.788	3013
835.926	2902
836.064	2826
836.202	2868
836.34	3100
836.478	3184
836.615	3055
836.753	3150
836.891	3218
837.029	3211
837.167	3161
837.305	3062
837.443	3100
837.58	2994
837.718	3173
837.856	3097
837.993	3093
838.131	3161
838.269	3150
838.406	3119
838.544	3070
838.681	2975
838.819	2933
838.956	2842
839.094	2872
839.231	2941
839.369	3062
839.506	3401
839.643	3249
839.781	3074
839.918	3047
840.055	3062
840.193	3036
840.33	3119
840.467	3131
840.604	3169
840.742	3420
840.879	3074
841.016	3097
841.153	3131
841.29	3374
841.427	3291
841.564	3294
841.701	3306
841.838	3222
841.975	3184
842.112	3237
842.249	3077
842.385	3055
842.522	3329
842.659	3112
842.796	3104
842.933	3169
843.069	3070
843.206	3081
843.343	3226
843.479	3127
843.616	3180
843.752	2933
843.889	2906
844.025	3138
844.162	2941
844.298	3108
844.435	2975
844.571	2952
844.708	3066
844.844	3218
844.98	3287
845.117	3218
845.253	3047
845.389	3028
845.525	3150
845.661	3146
845.798	3058
845.934	3169
846.07	3085
846.206	3302
846.342	3401
846.478	3283
846.614	3104
846.75	3066
846.886	3066
847.022	3302
847.158	3161
847.294	3245
847.429	3272
847.565	3226
847.701	3564
847.837	3039
847.972	3051
848.108	3180
848.244	3165
848.379	2982
848.515	2990
848.65	2960
848.786	2990
848.921	3039
849.057	3138
849.192	3157
849.328	3104
849.463	3154
849.598	3131
849.734	3074
849.869	3032
850.004	2941
850.14	2994
850.275	2929
850.41	2868
850.545	2941
850.68	2975
850.815	2998
850.95	2990
851.085	3226
851.22	3138
851.355	3062
851.49	3036
851.625	3005
851.76	3028
851.895	2967
852.03	2971
852.165	3062
852.299	3135
852.434	3233
852.569	3161
852.703	3192
852.838	3260
852.973	3355
853.107	3348
853.242	3192
853.376	3123
853.511	2975
853.645	3081
853.78	3275
853.914	3165
854.048	3165
854.183	3085
854.317	3195
854.451	3340
854.585	3154
854.72	3135
854.854	3275
854.988	3100
855.122	3154
855.256	3036
855.39	3142
855.524	3283
855.658	3157
855.792	3192
855.926	3256
856.06	3260
856.194	3310
856.327	3203
856.461	3089
856.595	3192
856.729	3123
856.862	3245
856.996	3207
857.13	3214
857.263	3260
857.397	3336
857.53	3154
857.664	3207
857.797	3279
857.931	3272
858.064	3184
858.197	3241
858.331	3150
858.464	3138
858.597	3020
858.731	3123
858.864	3173
858.997	3108
859.13	3169
859.263	3184
859.396	3245
859.529	3154
859.662	3112
859.795	3085
859.928	3180
860.061	3348
860.194	3340
860.327	3176
860.46	3154
860.592	3253
860.725	3291
860.858	3272
860.99	3116
861.123	3123
861.256	3100
861.388	3222
861.521	3911
861.653	3043
861.786	2994
861.918	3028
862.05	3100
862.183	3154
862.315	3169
862.447	3222
862.58	3100
862.712	2937
862.844	2929
862.976	3036
863.108	3062
863.24	3382
863.372	2960
863.504	2998
863.636	2998
863.768	3070
863.9	3039
864.032	2956
864.164	2982
864.296	3036
864.428	3131
864.559	3104
864.691	3104
864.823	3100
864.954	3043
865.086	3062
865.217	3036
865.349	2998
865.48	3028
865.612	3070
865.743	3165
865.875	3085
866.006	2952
866.137	3013
866.269	3024
866.4	2960
866.531	2937
866.662	2906
866.793	2899
866.924	2933
867.055	2998
867.186	2971
867.317	2914
867.448	2868
867.579	2887
867.71	2895
867.841	2838
867.972	2956
868.103	2899
868.233	2906
868.364	2880
868.495	2929
868.625	3093
868.756	3214
868.886	2986
869.017	3081
869.147	3192
869.278	3218
869.408	3062
869.539	3039
869.669	3146
869.799	3089
869.929	3146
870.06	3203
870.19	3302
870.32	3313
870.45	3351
870.58	3416
870.71	3466
870.84	3496
870.97	3332
871.1	3260
871.23	3542
871.36	3507
871.489	3370
871.619	3409
871.749	3401
871.879	3454
872.008	3507
872.138	3389
872.267	3283
872.397	3154
872.526	3142
872.656	3017
872.785	3131
872.915	3272
873.044	3363
873.173	3253
873.303	3268
873.432	3268
873.561	3287
873.69	3154
873.819	3173
873.948	3233
874.077	3138
874.206	3104
874.335	3089
874.464	3222
874.593	3382
874.722	3302
874.851	3431
874.979	3416
875.108	3382
875.237	3188
875.365	3214
875.494	3203
875.623	3291
875.751	3131
875.88	3169
876.008	3203
876.136	3249
876.265	3378
876.393	3538
876.521	3439
876.65	3435
876.778	3351
876.906	3302
877.034	3214
877.162	3230
877.29	3195
877.418	3306
877.546	3291
877.674	3275
877.802	3287
877.93	3264
878.058	3184
878.185	3131
878.313	3260
878.441	3237
878.568	3131
878.696	3169
878.824	3275
878.951	3310
879.079	3507
879.206	3671
879.333	3477
879.461	3359
879.588	3389
879.715	3496
879.842	3618
879.97	3428
880.097	3222
880.224	3123
880.351	3226
880.478	3260
880.605	3237
880.732	3264
880.859	3526
880.986	3355
881.112	3359
881.239	3249
881.366	3085
881.493	3055
881.619	3055
881.746	3123
881.872	3150
881.999	3135
882.125	3157
882.252	3275
882.378	3370
882.505	3458
882.631	3302
882.757	3203
882.883	3268
883.01	3317
883.136	3222
883.262	3108
883.388	3116
883.514	3332
883.64	3416
883.766	3355
883.892	3241
884.018	3302
884.143	3477
884.269	3610
884.395	3203
884.52	3230
884.646	3226
884.772	3161
884.897	3127
885.023	3253
885.148	3378
885.274	3435
885.399	3344
885.524	3310
885.65	3306
885.775	3336
885.9	3321
886.025	3466
886.15	3405
886.275	3348
886.4	3260
886.525	3313
886.65	3306
886.775	3321
886.9	3511
887.025	3694
887.149	3428
887.274	3272
887.399	3226
887.523	3249
887.648	3214
887.773	3245
887.897	3416
888.021	3454
888.146	3332
888.27	3492
888.395	3530
888.519	3481
888.643	3466
888.767	3496
888.891	3401
889.015	3275
889.139	3336
889.263	3268
889.387	3428
889.511	3568
889.635	3534
889.759	3351
889.883	3332
890.006	3458
890.13	3530
890.254	3279
890.377	3397
890.501	3249
890.624	3230
890.748	3363
890.871	3211
890.995	3135
891.118	3093
891.241	3192
891.364	3279
891.488	3409
891.611	3199
891.734	3264
891.857	3321
891.98	3279
892.103	3424
892.226	3272
892.349	3256
892.471	3131
892.594	3241
892.717	3329
892.839	3329
892.962	3351
893.085	3420
893.207	3306
893.33	3165
893.452	3218
893.575	3348
893.697	3268
893.819	3523
893.941	3545
894.064	3458
894.186	3283
894.308	3321
894.43	3492
894.552	3603
894.674	3530
894.796	3306
894.918	3351
895.04	3348
895.161	3515
895.283	3439
895.405	3348
895.526	3397
895.648	3450
895.769	3462
895.891	3443
896.012	3534
896.134	3507
896.255	3431
896.376	3420
896.498	3397
896.619	3473
896.74	3374
896.861	3447
896.982	3736
897.103	3896
897.224	3641
897.345	3572
897.466	3481
897.587	3511
897.708	3652
897.828	3549
897.949	3477
898.07	3344
898.19	3450
898.311	3625
898.431	3477
898.552	3553
898.672	3622
898.792	3614
898.913	3553
899.033	3469
899.153	3317
899.273	3260
899.393	3310
899.513	3336
899.633	3340
899.753	3363
899.873	3325
899.993	3481
900.113	3409
900.232	3428
900.352	3336
900.472	3317
900.591	3214
900.711	3291
900.83	3310
900.95	3435
901.069	3538
901.189	3420
901.308	3226
901.427	3138
901.546	3230
901.665	3325
901.784	3370
901.904	3218
902.023	3195
902.141	3017
902.26	3020
902.379	3173
902.498	3093
902.617	3074
902.735	3272
902.854	3256
902.973	3230
903.091	3089
903.21	3100
903.328	3142
903.446	3150
903.565	3154
903.683	3241
903.801	3150
903.919	3249
904.038	3325
904.156	3207
904.274	3321
904.392	3272
904.51	3306
904.627	3447
904.745	3447
904.863	3530
904.981	3291
905.098	3195
905.216	3287
905.334	3344
905.451	3367
905.569	3367
905.686	3447
905.803	3507
905.921	3332
906.038	3473
906.155	3401
906.272	3279
906.389	3397
906.506	3249
906.623	3279
906.74	3302
906.857	3207
906.974	3340
907.091	3507
907.208	3622
907.324	3526
907.441	3443
907.557	3268
907.674	3268
907.79	3241
907.907	3272
908.023	3450
908.139	3401
908.256	3363
908.372	3435
908.488	3431
908.604	3268
908.72	3272
908.836	3329
908.952	3306
909.068	3386
909.184	3542
909.3	3386
909.415	3542
909.531	3534
909.647	3283
909.762	3359
909.878	3294
909.993	3424
910.108	3389
910.224	3386
910.339	3428
910.454	3409
910.57	3310
910.685	3283
910.8	3652
910.915	3614
911.03	3492
911.145	3302
911.259	3306
911.374	3355
911.489	3275
911.604	3294
911.718	3142
911.833	3214
911.947	3070
912.062	3013
912.176	3184
912.291	3256
912.405	3245
912.519	3450
912.633	3515
912.748	3340
912.862	3332
912.976	3214
913.09	3104
913.204	3222
913.318	3237
913.431	3367
913.545	3348
913.659	3473
913.772	3363
913.886	3218
914	3226
914.113	3382
914.226	3447
914.34	3443
914.453	3245
914.566	3473
914.68	3310
914.793	3336
914.906	3184
915.019	3142
915.132	3085
915.245	3233
915.358	3245
915.47	3302
915.583	3332
915.696	3393
915.809	3439
915.921	3469
916.034	3313
916.146	3313
916.259	3245
916.371	3443
916.483	3409
916.595	3283
916.708	3389
916.82	3393
916.932	3363
917.044	3370
917.156	3389
917.268	3306
917.38	3348
917.491	3355
917.603	3397
917.715	3473
917.826	3538
917.938	3401
918.049	3287
918.161	3481
918.272	3656
918.384	3610
918.495	3511
918.606	3397
918.717	3332
918.828	3447
918.939	3439
919.05	3298
919.161	3378
919.272	3180
919.383	3268
919.494	3587
919.604	3686
919.715	3542
919.826	3458
919.936	3526
920.047	3660
920.157	3580
920.267	3816
920.378	3656
920.488	3633
920.598	3800
920.708	4010
920.818	3865
920.928	3846
921.038	4086
921.148	4082
921.258	3736
921.368	3682
921.477	3644
921.587	3576
921.697	3500
921.806	3671
921.916	3538
922.025	3409
922.134	3378
922.244	3359
922.353	3462
922.462	3313
922.571	3298
922.68	3188
922.789	3097
922.898	3150
923.007	3138
923.116	3253
923.224	3226
923.333	3214
923.442	3112
923.55	3142
923.659	3176
923.767	3226
923.876	3157
923.984	3310
924.092	3142
924.201	3237
924.309	3264
924.417	3287
924.525	3195
924.633	3287
924.741	4234
924.849	3070
924.956	3294
925.064	3146
925.172	3085
925.279	3146
925.387	3230
925.494	3264
925.602	3416
925.709	3351
925.816	3230
925.924	3351
926.031	3401
926.138	3389
926.245	3412
926.352	3298
926.459	3420
926.566	3488
926.673	3329
926.779	3268
926.886	3264
926.993	3154
927.099	3173
927.206	3116
927.312	3138
927.419	3302
927.525	3222
927.631	3317
927.737	3142
927.843	3154
927.95	3039
928.056	3150
928.162	3203
928.267	3321
928.373	3816
928.479	3310
928.585	3116
928.69	3283
928.796	3279
928.901	3203
929.007	3074
929.112	3256
929.218	3218
929.323	3173
929.428	3199
929.533	3367
929.638	3180
929.743	3233
929.848	3329
929.953	3249
930.058	3188
930.163	3047
930.267	3100
930.372	3249
930.477	3066
930.581	3336
930.685	3233
930.79	3062
930.894	3161
930.998	3116
931.103	3313
931.207	2967
931.311	3001
931.415	2948
931.519	2834
931.623	2804
