Data from test_V78500241_864.txt Node
Date: Fri Mar 25 16:21:11 CST 2022
User: usil
Spectrometer: V785-0024
Trigger mode: 0
Integration Time (sec): 4.000000E-1
Scans to average: 1
Nonlinearity correction enabled: false
Boxcar width: 0
Storing dark spectrum: false
XAxis mode: Wavelengths
Number of Pixels in Spectrum: 1024
>>>>>Begin Spectral Data<<<<<
801.071	2906
801.214	2933
801.356	2868
801.499	2899
801.641	2902
801.783	2933
801.926	3070
802.068	2948
802.211	3020
802.353	3036
802.496	2944
802.638	3039
802.78	3055
802.923	3047
803.065	2998
803.208	2933
803.35	2906
803.492	2952
803.635	2941
803.777	2792
803.919	2804
804.061	3169
804.204	2948
804.346	2902
804.488	2845
804.63	2979
804.773	2880
804.915	2941
805.057	3085
805.199	2941
805.341	2982
805.483	3032
805.626	2979
805.768	2986
805.91	3051
806.052	3154
806.194	3051
806.336	3237
806.478	3013
806.62	2982
806.762	2975
806.904	3058
807.046	3142
807.188	2944
807.33	2933
807.472	2982
807.614	2933
807.756	3001
807.898	2925
808.04	2857
808.182	2967
808.324	2990
808.465	2891
808.607	2883
808.749	2823
808.891	2864
809.033	2982
809.174	2975
809.316	2918
809.458	2922
809.6	2796
809.741	2800
809.883	2807
810.025	2880
810.166	2845
810.308	2849
810.45	2861
810.591	2792
810.733	2781
810.875	2857
811.016	2781
811.158	2766
811.299	2796
811.441	2929
811.582	2887
811.724	2830
811.865	2842
812.007	2891
812.148	2868
812.29	2876
812.431	2891
812.573	2967
812.714	2963
812.855	3093
812.997	3093
813.138	3146
813.279	2990
813.421	2975
813.562	2948
813.703	2895
813.845	2918
813.986	2781
814.127	2720
814.268	2800
814.41	2853
814.551	2785
814.692	2876
814.833	2823
814.974	2918
815.115	2963
815.256	2834
815.397	2807
815.539	2861
815.68	2769
815.821	2796
815.962	2971
816.103	2899
816.244	2895
816.385	2857
816.526	2952
816.666	2906
816.807	2708
816.948	2845
817.089	2906
817.23	2853
817.371	2754
817.512	2781
817.653	2819
817.793	2849
817.934	2883
818.075	2937
818.216	2979
818.356	3024
818.497	2899
818.638	2804
818.778	2838
818.919	2826
819.06	2773
819.2	2868
819.341	2838
819.481	2819
819.622	2963
819.762	3104
819.903	3032
820.043	2933
820.184	2887
820.324	2891
820.465	2986
820.605	3028
820.746	3032
820.886	2925
821.026	3116
821.167	3161
821.307	3241
821.447	3313
821.588	3260
821.728	3222
821.868	3226
822.008	3074
822.149	3207
822.289	3188
822.429	3074
822.569	3112
822.709	3184
822.849	3024
822.99	3058
823.13	3142
823.27	3203
823.41	3085
823.55	3146
823.69	3180
823.83	3157
823.97	3077
824.11	3013
824.25	2971
824.389	3066
824.529	3100
824.669	3081
824.809	3150
824.949	3245
825.089	3180
825.228	3138
825.368	3005
825.508	2967
825.648	2952
825.787	3024
825.927	3013
826.067	2975
826.206	2960
826.346	3074
826.485	3074
826.625	3097
826.765	3253
826.904	3214
827.044	3017
827.183	2952
827.323	2864
827.462	2979
827.601	2929
827.741	2941
827.88	2963
828.02	2853
828.159	2994
828.298	3024
828.437	3093
828.577	3020
828.716	3226
828.855	3074
828.994	2887
829.134	2876
829.273	2914
829.412	2883
829.551	2849
829.69	2910
829.829	2998
829.968	3089
830.107	3001
830.246	3005
830.385	2899
830.524	2853
830.663	2800
830.802	2727
830.941	2640
831.08	2648
831.219	2746
831.357	2750
831.496	2941
831.635	2758
831.774	2663
831.913	2640
832.051	2564
832.19	2594
832.329	2670
832.467	2526
832.606	2465
832.744	2568
832.883	2575
833.022	2568
833.16	2644
833.299	2686
833.437	2659
833.576	2746
833.714	2674
833.852	2708
833.991	2762
834.129	2845
834.267	2811
834.406	2766
834.544	2849
834.682	2876
834.821	2861
834.959	3024
835.097	2914
835.235	3085
835.373	3009
835.511	3009
835.65	2922
835.788	2956
835.926	2857
836.064	2815
836.202	2826
836.34	3081
836.478	3157
836.615	3043
836.753	3150
836.891	3222
837.029	3146
837.167	3100
837.305	3081
837.443	3039
837.58	2990
837.718	3150
837.856	3062
837.993	3001
838.131	3116
838.269	3131
838.406	3062
838.544	3058
838.681	2971
838.819	2880
838.956	2823
839.094	2857
839.231	2941
839.369	3036
839.506	3386
839.643	3226
839.781	3036
839.918	2956
840.055	3047
840.193	3074
840.33	3062
840.467	3081
840.604	3150
840.742	3389
840.879	3081
841.016	3009
841.153	3093
841.29	3298
841.427	3264
841.564	3253
841.701	3256
841.838	3207
841.975	3161
842.112	3184
842.249	3108
842.385	3017
842.522	3260
842.659	3062
842.796	3039
842.933	3108
843.069	3077
843.206	3024
843.343	3176
843.479	3123
843.616	3154
843.752	2864
843.889	2849
844.025	3058
844.162	2868
844.298	3089
844.435	2982
844.571	2941
844.708	3066
844.844	3165
844.98	3222
845.117	3150
845.253	3051
845.389	2998
845.525	3119
845.661	3081
845.798	3020
845.934	3085
846.07	3043
846.206	3222
846.342	3306
846.478	3214
846.614	3112
846.75	3024
846.886	3005
847.022	3294
847.158	3108
847.294	3222
847.429	3241
847.565	3249
847.701	3485
847.837	3009
847.972	3024
848.108	3146
848.244	3169
848.379	3005
848.515	2941
848.65	2922
848.786	2998
848.921	3005
849.057	3112
849.192	3116
849.328	3043
849.463	3074
849.598	3043
849.734	3055
849.869	2971
850.004	2906
850.14	2944
850.275	2906
850.41	2830
850.545	2895
850.68	2914
850.815	2952
850.95	2948
851.085	3176
851.22	3085
851.355	3055
851.49	2967
851.625	3028
851.76	3013
851.895	2960
852.03	2937
852.165	3024
852.299	3089
852.434	3207
852.569	3142
852.703	3203
852.838	3230
852.973	3325
853.107	3374
853.242	3138
853.376	3058
853.511	2990
853.645	3039
853.78	3207
853.914	3100
854.048	3104
854.183	3066
854.317	3142
854.451	3272
854.585	3131
854.72	3066
854.854	3180
854.988	3066
855.122	3089
855.256	2960
855.39	3081
855.524	3211
855.658	3165
855.792	3184
855.926	3207
856.06	3207
856.194	3222
856.327	3150
856.461	3077
856.595	3074
856.729	3108
856.862	3188
856.996	3138
857.13	3154
857.263	3214
857.397	3264
857.53	3108
857.664	3180
857.797	3268
857.931	3233
858.064	3146
858.197	3184
858.331	3123
858.464	3097
858.597	2994
858.731	3116
858.864	3116
858.997	3081
859.13	3157
859.263	3176
859.396	3222
859.529	3116
859.662	3089
859.795	3047
859.928	3123
860.061	3233
860.194	3272
860.327	3161
860.46	3077
860.592	3249
860.725	3245
860.858	3272
860.99	3104
861.123	3043
861.256	3058
861.388	3119
861.521	3827
861.653	3005
861.786	2979
861.918	3028
862.05	3058
862.183	3108
862.315	3146
862.447	3203
862.58	3104
862.712	2929
862.844	2899
862.976	3017
863.108	2986
863.24	3313
863.372	2895
863.504	2952
863.636	2979
863.768	2998
863.9	2982
864.032	2922
864.164	2941
864.296	3013
864.428	3077
864.559	3093
864.691	3032
864.823	3047
864.954	3024
865.086	3051
865.217	2971
865.349	2963
865.48	2941
865.612	3005
865.743	3138
865.875	2979
866.006	2960
866.137	2960
866.269	2990
866.4	2902
866.531	2922
866.662	2925
866.793	2872
866.924	2914
867.055	2948
867.186	2922
867.317	2906
867.448	2834
867.579	2845
867.71	2845
867.841	2815
867.972	2906
868.103	2922
868.233	2899
868.364	2887
868.495	2902
868.625	3085
868.756	3173
868.886	3001
869.017	3058
869.147	3119
869.278	3146
869.408	3032
869.539	3024
869.669	3077
869.799	3005
869.929	3142
870.06	3104
870.19	3351
870.32	3256
870.45	3294
870.58	3374
870.71	3416
870.84	3405
870.97	3268
871.1	3253
871.23	3492
871.36	3462
871.489	3397
871.619	3363
871.749	3393
871.879	3435
872.008	3496
872.138	3389
872.267	3249
872.397	3135
872.526	3093
872.656	3009
872.785	3085
872.915	3199
873.044	3298
873.173	3207
873.303	3218
873.432	3233
873.561	3226
873.69	3135
873.819	3123
873.948	3203
874.077	3077
874.206	3028
874.335	3097
874.464	3188
874.593	3351
874.722	3253
874.851	3416
874.979	3340
875.108	3317
875.237	3195
875.365	3146
875.494	3161
875.623	3211
875.751	3085
875.88	3135
876.008	3173
876.136	3256
876.265	3348
876.393	3485
876.521	3389
876.65	3409
876.778	3344
876.906	3211
877.034	3211
877.162	3211
877.29	3154
877.418	3264
877.546	3214
877.674	3245
877.802	3192
877.93	3245
878.058	3165
878.185	3097
878.313	3176
878.441	3180
878.568	3070
878.696	3150
878.824	3230
878.951	3260
879.079	3389
879.206	3610
879.333	3424
879.461	3291
879.588	3374
879.715	3481
879.842	3572
879.97	3397
880.097	3157
880.224	3116
880.351	3173
880.478	3207
880.605	3199
880.732	3211
880.859	3481
880.986	3340
881.112	3348
881.239	3203
881.366	3047
881.493	3024
881.619	3066
881.746	3062
881.872	3108
881.999	3074
882.125	3142
882.252	3226
882.378	3298
882.505	3454
882.631	3306
882.757	3173
882.883	3226
883.01	3218
883.136	3154
883.262	3108
883.388	3157
883.514	3310
883.64	3370
883.766	3279
883.892	3195
884.018	3226
884.143	3409
884.269	3557
884.395	3203
884.52	3188
884.646	3154
884.772	3165
884.897	3097
885.023	3230
885.148	3321
885.274	3428
885.399	3386
885.524	3245
885.65	3272
885.775	3306
885.9	3283
886.025	3420
886.15	3363
886.275	3313
886.4	3237
886.525	3294
886.65	3260
886.775	3279
886.9	3485
887.025	3618
887.149	3428
887.274	3268
887.399	3195
887.523	3203
887.648	3154
887.773	3176
887.897	3344
888.021	3370
888.146	3287
888.27	3450
888.395	3504
888.519	3424
888.643	3431
888.767	3439
888.891	3294
889.015	3256
889.139	3260
889.263	3241
889.387	3397
889.511	3507
889.635	3405
889.759	3336
889.883	3287
890.006	3382
890.13	3496
890.254	3245
890.377	3306
890.501	3192
890.624	3184
890.748	3291
890.871	3173
890.995	3112
891.118	3081
891.241	3180
891.364	3211
891.488	3310
891.611	3165
891.734	3218
891.857	3256
891.98	3218
892.103	3355
892.226	3313
892.349	3241
892.471	3104
892.594	3226
892.717	3230
892.839	3218
892.962	3272
893.085	3359
893.207	3287
893.33	3157
893.452	3211
893.575	3370
893.697	3260
893.819	3488
893.941	3469
894.064	3424
894.186	3291
894.308	3245
894.43	3454
894.552	3545
894.674	3469
894.796	3298
894.918	3348
895.04	3321
895.161	3458
895.283	3344
895.405	3291
895.526	3424
895.648	3420
895.769	3393
895.891	3477
896.012	3462
896.134	3450
896.255	3424
896.376	3367
896.498	3370
896.619	3424
896.74	3359
896.861	3393
896.982	3667
897.103	3827
897.224	3584
897.345	3500
897.466	3420
897.587	3485
897.708	3610
897.828	3580
897.949	3443
898.07	3325
898.19	3409
898.311	3568
898.431	3466
898.552	3530
898.672	3633
898.792	3557
898.913	3538
899.033	3420
899.153	3283
899.273	3233
899.393	3279
899.513	3298
899.633	3287
899.753	3329
899.873	3275
899.993	3363
900.113	3306
900.232	3382
900.352	3370
900.472	3268
900.591	3192
900.711	3321
900.83	3245
900.95	3370
901.069	3473
901.189	3363
901.308	3157
901.427	3112
901.546	3199
901.665	3302
901.784	3344
901.904	3188
902.023	3135
902.141	2998
902.26	3017
902.379	3131
902.498	3077
902.617	3062
902.735	3211
902.854	3237
902.973	3192
903.091	3013
903.21	3058
903.328	3112
903.446	3081
903.565	3146
903.683	3184
903.801	3146
903.919	3291
904.038	3268
904.156	3161
904.274	3317
904.392	3218
904.51	3287
904.627	3317
904.745	3416
904.863	3496
904.981	3249
905.098	3165
905.216	3211
905.334	3302
905.451	3283
905.569	3317
905.686	3412
905.803	3412
905.921	3291
906.038	3458
906.155	3317
906.272	3264
906.389	3332
906.506	3207
906.623	3272
906.74	3291
906.857	3142
906.974	3226
907.091	3492
907.208	3549
907.324	3492
907.441	3374
907.557	3233
907.674	3245
907.79	3192
907.907	3256
908.023	3405
908.139	3367
908.256	3336
908.372	3374
908.488	3336
908.604	3245
908.72	3195
908.836	3291
908.952	3241
909.068	3344
909.184	3488
909.3	3363
909.415	3519
909.531	3515
909.647	3287
909.762	3264
909.878	3226
909.993	3378
910.108	3287
910.224	3348
910.339	3405
910.454	3317
910.57	3306
910.685	3230
910.8	3595
910.915	3523
911.03	3481
911.145	3268
911.259	3256
911.374	3313
911.489	3260
911.604	3214
911.718	3119
911.833	3138
911.947	3081
912.062	2994
912.176	3176
912.291	3211
912.405	3233
912.519	3435
912.633	3450
912.748	3378
912.862	3230
912.976	3188
913.09	3093
913.204	3135
913.318	3176
913.431	3310
913.545	3348
913.659	3401
913.772	3329
913.886	3241
914	3207
914.113	3336
914.226	3412
914.34	3386
914.453	3192
914.566	3416
914.68	3249
914.793	3287
914.906	3138
915.019	3100
915.132	3047
915.245	3176
915.358	3154
915.47	3226
915.583	3264
915.696	3264
915.809	3409
915.921	3389
916.034	3294
916.146	3245
916.259	3199
916.371	3397
916.483	3382
916.595	3241
916.708	3332
916.82	3306
916.932	3374
917.044	3332
917.156	3329
917.268	3253
917.38	3302
917.491	3294
917.603	3363
917.715	3447
917.826	3454
917.938	3420
918.049	3279
918.161	3462
918.272	3568
918.384	3591
918.495	3454
918.606	3298
918.717	3294
918.828	3355
918.939	3431
919.05	3313
919.161	3355
919.272	3199
919.383	3264
919.494	3469
919.604	3679
919.715	3469
919.826	3397
919.936	3439
920.047	3576
920.157	3553
920.267	3762
920.378	3545
920.488	3545
920.598	3770
920.708	3911
920.818	3789
920.928	3812
921.038	4021
921.148	3991
921.258	3682
921.368	3652
921.477	3584
921.587	3515
921.697	3401
921.806	3625
921.916	3557
922.025	3344
922.134	3351
922.244	3325
922.353	3454
922.462	3260
922.571	3188
922.68	3104
922.789	3051
922.898	3104
923.007	3123
923.116	3218
923.224	3188
923.333	3165
923.442	3116
923.55	3070
923.659	3161
923.767	3222
923.876	3146
923.984	3211
924.092	3150
924.201	3199
924.309	3214
924.417	3253
924.525	3203
924.633	3241
924.741	4147
924.849	3020
924.956	3249
925.064	3089
925.172	3074
925.279	3123
925.387	3150
925.494	3241
925.602	3317
925.709	3302
925.816	3184
925.924	3287
926.031	3344
926.138	3359
926.245	3340
926.352	3233
926.459	3378
926.566	3469
926.673	3348
926.779	3283
926.886	3233
926.993	3131
927.099	3116
927.206	3093
927.312	3123
927.419	3233
927.525	3214
927.631	3249
927.737	3165
927.843	3104
927.95	2986
928.056	3154
928.162	3184
928.267	3237
928.373	3751
928.479	3291
928.585	3097
928.69	3199
928.796	3237
928.901	3157
929.007	3043
929.112	3211
929.218	3203
929.323	3214
929.428	3165
929.533	3298
929.638	3112
929.743	3146
929.848	3298
929.953	3180
930.058	3173
930.163	2975
930.267	3028
930.372	3214
930.477	3051
930.581	3332
930.685	3188
930.79	3074
930.894	3154
930.998	3093
931.103	3283
931.207	2925
931.311	2918
931.415	2918
931.519	2758
931.623	2826
