Data from test_V78500241_1693.txt Node
Date: Fri Mar 25 16:26:55 CST 2022
User: usil
Spectrometer: V785-0024
Trigger mode: 0
Integration Time (sec): 4.000000E-1
Scans to average: 1
Nonlinearity correction enabled: false
Boxcar width: 0
Storing dark spectrum: false
XAxis mode: Wavelengths
Number of Pixels in Spectrum: 1024
>>>>>Begin Spectral Data<<<<<
801.071	2929
801.214	2944
801.356	2857
801.499	2887
801.641	2883
801.783	2902
801.926	3058
802.068	3001
802.211	2960
802.353	3001
802.496	2925
802.638	2952
802.78	2994
802.923	3074
803.065	2994
803.208	2891
803.35	2902
803.492	2948
803.635	2922
803.777	2735
803.919	2830
804.061	3218
804.204	2960
804.346	2914
804.488	2830
804.63	2990
804.773	2883
804.915	2914
805.057	3066
805.199	2902
805.341	2979
805.483	3020
805.626	3036
805.768	2963
805.91	3051
806.052	3093
806.194	3001
806.336	3237
806.478	3032
806.62	2971
806.762	2990
806.904	3104
807.046	3169
807.188	2979
807.33	2967
807.472	2979
807.614	2876
807.756	2952
807.898	2891
808.04	2883
808.182	2986
808.324	2941
808.465	2864
808.607	2853
808.749	2773
808.891	2838
809.033	2914
809.174	2986
809.316	2937
809.458	2864
809.6	2773
809.741	2796
809.883	2746
810.025	2845
810.166	2868
810.308	2849
810.45	2864
810.591	2781
810.733	2727
810.875	2845
811.016	2731
811.158	2727
811.299	2773
811.441	2887
811.582	2887
811.724	2819
811.865	2845
812.007	2891
812.148	2868
812.29	2872
812.431	2880
812.573	2944
812.714	2975
812.855	3020
812.997	3055
813.138	3062
813.279	3017
813.421	3001
813.562	2956
813.703	2887
813.845	2876
813.986	2785
814.127	2754
814.268	2849
814.41	2861
814.551	2807
814.692	2910
814.833	2857
814.974	2872
815.115	2941
815.256	2853
815.397	2819
815.539	2861
815.68	2800
815.821	2766
815.962	2922
816.103	2952
816.244	2895
816.385	2861
816.526	2960
816.666	2918
816.807	2750
816.948	2861
817.089	2872
817.23	2853
817.371	2766
817.512	2769
817.653	2823
817.793	2800
817.934	2880
818.075	2967
818.216	3020
818.356	3001
818.497	2895
818.638	2788
818.778	2815
818.919	2796
819.06	2754
819.2	2883
819.341	2785
819.481	2823
819.622	2910
819.762	3119
819.903	3047
820.043	2925
820.184	2880
820.324	2918
820.465	3009
820.605	3032
820.746	2994
820.886	2895
821.026	3062
821.167	3146
821.307	3226
821.447	3287
821.588	3211
821.728	3218
821.868	3226
822.008	3047
822.149	3218
822.289	3245
822.429	3093
822.569	3108
822.709	3180
822.849	2994
822.99	3077
823.13	3157
823.27	3180
823.41	3100
823.55	3142
823.69	3173
823.83	3169
823.97	3108
824.11	3009
824.25	2979
824.389	3085
824.529	3112
824.669	3077
824.809	3214
824.949	3207
825.089	3230
825.228	3154
825.368	2975
825.508	2952
825.648	2952
825.787	3009
825.927	2982
826.067	2948
826.206	2979
826.346	3047
826.485	3039
826.625	3119
826.765	3275
826.904	3218
827.044	3028
827.183	2952
827.323	2872
827.462	2967
827.601	2922
827.741	2918
827.88	2982
828.02	2887
828.159	2937
828.298	3058
828.437	3123
828.577	3047
828.716	3218
828.855	3081
828.994	2868
829.134	2891
829.273	2941
829.412	2861
829.551	2872
829.69	2895
829.829	2963
829.968	3089
830.107	3001
830.246	3043
830.385	2925
830.524	2857
830.663	2804
830.802	2705
830.941	2636
831.08	2636
831.219	2769
831.357	2773
831.496	2971
831.635	2689
831.774	2632
831.913	2648
832.051	2511
832.19	2549
832.329	2678
832.467	2545
832.606	2465
832.744	2571
832.883	2606
833.022	2579
833.16	2640
833.299	2705
833.437	2682
833.576	2686
833.714	2731
833.852	2739
833.991	2731
834.129	2868
834.267	2800
834.406	2773
834.544	2861
834.682	2872
834.821	2830
834.959	3058
835.097	2887
835.235	3051
835.373	2986
835.511	3020
835.65	2933
835.788	2925
835.926	2838
836.064	2811
836.202	2819
836.34	3074
836.478	3146
836.615	3062
836.753	3127
836.891	3161
837.029	3180
837.167	3104
837.305	3051
837.443	3024
837.58	2990
837.718	3135
837.856	3051
837.993	3032
838.131	3119
838.269	3062
838.406	3085
838.544	3051
838.681	2902
838.819	2922
838.956	2777
839.094	2857
839.231	2925
839.369	3024
839.506	3355
839.643	3211
839.781	2990
839.918	3001
840.055	3005
840.193	3058
840.33	3051
840.467	3070
840.604	3138
840.742	3405
840.879	3058
841.016	3043
841.153	3138
841.29	3283
841.427	3302
841.564	3272
841.701	3313
841.838	3203
841.975	3188
842.112	3199
842.249	3077
842.385	3005
842.522	3230
842.659	3123
842.796	3066
842.933	3085
843.069	2990
843.206	3039
843.343	3203
843.479	3108
843.616	3116
843.752	2895
843.889	2853
844.025	3089
844.162	2845
844.298	3055
844.435	2941
844.571	2925
844.708	3055
844.844	3165
844.98	3222
845.117	3150
845.253	3062
845.389	3009
845.525	3104
845.661	3123
845.798	3001
845.934	3097
846.07	3074
846.206	3199
846.342	3302
846.478	3199
846.614	3047
846.75	3051
846.886	2975
847.022	3218
847.158	3135
847.294	3157
847.429	3241
847.565	3176
847.701	3469
847.837	3043
847.972	3017
848.108	3161
848.244	3104
848.379	2986
848.515	2925
848.65	2941
848.786	2986
848.921	3001
849.057	3074
849.192	3157
849.328	3070
849.463	3097
849.598	3085
849.734	3051
849.869	3009
850.004	2902
850.14	2952
850.275	2941
850.41	2819
850.545	2842
850.68	2922
850.815	2948
850.95	2952
851.085	3157
851.22	3116
851.355	3013
851.49	3005
851.625	2994
851.76	3024
851.895	2918
852.03	2880
852.165	3009
852.299	3135
852.434	3180
852.569	3127
852.703	3161
852.838	3230
852.973	3313
853.107	3298
853.242	3146
853.376	3062
853.511	2944
853.645	3001
853.78	3233
853.914	3108
854.048	3081
854.183	3066
854.317	3123
854.451	3275
854.585	3089
854.72	3093
854.854	3176
854.988	3055
855.122	3097
855.256	2979
855.39	3108
855.524	3230
855.658	3127
855.792	3195
855.926	3207
856.06	3199
856.194	3283
856.327	3142
856.461	3070
856.595	3085
856.729	3066
856.862	3214
856.996	3192
857.13	3165
857.263	3233
857.397	3245
857.53	3127
857.664	3176
857.797	3214
857.931	3233
858.064	3161
858.197	3218
858.331	3116
858.464	3093
858.597	2994
858.731	3077
858.864	3100
858.997	3089
859.13	3165
859.263	3142
859.396	3184
859.529	3066
859.662	3070
859.795	3001
859.928	3116
860.061	3260
860.194	3306
860.327	3123
860.46	3116
860.592	3245
860.725	3222
860.858	3226
860.99	3077
861.123	3017
861.256	3043
861.388	3131
861.521	3838
861.653	3005
861.786	2998
861.918	2998
862.05	3062
862.183	3074
862.315	3093
862.447	3188
862.58	3062
862.712	2956
862.844	2823
862.976	3055
863.108	2994
863.24	3359
863.372	2880
863.504	2956
863.636	2956
863.768	3005
863.9	2956
864.032	2906
864.164	2956
864.296	2982
864.428	3051
864.559	3100
864.691	3085
864.823	3070
864.954	3005
865.086	3043
865.217	2967
865.349	2979
865.48	2963
865.612	2979
865.743	3131
865.875	2998
866.006	2922
866.137	2918
866.269	2918
866.4	2956
866.531	2929
866.662	2880
866.793	2880
866.924	2918
867.055	2956
867.186	2899
867.317	2887
867.448	2823
867.579	2838
867.71	2845
867.841	2826
867.972	2891
868.103	2887
868.233	2899
868.364	2876
868.495	2872
868.625	3062
868.756	3135
868.886	2971
869.017	2998
869.147	3154
869.278	3150
869.408	3036
869.539	3013
869.669	3081
869.799	2990
869.929	3112
870.06	3051
870.19	3302
870.32	3275
870.45	3298
870.58	3386
870.71	3401
870.84	3431
870.97	3275
871.1	3233
871.23	3458
871.36	3447
871.489	3317
871.619	3401
871.749	3409
871.879	3428
872.008	3466
872.138	3351
872.267	3237
872.397	3135
872.526	3058
872.656	3009
872.785	3097
872.915	3184
873.044	3283
873.173	3233
873.303	3237
873.432	3253
873.561	3214
873.69	3176
873.819	3108
873.948	3214
874.077	3116
874.206	3047
874.335	3074
874.464	3188
874.593	3363
874.722	3245
874.851	3363
874.979	3355
875.108	3283
875.237	3195
875.365	3161
875.494	3135
875.623	3222
875.751	3070
875.88	3093
876.008	3173
876.136	3184
876.265	3344
876.393	3492
876.521	3405
876.65	3389
876.778	3374
876.906	3222
877.034	3173
877.162	3211
877.29	3192
877.418	3207
877.546	3233
877.674	3195
877.802	3237
877.93	3207
878.058	3123
878.185	3123
878.313	3199
878.441	3203
878.568	3043
878.696	3169
878.824	3268
878.951	3340
879.079	3466
879.206	3595
879.333	3386
879.461	3351
879.588	3340
879.715	3447
879.842	3545
879.97	3336
880.097	3188
880.224	3116
880.351	3161
880.478	3199
880.605	3222
880.732	3157
880.859	3443
880.986	3325
881.112	3310
881.239	3165
881.366	3058
881.493	3005
881.619	3039
881.746	3100
881.872	3089
881.999	3097
882.125	3131
882.252	3268
882.378	3275
882.505	3405
882.631	3279
882.757	3131
882.883	3233
883.01	3203
883.136	3112
883.262	3081
883.388	3123
883.514	3275
883.64	3367
883.766	3302
883.892	3127
884.018	3237
884.143	3389
884.269	3519
884.395	3184
884.52	3154
884.646	3176
884.772	3138
884.897	3081
885.023	3184
885.148	3332
885.274	3409
885.399	3370
885.524	3275
885.65	3287
885.775	3332
885.9	3249
886.025	3409
886.15	3359
886.275	3310
886.4	3203
886.525	3287
886.65	3249
886.775	3253
886.9	3477
887.025	3625
887.149	3393
887.274	3230
887.399	3211
887.523	3211
887.648	3135
887.773	3150
887.897	3382
888.021	3401
888.146	3294
888.27	3439
888.395	3526
888.519	3439
888.643	3420
888.767	3473
888.891	3268
889.015	3230
889.139	3253
889.263	3226
889.387	3370
889.511	3496
889.635	3435
889.759	3287
889.883	3298
890.006	3393
890.13	3431
890.254	3272
890.377	3351
890.501	3245
890.624	3161
890.748	3325
890.871	3142
890.995	3127
891.118	3062
891.241	3241
891.364	3268
891.488	3313
891.611	3180
891.734	3207
891.857	3294
891.98	3230
892.103	3363
892.226	3310
892.349	3249
892.471	3135
892.594	3249
892.717	3298
892.839	3241
892.962	3313
893.085	3351
893.207	3329
893.33	3199
893.452	3211
893.575	3393
893.697	3294
893.819	3473
893.941	3496
894.064	3485
894.186	3306
894.308	3321
894.43	3473
894.552	3572
894.674	3507
894.796	3302
894.918	3329
895.04	3310
895.161	3466
895.283	3431
895.405	3317
895.526	3389
895.648	3443
895.769	3462
895.891	3488
896.012	3507
896.134	3500
896.255	3462
896.376	3412
896.498	3412
896.619	3469
896.74	3412
896.861	3454
896.982	3724
897.103	3896
897.224	3679
897.345	3542
897.466	3496
897.587	3515
897.708	3663
897.828	3584
897.949	3443
898.07	3367
898.19	3469
898.311	3667
898.431	3530
898.552	3568
898.672	3660
898.792	3648
898.913	3553
899.033	3473
899.153	3378
899.273	3279
899.393	3317
899.513	3321
899.633	3386
899.753	3405
899.873	3363
899.993	3435
900.113	3348
900.232	3428
900.352	3389
900.472	3332
900.591	3253
900.711	3374
900.83	3249
900.95	3450
901.069	3530
901.189	3450
901.308	3214
901.427	3157
901.546	3226
901.665	3340
901.784	3374
901.904	3218
902.023	3173
902.141	3047
902.26	3013
902.379	3176
902.498	3104
902.617	3062
902.735	3245
902.854	3226
902.973	3226
903.091	3070
903.21	3112
903.328	3157
903.446	3131
903.565	3131
903.683	3207
903.801	3142
903.919	3256
904.038	3302
904.156	3214
904.274	3313
904.392	3272
904.51	3340
904.627	3332
904.745	3435
904.863	3549
904.981	3306
905.098	3226
905.216	3279
905.334	3332
905.451	3317
905.569	3317
905.686	3409
905.803	3466
905.921	3310
906.038	3428
906.155	3382
906.272	3291
906.389	3348
906.506	3268
906.623	3264
906.74	3302
906.857	3237
906.974	3260
907.091	3530
907.208	3622
907.324	3492
907.441	3428
907.557	3253
907.674	3230
907.79	3253
907.907	3332
908.023	3409
908.139	3420
908.256	3367
908.372	3397
908.488	3420
908.604	3325
908.72	3279
908.836	3294
908.952	3344
909.068	3359
909.184	3511
909.3	3416
909.415	3542
909.531	3507
909.647	3279
909.762	3340
909.878	3272
909.993	3412
910.108	3401
910.224	3370
910.339	3435
910.454	3378
910.57	3321
910.685	3279
910.8	3637
910.915	3542
911.03	3466
911.145	3287
911.259	3287
911.374	3340
911.489	3245
911.604	3253
911.718	3157
911.833	3184
911.947	3070
912.062	3001
912.176	3188
912.291	3207
912.405	3260
912.519	3488
912.633	3454
912.748	3325
912.862	3283
912.976	3199
913.09	3104
913.204	3176
913.318	3253
913.431	3321
913.545	3405
913.659	3416
913.772	3355
913.886	3264
914	3214
914.113	3389
914.226	3488
914.34	3397
914.453	3264
914.566	3431
914.68	3370
914.793	3378
914.906	3138
915.019	3173
915.132	3081
915.245	3199
915.358	3199
915.47	3264
915.583	3272
915.696	3344
915.809	3443
915.921	3485
916.034	3336
916.146	3302
916.259	3268
916.371	3412
916.483	3378
916.595	3355
916.708	3405
916.82	3355
916.932	3351
917.044	3409
917.156	3370
917.268	3306
917.38	3351
917.491	3317
917.603	3374
917.715	3526
917.826	3496
917.938	3416
918.049	3298
918.161	3439
918.272	3576
918.384	3591
918.495	3538
918.606	3363
918.717	3310
918.828	3420
918.939	3458
919.05	3363
919.161	3409
919.272	3192
919.383	3291
919.494	3549
919.604	3728
919.715	3526
919.826	3416
919.936	3504
920.047	3603
920.157	3584
920.267	3778
920.378	3610
920.488	3549
920.598	3812
920.708	4006
920.818	3892
920.928	3876
921.038	3983
921.148	3998
921.258	3747
921.368	3637
921.477	3622
921.587	3633
921.697	3526
921.806	3652
921.916	3530
922.025	3355
922.134	3363
922.244	3344
922.353	3466
922.462	3294
922.571	3291
922.68	3142
922.789	3150
922.898	3135
923.007	3135
923.116	3272
923.224	3199
923.333	3207
923.442	3104
923.55	3108
923.659	3142
923.767	3222
923.876	3154
923.984	3245
924.092	3077
924.201	3226
924.309	3230
924.417	3279
924.525	3176
924.633	3268
924.741	4044
924.849	3097
924.956	3313
925.064	3093
925.172	3104
925.279	3104
925.387	3260
925.494	3207
925.602	3370
925.709	3279
925.816	3211
925.924	3291
926.031	3428
926.138	3332
926.245	3378
926.352	3260
926.459	3469
926.566	3519
926.673	3378
926.779	3233
926.886	3260
926.993	3192
927.099	3161
927.206	3142
927.312	3116
927.419	3256
927.525	3241
927.631	3294
927.737	3192
927.843	3176
927.95	3062
928.056	3165
928.162	3218
928.267	3245
928.373	3972
928.479	3336
928.585	3089
928.69	3214
928.796	3336
928.901	3214
929.007	3062
929.112	3207
929.218	3203
929.323	3176
929.428	3157
929.533	3325
929.638	3157
929.743	3192
929.848	3256
929.953	3233
930.058	3150
930.163	3058
930.267	3085
930.372	3207
930.477	3055
930.581	3329
930.685	3207
930.79	3066
930.894	3173
930.998	3066
931.103	3302
931.207	3009
931.311	2963
931.415	2944
931.519	2785
931.623	2815
