Data from test_V78500241_609.txt Node
Date: Fri Mar 25 16:19:25 CST 2022
User: usil
Spectrometer: V785-0024
Trigger mode: 0
Integration Time (sec): 4.000000E-1
Scans to average: 1
Nonlinearity correction enabled: false
Boxcar width: 0
Storing dark spectrum: false
XAxis mode: Wavelengths
Number of Pixels in Spectrum: 1024
>>>>>Begin Spectral Data<<<<<
801.071	2910
801.214	2994
801.356	2891
801.499	2883
801.641	2883
801.783	2944
801.926	3058
802.068	3039
802.211	2982
802.353	3017
802.496	2994
802.638	3017
802.78	3074
802.923	3085
803.065	3020
803.208	2922
803.35	2941
803.492	2952
803.635	2948
803.777	2777
803.919	2872
804.061	3241
804.204	2952
804.346	2952
804.488	2842
804.63	2994
804.773	2910
804.915	2880
805.057	3116
805.199	2902
805.341	3009
805.483	3005
805.626	2994
805.768	2963
805.91	3104
806.052	3077
806.194	3058
806.336	3279
806.478	3024
806.62	2952
806.762	2998
806.904	3062
807.046	3199
807.188	2990
807.33	2944
807.472	3020
807.614	2906
807.756	3020
807.898	2960
808.04	2891
808.182	2952
808.324	2979
808.465	2887
808.607	2876
808.749	2807
808.891	2838
809.033	3005
809.174	2982
809.316	2883
809.458	2880
809.6	2785
809.741	2762
809.883	2788
810.025	2864
810.166	2891
810.308	2872
810.45	2857
810.591	2769
810.733	2785
810.875	2815
811.016	2804
811.158	2766
811.299	2834
811.441	2910
811.582	2918
811.724	2845
811.865	2845
812.007	2922
812.148	2883
812.29	2849
812.431	2887
812.573	2948
812.714	2990
812.855	3020
812.997	3104
813.138	3146
813.279	3032
813.421	2967
813.562	3005
813.703	2922
813.845	2883
813.986	2746
814.127	2769
814.268	2819
814.41	2861
814.551	2834
814.692	2861
814.833	2811
814.974	2883
815.115	2982
815.256	2804
815.397	2838
815.539	2830
815.68	2800
815.821	2800
815.962	2963
816.103	2929
816.244	2887
816.385	2891
816.526	3005
816.666	2933
816.807	2750
816.948	2880
817.089	2914
817.23	2857
817.371	2788
817.512	2788
817.653	2853
817.793	2826
817.934	2914
818.075	2971
818.216	3017
818.356	3020
818.497	2899
818.638	2800
818.778	2830
818.919	2796
819.06	2781
819.2	2861
819.341	2823
819.481	2853
819.622	2925
819.762	3116
819.903	3043
820.043	2922
820.184	2944
820.324	2918
820.465	3028
820.605	3017
820.746	3028
820.886	2941
821.026	3093
821.167	3180
821.307	3256
821.447	3279
821.588	3272
821.728	3249
821.868	3218
822.008	3085
822.149	3203
822.289	3214
822.429	3074
822.569	3077
822.709	3165
822.849	3043
822.99	3108
823.13	3165
823.27	3207
823.41	3127
823.55	3154
823.69	3173
823.83	3211
823.97	3116
824.11	3032
824.25	3009
824.389	3077
824.529	3135
824.669	3085
824.809	3218
824.949	3245
825.089	3222
825.228	3165
825.368	3009
825.508	2956
825.648	2979
825.787	3043
825.927	3043
826.067	2971
826.206	2971
826.346	3058
826.485	3089
826.625	3104
826.765	3222
826.904	3192
827.044	3005
827.183	2918
827.323	2842
827.462	2967
827.601	2887
827.741	2937
827.88	2944
828.02	2864
828.159	2990
828.298	3020
828.437	3127
828.577	3051
828.716	3230
828.855	3051
828.994	2906
829.134	2895
829.273	2944
829.412	2864
829.551	2880
829.69	2895
829.829	3001
829.968	3123
830.107	3039
830.246	3036
830.385	2948
830.524	2864
830.663	2788
830.802	2754
830.941	2629
831.08	2682
831.219	2788
831.357	2781
831.496	2963
831.635	2754
831.774	2629
831.913	2663
832.051	2564
832.19	2606
832.329	2716
832.467	2514
832.606	2488
832.744	2602
832.883	2583
833.022	2575
833.16	2625
833.299	2663
833.437	2743
833.576	2705
833.714	2731
833.852	2727
833.991	2727
834.129	2823
834.267	2830
834.406	2807
834.544	2872
834.682	2845
834.821	2868
834.959	3058
835.097	2902
835.235	3070
835.373	2990
835.511	3028
835.65	2929
835.788	2952
835.926	2804
836.064	2838
836.202	2838
836.34	3097
836.478	3104
836.615	3028
836.753	3119
836.891	3211
837.029	3169
837.167	3127
837.305	3055
837.443	3032
837.58	3013
837.718	3138
837.856	3077
837.993	3013
838.131	3146
838.269	3104
838.406	3077
838.544	3100
838.681	2937
838.819	2937
838.956	2834
839.094	2826
839.231	2906
839.369	3036
839.506	3401
839.643	3230
839.781	3013
839.918	2990
840.055	3077
840.193	3036
840.33	3089
840.467	3116
840.604	3161
840.742	3382
840.879	3085
841.016	3051
841.153	3104
841.29	3359
841.427	3351
841.564	3287
841.701	3302
841.838	3222
841.975	3131
842.112	3203
842.249	3074
842.385	3028
842.522	3268
842.659	3066
842.796	3081
842.933	3089
843.069	3055
843.206	3005
843.343	3199
843.479	3093
843.616	3116
843.752	2910
843.889	2887
844.025	3077
844.162	2845
844.298	3093
844.435	2956
844.571	2906
844.708	3081
844.844	3195
844.98	3195
845.117	3211
845.253	3032
845.389	3036
845.525	3131
845.661	3070
845.798	2998
845.934	3116
846.07	3028
846.206	3214
846.342	3325
846.478	3245
846.614	3093
846.75	3017
846.886	3028
847.022	3241
847.158	3131
847.294	3195
847.429	3264
847.565	3214
847.701	3496
847.837	3043
847.972	3024
848.108	3142
848.244	3127
848.379	2960
848.515	2960
848.65	2914
848.786	2960
848.921	3024
849.057	3093
849.192	3138
849.328	3051
849.463	3112
849.598	3051
849.734	3066
849.869	2979
850.004	2933
850.14	2960
850.275	2910
850.41	2826
850.545	2910
850.68	2887
850.815	2933
850.95	2982
851.085	3188
851.22	3089
851.355	3039
851.49	3009
851.625	2971
851.76	3013
851.895	2982
852.03	2899
852.165	3062
852.299	3097
852.434	3188
852.569	3116
852.703	3173
852.838	3253
852.973	3340
853.107	3332
853.242	3119
853.376	3100
853.511	2967
853.645	3058
853.78	3184
853.914	3104
854.048	3077
854.183	3074
854.317	3142
854.451	3317
854.585	3108
854.72	3070
854.854	3233
854.988	3051
855.122	3058
855.256	2941
855.39	3127
855.524	3230
855.658	3180
855.792	3157
855.926	3226
856.06	3222
856.194	3268
856.327	3142
856.461	3058
856.595	3085
856.729	3074
856.862	3214
856.996	3176
857.13	3222
857.263	3233
857.397	3283
857.53	3131
857.664	3203
857.797	3256
857.931	3272
858.064	3150
858.197	3256
858.331	3131
858.464	3093
858.597	2960
858.731	3085
858.864	3161
858.997	3100
859.13	3127
859.263	3173
859.396	3233
859.529	3074
859.662	3062
859.795	3074
859.928	3142
860.061	3291
860.194	3298
860.327	3108
860.46	3093
860.592	3211
860.725	3249
860.858	3237
860.99	3089
861.123	3066
861.256	3032
861.388	3154
861.521	3732
861.653	2979
861.786	2952
861.918	2982
862.05	3055
862.183	3097
862.315	3135
862.447	3176
862.58	3093
862.712	2952
862.844	2887
862.976	3009
863.108	2986
863.24	3424
863.372	2910
863.504	2967
863.636	2956
863.768	3020
863.9	2925
864.032	2883
864.164	2944
864.296	3020
864.428	3081
864.559	3112
864.691	3032
864.823	3047
864.954	3024
865.086	3077
865.217	2979
865.349	2956
865.48	2990
865.612	3005
865.743	3123
865.875	3005
866.006	2979
866.137	2975
866.269	2971
866.4	2944
866.531	2918
866.662	2922
866.793	2868
866.924	2872
867.055	2933
867.186	2933
867.317	2864
867.448	2815
867.579	2849
867.71	2868
867.841	2826
867.972	2899
868.103	2910
868.233	2864
868.364	2876
868.495	2864
868.625	3100
868.756	3161
868.886	2979
869.017	2998
869.147	3169
869.278	3138
869.408	3055
869.539	2994
869.669	3077
869.799	3032
869.929	3108
870.06	3100
870.19	3310
870.32	3291
870.45	3272
870.58	3340
870.71	3397
870.84	3477
870.97	3325
871.1	3226
871.23	3492
871.36	3439
871.489	3351
871.619	3397
871.749	3389
871.879	3435
872.008	3485
872.138	3355
872.267	3279
872.397	3154
872.526	3093
872.656	3013
872.785	3108
872.915	3249
873.044	3306
873.173	3237
873.303	3218
873.432	3275
873.561	3241
873.69	3131
873.819	3142
873.948	3176
874.077	3085
874.206	3051
874.335	3100
874.464	3218
874.593	3344
874.722	3226
874.851	3405
874.979	3359
875.108	3329
875.237	3203
875.365	3176
875.494	3150
875.623	3245
875.751	3074
875.88	3074
876.008	3146
876.136	3207
876.265	3344
876.393	3496
876.521	3435
876.65	3367
876.778	3329
876.906	3233
877.034	3192
877.162	3237
877.29	3184
877.418	3214
877.546	3230
877.674	3199
877.802	3249
877.93	3226
878.058	3169
878.185	3104
878.313	3176
878.441	3192
878.568	3051
878.696	3157
878.824	3249
878.951	3291
879.079	3431
879.206	3618
879.333	3435
879.461	3340
879.588	3332
879.715	3462
879.842	3580
879.97	3397
880.097	3138
880.224	3123
880.351	3184
880.478	3207
880.605	3192
880.732	3146
880.859	3481
880.986	3313
881.112	3287
881.239	3184
881.366	3074
881.493	3020
881.619	3005
881.746	3081
881.872	3077
881.999	3066
882.125	3138
882.252	3211
882.378	3294
882.505	3397
882.631	3325
882.757	3161
882.883	3192
883.01	3211
883.136	3176
883.262	3089
883.388	3116
883.514	3294
883.64	3382
883.766	3321
883.892	3176
884.018	3218
884.143	3412
884.269	3515
884.395	3169
884.52	3176
884.646	3176
884.772	3146
884.897	3108
885.023	3207
885.148	3348
885.274	3386
885.399	3363
885.524	3260
885.65	3268
885.775	3298
885.9	3291
886.025	3447
886.15	3367
886.275	3302
886.4	3203
886.525	3283
886.65	3264
886.775	3294
886.9	3496
887.025	3644
887.149	3374
887.274	3218
887.399	3154
887.523	3176
887.648	3161
887.773	3184
887.897	3336
888.021	3420
888.146	3306
888.27	3420
888.395	3549
888.519	3416
888.643	3458
888.767	3485
888.891	3332
889.015	3245
889.139	3291
889.263	3253
889.387	3420
889.511	3511
889.635	3424
889.759	3291
889.883	3310
890.006	3370
890.13	3504
890.254	3233
890.377	3329
890.501	3195
890.624	3161
890.748	3302
890.871	3199
890.995	3131
891.118	3081
891.241	3165
891.364	3180
891.488	3313
891.611	3146
891.734	3218
891.857	3287
891.98	3233
892.103	3367
892.226	3302
892.349	3253
892.471	3085
892.594	3237
892.717	3302
892.839	3272
892.962	3291
893.085	3336
893.207	3325
893.33	3127
893.452	3226
893.575	3302
893.697	3272
893.819	3450
893.941	3504
894.064	3393
894.186	3256
894.308	3245
894.43	3435
894.552	3534
894.674	3466
894.796	3233
894.918	3283
895.04	3306
895.161	3439
895.283	3431
895.405	3332
895.526	3344
895.648	3409
895.769	3462
895.891	3454
896.012	3466
896.134	3511
896.255	3424
896.376	3363
896.498	3359
896.619	3428
896.74	3359
896.861	3370
896.982	3694
897.103	3846
897.224	3610
897.345	3511
897.466	3431
897.587	3492
897.708	3641
897.828	3530
897.949	3405
898.07	3351
898.19	3386
898.311	3614
898.431	3447
898.552	3477
898.672	3580
898.792	3587
898.913	3496
899.033	3397
899.153	3272
899.273	3218
899.393	3268
899.513	3340
899.633	3298
899.753	3348
899.873	3306
899.993	3367
900.113	3336
900.232	3378
900.352	3287
900.472	3302
900.591	3230
900.711	3283
900.83	3268
900.95	3397
901.069	3530
901.189	3344
901.308	3173
901.427	3157
901.546	3180
901.665	3291
901.784	3348
901.904	3222
902.023	3138
902.141	2979
902.26	3001
902.379	3138
902.498	3108
902.617	3051
902.735	3211
902.854	3214
902.973	3184
903.091	3043
903.21	3104
903.328	3104
903.446	3119
903.565	3055
903.683	3214
903.801	3154
903.919	3256
904.038	3321
904.156	3184
904.274	3268
904.392	3272
904.51	3279
904.627	3321
904.745	3428
904.863	3450
904.981	3260
905.098	3157
905.216	3214
905.334	3302
905.451	3283
905.569	3313
905.686	3409
905.803	3428
905.921	3279
906.038	3458
906.155	3374
906.272	3268
906.389	3321
906.506	3237
906.623	3264
906.74	3260
906.857	3188
906.974	3233
907.091	3477
907.208	3553
907.324	3481
907.441	3374
907.557	3241
907.674	3211
907.79	3226
907.907	3302
908.023	3409
908.139	3363
908.256	3344
908.372	3367
908.488	3317
908.604	3249
908.72	3249
908.836	3283
908.952	3272
909.068	3321
909.184	3450
909.3	3378
909.415	3504
909.531	3481
909.647	3279
909.762	3275
909.878	3268
909.993	3378
910.108	3329
910.224	3359
910.339	3397
910.454	3355
910.57	3260
910.685	3249
910.8	3557
910.915	3549
911.03	3420
911.145	3275
911.259	3272
911.374	3279
911.489	3249
911.604	3230
911.718	3112
911.833	3123
911.947	3024
912.062	2979
912.176	3188
912.291	3192
912.405	3199
912.519	3435
912.633	3458
912.748	3317
912.862	3272
912.976	3161
913.09	3074
913.204	3138
913.318	3218
913.431	3313
913.545	3351
913.659	3424
913.772	3321
913.886	3218
914	3218
914.113	3340
914.226	3405
914.34	3344
914.453	3230
914.566	3409
914.68	3272
914.793	3332
914.906	3165
915.019	3142
915.132	3093
915.245	3203
915.358	3188
915.47	3214
915.583	3279
915.696	3275
915.809	3363
915.921	3431
916.034	3256
916.146	3241
916.259	3184
916.371	3443
916.483	3374
916.595	3268
916.708	3344
916.82	3367
916.932	3355
917.044	3355
917.156	3321
917.268	3298
917.38	3291
917.491	3283
917.603	3348
917.715	3462
917.826	3431
917.938	3370
918.049	3283
918.161	3420
918.272	3584
918.384	3553
918.495	3500
918.606	3348
918.717	3310
918.828	3386
918.939	3386
919.05	3325
919.161	3363
919.272	3188
919.383	3279
919.494	3515
919.604	3717
919.715	3500
919.826	3412
919.936	3428
920.047	3622
920.157	3534
920.267	3800
920.378	3595
920.488	3564
920.598	3713
920.708	3941
920.818	3793
920.928	3869
921.038	4029
921.148	3968
921.258	3728
921.368	3660
921.477	3587
921.587	3519
921.697	3435
921.806	3618
921.916	3530
922.025	3359
922.134	3382
922.244	3287
922.353	3386
922.462	3302
922.571	3233
922.68	3085
922.789	3093
922.898	3131
923.007	3104
923.116	3184
923.224	3192
923.333	3176
923.442	3119
923.55	3074
923.659	3154
923.767	3230
923.876	3131
923.984	3241
924.092	3085
924.201	3184
924.309	3192
924.417	3256
924.525	3199
924.633	3253
924.741	3991
924.849	3020
924.956	3226
925.064	3146
925.172	2986
925.279	3081
925.387	3218
925.494	3173
925.602	3367
925.709	3329
925.816	3176
925.924	3283
926.031	3340
926.138	3351
926.245	3344
926.352	3272
926.459	3397
926.566	3473
926.673	3306
926.779	3253
926.886	3233
926.993	3150
927.099	3097
927.206	3097
927.312	3108
927.419	3211
927.525	3195
927.631	3253
927.737	3127
927.843	3127
927.95	3043
928.056	3161
928.162	3192
928.267	3249
928.373	3781
928.479	3321
928.585	3066
928.69	3192
928.796	3253
928.901	3165
929.007	3047
929.112	3176
929.218	3180
929.323	3146
929.428	3146
929.533	3336
929.638	3123
929.743	3169
929.848	3253
929.953	3222
930.058	3154
930.163	3001
930.267	3058
930.372	3150
930.477	3009
930.581	3313
930.685	3173
930.79	3058
930.894	3097
930.998	3097
931.103	3249
931.207	2948
931.311	2975
931.415	2899
931.519	2785
931.623	2804
