Data from test_V78500241_649.txt Node
Date: Fri Mar 25 16:19:41 CST 2022
User: usil
Spectrometer: V785-0024
Trigger mode: 0
Integration Time (sec): 4.000000E-1
Scans to average: 1
Nonlinearity correction enabled: false
Boxcar width: 0
Storing dark spectrum: false
XAxis mode: Wavelengths
Number of Pixels in Spectrum: 1024
>>>>>Begin Spectral Data<<<<<
801.071	2952
801.214	2956
801.356	2922
801.499	2929
801.641	2918
801.783	2998
801.926	3074
802.068	3020
802.211	3074
802.353	3047
802.496	2960
802.638	3032
802.78	3081
802.923	3100
803.065	3066
803.208	2944
803.35	2960
803.492	2990
803.635	2929
803.777	2800
803.919	2910
804.061	3253
804.204	2979
804.346	2948
804.488	2887
804.63	3020
804.773	2891
804.915	2944
805.057	3142
805.199	3009
805.341	3062
805.483	3112
805.626	3047
805.768	3009
805.91	3127
806.052	3119
806.194	3093
806.336	3253
806.478	3074
806.62	3005
806.762	3047
806.904	3089
807.046	3230
807.188	3013
807.33	2967
807.472	3039
807.614	2967
807.756	2986
807.898	2982
808.04	2929
808.182	3024
808.324	2971
808.465	2910
808.607	2918
808.749	2838
808.891	2876
809.033	3039
809.174	3020
809.316	2918
809.458	2910
809.6	2811
809.741	2800
809.883	2800
810.025	2910
810.166	2864
810.308	2891
810.45	2868
810.591	2800
810.733	2826
810.875	2876
811.016	2807
811.158	2777
811.299	2868
811.441	2922
811.582	2902
811.724	2842
811.865	2883
812.007	2914
812.148	2895
812.29	2906
812.431	2941
812.573	2952
812.714	2998
812.855	3097
812.997	3085
813.138	3138
813.279	3036
813.421	3020
813.562	3001
813.703	2922
813.845	2899
813.986	2800
814.127	2762
814.268	2876
814.41	2902
814.551	2883
814.692	2887
814.833	2853
814.974	2925
815.115	2979
815.256	2872
815.397	2849
815.539	2918
815.68	2792
815.821	2811
815.962	2952
816.103	2948
816.244	2895
816.385	2918
816.526	3001
816.666	2960
816.807	2762
816.948	2902
817.089	2937
817.23	2910
817.371	2792
817.512	2834
817.653	2868
817.793	2834
817.934	2906
818.075	2979
818.216	3009
818.356	3024
818.497	2910
818.638	2819
818.778	2872
818.919	2819
819.06	2766
819.2	2910
819.341	2864
819.481	2826
819.622	2963
819.762	3142
819.903	3039
820.043	2963
820.184	2929
820.324	2925
820.465	3043
820.605	3058
820.746	3043
820.886	2944
821.026	3131
821.167	3192
821.307	3325
821.447	3336
821.588	3260
821.728	3264
821.868	3241
822.008	3127
822.149	3176
822.289	3260
822.429	3108
822.569	3119
822.709	3245
822.849	3039
822.99	3081
823.13	3218
823.27	3241
823.41	3093
823.55	3169
823.69	3192
823.83	3203
823.97	3108
824.11	3020
824.25	3009
824.389	3119
824.529	3135
824.669	3119
824.809	3237
824.949	3279
825.089	3241
825.228	3195
825.368	3036
825.508	2979
825.648	2979
825.787	3051
825.927	3039
826.067	2960
826.206	2960
826.346	3100
826.485	3097
826.625	3131
826.765	3291
826.904	3245
827.044	3005
827.183	2944
827.323	2868
827.462	3017
827.601	2944
827.741	2948
827.88	2967
828.02	2887
828.159	2975
828.298	3024
828.437	3135
828.577	3039
828.716	3253
828.855	3070
828.994	2975
829.134	2933
829.273	2906
829.412	2902
829.551	2906
829.69	2929
829.829	3028
829.968	3119
830.107	3024
830.246	3036
830.385	2941
830.524	2887
830.663	2811
830.802	2754
830.941	2712
831.08	2697
831.219	2769
831.357	2773
831.496	2967
831.635	2743
831.774	2674
831.913	2701
832.051	2579
832.19	2610
832.329	2739
832.467	2552
832.606	2507
832.744	2602
832.883	2617
833.022	2655
833.16	2686
833.299	2727
833.437	2720
833.576	2735
833.714	2762
833.852	2754
833.991	2792
834.129	2868
834.267	2857
834.406	2807
834.544	2872
834.682	2876
834.821	2868
834.959	3028
835.097	2918
835.235	3089
835.373	3028
835.511	3047
835.65	2982
835.788	2986
835.926	2853
836.064	2838
836.202	2883
836.34	3150
836.478	3161
836.615	3074
836.753	3127
836.891	3237
837.029	3173
837.167	3157
837.305	3058
837.443	3074
837.58	2975
837.718	3131
837.856	3081
837.993	3055
838.131	3112
838.269	3154
838.406	3097
838.544	3112
838.681	2982
838.819	2971
838.956	2838
839.094	2857
839.231	2906
839.369	3051
839.506	3389
839.643	3275
839.781	3055
839.918	2971
840.055	3055
840.193	3055
840.33	3089
840.467	3077
840.604	3150
840.742	3409
840.879	3058
841.016	3077
841.153	3150
841.29	3359
841.427	3321
841.564	3241
841.701	3336
841.838	3260
841.975	3222
842.112	3245
842.249	3093
842.385	3066
842.522	3283
842.659	3062
842.796	3085
842.933	3089
843.069	3066
843.206	3070
843.343	3173
843.479	3131
843.616	3154
843.752	2941
843.889	2918
844.025	3119
844.162	2895
844.298	3097
844.435	2975
844.571	2941
844.708	3100
844.844	3207
844.98	3272
845.117	3207
845.253	3104
845.389	3081
845.525	3100
845.661	3127
845.798	3036
845.934	3161
846.07	3036
846.206	3241
846.342	3355
846.478	3245
846.614	3100
846.75	3047
846.886	3062
847.022	3275
847.158	3116
847.294	3253
847.429	3218
847.565	3253
847.701	3526
847.837	3051
847.972	3001
848.108	3138
848.244	3157
848.379	2986
848.515	2986
848.65	2944
848.786	3005
848.921	3074
849.057	3108
849.192	3150
849.328	3081
849.463	3127
849.598	3070
849.734	3028
849.869	2979
850.004	2929
850.14	2986
850.275	2960
850.41	2868
850.545	2902
850.68	2937
850.815	2956
850.95	2960
851.085	3230
851.22	3085
851.355	3047
851.49	3017
851.625	2986
851.76	3047
851.895	2948
852.03	2883
852.165	3051
852.299	3135
852.434	3214
852.569	3138
852.703	3207
852.838	3287
852.973	3321
853.107	3294
853.242	3142
853.376	3127
853.511	2982
853.645	3085
853.78	3233
853.914	3138
854.048	3093
854.183	3066
854.317	3146
854.451	3317
854.585	3161
854.72	3097
854.854	3199
854.988	3047
855.122	3104
855.256	2986
855.39	3097
855.524	3245
855.658	3195
855.792	3214
855.926	3188
856.06	3256
856.194	3291
856.327	3161
856.461	3081
856.595	3055
856.729	3146
856.862	3241
856.996	3154
857.13	3214
857.263	3241
857.397	3283
857.53	3135
857.664	3180
857.797	3268
857.931	3245
858.064	3199
858.197	3233
858.331	3131
858.464	3116
858.597	2994
858.731	3093
858.864	3123
858.997	3112
859.13	3173
859.263	3211
859.396	3226
859.529	3089
859.662	3108
859.795	3070
859.928	3112
860.061	3272
860.194	3283
860.327	3142
860.46	3077
860.592	3218
860.725	3291
860.858	3294
860.99	3135
861.123	3085
861.256	3066
861.388	3138
861.521	3838
861.653	3032
861.786	2982
861.918	3020
862.05	3024
862.183	3135
862.315	3161
862.447	3222
862.58	3108
862.712	2963
862.844	2899
862.976	3009
863.108	3005
863.24	3458
863.372	2880
863.504	2990
863.636	2956
863.768	3017
863.9	2994
864.032	2918
864.164	2937
864.296	3001
864.428	3081
864.559	3119
864.691	3070
864.823	3081
864.954	3020
865.086	3070
865.217	3013
865.349	2979
865.48	2979
865.612	3058
865.743	3146
865.875	2986
866.006	2944
866.137	2986
866.269	2952
866.4	2956
866.531	2941
866.662	2861
866.793	2899
866.924	2922
867.055	2952
867.186	2910
867.317	2849
867.448	2857
867.579	2861
867.71	2883
867.841	2819
867.972	2929
868.103	2895
868.233	2826
868.364	2887
868.495	2891
868.625	3055
868.756	3176
868.886	2990
869.017	3051
869.147	3154
869.278	3157
869.408	3081
869.539	3036
869.669	3108
869.799	3070
869.929	3104
870.06	3097
870.19	3351
870.32	3237
870.45	3291
870.58	3386
870.71	3420
870.84	3473
870.97	3245
871.1	3275
871.23	3454
871.36	3481
871.489	3374
871.619	3416
871.749	3450
871.879	3443
872.008	3450
872.138	3359
872.267	3298
872.397	3119
872.526	3108
872.656	3051
872.785	3116
872.915	3180
873.044	3313
873.173	3207
873.303	3241
873.432	3249
873.561	3264
873.69	3180
873.819	3150
873.948	3173
874.077	3089
874.206	3058
874.335	3047
874.464	3214
874.593	3355
874.722	3268
874.851	3393
874.979	3367
875.108	3351
875.237	3218
875.365	3127
875.494	3165
875.623	3272
875.751	3074
875.88	3108
876.008	3184
876.136	3260
876.265	3382
876.393	3530
876.521	3424
876.65	3370
876.778	3351
876.906	3253
877.034	3195
877.162	3226
877.29	3211
877.418	3230
877.546	3268
877.674	3264
877.802	3226
877.93	3230
878.058	3150
878.185	3116
878.313	3188
878.441	3214
878.568	3074
878.696	3173
878.824	3222
878.951	3321
879.079	3488
879.206	3644
879.333	3397
879.461	3336
879.588	3332
879.715	3500
879.842	3549
879.97	3389
880.097	3157
880.224	3108
880.351	3241
880.478	3241
880.605	3222
880.732	3142
880.859	3466
880.986	3272
881.112	3329
881.239	3176
881.366	3104
881.493	3055
881.619	2990
881.746	3089
881.872	3097
881.999	3100
882.125	3131
882.252	3233
882.378	3317
882.505	3428
882.631	3302
882.757	3135
882.883	3184
883.01	3230
883.136	3188
883.262	3104
883.388	3070
883.514	3344
883.64	3374
883.766	3256
883.892	3203
884.018	3230
884.143	3424
884.269	3507
884.395	3214
884.52	3195
884.646	3173
884.772	3135
884.897	3058
885.023	3192
885.148	3302
885.274	3416
885.399	3355
885.524	3313
885.65	3268
885.775	3332
885.9	3298
886.025	3428
886.15	3409
886.275	3294
886.4	3233
886.525	3317
886.65	3279
886.775	3291
886.9	3492
887.025	3694
887.149	3393
887.274	3264
887.399	3188
887.523	3199
887.648	3180
887.773	3195
887.897	3363
888.021	3412
888.146	3294
888.27	3454
888.395	3538
888.519	3428
888.643	3454
888.767	3439
888.891	3310
889.015	3218
889.139	3313
889.263	3237
889.387	3447
889.511	3523
889.635	3420
889.759	3325
889.883	3272
890.006	3409
890.13	3477
890.254	3260
890.377	3344
890.501	3222
890.624	3226
890.748	3306
890.871	3207
890.995	3108
891.118	3104
891.241	3180
891.364	3184
891.488	3336
891.611	3188
891.734	3237
891.857	3256
891.98	3241
892.103	3310
892.226	3283
892.349	3237
892.471	3104
892.594	3249
892.717	3294
892.839	3268
892.962	3325
893.085	3359
893.207	3298
893.33	3157
893.452	3249
893.575	3367
893.697	3264
893.819	3481
893.941	3481
894.064	3435
894.186	3230
894.308	3245
894.43	3443
894.552	3553
894.674	3477
894.796	3287
894.918	3325
895.04	3302
895.161	3431
895.283	3355
895.405	3332
895.526	3386
895.648	3424
895.769	3424
895.891	3435
896.012	3481
896.134	3481
896.255	3386
896.376	3378
896.498	3351
896.619	3416
896.74	3382
896.861	3428
896.982	3656
897.103	3819
897.224	3599
897.345	3507
897.466	3397
897.587	3500
897.708	3637
897.828	3576
897.949	3401
898.07	3325
898.19	3382
898.311	3625
898.431	3447
898.552	3530
898.672	3637
898.792	3614
898.913	3530
899.033	3386
899.153	3313
899.273	3211
899.393	3264
899.513	3287
899.633	3291
899.753	3294
899.873	3317
899.993	3393
900.113	3294
900.232	3382
900.352	3325
900.472	3249
900.591	3222
900.711	3310
900.83	3241
900.95	3409
901.069	3458
901.189	3370
901.308	3154
901.427	3116
901.546	3161
901.665	3306
901.784	3321
901.904	3180
902.023	3157
902.141	3055
902.26	3001
902.379	3138
902.498	3077
902.617	3051
902.735	3230
902.854	3253
902.973	3184
903.091	3020
903.21	3055
903.328	3127
903.446	3127
903.565	3112
903.683	3214
903.801	3131
903.919	3256
904.038	3264
904.156	3108
904.274	3325
904.392	3260
904.51	3272
904.627	3340
904.745	3409
904.863	3504
904.981	3272
905.098	3188
905.216	3226
905.334	3310
905.451	3310
905.569	3306
905.686	3428
905.803	3428
905.921	3283
906.038	3424
906.155	3367
906.272	3226
906.389	3393
906.506	3245
906.623	3249
906.74	3245
906.857	3222
906.974	3253
907.091	3416
907.208	3549
907.324	3458
907.441	3382
907.557	3214
907.674	3245
907.79	3192
907.907	3279
908.023	3359
908.139	3389
908.256	3363
908.372	3386
908.488	3359
908.604	3294
908.72	3249
908.836	3272
908.952	3272
909.068	3321
909.184	3473
909.3	3378
909.415	3500
909.531	3477
909.647	3260
909.762	3294
909.878	3256
909.993	3374
910.108	3287
910.224	3329
910.339	3431
910.454	3321
910.57	3313
910.685	3230
910.8	3599
910.915	3542
911.03	3424
911.145	3260
911.259	3264
911.374	3359
911.489	3268
911.604	3203
911.718	3123
911.833	3169
911.947	3028
912.062	2975
912.176	3123
912.291	3173
912.405	3249
912.519	3389
912.633	3443
912.748	3336
912.862	3317
912.976	3146
913.09	3093
913.204	3142
913.318	3214
913.431	3336
913.545	3310
913.659	3393
913.772	3351
913.886	3211
914	3214
914.113	3378
914.226	3370
914.34	3370
914.453	3218
914.566	3382
914.68	3272
914.793	3329
914.906	3169
915.019	3112
915.132	3066
915.245	3161
915.358	3211
915.47	3241
915.583	3233
915.696	3275
915.809	3401
915.921	3439
916.034	3268
916.146	3275
916.259	3249
916.371	3363
916.483	3363
916.595	3237
916.708	3378
916.82	3321
916.932	3363
917.044	3344
917.156	3363
917.268	3256
917.38	3306
917.491	3325
917.603	3359
917.715	3473
917.826	3450
917.938	3363
918.049	3287
918.161	3454
918.272	3584
918.384	3587
918.495	3526
918.606	3386
918.717	3249
918.828	3409
918.939	3359
919.05	3325
919.161	3325
919.272	3169
919.383	3275
919.494	3481
919.604	3686
919.715	3504
919.826	3393
919.936	3481
920.047	3603
920.157	3526
920.267	3762
920.378	3618
920.488	3576
920.598	3743
920.708	3937
920.818	3842
920.928	3816
921.038	4013
921.148	3991
921.258	3698
921.368	3629
921.477	3610
921.587	3553
921.697	3469
921.806	3656
921.916	3492
922.025	3355
922.134	3317
922.244	3310
922.353	3397
922.462	3272
922.571	3230
922.68	3108
922.789	3062
922.898	3142
923.007	3081
923.116	3173
923.224	3173
923.333	3165
923.442	3108
923.55	3100
923.659	3169
923.767	3184
923.876	3146
923.984	3264
924.092	3127
924.201	3203
924.309	3195
924.417	3230
924.525	3169
924.633	3199
924.741	4036
924.849	3013
924.956	3272
925.064	3089
925.172	3028
925.279	3138
925.387	3192
925.494	3203
925.602	3344
925.709	3325
925.816	3142
925.924	3298
926.031	3382
926.138	3340
926.245	3332
926.352	3264
926.459	3393
926.566	3439
926.673	3298
926.779	3241
926.886	3272
926.993	3135
927.099	3123
927.206	3104
927.312	3093
927.419	3199
927.525	3188
927.631	3310
927.737	3127
927.843	3112
927.95	3028
928.056	3116
928.162	3176
928.267	3256
928.373	3743
928.479	3325
928.585	3062
928.69	3222
928.796	3260
928.901	3195
929.007	3039
929.112	3237
929.218	3195
929.323	3112
929.428	3146
929.533	3310
929.638	3127
929.743	3169
929.848	3272
929.953	3222
930.058	3135
930.163	3028
930.267	3058
930.372	3214
930.477	3013
930.581	3294
930.685	3169
930.79	3043
930.894	3089
930.998	3108
931.103	3241
931.207	2963
931.311	2971
931.415	2914
931.519	2811
931.623	2811
