Data from test_V78500241_1541.txt Node
Date: Fri Mar 25 16:25:52 CST 2022
User: usil
Spectrometer: V785-0024
Trigger mode: 0
Integration Time (sec): 4.000000E-1
Scans to average: 1
Nonlinearity correction enabled: false
Boxcar width: 0
Storing dark spectrum: false
XAxis mode: Wavelengths
Number of Pixels in Spectrum: 1024
>>>>>Begin Spectral Data<<<<<
801.071	2937
801.214	2998
801.356	2899
801.499	2929
801.641	2880
801.783	2925
801.926	3077
802.068	2956
802.211	3005
802.353	3100
802.496	2963
802.638	3020
802.78	3039
802.923	3074
803.065	3005
803.208	2918
803.35	2925
803.492	2937
803.635	2941
803.777	2762
803.919	2857
804.061	3207
804.204	2986
804.346	2906
804.488	2853
804.63	2982
804.773	2868
804.915	2906
805.057	3070
805.199	2929
805.341	3005
805.483	3001
805.626	2986
805.768	2963
805.91	3058
806.052	3108
806.194	3062
806.336	3192
806.478	3032
806.62	2925
806.762	2986
806.904	3085
807.046	3161
807.188	3024
807.33	2906
807.472	3024
807.614	2956
807.756	2982
807.898	2887
808.04	2925
808.182	3005
808.324	2948
808.465	2872
808.607	2887
808.749	2807
808.891	2838
809.033	3005
809.174	2922
809.316	2902
809.458	2883
809.6	2762
809.741	2758
809.883	2766
810.025	2838
810.166	2834
810.308	2811
810.45	2819
810.591	2777
810.733	2773
810.875	2815
811.016	2788
811.158	2766
811.299	2823
811.441	2941
811.582	2857
811.724	2819
811.865	2842
812.007	2899
812.148	2883
812.29	2899
812.431	2883
812.573	2941
812.714	2967
812.855	3039
812.997	3047
813.138	3104
813.279	2967
813.421	2971
813.562	2979
813.703	2868
813.845	2883
813.986	2758
814.127	2720
814.268	2834
814.41	2853
814.551	2807
814.692	2883
814.833	2830
814.974	2902
815.115	2914
815.256	2823
815.397	2804
815.539	2895
815.68	2804
815.821	2773
815.962	2944
816.103	2914
816.244	2891
816.385	2872
816.526	2975
816.666	2937
816.807	2743
816.948	2834
817.089	2876
817.23	2861
817.371	2773
817.512	2819
817.653	2887
817.793	2792
817.934	2864
818.075	2937
818.216	3005
818.356	2986
818.497	2887
818.638	2777
818.778	2796
818.919	2785
819.06	2739
819.2	2883
819.341	2792
819.481	2777
819.622	2933
819.762	3074
819.903	3020
820.043	2975
820.184	2876
820.324	2872
820.465	3020
820.605	3028
820.746	3047
820.886	2929
821.026	3127
821.167	3138
821.307	3241
821.447	3275
821.588	3222
821.728	3203
821.868	3195
822.008	3081
822.149	3116
822.289	3199
822.429	3112
822.569	3085
822.709	3161
822.849	3017
822.99	3043
823.13	3131
823.27	3218
823.41	3097
823.55	3093
823.69	3138
823.83	3154
823.97	3081
824.11	2994
824.25	2994
824.389	3089
824.529	3097
824.669	3036
824.809	3142
824.949	3218
825.089	3188
825.228	3154
825.368	3013
825.508	2948
825.648	2963
825.787	3001
825.927	3001
826.067	2982
826.206	2982
826.346	3028
826.485	3036
826.625	3112
826.765	3268
826.904	3230
827.044	3039
827.183	2963
827.323	2864
827.462	2990
827.601	2925
827.741	2937
827.88	2944
828.02	2857
828.159	2929
828.298	3062
828.437	3112
828.577	3028
828.716	3226
828.855	3123
828.994	2967
829.134	2864
829.273	2899
829.412	2922
829.551	2864
829.69	2918
829.829	2998
829.968	3169
830.107	3039
830.246	3032
830.385	2929
830.524	2887
830.663	2868
830.802	2762
830.941	2693
831.08	2667
831.219	2788
831.357	2792
831.496	2982
831.635	2758
831.774	2674
831.913	2659
832.051	2587
832.19	2610
832.329	2739
832.467	2564
832.606	2514
832.744	2629
832.883	2625
833.022	2640
833.16	2674
833.299	2697
833.437	2743
833.576	2720
833.714	2769
833.852	2781
833.991	2766
834.129	2872
834.267	2876
834.406	2807
834.544	2925
834.682	2914
834.821	2922
834.959	3100
835.097	2941
835.235	3081
835.373	3074
835.511	3066
835.65	2986
835.788	2971
835.926	2891
836.064	2849
836.202	2895
836.34	3116
836.478	3169
836.615	3081
836.753	3184
836.891	3203
837.029	3192
837.167	3146
837.305	3089
837.443	3066
837.58	2956
837.718	3146
837.856	3108
837.993	3043
838.131	3150
838.269	3157
838.406	3108
838.544	3127
838.681	2948
838.819	2922
838.956	2857
839.094	2842
839.231	2982
839.369	3055
839.506	3382
839.643	3233
839.781	3062
839.918	2990
840.055	3108
840.193	3093
840.33	3119
840.467	3100
840.604	3214
840.742	3431
840.879	3077
841.016	3077
841.153	3135
841.29	3355
841.427	3351
841.564	3306
841.701	3336
841.838	3222
841.975	3195
842.112	3272
842.249	3104
842.385	3085
842.522	3340
842.659	3097
842.796	3112
842.933	3116
843.069	3081
843.206	3039
843.343	3203
843.479	3123
843.616	3135
843.752	2933
843.889	2910
844.025	3119
844.162	2899
844.298	3119
844.435	2990
844.571	2956
844.708	3108
844.844	3241
844.98	3264
845.117	3260
845.253	3081
845.389	3047
845.525	3131
845.661	3150
845.798	3028
845.934	3157
846.07	3077
846.206	3237
846.342	3359
846.478	3222
846.614	3127
846.75	3066
846.886	3051
847.022	3249
847.158	3173
847.294	3233
847.429	3275
847.565	3291
847.701	3523
847.837	3058
847.972	3036
848.108	3207
848.244	3176
848.379	3020
848.515	2986
848.65	2960
848.786	3005
848.921	3051
849.057	3138
849.192	3173
849.328	3058
849.463	3173
849.598	3112
849.734	3055
849.869	2986
850.004	2956
850.14	3013
850.275	2941
850.41	2883
850.545	2914
850.68	2990
850.815	2990
850.95	3009
851.085	3256
851.22	3116
851.355	3058
851.49	2963
851.625	3062
851.76	3032
851.895	2963
852.03	2922
852.165	3070
852.299	3097
852.434	3184
852.569	3188
852.703	3211
852.838	3275
852.973	3310
853.107	3367
853.242	3165
853.376	3097
853.511	3020
853.645	3093
853.78	3283
853.914	3161
854.048	3146
854.183	3100
854.317	3142
854.451	3329
854.585	3176
854.72	3135
854.854	3192
854.988	3108
855.122	3119
855.256	2994
855.39	3131
855.524	3275
855.658	3211
855.792	3207
855.926	3218
856.06	3283
856.194	3256
856.327	3150
856.461	3100
856.595	3104
856.729	3119
856.862	3253
856.996	3176
857.13	3237
857.263	3253
857.397	3336
857.53	3146
857.664	3207
857.797	3256
857.931	3275
858.064	3165
858.197	3218
858.331	3173
858.464	3123
858.597	3058
858.731	3150
858.864	3161
858.997	3100
859.13	3165
859.263	3226
859.396	3207
859.529	3135
859.662	3089
859.795	3062
859.928	3150
860.061	3298
860.194	3306
860.327	3146
860.46	3142
860.592	3287
860.725	3272
860.858	3298
860.99	3127
861.123	3074
861.256	3104
861.388	3146
861.521	3991
861.653	3020
861.786	3013
861.918	3024
862.05	3104
862.183	3116
862.315	3180
862.447	3233
862.58	3119
862.712	2998
862.844	2895
862.976	3058
863.108	3009
863.24	3344
863.372	2944
863.504	2956
863.636	2971
863.768	3055
863.9	3043
864.032	2929
864.164	3001
864.296	3077
864.428	3112
864.559	3138
864.691	3138
864.823	3085
864.954	3066
865.086	3062
865.217	3001
865.349	3009
865.48	3024
865.612	3055
865.743	3157
865.875	3013
866.006	2952
866.137	3013
866.269	2956
866.4	2910
866.531	2975
866.662	2922
866.793	2902
866.924	2944
867.055	3009
867.186	2971
867.317	2876
867.448	2876
867.579	2868
867.71	2868
867.841	2895
867.972	2914
868.103	2933
868.233	2887
868.364	2876
868.495	2925
868.625	3077
868.756	3226
868.886	2998
869.017	3055
869.147	3184
869.278	3207
869.408	3051
869.539	3028
869.669	3104
869.799	3089
869.929	3165
870.06	3112
870.19	3321
870.32	3302
870.45	3298
870.58	3397
870.71	3526
870.84	3500
870.97	3325
871.1	3294
871.23	3511
871.36	3466
871.489	3374
871.619	3405
871.749	3450
871.879	3469
872.008	3504
872.138	3374
872.267	3291
872.397	3165
872.526	3116
872.656	3020
872.785	3097
872.915	3256
873.044	3367
873.173	3233
873.303	3268
873.432	3245
873.561	3268
873.69	3207
873.819	3135
873.948	3211
874.077	3123
874.206	3074
874.335	3104
874.464	3260
874.593	3355
874.722	3275
874.851	3397
874.979	3367
875.108	3363
875.237	3199
875.365	3180
875.494	3180
875.623	3237
875.751	3100
875.88	3161
876.008	3173
876.136	3256
876.265	3367
876.393	3507
876.521	3412
876.65	3428
876.778	3329
876.906	3256
877.034	3245
877.162	3237
877.29	3188
877.418	3272
877.546	3237
877.674	3291
877.802	3260
877.93	3230
878.058	3161
878.185	3157
878.313	3237
878.441	3230
878.568	3085
878.696	3218
878.824	3283
878.951	3298
879.079	3477
879.206	3637
879.333	3458
879.461	3313
879.588	3420
879.715	3492
879.842	3637
879.97	3409
880.097	3203
880.224	3161
880.351	3199
880.478	3249
880.605	3211
880.732	3211
880.859	3534
880.986	3306
881.112	3329
881.239	3222
881.366	3074
881.493	3028
881.619	3043
881.746	3085
881.872	3116
881.999	3100
882.125	3169
882.252	3256
882.378	3310
882.505	3488
882.631	3306
882.757	3157
882.883	3207
883.01	3272
883.136	3192
883.262	3138
883.388	3093
883.514	3340
883.64	3409
883.766	3344
883.892	3226
884.018	3264
884.143	3412
884.269	3618
884.395	3245
884.52	3165
884.646	3207
884.772	3127
884.897	3081
885.023	3237
885.148	3393
885.274	3397
885.399	3412
885.524	3291
885.65	3291
885.775	3351
885.9	3317
886.025	3462
886.15	3348
886.275	3317
886.4	3245
886.525	3336
886.65	3298
886.775	3287
886.9	3507
887.025	3614
887.149	3439
887.274	3256
887.399	3233
887.523	3203
887.648	3241
887.773	3226
887.897	3409
888.021	3424
888.146	3298
888.27	3488
888.395	3519
888.519	3431
888.643	3473
888.767	3435
888.891	3329
889.015	3249
889.139	3348
889.263	3253
889.387	3454
889.511	3538
889.635	3454
889.759	3321
889.883	3298
890.006	3409
890.13	3511
890.254	3294
890.377	3351
890.501	3253
890.624	3188
890.748	3294
890.871	3184
890.995	3142
891.118	3062
891.241	3184
891.364	3241
891.488	3321
891.611	3180
891.734	3237
891.857	3310
891.98	3245
892.103	3344
892.226	3291
892.349	3291
892.471	3116
892.594	3218
892.717	3306
892.839	3275
892.962	3268
893.085	3389
893.207	3332
893.33	3135
893.452	3230
893.575	3363
893.697	3306
893.819	3492
893.941	3538
894.064	3485
894.186	3279
894.308	3306
894.43	3405
894.552	3549
894.674	3504
894.796	3279
894.918	3336
895.04	3264
895.161	3435
895.283	3382
895.405	3313
895.526	3389
895.648	3420
895.769	3450
895.891	3435
896.012	3481
896.134	3462
896.255	3412
896.376	3386
896.498	3367
896.619	3409
896.74	3386
896.861	3416
896.982	3698
897.103	3850
897.224	3625
897.345	3530
897.466	3428
897.587	3538
897.708	3629
897.828	3549
897.949	3454
898.07	3359
898.19	3431
898.311	3629
898.431	3488
898.552	3553
898.672	3584
898.792	3561
898.913	3553
899.033	3443
899.153	3294
899.273	3226
899.393	3306
899.513	3329
899.633	3302
899.753	3348
899.873	3302
899.993	3348
900.113	3359
900.232	3382
900.352	3351
900.472	3317
900.591	3218
900.711	3317
900.83	3279
900.95	3409
901.069	3507
901.189	3367
901.308	3192
901.427	3150
901.546	3188
901.665	3325
901.784	3348
901.904	3237
902.023	3192
902.141	3032
902.26	3017
902.379	3135
902.498	3074
902.617	3070
902.735	3272
902.854	3218
902.973	3237
903.091	3058
903.21	3066
903.328	3108
903.446	3116
903.565	3135
903.683	3222
903.801	3157
903.919	3241
904.038	3275
904.156	3214
904.274	3256
904.392	3249
904.51	3332
904.627	3355
904.745	3424
904.863	3542
904.981	3275
905.098	3207
905.216	3241
905.334	3294
905.451	3340
905.569	3313
905.686	3466
905.803	3462
905.921	3310
906.038	3428
906.155	3351
906.272	3264
906.389	3344
906.506	3222
906.623	3272
906.74	3313
906.857	3138
906.974	3253
907.091	3473
907.208	3542
907.324	3496
907.441	3401
907.557	3256
907.674	3275
907.79	3241
907.907	3321
908.023	3382
908.139	3393
908.256	3397
908.372	3332
908.488	3370
908.604	3279
908.72	3214
908.836	3294
908.952	3283
909.068	3348
909.184	3523
909.3	3416
909.415	3485
909.531	3492
909.647	3317
909.762	3332
909.878	3294
909.993	3363
910.108	3306
910.224	3386
910.339	3409
910.454	3298
910.57	3268
910.685	3268
910.8	3599
910.915	3549
911.03	3450
911.145	3253
911.259	3272
911.374	3317
911.489	3260
911.604	3233
911.718	3112
911.833	3131
911.947	3058
912.062	2979
912.176	3176
912.291	3188
912.405	3214
912.519	3405
912.633	3485
912.748	3336
912.862	3264
912.976	3184
913.09	3074
913.204	3131
913.318	3245
913.431	3332
913.545	3340
913.659	3397
913.772	3351
913.886	3233
914	3245
914.113	3389
914.226	3424
914.34	3348
914.453	3233
914.566	3412
914.68	3329
914.793	3275
914.906	3135
915.019	3081
915.132	3066
915.245	3176
915.358	3272
915.47	3218
915.583	3283
915.696	3287
915.809	3405
915.921	3435
916.034	3253
916.146	3287
916.259	3214
916.371	3397
916.483	3397
916.595	3256
916.708	3340
916.82	3351
916.932	3317
917.044	3393
917.156	3344
917.268	3317
917.38	3351
917.491	3329
917.603	3416
917.715	3447
917.826	3454
917.938	3359
918.049	3310
918.161	3447
918.272	3568
918.384	3584
918.495	3507
918.606	3332
918.717	3287
918.828	3389
918.939	3420
919.05	3370
919.161	3416
919.272	3214
919.383	3302
919.494	3473
919.604	3675
919.715	3496
919.826	3443
919.936	3481
920.047	3591
920.157	3587
920.267	3781
920.378	3599
920.488	3599
920.598	3789
920.708	3979
920.818	3865
920.928	3827
921.038	4032
921.148	3968
921.258	3724
921.368	3629
921.477	3572
921.587	3511
921.697	3492
921.806	3648
921.916	3534
922.025	3401
922.134	3351
922.244	3287
922.353	3443
922.462	3245
922.571	3226
922.68	3108
922.789	3097
922.898	3135
923.007	3108
923.116	3222
923.224	3180
923.333	3180
923.442	3150
923.55	3100
923.659	3161
923.767	3230
923.876	3119
923.984	3268
924.092	3131
924.201	3169
924.309	3249
924.417	3272
924.525	3192
924.633	3203
924.741	4177
924.849	3051
924.956	3256
925.064	3085
925.172	3043
925.279	3127
925.387	3192
925.494	3245
925.602	3348
925.709	3336
925.816	3169
925.924	3310
926.031	3348
926.138	3302
926.245	3344
926.352	3230
926.459	3389
926.566	3466
926.673	3298
926.779	3237
926.886	3260
926.993	3131
927.099	3108
927.206	3142
927.312	3119
927.419	3256
927.525	3199
927.631	3287
927.737	3165
927.843	3119
927.95	3093
928.056	3150
928.162	3188
928.267	3249
928.373	3740
928.479	3313
928.585	3062
928.69	3173
928.796	3306
928.901	3108
929.007	3085
929.112	3180
929.218	3195
929.323	3135
929.428	3127
929.533	3298
929.638	3123
929.743	3173
929.848	3283
929.953	3226
930.058	3157
930.163	3005
930.267	3055
930.372	3207
930.477	3020
930.581	3283
930.685	3165
930.79	3009
930.894	3127
930.998	3108
931.103	3302
931.207	2906
931.311	2937
931.415	2922
931.519	2773
931.623	2838
