Data from test_V78500241_425.txt Node
Date: Fri Mar 25 16:18:08 CST 2022
User: usil
Spectrometer: V785-0024
Trigger mode: 0
Integration Time (sec): 4.000000E-1
Scans to average: 1
Nonlinearity correction enabled: false
Boxcar width: 0
Storing dark spectrum: false
XAxis mode: Wavelengths
Number of Pixels in Spectrum: 1024
>>>>>Begin Spectral Data<<<<<
801.071	2899
801.214	2902
801.356	2864
801.499	2868
801.641	2876
801.783	2902
801.926	3066
802.068	2986
802.211	2975
802.353	3001
802.496	2948
802.638	3005
802.78	3081
802.923	3047
803.065	3005
803.208	2941
803.35	2941
803.492	2918
803.635	2922
803.777	2800
803.919	2872
804.061	3169
804.204	2979
804.346	2910
804.488	2826
804.63	2982
804.773	2899
804.915	2902
805.057	3089
805.199	2929
805.341	2963
805.483	3039
805.626	2971
805.768	2952
805.91	3085
806.052	3093
806.194	3043
806.336	3211
806.478	3009
806.62	2941
806.762	2975
806.904	3036
807.046	3154
807.188	3009
807.33	2922
807.472	2956
807.614	2918
807.756	2986
807.898	2929
808.04	2902
808.182	2986
808.324	2910
808.465	2891
808.607	2830
808.749	2785
808.891	2861
809.033	2971
809.174	2956
809.316	2891
809.458	2876
809.6	2785
809.741	2788
809.883	2804
810.025	2845
810.166	2872
810.308	2819
810.45	2887
810.591	2750
810.733	2766
810.875	2826
811.016	2792
811.158	2750
811.299	2800
811.441	2960
811.582	2906
811.724	2842
811.865	2819
812.007	2906
812.148	2853
812.29	2838
812.431	2880
812.573	2899
812.714	2963
812.855	3036
812.997	3032
813.138	3131
813.279	3047
813.421	2967
813.562	2933
813.703	2902
813.845	2899
813.986	2777
814.127	2739
814.268	2864
814.41	2845
814.551	2857
814.692	2883
814.833	2811
814.974	2861
815.115	2971
815.256	2830
815.397	2834
815.539	2823
815.68	2739
815.821	2807
815.962	2922
816.103	2891
816.244	2849
816.385	2849
816.526	3020
816.666	2902
816.807	2739
816.948	2918
817.089	2929
817.23	2883
817.371	2804
817.512	2792
817.653	2849
817.793	2826
817.934	2887
818.075	2960
818.216	2982
818.356	3009
818.497	2899
818.638	2773
818.778	2811
818.919	2769
819.06	2750
819.2	2910
819.341	2788
819.481	2781
819.622	2899
819.762	3100
819.903	3036
820.043	2922
820.184	2922
820.324	2910
820.465	3005
820.605	3009
820.746	3009
820.886	2906
821.026	3104
821.167	3123
821.307	3241
821.447	3275
821.588	3214
821.728	3192
821.868	3192
822.008	3089
822.149	3161
822.289	3214
822.429	3062
822.569	3055
822.709	3169
822.849	3070
822.99	3089
823.13	3146
823.27	3230
823.41	3074
823.55	3150
823.69	3146
823.83	3142
823.97	3066
824.11	3005
824.25	2994
824.389	3062
824.529	3074
824.669	3066
824.809	3180
824.949	3245
825.089	3222
825.228	3165
825.368	3009
825.508	2902
825.648	2967
825.787	3039
825.927	3009
826.067	2982
826.206	2937
826.346	3055
826.485	3058
826.625	3081
826.765	3294
826.904	3157
827.044	2948
827.183	2948
827.323	2864
827.462	3017
827.601	2906
827.741	2899
827.88	2944
828.02	2883
828.159	2971
828.298	3043
828.437	3081
828.577	3020
828.716	3195
828.855	3058
828.994	2918
829.134	2872
829.273	2910
829.412	2876
829.551	2834
829.69	2857
829.829	2975
829.968	3119
830.107	2986
830.246	3017
830.385	2937
830.524	2834
830.663	2834
830.802	2724
830.941	2670
831.08	2613
831.219	2754
831.357	2720
831.496	2948
831.635	2720
831.774	2667
831.913	2667
832.051	2549
832.19	2571
832.329	2674
832.467	2507
832.606	2461
832.744	2568
832.883	2598
833.022	2583
833.16	2648
833.299	2693
833.437	2663
833.576	2689
833.714	2678
833.852	2724
833.991	2727
834.129	2807
834.267	2796
834.406	2777
834.544	2811
834.682	2876
834.821	2842
834.959	3077
835.097	2853
835.235	3036
835.373	2963
835.511	2990
835.65	2952
835.788	2948
835.926	2804
836.064	2788
836.202	2838
836.34	3074
836.478	3131
836.615	3028
836.753	3119
836.891	3188
837.029	3146
837.167	3074
837.305	3043
837.443	3058
837.58	2963
837.718	3157
837.856	3070
837.993	2986
838.131	3127
838.269	3116
838.406	3097
838.544	3077
838.681	2941
838.819	2933
838.956	2781
839.094	2807
839.231	2918
839.369	3047
839.506	3351
839.643	3203
839.781	3039
839.918	2941
840.055	3039
840.193	3051
840.33	3089
840.467	3119
840.604	3119
840.742	3424
840.879	3062
841.016	3047
841.153	3085
841.29	3344
841.427	3256
841.564	3275
841.701	3313
841.838	3157
841.975	3150
842.112	3207
842.249	3097
842.385	3013
842.522	3218
842.659	3093
842.796	3058
842.933	3093
843.069	3097
843.206	3051
843.343	3154
843.479	3112
843.616	3127
843.752	2906
843.889	2845
844.025	3066
844.162	2853
844.298	3058
844.435	2937
844.571	2861
844.708	3074
844.844	3169
844.98	3272
845.117	3169
845.253	3028
845.389	2994
845.525	3116
845.661	3066
845.798	2990
845.934	3123
846.07	3081
846.206	3218
846.342	3302
846.478	3218
846.614	3077
846.75	3089
846.886	3043
847.022	3230
847.158	3119
847.294	3214
847.429	3237
847.565	3226
847.701	3485
847.837	3028
847.972	3028
848.108	3154
848.244	3123
848.379	3001
848.515	2929
848.65	2910
848.786	2971
848.921	3043
849.057	3081
849.192	3089
849.328	3051
849.463	3093
849.598	3085
849.734	2971
849.869	2963
850.004	2910
850.14	2944
850.275	2891
850.41	2826
850.545	2883
850.68	2925
850.815	2944
850.95	2998
851.085	3211
851.22	3123
851.355	3017
851.49	3009
851.625	2979
851.76	3039
851.895	2941
852.03	2914
852.165	3066
852.299	3104
852.434	3154
852.569	3169
852.703	3161
852.838	3237
852.973	3298
853.107	3317
853.242	3119
853.376	3058
853.511	2963
853.645	3032
853.78	3203
853.914	3100
854.048	3157
854.183	3081
854.317	3161
854.451	3275
854.585	3146
854.72	3066
854.854	3188
854.988	3024
855.122	3058
855.256	2971
855.39	3112
855.524	3245
855.658	3169
855.792	3127
855.926	3176
856.06	3203
856.194	3233
856.327	3173
856.461	3062
856.595	3077
856.729	3070
856.862	3214
856.996	3116
857.13	3184
857.263	3230
857.397	3260
857.53	3142
857.664	3180
857.797	3241
857.931	3268
858.064	3184
858.197	3199
858.331	3112
858.464	3097
858.597	2967
858.731	3131
858.864	3119
858.997	3108
859.13	3127
859.263	3165
859.396	3214
859.529	3070
859.662	3062
859.795	3051
859.928	3119
860.061	3306
860.194	3226
860.327	3116
860.46	3070
860.592	3233
860.725	3268
860.858	3283
860.99	3116
861.123	3112
861.256	3017
861.388	3135
861.521	3930
861.653	2998
861.786	3009
861.918	2994
862.05	3051
862.183	3104
862.315	3112
862.447	3211
862.58	3093
862.712	2937
862.844	2880
862.976	2994
863.108	3009
863.24	3310
863.372	2868
863.504	2944
863.636	2948
863.768	3024
863.9	2990
864.032	2902
864.164	2960
864.296	3013
864.428	3036
864.559	3093
864.691	3036
864.823	3066
864.954	3036
865.086	3047
865.217	2971
865.349	2929
865.48	2960
865.612	3028
865.743	3165
865.875	2967
866.006	2944
866.137	2929
866.269	2899
866.4	2899
866.531	2895
866.662	2883
866.793	2861
866.924	2933
867.055	2963
867.186	2891
867.317	2902
867.448	2861
867.579	2876
867.71	2845
867.841	2807
867.972	2876
868.103	2960
868.233	2906
868.364	2872
868.495	2880
868.625	3093
868.756	3203
868.886	2948
869.017	3020
869.147	3135
869.278	3142
869.408	3009
869.539	3017
869.669	3081
869.799	3036
869.929	3142
870.06	3104
870.19	3310
870.32	3226
870.45	3306
870.58	3386
870.71	3454
870.84	3416
870.97	3272
871.1	3249
871.23	3454
871.36	3469
871.489	3344
871.619	3359
871.749	3389
871.879	3397
872.008	3485
872.138	3321
872.267	3287
872.397	3104
872.526	3081
872.656	3009
872.785	3085
872.915	3249
873.044	3313
873.173	3173
873.303	3272
873.432	3283
873.561	3218
873.69	3154
873.819	3108
873.948	3176
874.077	3146
874.206	3020
874.335	3055
874.464	3195
874.593	3344
874.722	3253
874.851	3386
874.979	3351
875.108	3302
875.237	3199
875.365	3195
875.494	3169
875.623	3230
875.751	3062
875.88	3081
876.008	3180
876.136	3233
876.265	3348
876.393	3530
876.521	3428
876.65	3386
876.778	3348
876.906	3226
877.034	3207
877.162	3245
877.29	3154
877.418	3275
877.546	3260
877.674	3237
877.802	3233
877.93	3199
878.058	3135
878.185	3081
878.313	3169
878.441	3173
878.568	3074
878.696	3112
878.824	3245
878.951	3275
879.079	3488
879.206	3633
879.333	3420
879.461	3344
879.588	3370
879.715	3511
879.842	3553
879.97	3344
880.097	3157
880.224	3138
880.351	3195
880.478	3207
880.605	3176
880.732	3157
880.859	3477
880.986	3302
881.112	3287
881.239	3211
881.366	3074
881.493	3028
881.619	3009
881.746	3058
881.872	3074
881.999	3116
882.125	3135
882.252	3222
882.378	3298
882.505	3447
882.631	3275
882.757	3165
882.883	3188
883.01	3218
883.136	3154
883.262	3062
883.388	3131
883.514	3348
883.64	3397
883.766	3310
883.892	3176
884.018	3230
884.143	3416
884.269	3530
884.395	3188
884.52	3173
884.646	3150
884.772	3112
884.897	3112
885.023	3192
885.148	3321
885.274	3420
885.399	3336
885.524	3268
885.65	3249
885.775	3332
885.9	3287
886.025	3389
886.15	3397
886.275	3302
886.4	3218
886.525	3294
886.65	3279
886.775	3256
886.9	3477
887.025	3641
887.149	3401
887.274	3256
887.399	3176
887.523	3211
887.648	3203
887.773	3188
887.897	3351
888.021	3405
888.146	3336
888.27	3393
888.395	3515
888.519	3405
888.643	3416
888.767	3454
888.891	3279
889.015	3260
889.139	3264
889.263	3237
889.387	3367
889.511	3488
889.635	3443
889.759	3313
889.883	3291
890.006	3367
890.13	3454
890.254	3287
890.377	3317
890.501	3195
890.624	3150
890.748	3287
890.871	3192
890.995	3093
891.118	3043
891.241	3180
891.364	3226
891.488	3302
891.611	3176
891.734	3249
891.857	3287
891.98	3264
892.103	3351
892.226	3287
892.349	3203
892.471	3093
892.594	3268
892.717	3294
892.839	3306
892.962	3294
893.085	3393
893.207	3283
893.33	3169
893.452	3184
893.575	3355
893.697	3218
893.819	3504
893.941	3515
894.064	3443
894.186	3268
894.308	3260
894.43	3447
894.552	3545
894.674	3469
894.796	3302
894.918	3329
895.04	3294
895.161	3454
895.283	3397
895.405	3306
895.526	3363
895.648	3382
895.769	3374
895.891	3428
896.012	3450
896.134	3466
896.255	3424
896.376	3405
896.498	3359
896.619	3420
896.74	3351
896.861	3431
896.982	3660
897.103	3861
897.224	3576
897.345	3507
897.466	3409
897.587	3485
897.708	3637
897.828	3526
897.949	3462
898.07	3313
898.19	3397
898.311	3595
898.431	3435
898.552	3500
898.672	3572
898.792	3572
898.913	3542
899.033	3420
899.153	3321
899.273	3211
899.393	3283
899.513	3302
899.633	3306
899.753	3313
899.873	3302
899.993	3348
900.113	3336
900.232	3355
900.352	3306
900.472	3283
900.591	3207
900.711	3310
900.83	3249
900.95	3397
901.069	3526
901.189	3340
901.308	3131
901.427	3127
901.546	3203
901.665	3283
901.784	3325
901.904	3192
902.023	3116
902.141	2994
902.26	2960
902.379	3150
902.498	3051
902.617	3070
902.735	3192
902.854	3241
902.973	3161
903.091	3009
903.21	3055
903.328	3135
903.446	3108
903.565	3119
903.683	3222
903.801	3116
903.919	3249
904.038	3298
904.156	3157
904.274	3279
904.392	3245
904.51	3264
904.627	3332
904.745	3447
904.863	3492
904.981	3233
905.098	3176
905.216	3237
905.334	3310
905.451	3332
905.569	3317
905.686	3378
905.803	3416
905.921	3302
906.038	3397
906.155	3325
906.272	3275
906.389	3336
906.506	3233
906.623	3264
906.74	3226
906.857	3176
906.974	3207
907.091	3389
907.208	3572
907.324	3462
907.441	3355
907.557	3211
907.674	3233
907.79	3226
907.907	3253
908.023	3393
908.139	3382
908.256	3344
908.372	3329
908.488	3355
908.604	3256
908.72	3256
908.836	3283
908.952	3294
909.068	3310
909.184	3473
909.3	3386
909.415	3492
909.531	3485
909.647	3230
909.762	3332
909.878	3260
909.993	3340
910.108	3351
910.224	3344
910.339	3416
910.454	3321
910.57	3306
910.685	3245
910.8	3591
910.915	3591
911.03	3370
911.145	3302
911.259	3260
911.374	3279
911.489	3245
911.604	3218
911.718	3089
911.833	3150
911.947	3039
912.062	2975
912.176	3169
912.291	3192
912.405	3253
912.519	3382
912.633	3492
912.748	3306
912.862	3310
912.976	3146
913.09	3047
913.204	3146
913.318	3188
913.431	3348
913.545	3306
913.659	3424
913.772	3325
913.886	3207
914	3161
914.113	3355
914.226	3450
914.34	3393
914.453	3188
914.566	3389
914.68	3279
914.793	3279
914.906	3123
915.019	3161
915.132	3058
915.245	3176
915.358	3192
915.47	3195
915.583	3264
915.696	3340
915.809	3389
915.921	3405
916.034	3245
916.146	3264
916.259	3199
916.371	3370
916.483	3340
916.595	3283
916.708	3329
916.82	3329
916.932	3332
917.044	3344
917.156	3355
917.268	3310
917.38	3313
917.491	3302
917.603	3370
917.715	3458
917.826	3454
917.938	3367
918.049	3256
918.161	3443
918.272	3599
918.384	3545
918.495	3481
918.606	3325
918.717	3272
918.828	3332
918.939	3389
919.05	3275
919.161	3397
919.272	3165
919.383	3256
919.494	3458
919.604	3705
919.715	3477
919.826	3401
919.936	3435
920.047	3595
920.157	3549
920.267	3766
920.378	3614
920.488	3576
920.598	3747
920.708	3956
920.818	3816
920.928	3857
921.038	4032
921.148	3960
921.258	3728
921.368	3610
921.477	3572
921.587	3511
921.697	3477
921.806	3637
921.916	3526
922.025	3367
922.134	3370
922.244	3306
922.353	3409
922.462	3256
922.571	3211
922.68	3116
922.789	3074
922.898	3138
923.007	3089
923.116	3226
923.224	3150
923.333	3222
923.442	3108
923.55	3085
923.659	3108
923.767	3207
923.876	3093
923.984	3211
924.092	3074
924.201	3188
924.309	3184
924.417	3245
924.525	3195
924.633	3222
924.741	4169
924.849	3024
924.956	3245
925.064	3104
925.172	3043
925.279	3085
925.387	3203
925.494	3146
925.602	3332
925.709	3348
925.816	3192
925.924	3291
926.031	3424
926.138	3294
926.245	3336
926.352	3237
926.459	3424
926.566	3458
926.673	3306
926.779	3260
926.886	3253
926.993	3150
927.099	3142
927.206	3116
927.312	3138
927.419	3218
927.525	3226
927.631	3249
927.737	3135
927.843	3119
927.95	3051
928.056	3123
928.162	3154
928.267	3253
928.373	3876
928.479	3302
928.585	3051
928.69	3230
928.796	3260
928.901	3150
929.007	3074
929.112	3199
929.218	3135
929.323	3184
929.428	3131
929.533	3249
929.638	3097
929.743	3188
929.848	3188
929.953	3199
930.058	3127
930.163	2967
930.267	3001
930.372	3199
930.477	3032
930.581	3302
930.685	3161
930.79	3058
930.894	3112
930.998	3077
931.103	3283
931.207	2960
931.311	2937
931.415	2914
931.519	2762
931.623	2819
