Data from test_V78500241_645.txt Node
Date: Fri Mar 25 16:19:40 CST 2022
User: usil
Spectrometer: V785-0024
Trigger mode: 0
Integration Time (sec): 4.000000E-1
Scans to average: 1
Nonlinearity correction enabled: false
Boxcar width: 0
Storing dark spectrum: false
XAxis mode: Wavelengths
Number of Pixels in Spectrum: 1024
>>>>>Begin Spectral Data<<<<<
801.071	2944
801.214	2975
801.356	2899
801.499	2906
801.641	2883
801.783	2933
801.926	3070
802.068	2971
802.211	2982
802.353	3047
802.496	3013
802.638	2990
802.78	3039
802.923	3051
803.065	3013
803.208	2906
803.35	2906
803.492	2956
803.635	2956
803.777	2785
803.919	2838
804.061	3211
804.204	2944
804.346	2883
804.488	2880
804.63	2975
804.773	2868
804.915	2906
805.057	3074
805.199	2902
805.341	2990
805.483	3013
805.626	2982
805.768	2956
805.91	3119
806.052	3123
806.194	3032
806.336	3214
806.478	3028
806.62	2941
806.762	2956
806.904	3024
807.046	3146
807.188	2963
807.33	2891
807.472	2963
807.614	2922
807.756	3005
807.898	2868
808.04	2876
808.182	2998
808.324	2929
808.465	2842
808.607	2868
808.749	2804
808.891	2842
809.033	2967
809.174	2967
809.316	2876
809.458	2880
809.6	2762
809.741	2796
809.883	2754
810.025	2864
810.166	2891
810.308	2830
810.45	2887
810.591	2830
810.733	2777
810.875	2807
811.016	2796
811.158	2777
811.299	2804
811.441	2910
811.582	2891
811.724	2834
811.865	2842
812.007	2910
812.148	2880
812.29	2845
812.431	2883
812.573	2948
812.714	2982
812.855	3017
812.997	3032
813.138	3131
813.279	3028
813.421	3001
813.562	2952
813.703	2861
813.845	2910
813.986	2743
814.127	2754
814.268	2826
814.41	2845
814.551	2830
814.692	2883
814.833	2792
814.974	2883
815.115	2933
815.256	2834
815.397	2815
815.539	2830
815.68	2804
815.821	2750
815.962	2937
816.103	2937
816.244	2853
816.385	2861
816.526	2971
816.666	2944
816.807	2750
816.948	2895
817.089	2902
817.23	2853
817.371	2800
817.512	2785
817.653	2861
817.793	2864
817.934	2891
818.075	2960
818.216	2971
818.356	3009
818.497	2845
818.638	2762
818.778	2823
818.919	2788
819.06	2746
819.2	2864
819.341	2788
819.481	2762
819.622	2944
819.762	3123
819.903	3024
820.043	2960
820.184	2899
820.324	2910
820.465	2990
820.605	3047
820.746	3043
820.886	2899
821.026	3142
821.167	3157
821.307	3241
821.447	3298
821.588	3237
821.728	3237
821.868	3199
822.008	3051
822.149	3188
822.289	3230
822.429	3070
822.569	3066
822.709	3203
822.849	2982
822.99	3081
823.13	3169
823.27	3214
823.41	3081
823.55	3161
823.69	3150
823.83	3195
823.97	3176
824.11	2990
824.25	2986
824.389	3074
824.529	3100
824.669	3039
824.809	3237
824.949	3253
825.089	3211
825.228	3142
825.368	2990
825.508	2986
825.648	2990
825.787	2998
825.927	3020
826.067	2975
826.206	2998
826.346	3085
826.485	3100
826.625	3169
826.765	3249
826.904	3226
827.044	3001
827.183	2963
827.323	2910
827.462	3009
827.601	2918
827.741	2937
827.88	2956
828.02	2868
828.159	2994
828.298	3112
828.437	3135
828.577	3047
828.716	3279
828.855	3097
828.994	2941
829.134	2925
829.273	2975
829.412	2922
829.551	2906
829.69	2918
829.829	3039
829.968	3180
830.107	3039
830.246	3066
830.385	2975
830.524	2914
830.663	2853
830.802	2796
830.941	2727
831.08	2731
831.219	2762
831.357	2788
831.496	2998
831.635	2750
831.774	2731
831.913	2705
832.051	2564
832.19	2625
832.329	2712
832.467	2560
832.606	2545
832.744	2644
832.883	2663
833.022	2632
833.16	2693
833.299	2701
833.437	2720
833.576	2720
833.714	2735
833.852	2766
833.991	2773
834.129	2872
834.267	2880
834.406	2861
834.544	2952
834.682	2906
834.821	2887
834.959	3085
835.097	2952
835.235	3104
835.373	3032
835.511	3062
835.65	2998
835.788	3039
835.926	2887
836.064	2834
836.202	2864
836.34	3154
836.478	3173
836.615	3077
836.753	3192
836.891	3237
837.029	3207
837.167	3184
837.305	3066
837.443	3077
837.58	2963
837.718	3146
837.856	3074
837.993	3055
838.131	3161
838.269	3123
838.406	3104
838.544	3112
838.681	2952
838.819	2944
838.956	2880
839.094	2872
839.231	2948
839.369	3005
839.506	3401
839.643	3313
839.781	3043
839.918	2986
840.055	3119
840.193	3108
840.33	3100
840.467	3161
840.604	3157
840.742	3428
840.879	3074
841.016	3077
841.153	3169
841.29	3370
841.427	3348
841.564	3302
841.701	3336
841.838	3230
841.975	3161
842.112	3249
842.249	3119
842.385	3100
842.522	3294
842.659	3104
842.796	3100
842.933	3127
843.069	3062
843.206	3085
843.343	3195
843.479	3188
843.616	3180
843.752	2941
843.889	2906
844.025	3104
844.162	2948
844.298	3097
844.435	2948
844.571	2933
844.708	3119
844.844	3218
844.98	3233
845.117	3253
845.253	3055
845.389	3024
845.525	3116
845.661	3116
845.798	3047
845.934	3150
846.07	3077
846.206	3283
846.342	3340
846.478	3256
846.614	3131
846.75	3081
846.886	3062
847.022	3283
847.158	3176
847.294	3218
847.429	3268
847.565	3237
847.701	3523
847.837	3081
847.972	3047
848.108	3195
848.244	3173
848.379	3028
848.515	2982
848.65	2941
848.786	2998
848.921	3043
849.057	3097
849.192	3154
849.328	3127
849.463	3116
849.598	3100
849.734	3051
849.869	2982
850.004	2960
850.14	2982
850.275	2929
850.41	2857
850.545	2895
850.68	2963
850.815	2979
850.95	2952
851.085	3203
851.22	3135
851.355	3062
851.49	3043
851.625	3047
851.76	3058
851.895	2956
852.03	2902
852.165	3081
852.299	3131
852.434	3192
852.569	3173
852.703	3165
852.838	3264
852.973	3344
853.107	3389
853.242	3207
853.376	3142
853.511	3009
853.645	3051
853.78	3226
853.914	3150
854.048	3195
854.183	3089
854.317	3154
854.451	3321
854.585	3119
854.72	3097
854.854	3222
854.988	3055
855.122	3123
855.256	3055
855.39	3161
855.524	3272
855.658	3211
855.792	3169
855.926	3207
856.06	3264
856.194	3272
856.327	3173
856.461	3104
856.595	3100
856.729	3108
856.862	3287
856.996	3199
857.13	3226
857.263	3291
857.397	3268
857.53	3138
857.664	3207
857.797	3256
857.931	3294
858.064	3222
858.197	3237
858.331	3150
858.464	3135
858.597	3051
858.731	3127
858.864	3138
858.997	3131
859.13	3173
859.263	3199
859.396	3226
859.529	3116
859.662	3081
859.795	3043
859.928	3161
860.061	3256
860.194	3279
860.327	3154
860.46	3146
860.592	3306
860.725	3302
860.858	3256
860.99	3119
861.123	3085
861.256	3051
861.388	3203
861.521	3964
861.653	3077
861.786	3020
861.918	3039
862.05	3104
862.183	3116
862.315	3192
862.447	3195
862.58	3085
862.712	2979
862.844	2883
862.976	3058
863.108	3043
863.24	3447
863.372	2899
863.504	3001
863.636	2982
863.768	3032
863.9	3001
864.032	2941
864.164	2952
864.296	3051
864.428	3074
864.559	3093
864.691	3093
864.823	3081
864.954	3062
865.086	3097
865.217	2994
865.349	2960
865.48	2990
865.612	3036
865.743	3150
865.875	2998
866.006	2929
866.137	3036
866.269	3005
866.4	2990
866.531	2952
866.662	2902
866.793	2906
866.924	2925
867.055	2975
867.186	2971
867.317	2895
867.448	2876
867.579	2906
867.71	2849
867.841	2838
867.972	2906
868.103	2906
868.233	2880
868.364	2922
868.495	2971
868.625	3108
868.756	3176
868.886	3005
869.017	3028
869.147	3157
869.278	3203
869.408	3077
869.539	3070
869.669	3112
869.799	3070
869.929	3157
870.06	3119
870.19	3401
870.32	3310
870.45	3310
870.58	3382
870.71	3466
870.84	3447
870.97	3325
871.1	3279
871.23	3530
871.36	3458
871.489	3370
871.619	3428
871.749	3454
871.879	3477
872.008	3492
872.138	3363
872.267	3302
872.397	3157
872.526	3127
872.656	3028
872.785	3089
872.915	3260
873.044	3329
873.173	3253
873.303	3260
873.432	3245
873.561	3249
873.69	3188
873.819	3188
873.948	3226
874.077	3138
874.206	3051
874.335	3036
874.464	3245
874.593	3348
874.722	3249
874.851	3420
874.979	3351
875.108	3317
875.237	3211
875.365	3180
875.494	3192
875.623	3245
875.751	3123
875.88	3180
876.008	3176
876.136	3272
876.265	3378
876.393	3545
876.521	3424
876.65	3439
876.778	3336
876.906	3253
877.034	3203
877.162	3260
877.29	3180
877.418	3283
877.546	3283
877.674	3241
877.802	3230
877.93	3237
878.058	3131
878.185	3154
878.313	3230
878.441	3222
878.568	3077
878.696	3165
878.824	3264
878.951	3355
879.079	3431
879.206	3637
879.333	3454
879.461	3348
879.588	3374
879.715	3515
879.842	3618
879.97	3389
880.097	3214
880.224	3119
880.351	3192
880.478	3272
880.605	3230
880.732	3226
880.859	3507
880.986	3321
881.112	3359
881.239	3188
881.366	3108
881.493	3089
881.619	3028
881.746	3085
881.872	3097
881.999	3138
882.125	3157
882.252	3249
882.378	3313
882.505	3458
882.631	3279
882.757	3176
882.883	3230
883.01	3253
883.136	3180
883.262	3070
883.388	3135
883.514	3325
883.64	3389
883.766	3325
883.892	3207
884.018	3245
884.143	3454
884.269	3587
884.395	3214
884.52	3192
884.646	3230
884.772	3142
884.897	3131
885.023	3245
885.148	3405
885.274	3443
885.399	3363
885.524	3302
885.65	3272
885.775	3340
885.9	3302
886.025	3458
886.15	3378
886.275	3325
886.4	3256
886.525	3302
886.65	3329
886.775	3287
886.9	3515
887.025	3637
887.149	3473
887.274	3264
887.399	3226
887.523	3230
887.648	3188
887.773	3230
887.897	3367
888.021	3386
888.146	3302
888.27	3466
888.395	3526
888.519	3431
888.643	3439
888.767	3466
888.891	3321
889.015	3298
889.139	3294
889.263	3253
889.387	3386
889.511	3538
889.635	3443
889.759	3310
889.883	3279
890.006	3367
890.13	3519
890.254	3287
890.377	3378
890.501	3211
890.624	3203
890.748	3332
890.871	3199
890.995	3119
891.118	3051
891.241	3222
891.364	3226
891.488	3317
891.611	3199
891.734	3218
891.857	3321
891.98	3233
892.103	3355
892.226	3310
892.349	3249
892.471	3165
892.594	3237
892.717	3306
892.839	3336
892.962	3317
893.085	3386
893.207	3332
893.33	3161
893.452	3207
893.575	3351
893.697	3268
893.819	3473
893.941	3488
894.064	3469
894.186	3268
894.308	3287
894.43	3439
894.552	3542
894.674	3439
894.796	3256
894.918	3321
895.04	3298
895.161	3439
895.283	3389
895.405	3302
895.526	3359
895.648	3481
895.769	3424
895.891	3492
896.012	3504
896.134	3507
896.255	3424
896.376	3435
896.498	3382
896.619	3428
896.74	3317
896.861	3378
896.982	3690
897.103	3823
897.224	3584
897.345	3549
897.466	3477
897.587	3504
897.708	3614
897.828	3545
897.949	3435
898.07	3370
898.19	3435
898.311	3591
898.431	3473
898.552	3496
898.672	3564
898.792	3606
898.913	3545
899.033	3450
899.153	3321
899.273	3218
899.393	3298
899.513	3302
899.633	3302
899.753	3302
899.873	3321
899.993	3367
900.113	3374
900.232	3412
900.352	3355
900.472	3306
900.591	3195
900.711	3313
900.83	3249
900.95	3397
901.069	3530
901.189	3374
901.308	3207
901.427	3116
901.546	3195
901.665	3340
901.784	3351
901.904	3241
902.023	3154
902.141	3032
902.26	3028
902.379	3142
902.498	3058
902.617	3051
902.735	3207
902.854	3253
902.973	3203
903.091	3043
903.21	3085
903.328	3165
903.446	3135
903.565	3123
903.683	3211
903.801	3127
903.919	3272
904.038	3264
904.156	3188
904.274	3306
904.392	3306
904.51	3310
904.627	3344
904.745	3473
904.863	3496
904.981	3253
905.098	3176
905.216	3275
905.334	3332
905.451	3302
905.569	3313
905.686	3469
905.803	3431
905.921	3260
906.038	3428
906.155	3348
906.272	3302
906.389	3359
906.506	3279
906.623	3249
906.74	3302
906.857	3214
906.974	3245
907.091	3450
907.208	3599
907.324	3473
907.441	3348
907.557	3260
907.674	3233
907.79	3203
907.907	3283
908.023	3382
908.139	3359
908.256	3351
908.372	3370
908.488	3336
908.604	3245
908.72	3237
908.836	3279
908.952	3283
909.068	3367
909.184	3492
909.3	3424
909.415	3523
909.531	3496
909.647	3245
909.762	3283
909.878	3294
909.993	3370
910.108	3332
910.224	3348
910.339	3401
910.454	3344
910.57	3260
910.685	3268
910.8	3584
910.915	3526
911.03	3447
911.145	3275
911.259	3260
911.374	3336
911.489	3203
911.604	3253
911.718	3112
911.833	3146
911.947	3066
912.062	2963
912.176	3161
912.291	3222
912.405	3222
912.519	3450
912.633	3485
912.748	3370
912.862	3275
912.976	3165
913.09	3062
913.204	3161
913.318	3203
913.431	3294
913.545	3367
913.659	3428
913.772	3332
913.886	3214
914	3207
914.113	3359
914.226	3435
914.34	3370
914.453	3256
914.566	3397
914.68	3302
914.793	3313
914.906	3150
915.019	3135
915.132	3112
915.245	3195
915.358	3211
915.47	3237
915.583	3291
915.696	3275
915.809	3443
915.921	3447
916.034	3256
916.146	3253
916.259	3253
916.371	3351
916.483	3386
916.595	3310
916.708	3374
916.82	3321
916.932	3332
917.044	3340
917.156	3321
917.268	3249
917.38	3317
917.491	3294
917.603	3374
917.715	3447
917.826	3454
917.938	3374
918.049	3298
918.161	3428
918.272	3576
918.384	3587
918.495	3481
918.606	3336
918.717	3279
918.828	3386
918.939	3401
919.05	3268
919.161	3374
919.272	3188
919.383	3291
919.494	3515
919.604	3709
919.715	3507
919.826	3416
919.936	3481
920.047	3603
920.157	3545
920.267	3774
920.378	3660
920.488	3587
920.598	3732
920.708	3934
920.818	3819
920.928	3800
921.038	3998
921.148	4010
921.258	3682
921.368	3637
921.477	3584
921.587	3564
921.697	3454
921.806	3660
921.916	3526
922.025	3359
922.134	3344
922.244	3336
922.353	3443
922.462	3260
922.571	3237
922.68	3104
922.789	3093
922.898	3154
923.007	3058
923.116	3222
923.224	3218
923.333	3150
923.442	3097
923.55	3097
923.659	3127
923.767	3249
923.876	3119
923.984	3207
924.092	3119
924.201	3165
924.309	3241
924.417	3256
924.525	3169
924.633	3233
924.741	3987
924.849	3039
924.956	3237
925.064	3093
925.172	3036
925.279	3104
925.387	3192
925.494	3241
925.602	3332
925.709	3363
925.816	3180
925.924	3310
926.031	3355
926.138	3329
926.245	3351
926.352	3279
926.459	3374
926.566	3454
926.673	3294
926.779	3279
926.886	3283
926.993	3142
927.099	3142
927.206	3119
927.312	3123
927.419	3218
927.525	3218
927.631	3306
927.737	3100
927.843	3138
927.95	3024
928.056	3097
928.162	3192
928.267	3249
928.373	3751
928.479	3291
928.585	3093
928.69	3211
928.796	3279
928.901	3138
929.007	3013
929.112	3188
929.218	3199
929.323	3161
929.428	3165
929.533	3306
929.638	3108
929.743	3214
929.848	3279
929.953	3230
930.058	3161
930.163	3028
930.267	3039
930.372	3211
930.477	3051
930.581	3329
930.685	3180
930.79	3100
930.894	3077
930.998	3123
931.103	3275
931.207	2956
931.311	2914
931.415	2937
931.519	2766
931.623	2823
