Data from test_V78500241_538.txt Node
Date: Fri Mar 25 16:18:55 CST 2022
User: usil
Spectrometer: V785-0024
Trigger mode: 0
Integration Time (sec): 4.000000E-1
Scans to average: 1
Nonlinearity correction enabled: false
Boxcar width: 0
Storing dark spectrum: false
XAxis mode: Wavelengths
Number of Pixels in Spectrum: 1024
>>>>>Begin Spectral Data<<<<<
801.071	2918
801.214	2948
801.356	2849
801.499	2864
801.641	2819
801.783	2880
801.926	3047
802.068	2994
802.211	3013
802.353	3009
802.496	2925
802.638	2979
802.78	3005
802.923	3062
803.065	2963
803.208	2883
803.35	2895
803.492	2922
803.635	2899
803.777	2743
803.919	2861
804.061	3195
804.204	2971
804.346	2887
804.488	2815
804.63	3005
804.773	2857
804.915	2887
805.057	3089
805.199	2925
805.341	2941
805.483	3009
805.626	2982
805.768	2944
805.91	3070
806.052	3081
806.194	3028
806.336	3207
806.478	3028
806.62	2956
806.762	2925
806.904	3039
807.046	3135
807.188	2952
807.33	2933
807.472	2963
807.614	2887
807.756	2975
807.898	2902
808.04	2922
808.182	2979
808.324	2941
808.465	2838
808.607	2880
808.749	2762
808.891	2834
809.033	2937
809.174	2937
809.316	2868
809.458	2872
809.6	2743
809.741	2754
809.883	2720
810.025	2819
810.166	2815
810.308	2838
810.45	2826
810.591	2754
810.733	2750
810.875	2815
811.016	2769
811.158	2781
811.299	2746
811.441	2941
811.582	2853
811.724	2823
811.865	2826
812.007	2902
812.148	2864
812.29	2819
812.431	2876
812.573	2883
812.714	2944
812.855	2994
812.997	3058
813.138	3108
813.279	2944
813.421	2952
813.562	2975
813.703	2864
813.845	2842
813.986	2777
814.127	2746
814.268	2804
814.41	2785
814.551	2807
814.692	2861
814.833	2785
814.974	2868
815.115	2960
815.256	2830
815.397	2800
815.539	2853
815.68	2777
815.821	2792
815.962	2929
816.103	2914
816.244	2880
816.385	2826
816.526	2998
816.666	2895
816.807	2727
816.948	2853
817.089	2826
817.23	2849
817.371	2800
817.512	2815
817.653	2842
817.793	2807
817.934	2864
818.075	2922
818.216	2979
818.356	3017
818.497	2853
818.638	2773
818.778	2800
818.919	2815
819.06	2758
819.2	2887
819.341	2769
819.481	2781
819.622	2883
819.762	3039
819.903	3081
820.043	2868
820.184	2849
820.324	2876
820.465	2990
820.605	2979
820.746	3024
820.886	2868
821.026	3085
821.167	3104
821.307	3199
821.447	3237
821.588	3253
821.728	3176
821.868	3165
822.008	3043
822.149	3169
822.289	3207
822.429	3112
822.569	3116
822.709	3169
822.849	3062
822.99	3062
823.13	3150
823.27	3173
823.41	3108
823.55	3195
823.69	3119
823.83	3188
823.97	3100
824.11	3020
824.25	2979
824.389	3070
824.529	3112
824.669	3024
824.809	3188
824.949	3256
825.089	3253
825.228	3154
825.368	3024
825.508	2979
825.648	2952
825.787	3024
825.927	3005
826.067	2979
826.206	2971
826.346	3058
826.485	3104
826.625	3123
826.765	3287
826.904	3249
827.044	2986
827.183	2941
827.323	2914
827.462	3013
827.601	2956
827.741	2960
827.88	2994
828.02	2849
828.159	3009
828.298	3062
828.437	3165
828.577	3058
828.716	3264
828.855	3138
828.994	2963
829.134	2857
829.273	2933
829.412	2910
829.551	2910
829.69	2910
829.829	3001
829.968	3195
830.107	3062
830.246	3058
830.385	2929
830.524	2941
830.663	2876
830.802	2731
830.941	2659
831.08	2705
831.219	2796
831.357	2807
831.496	2986
831.635	2766
831.774	2682
831.913	2705
832.051	2583
832.19	2613
832.329	2724
832.467	2610
832.606	2514
832.744	2602
832.883	2648
833.022	2648
833.16	2689
833.299	2731
833.437	2727
833.576	2716
833.714	2762
833.852	2746
833.991	2807
834.129	2857
834.267	2864
834.406	2785
834.544	2887
834.682	2899
834.821	2910
834.959	3070
835.097	2967
835.235	3077
835.373	3013
835.511	3055
835.65	2971
835.788	2982
835.926	2876
836.064	2842
836.202	2895
836.34	3100
836.478	3195
836.615	3097
836.753	3195
836.891	3241
837.029	3176
837.167	3127
837.305	3112
837.443	3100
837.58	2975
837.718	3142
837.856	3108
837.993	3085
838.131	3173
838.269	3112
838.406	3173
838.544	3123
838.681	2975
838.819	2929
838.956	2845
839.094	2895
839.231	2960
839.369	3032
839.506	3416
839.643	3237
839.781	3036
839.918	3001
840.055	3093
840.193	3058
840.33	3093
840.467	3085
840.604	3150
840.742	3443
840.879	3093
841.016	3047
841.153	3138
841.29	3367
841.427	3340
841.564	3321
841.701	3291
841.838	3272
841.975	3222
842.112	3226
842.249	3097
842.385	3001
842.522	3302
842.659	3104
842.796	3093
842.933	3131
843.069	3062
843.206	3074
843.343	3195
843.479	3116
843.616	3154
843.752	2918
843.889	2868
844.025	3097
844.162	2918
844.298	3146
844.435	2982
844.571	2933
844.708	3104
844.844	3203
844.98	3245
845.117	3165
845.253	3119
845.389	2994
845.525	3123
845.661	3123
845.798	3020
845.934	3131
846.07	3055
846.206	3253
846.342	3321
846.478	3256
846.614	3127
846.75	3077
846.886	3047
847.022	3272
847.158	3108
847.294	3192
847.429	3287
847.565	3253
847.701	3504
847.837	3085
847.972	3020
848.108	3192
848.244	3169
848.379	2998
848.515	2971
848.65	2967
848.786	2982
848.921	3028
849.057	3150
849.192	3207
849.328	3123
849.463	3150
849.598	3097
849.734	3047
849.869	2990
850.004	2929
850.14	3001
850.275	2944
850.41	2834
850.545	2895
850.68	2967
850.815	2971
850.95	3001
851.085	3241
851.22	3108
851.355	3039
851.49	3005
851.625	3020
851.76	3093
851.895	2986
852.03	2918
852.165	3051
852.299	3135
852.434	3195
852.569	3176
852.703	3176
852.838	3279
852.973	3378
853.107	3351
853.242	3192
853.376	3108
853.511	2975
853.645	3062
853.78	3249
853.914	3131
854.048	3169
854.183	3085
854.317	3150
854.451	3310
854.585	3161
854.72	3138
854.854	3226
854.988	3089
855.122	3135
855.256	2998
855.39	3146
855.524	3241
855.658	3199
855.792	3199
855.926	3226
856.06	3233
856.194	3302
856.327	3180
856.461	3150
856.595	3112
856.729	3077
856.862	3233
856.996	3165
857.13	3226
857.263	3264
857.397	3275
857.53	3157
857.664	3199
857.797	3260
857.931	3287
858.064	3218
858.197	3272
858.331	3146
858.464	3116
858.597	3032
858.731	3157
858.864	3161
858.997	3100
859.13	3192
859.263	3207
859.396	3214
859.529	3112
859.662	3131
859.795	3028
859.928	3176
860.061	3264
860.194	3279
860.327	3135
860.46	3108
860.592	3272
860.725	3230
860.858	3241
860.99	3142
861.123	3093
861.256	3097
861.388	3127
861.521	3903
861.653	3062
861.786	3009
861.918	3032
862.05	3074
862.183	3138
862.315	3188
862.447	3203
862.58	3104
862.712	2967
862.844	2906
862.976	3055
863.108	3013
863.24	3450
863.372	2902
863.504	2994
863.636	3047
863.768	3051
863.9	3009
864.032	2960
864.164	2994
864.296	3047
864.428	3138
864.559	3127
864.691	3077
864.823	3085
864.954	3066
865.086	3085
865.217	2986
865.349	2982
865.48	3036
865.612	3043
865.743	3173
865.875	3024
866.006	2975
866.137	3013
866.269	2982
866.4	2941
866.531	2944
866.662	2929
866.793	2922
866.924	2944
867.055	3009
867.186	2948
867.317	2899
867.448	2868
867.579	2899
867.71	2861
867.841	2857
867.972	2937
868.103	2895
868.233	2887
868.364	2906
868.495	2899
868.625	3100
868.756	3188
868.886	2967
869.017	3055
869.147	3195
869.278	3188
869.408	3081
869.539	3028
869.669	3104
869.799	3081
869.929	3093
870.06	3123
870.19	3302
870.32	3306
870.45	3298
870.58	3382
870.71	3488
870.84	3450
870.97	3287
871.1	3264
871.23	3507
871.36	3462
871.489	3367
871.619	3382
871.749	3405
871.879	3458
872.008	3481
872.138	3374
872.267	3306
872.397	3169
872.526	3131
872.656	3039
872.785	3100
872.915	3249
873.044	3370
873.173	3222
873.303	3233
873.432	3241
873.561	3283
873.69	3173
873.819	3150
873.948	3207
874.077	3138
874.206	3089
874.335	3085
874.464	3218
874.593	3355
874.722	3283
874.851	3393
874.979	3374
875.108	3313
875.237	3211
875.365	3161
875.494	3169
875.623	3241
875.751	3104
875.88	3119
876.008	3241
876.136	3245
876.265	3348
876.393	3511
876.521	3443
876.65	3409
876.778	3363
876.906	3275
877.034	3226
877.162	3253
877.29	3165
877.418	3249
877.546	3245
877.674	3260
877.802	3253
877.93	3256
878.058	3173
878.185	3135
878.313	3226
878.441	3226
878.568	3055
878.696	3180
878.824	3260
878.951	3306
879.079	3492
879.206	3625
879.333	3431
879.461	3348
879.588	3329
879.715	3477
879.842	3618
879.97	3412
880.097	3203
880.224	3150
880.351	3180
880.478	3245
880.605	3222
880.732	3237
880.859	3488
880.986	3272
881.112	3329
881.239	3222
881.366	3104
881.493	3051
881.619	3055
881.746	3112
881.872	3112
881.999	3119
882.125	3150
882.252	3245
882.378	3275
882.505	3492
882.631	3321
882.757	3165
882.883	3211
883.01	3233
883.136	3169
883.262	3093
883.388	3142
883.514	3310
883.64	3386
883.766	3325
883.892	3233
884.018	3272
884.143	3435
884.269	3492
884.395	3192
884.52	3180
884.646	3165
884.772	3135
884.897	3138
885.023	3226
885.148	3329
885.274	3382
885.399	3363
885.524	3313
885.65	3291
885.775	3298
885.9	3302
886.025	3412
886.15	3355
886.275	3313
886.4	3218
886.525	3329
886.65	3294
886.775	3283
886.9	3519
887.025	3644
887.149	3435
887.274	3302
887.399	3192
887.523	3184
887.648	3161
887.773	3214
887.897	3412
888.021	3420
888.146	3279
888.27	3473
888.395	3538
888.519	3454
888.643	3450
888.767	3477
888.891	3317
889.015	3256
889.139	3302
889.263	3260
889.387	3363
889.511	3507
889.635	3428
889.759	3287
889.883	3348
890.006	3348
890.13	3500
890.254	3272
890.377	3313
890.501	3203
890.624	3207
890.748	3332
890.871	3169
890.995	3100
891.118	3112
891.241	3176
891.364	3207
891.488	3363
891.611	3176
891.734	3260
891.857	3321
891.98	3260
892.103	3344
892.226	3302
892.349	3249
892.471	3108
892.594	3218
892.717	3298
892.839	3268
892.962	3287
893.085	3389
893.207	3287
893.33	3165
893.452	3180
893.575	3310
893.697	3275
893.819	3485
893.941	3496
894.064	3466
894.186	3253
894.308	3272
894.43	3469
894.552	3564
894.674	3458
894.796	3253
894.918	3348
895.04	3291
895.161	3447
895.283	3386
895.405	3321
895.526	3401
895.648	3416
895.769	3431
895.891	3450
896.012	3477
896.134	3447
896.255	3447
896.376	3405
896.498	3348
896.619	3469
896.74	3374
896.861	3389
896.982	3667
897.103	3804
897.224	3568
897.345	3542
897.466	3428
897.587	3481
897.708	3603
897.828	3526
897.949	3431
898.07	3355
898.19	3439
898.311	3629
898.431	3416
898.552	3530
898.672	3603
898.792	3618
898.913	3530
899.033	3443
899.153	3302
899.273	3199
899.393	3321
899.513	3268
899.633	3336
899.753	3363
899.873	3344
899.993	3382
900.113	3321
900.232	3397
900.352	3370
900.472	3294
900.591	3222
900.711	3325
900.83	3237
900.95	3466
901.069	3515
901.189	3336
901.308	3165
901.427	3146
901.546	3192
901.665	3245
901.784	3344
901.904	3203
902.023	3146
902.141	3032
902.26	2982
902.379	3154
902.498	3093
902.617	3070
902.735	3218
902.854	3218
902.973	3192
903.091	3043
903.21	3108
903.328	3154
903.446	3138
903.565	3100
903.683	3214
903.801	3116
903.919	3272
904.038	3264
904.156	3157
904.274	3275
904.392	3298
904.51	3275
904.627	3359
904.745	3488
904.863	3492
904.981	3237
905.098	3188
905.216	3233
905.334	3272
905.451	3306
905.569	3329
905.686	3420
905.803	3431
905.921	3275
906.038	3420
906.155	3401
906.272	3264
906.389	3302
906.506	3233
906.623	3275
906.74	3230
906.857	3184
906.974	3245
907.091	3424
907.208	3538
907.324	3435
907.441	3435
907.557	3256
907.674	3253
907.79	3207
907.907	3291
908.023	3351
908.139	3363
908.256	3332
908.372	3363
908.488	3313
908.604	3279
908.72	3222
908.836	3264
908.952	3264
909.068	3355
909.184	3496
909.3	3370
909.415	3507
909.531	3488
909.647	3306
909.762	3245
909.878	3245
909.993	3363
910.108	3344
910.224	3359
910.339	3416
910.454	3348
910.57	3249
910.685	3260
910.8	3584
910.915	3549
911.03	3424
911.145	3291
911.259	3279
911.374	3310
911.489	3241
911.604	3230
911.718	3119
911.833	3146
911.947	3039
912.062	3005
912.176	3157
912.291	3150
912.405	3218
912.519	3447
912.633	3515
912.748	3294
912.862	3268
912.976	3207
913.09	3074
913.204	3138
913.318	3188
913.431	3291
913.545	3355
913.659	3405
913.772	3351
913.886	3211
914	3173
914.113	3389
914.226	3405
914.34	3321
914.453	3211
914.566	3428
914.68	3264
914.793	3332
914.906	3150
915.019	3097
915.132	3081
915.245	3180
915.358	3207
915.47	3233
915.583	3279
915.696	3283
915.809	3412
915.921	3428
916.034	3211
916.146	3298
916.259	3241
916.371	3409
916.483	3374
916.595	3283
916.708	3363
916.82	3336
916.932	3348
917.044	3370
917.156	3378
917.268	3237
917.38	3287
917.491	3275
917.603	3374
917.715	3447
917.826	3485
917.938	3397
918.049	3245
918.161	3443
918.272	3576
918.384	3538
918.495	3485
918.606	3348
918.717	3253
918.828	3386
918.939	3393
919.05	3298
919.161	3355
919.272	3222
919.383	3264
919.494	3526
919.604	3679
919.715	3469
919.826	3382
919.936	3450
920.047	3599
920.157	3561
920.267	3759
920.378	3595
920.488	3572
920.598	3800
920.708	3934
920.818	3846
920.928	3831
921.038	4013
921.148	4006
921.258	3705
921.368	3587
921.477	3606
921.587	3523
921.697	3424
921.806	3633
921.916	3538
922.025	3348
922.134	3386
922.244	3294
922.353	3428
922.462	3275
922.571	3226
922.68	3108
922.789	3039
922.898	3142
923.007	3077
923.116	3173
923.224	3192
923.333	3173
923.442	3074
923.55	3077
923.659	3131
923.767	3233
923.876	3104
923.984	3256
924.092	3108
924.201	3233
924.309	3184
924.417	3226
924.525	3207
924.633	3260
924.741	4025
924.849	3051
924.956	3275
925.064	3108
925.172	3020
925.279	3108
925.387	3176
925.494	3207
925.602	3340
925.709	3344
925.816	3157
925.924	3256
926.031	3329
926.138	3340
926.245	3393
926.352	3268
926.459	3447
926.566	3443
926.673	3329
926.779	3233
926.886	3230
926.993	3131
927.099	3116
927.206	3146
927.312	3097
927.419	3256
927.525	3218
927.631	3253
927.737	3135
927.843	3135
927.95	3047
928.056	3112
928.162	3192
928.267	3249
928.373	3743
928.479	3294
928.585	3020
928.69	3203
928.796	3287
928.901	3150
929.007	3097
929.112	3207
929.218	3154
929.323	3138
929.428	3142
929.533	3332
929.638	3119
929.743	3176
929.848	3237
929.953	3214
930.058	3150
930.163	2948
930.267	3051
930.372	3199
930.477	3036
930.581	3294
930.685	3173
930.79	3055
930.894	3089
930.998	3081
931.103	3211
931.207	2937
931.311	2937
931.415	2948
931.519	2773
931.623	2826
