Data from test_V78500241_1305.txt Node
Date: Fri Mar 25 16:24:14 CST 2022
User: usil
Spectrometer: V785-0024
Trigger mode: 0
Integration Time (sec): 4.000000E-1
Scans to average: 1
Nonlinearity correction enabled: false
Boxcar width: 0
Storing dark spectrum: false
XAxis mode: Wavelengths
Number of Pixels in Spectrum: 1024
>>>>>Begin Spectral Data<<<<<
801.071	2925
801.214	2967
801.356	2876
801.499	2906
801.641	2868
801.783	2922
801.926	3058
802.068	2971
802.211	2990
802.353	3001
802.496	2979
802.638	3001
802.78	3043
802.923	3070
803.065	2986
803.208	2902
803.35	2918
803.492	2960
803.635	2933
803.777	2773
803.919	2868
804.061	3237
804.204	2948
804.346	2922
804.488	2849
804.63	3024
804.773	2922
804.915	2906
805.057	3081
805.199	2937
805.341	3009
805.483	3100
805.626	3036
805.768	3005
805.91	3062
806.052	3112
806.194	3081
806.336	3218
806.478	3043
806.62	2975
806.762	2994
806.904	3089
807.046	3157
807.188	2998
807.33	2922
807.472	3017
807.614	2937
807.756	3036
807.898	2933
808.04	2899
808.182	2971
808.324	2963
808.465	2899
808.607	2899
808.749	2823
808.891	2815
809.033	3005
809.174	2952
809.316	2891
809.458	2910
809.6	2788
809.741	2834
809.883	2815
810.025	2838
810.166	2872
810.308	2823
810.45	2891
810.591	2823
810.733	2788
810.875	2830
811.016	2807
811.158	2766
811.299	2834
811.441	2952
811.582	2918
811.724	2819
811.865	2864
812.007	2922
812.148	2872
812.29	2838
812.431	2883
812.573	2937
812.714	2952
812.855	3066
812.997	3108
813.138	3100
813.279	3051
813.421	2990
813.562	2975
813.703	2918
813.845	2891
813.986	2785
814.127	2746
814.268	2815
814.41	2853
814.551	2853
814.692	2868
814.833	2823
814.974	2895
815.115	2979
815.256	2838
815.397	2804
815.539	2872
815.68	2792
815.821	2773
815.962	2963
816.103	2944
816.244	2853
816.385	2857
816.526	2929
816.666	2914
816.807	2804
816.948	2887
817.089	2914
817.23	2864
817.371	2750
817.512	2796
817.653	2838
817.793	2819
817.934	2864
818.075	2967
818.216	3005
818.356	3062
818.497	2910
818.638	2823
818.778	2807
818.919	2800
819.06	2766
819.2	2868
819.341	2838
819.481	2785
819.622	2937
819.762	3097
819.903	3089
820.043	2929
820.184	2895
820.324	2887
820.465	3024
820.605	3013
820.746	3039
820.886	2925
821.026	3104
821.167	3138
821.307	3230
821.447	3268
821.588	3203
821.728	3203
821.868	3199
822.008	3077
822.149	3154
822.289	3226
822.429	3093
822.569	3055
822.709	3180
822.849	3077
822.99	3093
823.13	3150
823.27	3214
823.41	3142
823.55	3131
823.69	3180
823.83	3192
823.97	3093
824.11	3009
824.25	3020
824.389	3085
824.529	3138
824.669	3051
824.809	3233
824.949	3226
825.089	3230
825.228	3180
825.368	3001
825.508	2937
825.648	2952
825.787	2982
825.927	3051
826.067	2990
826.206	2956
826.346	3051
826.485	3070
826.625	3093
826.765	3291
826.904	3222
827.044	2998
827.183	2941
827.323	2887
827.462	2971
827.601	2910
827.741	2922
827.88	2967
828.02	2864
828.159	2933
828.298	3051
828.437	3131
828.577	3051
828.716	3298
828.855	3097
828.994	2941
829.134	2895
829.273	2922
829.412	2872
829.551	2880
829.69	2887
829.829	3009
829.968	3135
830.107	3009
830.246	3066
830.385	2960
830.524	2876
830.663	2819
830.802	2705
830.941	2655
831.08	2678
831.219	2762
831.357	2796
831.496	2956
831.635	2739
831.774	2629
831.913	2667
832.051	2552
832.19	2556
832.329	2708
832.467	2533
832.606	2476
832.744	2610
832.883	2598
833.022	2594
833.16	2655
833.299	2708
833.437	2708
833.576	2766
833.714	2735
833.852	2750
833.991	2777
834.129	2826
834.267	2815
834.406	2758
834.544	2925
834.682	2868
834.821	2895
834.959	3089
835.097	2883
835.235	3081
835.373	3013
835.511	3036
835.65	3001
835.788	2948
835.926	2819
836.064	2804
836.202	2796
836.34	3093
836.478	3142
836.615	3074
836.753	3146
836.891	3218
837.029	3157
837.167	3112
837.305	3081
837.443	3058
837.58	2944
837.718	3112
837.856	3097
837.993	3032
838.131	3165
838.269	3119
838.406	3104
838.544	3047
838.681	2933
838.819	2899
838.956	2785
839.094	2823
839.231	2918
839.369	3032
839.506	3401
839.643	3214
839.781	3051
839.918	2971
840.055	3036
840.193	3055
840.33	3074
840.467	3108
840.604	3173
840.742	3431
840.879	3074
841.016	3036
841.153	3112
841.29	3351
841.427	3279
841.564	3283
841.701	3302
841.838	3226
841.975	3169
842.112	3203
842.249	3051
842.385	3047
842.522	3230
842.659	3074
842.796	3062
842.933	3097
843.069	3085
843.206	3051
843.343	3176
843.479	3127
843.616	3154
843.752	2910
843.889	2857
844.025	3089
844.162	2864
844.298	3100
844.435	2971
844.571	2902
844.708	3093
844.844	3226
844.98	3233
845.117	3199
845.253	3024
845.389	2982
845.525	3116
845.661	3150
845.798	2998
845.934	3081
846.07	3070
846.206	3211
846.342	3332
846.478	3226
846.614	3085
846.75	3070
846.886	3043
847.022	3268
847.158	3127
847.294	3173
847.429	3249
847.565	3184
847.701	3500
847.837	3024
847.972	3005
848.108	3165
848.244	3157
848.379	3005
848.515	2956
848.65	2902
848.786	2948
848.921	3028
849.057	3100
849.192	3173
849.328	3085
849.463	3097
849.598	3074
849.734	3043
849.869	2963
850.004	2910
850.14	2948
850.275	2895
850.41	2876
850.545	2872
850.68	2956
850.815	2979
850.95	2971
851.085	3169
851.22	3112
851.355	3020
851.49	2975
851.625	3017
851.76	3017
851.895	2933
852.03	2906
852.165	3017
852.299	3062
852.434	3192
852.569	3135
852.703	3188
852.838	3249
852.973	3332
853.107	3355
853.242	3142
853.376	3066
853.511	2956
853.645	3043
853.78	3245
853.914	3085
854.048	3085
854.183	3104
854.317	3142
854.451	3294
854.585	3097
854.72	3074
854.854	3165
854.988	3077
855.122	3051
855.256	2967
855.39	3108
855.524	3241
855.658	3169
855.792	3108
855.926	3195
856.06	3233
856.194	3249
856.327	3184
856.461	3085
856.595	3028
856.729	3104
856.862	3195
856.996	3150
857.13	3184
857.263	3173
857.397	3253
857.53	3127
857.664	3180
857.797	3253
857.931	3253
858.064	3169
858.197	3230
858.331	3131
858.464	3051
858.597	3001
858.731	3108
858.864	3161
858.997	3100
859.13	3146
859.263	3138
859.396	3142
859.529	3062
859.662	3062
859.795	3066
859.928	3131
860.061	3272
860.194	3268
860.327	3119
860.46	3093
860.592	3245
860.725	3237
860.858	3256
860.99	3119
861.123	3024
861.256	3032
861.388	3116
861.521	3705
861.653	2982
861.786	2994
861.918	2994
862.05	3039
862.183	3112
862.315	3157
862.447	3184
862.58	3074
862.712	2948
862.844	2868
862.976	3047
863.108	2963
863.24	3321
863.372	2853
863.504	2982
863.636	2933
863.768	3020
863.9	2933
864.032	2922
864.164	2944
864.296	3005
864.428	3047
864.559	3074
864.691	3077
864.823	3074
864.954	3036
865.086	3005
865.217	3009
865.349	2952
865.48	2975
865.612	3005
865.743	3135
865.875	2960
866.006	2925
866.137	2979
866.269	2906
866.4	2948
866.531	2906
866.662	2899
866.793	2906
866.924	2899
867.055	2937
867.186	2910
867.317	2876
867.448	2842
867.579	2819
867.71	2838
867.841	2826
867.972	2887
868.103	2910
868.233	2883
868.364	2906
868.495	2883
868.625	3058
868.756	3123
868.886	2925
869.017	3009
869.147	3176
869.278	3176
869.408	3062
869.539	3017
869.669	3100
869.799	3051
869.929	3123
870.06	3081
870.19	3317
870.32	3294
870.45	3279
870.58	3378
870.71	3420
870.84	3443
870.97	3245
871.1	3214
871.23	3473
871.36	3473
871.489	3336
871.619	3416
871.749	3405
871.879	3485
872.008	3469
872.138	3332
872.267	3272
872.397	3146
872.526	3062
872.656	2994
872.785	3077
872.915	3233
873.044	3268
873.173	3237
873.303	3218
873.432	3245
873.561	3245
873.69	3116
873.819	3157
873.948	3184
874.077	3077
874.206	3028
874.335	3116
874.464	3192
874.593	3367
874.722	3169
874.851	3386
874.979	3374
875.108	3344
875.237	3192
875.365	3138
875.494	3150
875.623	3245
875.751	3058
875.88	3077
876.008	3165
876.136	3249
876.265	3389
876.393	3515
876.521	3424
876.65	3359
876.778	3291
876.906	3230
877.034	3180
877.162	3233
877.29	3207
877.418	3207
877.546	3264
877.674	3233
877.802	3211
877.93	3203
878.058	3157
878.185	3070
878.313	3169
878.441	3214
878.568	3077
878.696	3135
878.824	3253
878.951	3329
879.079	3397
879.206	3603
879.333	3412
879.461	3298
879.588	3351
879.715	3409
879.842	3614
879.97	3386
880.097	3150
880.224	3077
880.351	3207
880.478	3199
880.605	3192
880.732	3165
880.859	3466
880.986	3321
881.112	3317
881.239	3192
881.366	3100
881.493	3039
881.619	3036
881.746	3100
881.872	3104
881.999	3093
882.125	3154
882.252	3245
882.378	3268
882.505	3412
882.631	3264
882.757	3176
882.883	3203
883.01	3241
883.136	3142
883.262	3093
883.388	3112
883.514	3321
883.64	3386
883.766	3287
883.892	3203
884.018	3233
884.143	3386
884.269	3519
884.395	3199
884.52	3176
884.646	3165
884.772	3142
884.897	3089
885.023	3180
885.148	3306
885.274	3359
885.399	3344
885.524	3291
885.65	3264
885.775	3260
885.9	3287
886.025	3443
886.15	3336
886.275	3298
886.4	3233
886.525	3298
886.65	3253
886.775	3260
886.9	3496
887.025	3648
887.149	3420
887.274	3256
887.399	3154
887.523	3203
887.648	3203
887.773	3184
887.897	3344
888.021	3374
888.146	3306
888.27	3424
888.395	3496
888.519	3416
888.643	3450
888.767	3447
888.891	3329
889.015	3226
889.139	3302
889.263	3264
889.387	3428
889.511	3481
889.635	3462
889.759	3283
889.883	3287
890.006	3367
890.13	3523
890.254	3260
890.377	3340
890.501	3188
890.624	3195
890.748	3279
890.871	3195
890.995	3100
891.118	3024
891.241	3161
891.364	3233
891.488	3310
891.611	3131
891.734	3218
891.857	3279
891.98	3218
892.103	3321
892.226	3256
892.349	3180
892.471	3131
892.594	3264
892.717	3260
892.839	3237
892.962	3237
893.085	3367
893.207	3317
893.33	3173
893.452	3230
893.575	3382
893.697	3253
893.819	3481
893.941	3534
894.064	3428
894.186	3264
894.308	3241
894.43	3466
894.552	3526
894.674	3511
894.796	3264
894.918	3302
895.04	3260
895.161	3424
895.283	3386
895.405	3275
895.526	3355
895.648	3435
895.769	3458
895.891	3450
896.012	3424
896.134	3488
896.255	3439
896.376	3389
896.498	3325
896.619	3401
896.74	3378
896.861	3435
896.982	3603
897.103	3835
897.224	3576
897.345	3496
897.466	3409
897.587	3523
897.708	3568
897.828	3564
897.949	3431
898.07	3359
898.19	3382
898.311	3564
898.431	3416
898.552	3526
898.672	3595
898.792	3538
898.913	3545
899.033	3389
899.153	3256
899.273	3222
899.393	3275
899.513	3321
899.633	3298
899.753	3310
899.873	3317
899.993	3382
900.113	3370
900.232	3389
900.352	3336
900.472	3306
900.591	3192
900.711	3306
900.83	3268
900.95	3420
901.069	3526
901.189	3317
901.308	3184
901.427	3119
901.546	3180
901.665	3294
901.784	3336
901.904	3195
902.023	3161
902.141	3058
902.26	3013
902.379	3142
902.498	3043
902.617	3070
902.735	3211
902.854	3195
902.973	3207
903.091	3051
903.21	3032
903.328	3116
903.446	3116
903.565	3100
903.683	3150
903.801	3116
903.919	3249
904.038	3233
904.156	3157
904.274	3325
904.392	3237
904.51	3298
904.627	3317
904.745	3409
904.863	3466
904.981	3256
905.098	3176
905.216	3214
905.334	3325
905.451	3275
905.569	3275
905.686	3405
905.803	3458
905.921	3272
906.038	3443
906.155	3389
906.272	3272
906.389	3359
906.506	3203
906.623	3180
906.74	3268
906.857	3173
906.974	3272
907.091	3473
907.208	3542
907.324	3458
907.441	3393
907.557	3218
907.674	3222
907.79	3222
907.907	3264
908.023	3332
908.139	3344
908.256	3310
908.372	3367
908.488	3340
908.604	3275
908.72	3230
908.836	3279
908.952	3260
909.068	3348
909.184	3473
909.3	3389
909.415	3526
909.531	3420
909.647	3253
909.762	3302
909.878	3272
909.993	3310
910.108	3317
910.224	3344
910.339	3389
910.454	3321
910.57	3268
910.685	3214
910.8	3606
910.915	3542
911.03	3409
911.145	3268
911.259	3268
911.374	3291
911.489	3272
911.604	3237
911.718	3112
911.833	3165
911.947	3013
912.062	2960
912.176	3142
912.291	3192
912.405	3226
912.519	3435
912.633	3469
912.748	3321
912.862	3264
912.976	3180
913.09	3066
913.204	3142
913.318	3199
913.431	3355
913.545	3332
913.659	3378
913.772	3351
913.886	3214
914	3207
914.113	3363
914.226	3386
914.34	3370
914.453	3173
914.566	3374
914.68	3294
914.793	3317
914.906	3119
915.019	3150
915.132	3051
915.245	3169
915.358	3207
915.47	3245
915.583	3291
915.696	3283
915.809	3386
915.921	3412
916.034	3249
916.146	3260
916.259	3233
916.371	3348
916.483	3325
916.595	3302
916.708	3351
916.82	3382
916.932	3336
917.044	3329
917.156	3351
917.268	3249
917.38	3279
917.491	3310
917.603	3428
917.715	3431
917.826	3454
917.938	3393
918.049	3302
918.161	3386
918.272	3561
918.384	3610
918.495	3466
918.606	3336
918.717	3264
918.828	3344
918.939	3374
919.05	3275
919.161	3374
919.272	3157
919.383	3249
919.494	3496
919.604	3679
919.715	3481
919.826	3401
919.936	3439
920.047	3595
920.157	3542
920.267	3759
920.378	3580
920.488	3564
920.598	3743
920.708	3945
920.818	3857
920.928	3831
921.038	4044
921.148	3964
921.258	3755
921.368	3644
921.477	3561
921.587	3561
921.697	3469
921.806	3644
921.916	3496
922.025	3393
922.134	3374
922.244	3302
922.353	3428
922.462	3256
922.571	3218
922.68	3097
922.789	3058
922.898	3116
923.007	3104
923.116	3176
923.224	3176
923.333	3146
923.442	3108
923.55	3100
923.659	3119
923.767	3211
923.876	3074
923.984	3222
924.092	3074
924.201	3199
924.309	3233
924.417	3230
924.525	3211
924.633	3253
924.741	4063
924.849	3039
924.956	3222
925.064	3089
925.172	3058
925.279	3108
925.387	3211
925.494	3165
925.602	3351
925.709	3325
925.816	3188
925.924	3283
926.031	3412
926.138	3332
926.245	3351
926.352	3275
926.459	3428
926.566	3466
926.673	3332
926.779	3226
926.886	3260
926.993	3157
927.099	3127
927.206	3089
927.312	3112
927.419	3245
927.525	3226
927.631	3279
927.737	3119
927.843	3131
927.95	3036
928.056	3135
928.162	3218
928.267	3287
928.373	3850
928.479	3325
928.585	3066
928.69	3203
928.796	3253
928.901	3146
929.007	3085
929.112	3173
929.218	3184
929.323	3184
929.428	3142
929.533	3298
929.638	3127
929.743	3161
929.848	3287
929.953	3207
930.058	3119
930.163	3032
930.267	3058
930.372	3195
930.477	3051
930.581	3321
930.685	3142
930.79	3058
930.894	3123
930.998	3097
931.103	3275
931.207	2941
931.311	2956
931.415	2891
931.519	2800
931.623	2807
