Data from test_V78500241_209.txt Node
Date: Fri Mar 25 16:16:39 CST 2022
User: usil
Spectrometer: V785-0024
Trigger mode: 0
Integration Time (sec): 4.000000E-1
Scans to average: 1
Nonlinearity correction enabled: false
Boxcar width: 0
Storing dark spectrum: false
XAxis mode: Wavelengths
Number of Pixels in Spectrum: 1024
>>>>>Begin Spectral Data<<<<<
801.071	2929
801.214	2941
801.356	2895
801.499	2906
801.641	2906
801.783	2910
801.926	3066
802.068	3001
802.211	3005
802.353	3062
802.496	2963
802.638	3020
802.78	3039
802.923	3097
803.065	3032
803.208	2914
803.35	2891
803.492	2929
803.635	2960
803.777	2788
803.919	2826
804.061	3245
804.204	2944
804.346	2914
804.488	2845
804.63	2975
804.773	2876
804.915	2887
805.057	3093
805.199	2902
805.341	2963
805.483	3085
805.626	3005
805.768	2971
805.91	3074
806.052	3123
806.194	3020
806.336	3218
806.478	3009
806.62	2967
806.762	2960
806.904	3089
807.046	3150
807.188	3024
807.33	2922
807.472	3013
807.614	2906
807.756	3028
807.898	2918
808.04	2922
808.182	2990
808.324	2922
808.465	2891
808.607	2887
808.749	2769
808.891	2861
809.033	2971
809.174	2960
809.316	2868
809.458	2883
809.6	2762
809.741	2788
809.883	2743
810.025	2842
810.166	2864
810.308	2864
810.45	2872
810.591	2769
810.733	2758
810.875	2834
811.016	2830
811.158	2781
811.299	2819
811.441	2922
811.582	2857
811.724	2819
811.865	2857
812.007	2967
812.148	2887
812.29	2845
812.431	2914
812.573	2933
812.714	2960
812.855	3036
812.997	3077
813.138	3097
813.279	2998
813.421	2979
813.562	2963
813.703	2883
813.845	2925
813.986	2773
814.127	2731
814.268	2762
814.41	2815
814.551	2826
814.692	2823
814.833	2815
814.974	2895
815.115	2956
815.256	2830
815.397	2807
815.539	2861
815.68	2792
815.821	2815
815.962	2960
816.103	2937
816.244	2868
816.385	2842
816.526	2990
816.666	2918
816.807	2758
816.948	2872
817.089	2883
817.23	2826
817.371	2826
817.512	2773
817.653	2834
817.793	2804
817.934	2872
818.075	2952
818.216	3005
818.356	3001
818.497	2925
818.638	2792
818.778	2857
818.919	2792
819.06	2731
819.2	2876
819.341	2823
819.481	2804
819.622	2902
819.762	3100
819.903	3047
820.043	2918
820.184	2895
820.324	2963
820.465	3055
820.605	3028
820.746	3009
820.886	2933
821.026	3116
821.167	3176
821.307	3214
821.447	3298
821.588	3241
821.728	3184
821.868	3195
822.008	3093
822.149	3199
822.289	3253
822.429	3085
822.569	3089
822.709	3195
822.849	3032
822.99	3074
823.13	3173
823.27	3184
823.41	3116
823.55	3127
823.69	3176
823.83	3180
823.97	3062
824.11	2994
824.25	2986
824.389	3077
824.529	3131
824.669	3081
824.809	3176
824.949	3256
825.089	3218
825.228	3184
825.368	3009
825.508	2922
825.648	3005
825.787	3009
825.927	3028
826.067	2998
826.206	2967
826.346	3047
826.485	3081
826.625	3089
826.765	3272
826.904	3207
827.044	2975
827.183	2967
827.323	2861
827.462	2982
827.601	2937
827.741	2922
827.88	2952
828.02	2838
828.159	2994
828.298	3013
828.437	3116
828.577	3051
828.716	3211
828.855	3077
828.994	2963
829.134	2845
829.273	2929
829.412	2876
829.551	2849
829.69	2925
829.829	2979
829.968	3085
830.107	2979
830.246	3043
830.385	2914
830.524	2876
830.663	2849
830.802	2708
830.941	2625
831.08	2663
831.219	2754
831.357	2735
831.496	2960
831.635	2701
831.774	2648
831.913	2632
832.051	2526
832.19	2583
832.329	2686
832.467	2518
832.606	2514
832.744	2560
832.883	2602
833.022	2583
833.16	2636
833.299	2689
833.437	2716
833.576	2712
833.714	2727
833.852	2766
833.991	2762
834.129	2861
834.267	2887
834.406	2796
834.544	2895
834.682	2914
834.821	2906
834.959	3119
835.097	2914
835.235	3085
835.373	3001
835.511	3047
835.65	2982
835.788	3032
835.926	2861
836.064	2834
836.202	2857
836.34	3089
836.478	3176
836.615	3058
836.753	3161
836.891	3237
837.029	3199
837.167	3157
837.305	3112
837.443	3062
837.58	3024
837.718	3192
837.856	3097
837.993	3062
838.131	3184
838.269	3131
838.406	3146
838.544	3116
838.681	2979
838.819	2975
838.956	2864
839.094	2895
839.231	2994
839.369	3043
839.506	3405
839.643	3268
839.781	3047
839.918	3017
840.055	3058
840.193	3116
840.33	3077
840.467	3165
840.604	3195
840.742	3473
840.879	3131
841.016	3081
841.153	3146
841.29	3367
841.427	3336
841.564	3344
841.701	3332
841.838	3264
841.975	3203
842.112	3253
842.249	3127
842.385	3093
842.522	3332
842.659	3150
842.796	3135
842.933	3188
843.069	3089
843.206	3043
843.343	3241
843.479	3184
843.616	3176
843.752	2963
843.889	2883
844.025	3116
844.162	2933
844.298	3085
844.435	3020
844.571	2982
844.708	3135
844.844	3237
844.98	3245
845.117	3249
845.253	3074
845.389	3039
845.525	3116
845.661	3119
845.798	3066
845.934	3146
846.07	3089
846.206	3291
846.342	3351
846.478	3279
846.614	3169
846.75	3081
846.886	3093
847.022	3313
847.158	3199
847.294	3253
847.429	3275
847.565	3233
847.701	3488
847.837	3051
847.972	3017
848.108	3211
848.244	3195
848.379	3005
848.515	2998
848.65	2986
848.786	3020
848.921	3058
849.057	3131
849.192	3176
849.328	3108
849.463	3192
849.598	3062
849.734	3074
849.869	3043
850.004	2971
850.14	3013
850.275	2933
850.41	2887
850.545	2910
850.68	2975
850.815	2990
850.95	3005
851.085	3241
851.22	3112
851.355	3070
851.49	3009
851.625	3024
851.76	3077
851.895	2963
852.03	2944
852.165	3043
852.299	3142
852.434	3233
852.569	3169
852.703	3245
852.838	3302
852.973	3348
853.107	3401
853.242	3161
853.376	3104
853.511	3036
853.645	3074
853.78	3272
853.914	3161
854.048	3142
854.183	3142
854.317	3184
854.451	3348
854.585	3135
854.72	3104
854.854	3226
854.988	3119
855.122	3146
855.256	3028
855.39	3131
855.524	3256
855.658	3180
855.792	3173
855.926	3245
856.06	3245
856.194	3275
856.327	3176
856.461	3116
856.595	3127
856.729	3127
856.862	3287
856.996	3192
857.13	3222
857.263	3226
857.397	3317
857.53	3169
857.664	3291
857.797	3302
857.931	3310
858.064	3222
858.197	3253
858.331	3195
858.464	3154
858.597	3028
858.731	3180
858.864	3173
858.997	3150
859.13	3199
859.263	3211
859.396	3230
859.529	3135
859.662	3085
859.795	3066
859.928	3207
860.061	3351
860.194	3374
860.327	3188
860.46	3138
860.592	3245
860.725	3294
860.858	3287
860.99	3135
861.123	3085
861.256	3085
861.388	3154
861.521	3926
861.653	3085
861.786	3017
861.918	3036
862.05	3116
862.183	3112
862.315	3199
862.447	3233
862.58	3180
862.712	3009
862.844	2899
862.976	3066
863.108	3051
863.24	3325
863.372	2937
863.504	3005
863.636	2967
863.768	3066
863.9	3020
864.032	2956
864.164	2994
864.296	3055
864.428	3127
864.559	3131
864.691	3131
864.823	3104
864.954	3093
865.086	3066
865.217	3062
865.349	2982
865.48	2994
865.612	3055
865.743	3173
865.875	3047
866.006	2956
866.137	2994
866.269	2963
866.4	2971
866.531	2960
866.662	2971
866.793	2941
866.924	2918
867.055	3009
867.186	2952
867.317	2922
867.448	2891
867.579	2864
867.71	2868
867.841	2868
867.972	2937
868.103	2944
868.233	2948
868.364	2914
868.495	2952
868.625	3119
868.756	3199
868.886	3028
869.017	3055
869.147	3218
869.278	3218
869.408	3100
869.539	3058
869.669	3138
869.799	3070
869.929	3173
870.06	3146
870.19	3382
870.32	3336
870.45	3325
870.58	3412
870.71	3466
870.84	3519
870.97	3306
871.1	3249
871.23	3545
871.36	3526
871.489	3397
871.619	3462
871.749	3428
871.879	3469
872.008	3496
872.138	3374
872.267	3279
872.397	3176
872.526	3131
872.656	3058
872.785	3116
872.915	3291
873.044	3389
873.173	3237
873.303	3291
873.432	3275
873.561	3275
873.69	3176
873.819	3199
873.948	3199
874.077	3173
874.206	3097
874.335	3131
874.464	3245
874.593	3389
874.722	3275
874.851	3405
874.979	3393
875.108	3374
875.237	3218
875.365	3218
875.494	3233
875.623	3275
875.751	3119
875.88	3157
876.008	3180
876.136	3249
876.265	3420
876.393	3561
876.521	3496
876.65	3424
876.778	3416
876.906	3313
877.034	3253
877.162	3272
877.29	3218
877.418	3241
877.546	3260
877.674	3279
877.802	3245
877.93	3260
878.058	3146
878.185	3165
878.313	3230
878.441	3256
878.568	3123
878.696	3199
878.824	3298
878.951	3302
879.079	3462
879.206	3652
879.333	3454
879.461	3355
879.588	3412
879.715	3515
879.842	3614
879.97	3454
880.097	3188
880.224	3150
880.351	3207
880.478	3256
880.605	3279
880.732	3226
880.859	3507
880.986	3317
881.112	3351
881.239	3260
881.366	3146
881.493	3085
881.619	3024
881.746	3138
881.872	3097
881.999	3119
882.125	3176
882.252	3279
882.378	3336
882.505	3477
882.631	3283
882.757	3142
882.883	3306
883.01	3256
883.136	3245
883.262	3089
883.388	3131
883.514	3374
883.64	3443
883.766	3340
883.892	3207
884.018	3291
884.143	3435
884.269	3557
884.395	3222
884.52	3211
884.646	3199
884.772	3138
884.897	3165
885.023	3253
885.148	3351
885.274	3454
885.399	3389
885.524	3310
885.65	3279
885.775	3359
885.9	3325
886.025	3431
886.15	3367
886.275	3317
886.4	3272
886.525	3313
886.65	3291
886.775	3332
886.9	3519
887.025	3656
887.149	3447
887.274	3256
887.399	3184
887.523	3230
887.648	3230
887.773	3230
887.897	3424
888.021	3454
888.146	3348
888.27	3447
888.395	3599
888.519	3447
888.643	3431
888.767	3462
888.891	3344
889.015	3317
889.139	3313
889.263	3272
889.387	3450
889.511	3561
889.635	3450
889.759	3268
889.883	3332
890.006	3424
890.13	3523
890.254	3321
890.377	3367
890.501	3245
890.624	3230
890.748	3310
890.871	3199
890.995	3169
891.118	3089
891.241	3256
891.364	3249
891.488	3351
891.611	3203
891.734	3272
891.857	3291
891.98	3245
892.103	3386
892.226	3302
892.349	3237
892.471	3157
892.594	3260
892.717	3306
892.839	3287
892.962	3294
893.085	3416
893.207	3306
893.33	3188
893.452	3207
893.575	3336
893.697	3260
893.819	3507
893.941	3538
894.064	3428
894.186	3256
894.308	3283
894.43	3485
894.552	3599
894.674	3515
894.796	3329
894.918	3340
895.04	3336
895.161	3450
895.283	3405
895.405	3329
895.526	3409
895.648	3462
895.769	3424
895.891	3488
896.012	3447
896.134	3477
896.255	3435
896.376	3435
896.498	3389
896.619	3454
896.74	3393
896.861	3424
896.982	3743
897.103	3915
897.224	3652
897.345	3526
897.466	3477
897.587	3504
897.708	3656
897.828	3538
897.949	3458
898.07	3363
898.19	3469
898.311	3682
898.431	3488
898.552	3549
898.672	3641
898.792	3618
898.913	3557
899.033	3412
899.153	3332
899.273	3298
899.393	3310
899.513	3382
899.633	3348
899.753	3340
899.873	3332
899.993	3428
900.113	3348
900.232	3374
900.352	3393
900.472	3332
900.591	3230
900.711	3344
900.83	3287
900.95	3447
901.069	3515
901.189	3397
901.308	3218
901.427	3180
901.546	3142
901.665	3348
901.784	3310
901.904	3233
902.023	3142
902.141	3028
902.26	3009
902.379	3169
902.498	3077
902.617	3074
902.735	3256
902.854	3264
902.973	3203
903.091	3097
903.21	3093
903.328	3169
903.446	3116
903.565	3119
903.683	3203
903.801	3119
903.919	3287
904.038	3355
904.156	3180
904.274	3310
904.392	3272
904.51	3291
904.627	3363
904.745	3424
904.863	3511
904.981	3275
905.098	3188
905.216	3272
905.334	3336
905.451	3332
905.569	3294
905.686	3439
905.803	3500
905.921	3291
906.038	3462
906.155	3382
906.272	3260
906.389	3374
906.506	3241
906.623	3283
906.74	3279
906.857	3203
906.974	3260
907.091	3462
907.208	3599
907.324	3515
907.441	3397
907.557	3241
907.674	3214
907.79	3249
907.907	3279
908.023	3454
908.139	3389
908.256	3355
908.372	3405
908.488	3382
908.604	3272
908.72	3237
908.836	3317
908.952	3325
909.068	3317
909.184	3511
909.3	3443
909.415	3534
909.531	3488
909.647	3306
909.762	3321
909.878	3260
909.993	3393
910.108	3344
910.224	3382
910.339	3439
910.454	3340
910.57	3313
910.685	3253
910.8	3595
910.915	3561
911.03	3458
911.145	3329
911.259	3306
911.374	3370
911.489	3294
911.604	3294
911.718	3146
911.833	3169
911.947	3039
912.062	3013
912.176	3173
912.291	3211
912.405	3203
912.519	3431
912.633	3538
912.748	3336
912.862	3298
912.976	3180
913.09	3085
913.204	3150
913.318	3233
913.431	3348
913.545	3348
913.659	3458
913.772	3359
913.886	3268
914	3230
914.113	3378
914.226	3443
914.34	3409
914.453	3264
914.566	3450
914.68	3317
914.793	3332
914.906	3154
915.019	3131
915.132	3093
915.245	3188
915.358	3214
915.47	3253
915.583	3264
915.696	3332
915.809	3435
915.921	3466
916.034	3275
916.146	3256
916.259	3230
916.371	3428
916.483	3409
916.595	3298
916.708	3370
916.82	3351
916.932	3401
917.044	3325
917.156	3355
917.268	3245
917.38	3329
917.491	3291
917.603	3401
917.715	3466
917.826	3473
917.938	3401
918.049	3302
918.161	3447
918.272	3580
918.384	3568
918.495	3519
918.606	3348
918.717	3245
918.828	3374
918.939	3409
919.05	3287
919.161	3382
919.272	3203
919.383	3321
919.494	3504
919.604	3682
919.715	3481
919.826	3435
919.936	3477
920.047	3610
920.157	3564
920.267	3774
920.378	3671
920.488	3587
920.598	3755
920.708	3945
920.818	3873
920.928	3896
921.038	4063
921.148	4006
921.258	3732
921.368	3625
921.477	3599
921.587	3553
921.697	3473
921.806	3622
921.916	3492
922.025	3370
922.134	3367
922.244	3355
922.353	3469
922.462	3268
922.571	3264
922.68	3112
922.789	3077
922.898	3192
923.007	3116
923.116	3245
923.224	3192
923.333	3207
923.442	3119
923.55	3142
923.659	3123
923.767	3245
923.876	3142
923.984	3253
924.092	3116
924.201	3256
924.309	3237
924.417	3272
924.525	3207
924.633	3287
924.741	4185
924.849	3066
924.956	3287
925.064	3123
925.172	3089
925.279	3142
925.387	3233
925.494	3195
925.602	3332
925.709	3359
925.816	3218
925.924	3302
926.031	3412
926.138	3321
926.245	3363
926.352	3268
926.459	3420
926.566	3469
926.673	3336
926.779	3291
926.886	3279
926.993	3154
927.099	3142
927.206	3157
927.312	3157
927.419	3245
927.525	3195
927.631	3283
927.737	3192
927.843	3142
927.95	3043
928.056	3131
928.162	3203
928.267	3279
928.373	3930
928.479	3359
928.585	3066
928.69	3275
928.796	3298
928.901	3237
929.007	3032
929.112	3207
929.218	3203
929.323	3135
929.428	3146
929.533	3359
929.638	3135
929.743	3176
929.848	3245
929.953	3218
930.058	3180
930.163	3001
930.267	3047
930.372	3199
930.477	3051
930.581	3336
930.685	3157
930.79	3100
930.894	3119
930.998	3127
931.103	3294
931.207	2929
931.311	2975
931.415	2956
931.519	2777
931.623	2815
