Data from test_V78500241_746.txt Node
Date: Fri Mar 25 16:20:22 CST 2022
User: usil
Spectrometer: V785-0024
Trigger mode: 0
Integration Time (sec): 4.000000E-1
Scans to average: 1
Nonlinearity correction enabled: false
Boxcar width: 0
Storing dark spectrum: false
XAxis mode: Wavelengths
Number of Pixels in Spectrum: 1024
>>>>>Begin Spectral Data<<<<<
801.071	2883
801.214	2963
801.356	2838
801.499	2906
801.641	2853
801.783	2899
801.926	3032
802.068	2952
802.211	2979
802.353	3013
802.496	2918
802.638	2967
802.78	3009
802.923	3043
803.065	3001
803.208	2872
803.35	2899
803.492	2937
803.635	2914
803.777	2773
803.919	2842
804.061	3199
804.204	2929
804.346	2876
804.488	2830
804.63	2986
804.773	2849
804.915	2914
805.057	3074
805.199	2925
805.341	2956
805.483	3009
805.626	3009
805.768	2922
805.91	3070
806.052	3112
806.194	3043
806.336	3161
806.478	3009
806.62	2929
806.762	2982
806.904	3039
807.046	3165
807.188	2963
807.33	2914
807.472	2979
807.614	2872
807.756	3009
807.898	2925
808.04	2857
808.182	2948
808.324	2963
808.465	2891
808.607	2876
808.749	2792
808.891	2849
809.033	2937
809.174	2952
809.316	2853
809.458	2842
809.6	2769
809.741	2731
809.883	2773
810.025	2830
810.166	2849
810.308	2823
810.45	2838
810.591	2758
810.733	2769
810.875	2788
811.016	2739
811.158	2720
811.299	2811
811.441	2899
811.582	2899
811.724	2785
811.865	2826
812.007	2891
812.148	2857
812.29	2868
812.431	2849
812.573	2922
812.714	2948
812.855	3028
812.997	3024
813.138	3089
813.279	2998
813.421	2952
813.562	2941
813.703	2887
813.845	2861
813.986	2762
814.127	2697
814.268	2796
814.41	2830
814.551	2800
814.692	2872
814.833	2823
814.974	2899
815.115	2956
815.256	2819
815.397	2777
815.539	2864
815.68	2739
815.821	2773
815.962	2944
816.103	2922
816.244	2857
816.385	2834
816.526	2990
816.666	2914
816.807	2724
816.948	2922
817.089	2922
817.23	2815
817.371	2781
817.512	2800
817.653	2773
817.793	2823
817.934	2880
818.075	2956
818.216	2986
818.356	3013
818.497	2876
818.638	2804
818.778	2788
818.919	2792
819.06	2773
819.2	2853
819.341	2792
819.481	2781
819.622	2922
819.762	3104
819.903	3039
820.043	2887
820.184	2902
820.324	2906
820.465	2986
820.605	3009
820.746	2998
820.886	2906
821.026	3020
821.167	3108
821.307	3249
821.447	3241
821.588	3195
821.728	3199
821.868	3161
822.008	3055
822.149	3180
822.289	3199
822.429	3055
822.569	3074
822.709	3123
822.849	3001
822.99	3051
823.13	3157
823.27	3192
823.41	3112
823.55	3119
823.69	3127
823.83	3154
823.97	3081
824.11	2998
824.25	3028
824.389	3024
824.529	3135
824.669	3062
824.809	3184
824.949	3222
825.089	3230
825.228	3138
825.368	2990
825.508	2944
825.648	2914
825.787	3020
825.927	3028
826.067	2944
826.206	2922
826.346	3074
826.485	3116
826.625	3097
826.765	3237
826.904	3192
827.044	3032
827.183	2902
827.323	2887
827.462	3005
827.601	2925
827.741	2937
827.88	2971
828.02	2861
828.159	2967
828.298	3043
828.437	3138
828.577	3066
828.716	3283
828.855	3077
828.994	2944
829.134	2887
829.273	2918
829.412	2906
829.551	2910
829.69	2895
829.829	2998
829.968	3142
830.107	3024
830.246	3093
830.385	2910
830.524	2891
830.663	2853
830.802	2758
830.941	2674
831.08	2693
831.219	2811
831.357	2785
831.496	2948
831.635	2727
831.774	2689
831.913	2670
832.051	2545
832.19	2636
832.329	2720
832.467	2594
832.606	2507
832.744	2613
832.883	2625
833.022	2640
833.16	2670
833.299	2716
833.437	2739
833.576	2720
833.714	2769
833.852	2724
833.991	2804
834.129	2876
834.267	2849
834.406	2792
834.544	2891
834.682	2899
834.821	2918
834.959	3119
835.097	2929
835.235	3127
835.373	3070
835.511	3066
835.65	2960
835.788	2963
835.926	2880
836.064	2861
836.202	2857
836.34	3138
836.478	3233
836.615	3051
836.753	3154
836.891	3264
837.029	3207
837.167	3146
837.305	3119
837.443	3085
837.58	2998
837.718	3161
837.856	3077
837.993	3058
838.131	3165
838.269	3150
838.406	3135
838.544	3104
838.681	2994
838.819	2933
838.956	2830
839.094	2861
839.231	2925
839.369	3020
839.506	3397
839.643	3272
839.781	3055
839.918	3032
840.055	3093
840.193	3085
840.33	3085
840.467	3138
840.604	3188
840.742	3428
840.879	3036
841.016	3070
841.153	3157
841.29	3359
841.427	3329
841.564	3256
841.701	3313
841.838	3256
841.975	3207
842.112	3222
842.249	3100
842.385	3077
842.522	3279
842.659	3131
842.796	3077
842.933	3116
843.069	3077
843.206	3017
843.343	3195
843.479	3123
843.616	3165
843.752	2944
843.889	2872
844.025	3104
844.162	2922
844.298	3028
844.435	2986
844.571	2971
844.708	3093
844.844	3173
844.98	3264
845.117	3253
845.253	3077
845.389	3043
845.525	3123
845.661	3123
845.798	3043
845.934	3142
846.07	3066
846.206	3256
846.342	3336
846.478	3253
846.614	3112
846.75	3097
846.886	3066
847.022	3264
847.158	3142
847.294	3249
847.429	3233
847.565	3260
847.701	3500
847.837	3077
847.972	3062
848.108	3173
848.244	3192
848.379	3032
848.515	2994
848.65	2990
848.786	2986
848.921	3047
849.057	3150
849.192	3173
849.328	3157
849.463	3138
849.598	3089
849.734	3036
849.869	3013
850.004	2929
850.14	2998
850.275	2929
850.41	2849
850.545	2918
850.68	2986
850.815	3005
850.95	3009
851.085	3249
851.22	3135
851.355	3028
851.49	2986
851.625	3032
851.76	3032
851.895	2933
852.03	2960
852.165	3058
852.299	3108
852.434	3226
852.569	3161
852.703	3188
852.838	3253
852.973	3344
853.107	3344
853.242	3169
853.376	3119
853.511	2998
853.645	3085
853.78	3233
853.914	3150
854.048	3131
854.183	3108
854.317	3180
854.451	3374
854.585	3135
854.72	3089
854.854	3230
854.988	3043
855.122	3119
855.256	3020
855.39	3123
855.524	3237
855.658	3203
855.792	3173
855.926	3218
856.06	3241
856.194	3275
856.327	3173
856.461	3062
856.595	3127
856.729	3116
856.862	3256
856.996	3154
857.13	3214
857.263	3249
857.397	3321
857.53	3154
857.664	3222
857.797	3237
857.931	3272
858.064	3230
858.197	3268
858.331	3188
858.464	3112
858.597	3013
858.731	3146
858.864	3150
858.997	3108
859.13	3169
859.263	3237
859.396	3199
859.529	3108
859.662	3085
859.795	3074
859.928	3142
860.061	3325
860.194	3298
860.327	3146
860.46	3119
860.592	3241
860.725	3249
860.858	3249
860.99	3127
861.123	3089
861.256	3089
861.388	3173
861.521	3941
861.653	3024
861.786	3020
861.918	3043
862.05	3142
862.183	3097
862.315	3127
862.447	3256
862.58	3119
862.712	2998
862.844	2922
862.976	3043
863.108	3039
863.24	3431
863.372	2899
863.504	3001
863.636	2960
863.768	3058
863.9	3024
864.032	2967
864.164	2948
864.296	3013
864.428	3093
864.559	3127
864.691	3066
864.823	3093
864.954	3047
865.086	3058
865.217	2990
865.349	2994
865.48	3001
865.612	3043
865.743	3192
865.875	2990
866.006	2979
866.137	3009
866.269	2979
866.4	2956
866.531	2941
866.662	2925
866.793	2925
866.924	2918
867.055	2979
867.186	2944
867.317	2925
867.448	2853
867.579	2872
867.71	2880
867.841	2853
867.972	2914
868.103	2933
868.233	2922
868.364	2883
868.495	2929
868.625	3104
868.756	3165
868.886	2971
869.017	3047
869.147	3199
869.278	3173
869.408	3093
869.539	3024
869.669	3108
869.799	3104
869.929	3154
870.06	3123
870.19	3351
870.32	3310
870.45	3336
870.58	3416
870.71	3469
870.84	3416
870.97	3268
871.1	3260
871.23	3496
871.36	3473
871.489	3367
871.619	3454
871.749	3431
871.879	3462
872.008	3500
872.138	3416
872.267	3329
872.397	3173
872.526	3119
872.656	3009
872.785	3104
872.915	3275
873.044	3298
873.173	3264
873.303	3245
873.432	3222
873.561	3237
873.69	3203
873.819	3150
873.948	3226
874.077	3131
874.206	3043
874.335	3055
874.464	3275
874.593	3359
874.722	3241
874.851	3386
874.979	3348
875.108	3359
875.237	3199
875.365	3142
875.494	3165
875.623	3264
875.751	3089
875.88	3146
876.008	3203
876.136	3279
876.265	3355
876.393	3511
876.521	3458
876.65	3405
876.778	3370
876.906	3279
877.034	3203
877.162	3249
877.29	3165
877.418	3264
877.546	3230
877.674	3245
877.802	3272
877.93	3260
878.058	3161
878.185	3123
878.313	3241
878.441	3214
878.568	3085
878.696	3161
878.824	3291
878.951	3306
879.079	3469
879.206	3633
879.333	3462
879.461	3340
879.588	3310
879.715	3523
879.842	3622
879.97	3374
880.097	3173
880.224	3127
880.351	3188
880.478	3253
880.605	3241
880.732	3169
880.859	3511
880.986	3310
881.112	3336
881.239	3249
881.366	3119
881.493	3085
881.619	3005
881.746	3108
881.872	3108
881.999	3104
882.125	3142
882.252	3256
882.378	3348
882.505	3477
882.631	3329
882.757	3150
882.883	3260
883.01	3268
883.136	3169
883.262	3112
883.388	3157
883.514	3325
883.64	3370
883.766	3348
883.892	3203
884.018	3230
884.143	3435
884.269	3557
884.395	3256
884.52	3180
884.646	3195
884.772	3146
884.897	3100
885.023	3192
885.148	3306
885.274	3424
885.399	3340
885.524	3291
885.65	3264
885.775	3378
885.9	3340
886.025	3454
886.15	3355
886.275	3351
886.4	3222
886.525	3332
886.65	3302
886.775	3279
886.9	3545
887.025	3663
887.149	3389
887.274	3245
887.399	3176
887.523	3207
887.648	3135
887.773	3203
887.897	3378
888.021	3397
888.146	3294
888.27	3431
888.395	3549
888.519	3435
888.643	3496
888.767	3469
888.891	3317
889.015	3298
889.139	3279
889.263	3275
889.387	3435
889.511	3500
889.635	3473
889.759	3306
889.883	3306
890.006	3409
890.13	3507
890.254	3264
890.377	3374
890.501	3211
890.624	3180
890.748	3306
890.871	3218
890.995	3104
891.118	3062
891.241	3207
891.364	3256
891.488	3310
891.611	3180
891.734	3214
891.857	3264
891.98	3291
892.103	3367
892.226	3306
892.349	3192
892.471	3169
892.594	3264
892.717	3260
892.839	3256
892.962	3294
893.085	3378
893.207	3317
893.33	3142
893.452	3241
893.575	3351
893.697	3245
893.819	3477
893.941	3504
894.064	3386
894.186	3249
894.308	3268
894.43	3466
894.552	3519
894.674	3462
894.796	3317
894.918	3310
895.04	3272
895.161	3412
895.283	3397
895.405	3298
895.526	3340
895.648	3420
895.769	3443
895.891	3447
896.012	3454
896.134	3458
896.255	3386
896.376	3378
896.498	3359
896.619	3485
896.74	3363
896.861	3412
896.982	3698
897.103	3869
897.224	3633
897.345	3534
897.466	3458
897.587	3511
897.708	3633
897.828	3515
897.949	3447
898.07	3355
898.19	3397
898.311	3580
898.431	3485
898.552	3492
898.672	3595
898.792	3542
898.913	3553
899.033	3431
899.153	3287
899.273	3192
899.393	3291
899.513	3298
899.633	3344
899.753	3302
899.873	3310
899.993	3405
900.113	3325
900.232	3393
900.352	3359
900.472	3294
900.591	3237
900.711	3313
900.83	3268
900.95	3412
901.069	3469
901.189	3363
901.308	3180
901.427	3165
901.546	3195
901.665	3340
901.784	3359
901.904	3245
902.023	3154
902.141	3047
902.26	3024
902.379	3161
902.498	3112
902.617	3100
902.735	3233
902.854	3211
902.973	3249
903.091	3093
903.21	3097
903.328	3169
903.446	3169
903.565	3135
903.683	3237
903.801	3173
903.919	3249
904.038	3336
904.156	3180
904.274	3332
904.392	3298
904.51	3310
904.627	3389
904.745	3477
904.863	3572
904.981	3291
905.098	3211
905.216	3283
905.334	3329
905.451	3359
905.569	3386
905.686	3488
905.803	3466
905.921	3359
906.038	3435
906.155	3443
906.272	3329
906.389	3363
906.506	3256
906.623	3321
906.74	3283
906.857	3233
906.974	3325
907.091	3431
907.208	3599
907.324	3515
907.441	3393
907.557	3275
907.674	3253
907.79	3241
907.907	3336
908.023	3424
908.139	3424
908.256	3329
908.372	3393
908.488	3416
908.604	3336
908.72	3253
908.836	3310
908.952	3321
909.068	3378
909.184	3466
909.3	3443
909.415	3568
909.531	3519
909.647	3321
909.762	3363
909.878	3310
909.993	3367
910.108	3386
910.224	3370
910.339	3439
910.454	3355
910.57	3382
910.685	3275
910.8	3648
910.915	3591
911.03	3450
911.145	3283
911.259	3306
911.374	3344
911.489	3275
911.604	3279
911.718	3157
911.833	3176
911.947	3093
912.062	3013
912.176	3195
912.291	3218
912.405	3233
912.519	3450
912.633	3500
912.748	3386
912.862	3321
912.976	3253
913.09	3089
913.204	3161
913.318	3256
913.431	3363
913.545	3401
913.659	3431
913.772	3367
913.886	3230
914	3237
914.113	3367
914.226	3447
914.34	3397
914.453	3260
914.566	3473
914.68	3336
914.793	3351
914.906	3165
915.019	3157
915.132	3097
915.245	3253
915.358	3253
915.47	3272
915.583	3268
915.696	3294
915.809	3466
915.921	3477
916.034	3256
916.146	3298
916.259	3245
916.371	3401
916.483	3412
916.595	3302
916.708	3348
916.82	3359
916.932	3382
917.044	3374
917.156	3382
917.268	3249
917.38	3348
917.491	3287
917.603	3409
917.715	3545
917.826	3496
917.938	3416
918.049	3279
918.161	3450
918.272	3587
918.384	3603
918.495	3530
918.606	3340
918.717	3321
918.828	3428
918.939	3458
919.05	3321
919.161	3420
919.272	3233
919.383	3332
919.494	3542
919.604	3682
919.715	3500
919.826	3462
919.936	3488
920.047	3587
920.157	3557
920.267	3804
920.378	3660
920.488	3587
920.598	3800
920.708	3972
920.818	3857
920.928	3869
921.038	4044
921.148	4029
921.258	3679
921.368	3618
921.477	3610
921.587	3568
921.697	3488
921.806	3663
921.916	3568
922.025	3348
922.134	3386
922.244	3344
922.353	3462
922.462	3287
922.571	3249
922.68	3119
922.789	3123
922.898	3165
923.007	3081
923.116	3237
923.224	3188
923.333	3192
923.442	3127
923.55	3112
923.659	3161
923.767	3249
923.876	3176
923.984	3253
924.092	3176
924.201	3218
924.309	3287
924.417	3332
924.525	3192
924.633	3272
924.741	4215
924.849	3093
924.956	3287
925.064	3135
925.172	3077
925.279	3116
925.387	3241
925.494	3253
925.602	3370
925.709	3363
925.816	3207
925.924	3348
926.031	3416
926.138	3367
926.245	3397
926.352	3272
926.459	3443
926.566	3488
926.673	3344
926.779	3287
926.886	3272
926.993	3184
927.099	3180
927.206	3195
927.312	3154
927.419	3237
927.525	3237
927.631	3325
927.737	3195
927.843	3173
927.95	3074
928.056	3169
928.162	3237
928.267	3275
928.373	3873
928.479	3340
928.585	3089
928.69	3245
928.796	3272
928.901	3195
929.007	3108
929.112	3256
929.218	3192
929.323	3188
929.428	3188
929.533	3344
929.638	3161
929.743	3214
929.848	3298
929.953	3268
930.058	3161
930.163	3055
930.267	3077
930.372	3211
930.477	3055
930.581	3340
930.685	3226
930.79	3104
930.894	3184
930.998	3116
931.103	3306
931.207	2994
931.311	2952
931.415	2944
931.519	2807
931.623	2834
