Data from test_V78500241_1311.txt Node
Date: Fri Mar 25 16:24:17 CST 2022
User: usil
Spectrometer: V785-0024
Trigger mode: 0
Integration Time (sec): 4.000000E-1
Scans to average: 1
Nonlinearity correction enabled: false
Boxcar width: 0
Storing dark spectrum: false
XAxis mode: Wavelengths
Number of Pixels in Spectrum: 1024
>>>>>Begin Spectral Data<<<<<
801.071	2960
801.214	2979
801.356	2899
801.499	2929
801.641	2887
801.783	2914
801.926	3051
802.068	2998
802.211	3028
802.353	3051
802.496	2975
802.638	3089
802.78	3036
802.923	3093
803.065	3013
803.208	2880
803.35	2967
803.492	2967
803.635	2986
803.777	2811
803.919	2883
804.061	3203
804.204	2956
804.346	2971
804.488	2861
804.63	3013
804.773	2872
804.915	2960
805.057	3097
805.199	2948
805.341	2963
805.483	3104
805.626	3009
805.768	2967
805.91	3119
806.052	3154
806.194	3051
806.336	3245
806.478	3017
806.62	2975
806.762	3013
806.904	3058
807.046	3169
807.188	3009
807.33	2925
807.472	3009
807.614	2933
807.756	2979
807.898	2944
808.04	2918
808.182	3009
808.324	2948
808.465	2918
808.607	2891
808.749	2845
808.891	2891
809.033	3009
809.174	2960
809.316	2937
809.458	2918
809.6	2819
809.741	2777
809.883	2796
810.025	2876
810.166	2834
810.308	2876
810.45	2861
810.591	2788
810.733	2804
810.875	2876
811.016	2766
811.158	2792
811.299	2845
811.441	2944
811.582	2887
811.724	2853
811.865	2861
812.007	2906
812.148	2922
812.29	2868
812.431	2891
812.573	2952
812.714	2986
812.855	3058
812.997	3077
813.138	3135
813.279	3009
813.421	3001
813.562	2975
813.703	2861
813.845	2895
813.986	2804
814.127	2766
814.268	2849
814.41	2868
814.551	2815
814.692	2861
814.833	2857
814.974	2891
815.115	2941
815.256	2857
815.397	2826
815.539	2845
815.68	2842
815.821	2811
815.962	2918
816.103	2914
816.244	2883
816.385	2887
816.526	2952
816.666	2906
816.807	2705
816.948	2914
817.089	2918
817.23	2887
817.371	2807
817.512	2823
817.653	2826
817.793	2838
817.934	2941
818.075	2971
818.216	2998
818.356	3066
818.497	2895
818.638	2796
818.778	2811
818.919	2830
819.06	2796
819.2	2891
819.341	2838
819.481	2807
819.622	2960
819.762	3108
819.903	3062
820.043	2937
820.184	2948
820.324	2956
820.465	3017
820.605	3020
820.746	3024
820.886	2967
821.026	3104
821.167	3203
821.307	3253
821.447	3306
821.588	3253
821.728	3165
821.868	3199
822.008	3100
822.149	3199
822.289	3218
822.429	3089
822.569	3119
822.709	3180
822.849	3020
822.99	3077
823.13	3146
823.27	3199
823.41	3093
823.55	3154
823.69	3188
823.83	3180
823.97	3131
824.11	2998
824.25	3032
824.389	3074
824.529	3157
824.669	3058
824.809	3203
824.949	3256
825.089	3218
825.228	3146
825.368	3066
825.508	2956
825.648	2990
825.787	3001
825.927	3032
826.067	3017
826.206	2952
826.346	3074
826.485	3074
826.625	3127
826.765	3298
826.904	3233
827.044	2971
827.183	2971
827.323	2876
827.462	2998
827.601	2925
827.741	2956
827.88	2982
828.02	2868
828.159	2998
828.298	3058
828.437	3112
828.577	3070
828.716	3230
828.855	3085
828.994	2910
829.134	2918
829.273	2902
829.412	2876
829.551	2876
829.69	2895
829.829	2990
829.968	3150
830.107	3024
830.246	3036
830.385	2948
830.524	2876
830.663	2849
830.802	2750
830.941	2644
831.08	2655
831.219	2777
831.357	2716
831.496	2986
831.635	2724
831.774	2640
831.913	2632
832.051	2549
832.19	2587
832.329	2689
832.467	2568
832.606	2469
832.744	2594
832.883	2575
833.022	2590
833.16	2644
833.299	2701
833.437	2716
833.576	2724
833.714	2720
833.852	2773
833.991	2781
834.129	2849
834.267	2819
834.406	2800
834.544	2872
834.682	2895
834.821	2887
834.959	3074
835.097	2891
835.235	3070
835.373	3020
835.511	3017
835.65	2982
835.788	2986
835.926	2830
836.064	2815
836.202	2857
836.34	3097
836.478	3131
836.615	3077
836.753	3150
836.891	3245
837.029	3184
837.167	3104
837.305	3077
837.443	3028
837.58	2979
837.718	3176
837.856	3055
837.993	3058
838.131	3112
838.269	3135
838.406	3157
838.544	3077
838.681	2929
838.819	2948
838.956	2826
839.094	2849
839.231	2937
839.369	3051
839.506	3393
839.643	3195
839.781	3009
839.918	2982
840.055	3070
840.193	3036
840.33	3077
840.467	3104
840.604	3146
840.742	3378
840.879	3077
841.016	3024
841.153	3097
841.29	3336
841.427	3294
841.564	3253
841.701	3294
841.838	3214
841.975	3173
842.112	3230
842.249	3093
842.385	3043
842.522	3260
842.659	3093
842.796	3074
842.933	3070
843.069	3058
843.206	3013
843.343	3188
843.479	3100
843.616	3176
843.752	2918
843.889	2819
844.025	3066
844.162	2880
844.298	3097
844.435	2948
844.571	2914
844.708	3085
844.844	3230
844.98	3241
845.117	3161
845.253	3058
845.389	2998
845.525	3108
845.661	3108
845.798	3013
845.934	3127
846.07	3074
846.206	3260
846.342	3310
846.478	3237
846.614	3058
846.75	3043
846.886	3020
847.022	3203
847.158	3135
847.294	3237
847.429	3233
847.565	3214
847.701	3447
847.837	3062
847.972	3062
848.108	3173
848.244	3138
848.379	3032
848.515	2933
848.65	2956
848.786	2979
848.921	2998
849.057	3123
849.192	3173
849.328	3104
849.463	3093
849.598	3074
849.734	3066
849.869	2998
850.004	2948
850.14	2960
850.275	2918
850.41	2880
850.545	2887
850.68	2948
850.815	2986
850.95	3036
851.085	3222
851.22	3142
851.355	3074
851.49	2990
851.625	3032
851.76	3055
851.895	2956
852.03	2933
852.165	3081
852.299	3176
852.434	3199
852.569	3207
852.703	3218
852.838	3268
852.973	3374
853.107	3389
853.242	3169
853.376	3142
853.511	2998
853.645	3097
853.78	3260
853.914	3165
854.048	3127
854.183	3138
854.317	3176
854.451	3329
854.585	3195
854.72	3097
854.854	3233
854.988	3116
855.122	3123
855.256	3047
855.39	3116
855.524	3283
855.658	3218
855.792	3192
855.926	3211
856.06	3256
856.194	3291
856.327	3214
856.461	3123
856.595	3123
856.729	3142
856.862	3264
856.996	3218
857.13	3230
857.263	3291
857.397	3302
857.53	3157
857.664	3256
857.797	3260
857.931	3268
858.064	3184
858.197	3230
858.331	3192
858.464	3127
858.597	3028
858.731	3142
858.864	3199
858.997	3135
859.13	3195
859.263	3184
859.396	3233
859.529	3119
859.662	3123
859.795	3097
859.928	3176
860.061	3275
860.194	3348
860.327	3169
860.46	3127
860.592	3260
860.725	3283
860.858	3275
860.99	3131
861.123	3077
861.256	3119
861.388	3195
861.521	3713
861.653	3062
861.786	2971
861.918	3066
862.05	3100
862.183	3138
862.315	3173
862.447	3199
862.58	3135
862.712	2975
862.844	2910
862.976	3032
863.108	3047
863.24	3348
863.372	2937
863.504	3032
863.636	3032
863.768	3043
863.9	3036
864.032	2941
864.164	2979
864.296	3055
864.428	3131
864.559	3131
864.691	3097
864.823	3100
864.954	3058
865.086	3089
865.217	3020
865.349	3017
865.48	3001
865.612	3062
865.743	3207
865.875	3032
866.006	2941
866.137	3020
866.269	2979
866.4	2971
866.531	2960
866.662	2937
866.793	2941
866.924	2922
867.055	3001
867.186	2975
867.317	2914
867.448	2887
867.579	2830
867.71	2883
867.841	2872
867.972	2906
868.103	2960
868.233	2922
868.364	2933
868.495	2952
868.625	3138
868.756	3184
868.886	3005
869.017	3055
869.147	3169
869.278	3165
869.408	3055
869.539	3028
869.669	3108
869.799	3058
869.929	3173
870.06	3146
870.19	3336
870.32	3355
870.45	3344
870.58	3370
870.71	3511
870.84	3492
870.97	3317
871.1	3298
871.23	3496
871.36	3481
871.489	3351
871.619	3424
871.749	3405
871.879	3507
872.008	3488
872.138	3393
872.267	3279
872.397	3173
872.526	3146
872.656	3024
872.785	3108
872.915	3256
873.044	3332
873.173	3268
873.303	3283
873.432	3260
873.561	3241
873.69	3169
873.819	3173
873.948	3230
874.077	3142
874.206	3089
874.335	3089
874.464	3275
874.593	3351
874.722	3256
874.851	3397
874.979	3378
875.108	3351
875.237	3192
875.365	3176
875.494	3222
875.623	3306
875.751	3074
875.88	3142
876.008	3165
876.136	3260
876.265	3409
876.393	3534
876.521	3443
876.65	3416
876.778	3378
876.906	3260
877.034	3211
877.162	3272
877.29	3180
877.418	3298
877.546	3275
877.674	3249
877.802	3226
877.93	3264
878.058	3207
878.185	3138
878.313	3195
878.441	3230
878.568	3108
878.696	3226
878.824	3291
878.951	3325
879.079	3458
879.206	3614
879.333	3469
879.461	3351
879.588	3367
879.715	3485
879.842	3606
879.97	3412
880.097	3173
880.224	3127
880.351	3214
880.478	3272
880.605	3237
880.732	3230
880.859	3526
880.986	3306
881.112	3370
881.239	3195
881.366	3127
881.493	3051
881.619	3085
881.746	3123
881.872	3146
881.999	3123
882.125	3150
882.252	3275
882.378	3317
882.505	3424
882.631	3283
882.757	3142
882.883	3264
883.01	3241
883.136	3199
883.262	3116
883.388	3100
883.514	3317
883.64	3389
883.766	3329
883.892	3188
884.018	3230
884.143	3428
884.269	3557
884.395	3207
884.52	3180
884.646	3176
884.772	3157
884.897	3135
885.023	3226
885.148	3329
885.274	3424
885.399	3412
885.524	3272
885.65	3275
885.775	3359
885.9	3329
886.025	3443
886.15	3397
886.275	3287
886.4	3275
886.525	3306
886.65	3264
886.775	3298
886.9	3504
887.025	3671
887.149	3450
887.274	3272
887.399	3226
887.523	3211
887.648	3218
887.773	3241
887.897	3378
888.021	3428
888.146	3348
888.27	3454
888.395	3545
888.519	3466
888.643	3462
888.767	3526
888.891	3351
889.015	3233
889.139	3313
889.263	3264
889.387	3481
889.511	3530
889.635	3469
889.759	3306
889.883	3348
890.006	3447
890.13	3500
890.254	3313
890.377	3351
890.501	3233
890.624	3233
890.748	3348
890.871	3176
890.995	3150
891.118	3104
891.241	3214
891.364	3218
891.488	3344
891.611	3211
891.734	3287
891.857	3348
891.98	3233
892.103	3351
892.226	3294
892.349	3222
892.471	3123
892.594	3241
892.717	3275
892.839	3313
892.962	3310
893.085	3367
893.207	3287
893.33	3161
893.452	3211
893.575	3355
893.697	3222
893.819	3504
893.941	3542
894.064	3469
894.186	3298
894.308	3291
894.43	3504
894.552	3553
894.674	3462
894.796	3291
894.918	3355
895.04	3298
895.161	3454
895.283	3405
895.405	3321
895.526	3370
895.648	3420
895.769	3458
895.891	3500
896.012	3496
896.134	3492
896.255	3458
896.376	3386
896.498	3424
896.619	3439
896.74	3382
896.861	3420
896.982	3679
897.103	3831
897.224	3618
897.345	3576
897.466	3458
897.587	3519
897.708	3660
897.828	3557
897.949	3454
898.07	3348
898.19	3435
898.311	3625
898.431	3458
898.552	3545
898.672	3580
898.792	3606
898.913	3496
899.033	3447
899.153	3306
899.273	3222
899.393	3291
899.513	3329
899.633	3306
899.753	3367
899.873	3325
899.993	3416
900.113	3317
900.232	3393
900.352	3363
900.472	3325
900.591	3230
900.711	3283
900.83	3260
900.95	3435
901.069	3496
901.189	3336
901.308	3207
901.427	3146
901.546	3211
901.665	3313
901.784	3302
901.904	3199
902.023	3173
902.141	3039
902.26	3005
902.379	3157
902.498	3062
902.617	3055
902.735	3192
902.854	3279
902.973	3207
903.091	3074
903.21	3089
903.328	3150
903.446	3123
903.565	3116
903.683	3195
903.801	3154
903.919	3291
904.038	3317
904.156	3192
904.274	3302
904.392	3291
904.51	3298
904.627	3351
904.745	3469
904.863	3496
904.981	3249
905.098	3207
905.216	3233
905.334	3310
905.451	3344
905.569	3325
905.686	3462
905.803	3469
905.921	3294
906.038	3462
906.155	3393
906.272	3237
906.389	3378
906.506	3245
906.623	3283
906.74	3260
906.857	3199
906.974	3268
907.091	3454
907.208	3580
907.324	3523
907.441	3374
907.557	3249
907.674	3237
907.79	3230
907.907	3310
908.023	3412
908.139	3359
908.256	3321
908.372	3435
908.488	3340
908.604	3317
908.72	3256
908.836	3329
908.952	3302
909.068	3370
909.184	3519
909.3	3428
909.415	3519
909.531	3488
909.647	3287
909.762	3310
909.878	3287
909.993	3370
910.108	3374
910.224	3355
910.339	3405
910.454	3332
910.57	3294
910.685	3241
910.8	3591
910.915	3538
911.03	3469
911.145	3268
911.259	3306
911.374	3321
911.489	3275
911.604	3260
911.718	3108
911.833	3142
911.947	3009
912.062	3001
912.176	3154
912.291	3192
912.405	3192
912.519	3412
912.633	3428
912.748	3321
912.862	3291
912.976	3176
913.09	3043
913.204	3123
913.318	3245
913.431	3321
913.545	3313
913.659	3443
913.772	3359
913.886	3245
914	3195
914.113	3405
914.226	3458
914.34	3332
914.453	3253
914.566	3416
914.68	3275
914.793	3317
914.906	3150
915.019	3135
915.132	3077
915.245	3207
915.358	3241
915.47	3241
915.583	3287
915.696	3272
915.809	3450
915.921	3416
916.034	3249
916.146	3237
916.259	3241
916.371	3416
916.483	3405
916.595	3253
916.708	3367
916.82	3332
916.932	3340
917.044	3355
917.156	3359
917.268	3253
917.38	3302
917.491	3256
917.603	3374
917.715	3431
917.826	3458
917.938	3389
918.049	3291
918.161	3431
918.272	3610
918.384	3542
918.495	3519
918.606	3389
918.717	3287
918.828	3378
918.939	3424
919.05	3336
919.161	3397
919.272	3195
919.383	3279
919.494	3485
919.604	3728
919.715	3526
919.826	3435
919.936	3466
920.047	3599
920.157	3538
920.267	3785
920.378	3595
920.488	3580
920.598	3736
920.708	4021
920.818	3854
920.928	3846
921.038	4013
921.148	3968
921.258	3663
921.368	3675
921.477	3580
921.587	3584
921.697	3504
921.806	3641
921.916	3538
922.025	3405
922.134	3336
922.244	3325
922.353	3405
922.462	3298
922.571	3241
922.68	3119
922.789	3108
922.898	3127
923.007	3116
923.116	3192
923.224	3157
923.333	3180
923.442	3089
923.55	3093
923.659	3157
923.767	3233
923.876	3131
923.984	3233
924.092	3097
924.201	3214
924.309	3233
924.417	3245
924.525	3222
924.633	3249
924.741	4017
924.849	3066
924.956	3249
925.064	3085
925.172	3047
925.279	3108
925.387	3211
925.494	3199
925.602	3382
925.709	3332
925.816	3222
925.924	3332
926.031	3363
926.138	3329
926.245	3378
926.352	3256
926.459	3412
926.566	3500
926.673	3321
926.779	3260
926.886	3283
926.993	3157
927.099	3138
927.206	3123
927.312	3093
927.419	3245
927.525	3165
927.631	3283
927.737	3127
927.843	3138
927.95	3039
928.056	3123
928.162	3203
928.267	3249
928.373	3865
928.479	3291
928.585	3077
928.69	3214
928.796	3298
928.901	3161
929.007	3093
929.112	3237
929.218	3192
929.323	3161
929.428	3157
929.533	3329
929.638	3119
929.743	3169
929.848	3279
929.953	3222
930.058	3173
930.163	2998
930.267	3055
930.372	3192
930.477	3051
930.581	3306
930.685	3180
930.79	3062
930.894	3089
930.998	3150
931.103	3272
931.207	2982
931.311	2975
931.415	2914
931.519	2811
931.623	2807
