Data from test_V78500241_2015.txt Node
Date: Fri Mar 25 16:29:09 CST 2022
User: usil
Spectrometer: V785-0024
Trigger mode: 0
Integration Time (sec): 4.000000E-1
Scans to average: 1
Nonlinearity correction enabled: false
Boxcar width: 0
Storing dark spectrum: false
XAxis mode: Wavelengths
Number of Pixels in Spectrum: 1024
>>>>>Begin Spectral Data<<<<<
801.071	2998
801.214	2956
801.356	2864
801.499	2880
801.641	2914
801.783	2948
801.926	3100
802.068	2990
802.211	3013
802.353	3047
802.496	2963
802.638	3043
802.78	3047
802.923	3081
803.065	2998
803.208	2880
803.35	2929
803.492	2929
803.635	2902
803.777	2777
803.919	2868
804.061	3173
804.204	2956
804.346	2876
804.488	2880
804.63	3020
804.773	2902
804.915	2933
805.057	3119
805.199	2918
805.341	2971
805.483	3020
805.626	2990
805.768	2982
805.91	3093
806.052	3093
806.194	3055
806.336	3241
806.478	3028
806.62	2956
806.762	2990
806.904	3051
807.046	3180
807.188	2975
807.33	2941
807.472	2971
807.614	2925
807.756	2998
807.898	2918
808.04	2895
808.182	3001
808.324	2967
808.465	2906
808.607	2887
808.749	2834
808.891	2876
809.033	3001
809.174	2975
809.316	2933
809.458	2880
809.6	2785
809.741	2800
809.883	2788
810.025	2864
810.166	2849
810.308	2853
810.45	2845
810.591	2788
810.733	2796
810.875	2834
811.016	2781
811.158	2777
811.299	2823
811.441	2960
811.582	2887
811.724	2819
811.865	2826
812.007	2918
812.148	2845
812.29	2872
812.431	2883
812.573	2929
812.714	2963
812.855	3020
812.997	3039
813.138	3100
813.279	3017
813.421	2971
813.562	2948
813.703	2883
813.845	2906
813.986	2781
814.127	2686
814.268	2773
814.41	2823
814.551	2819
814.692	2883
814.833	2842
814.974	2891
815.115	2971
815.256	2826
815.397	2796
815.539	2845
815.68	2743
815.821	2807
815.962	2956
816.103	2941
816.244	2899
816.385	2845
816.526	2960
816.666	2914
816.807	2777
816.948	2910
817.089	2906
817.23	2853
817.371	2777
817.512	2800
817.653	2845
817.793	2807
817.934	2876
818.075	2918
818.216	2990
818.356	3017
818.497	2902
818.638	2819
818.778	2838
818.919	2800
819.06	2796
819.2	2895
819.341	2819
819.481	2819
819.622	2952
819.762	3089
819.903	3017
820.043	2899
820.184	2906
820.324	2914
820.465	2990
820.605	3005
820.746	3074
820.886	2944
821.026	3108
821.167	3176
821.307	3291
821.447	3275
821.588	3272
821.728	3222
821.868	3230
822.008	3119
822.149	3230
822.289	3237
822.429	3097
822.569	3077
822.709	3203
822.849	3074
822.99	3116
823.13	3150
823.27	3222
823.41	3131
823.55	3195
823.69	3161
823.83	3203
823.97	3138
824.11	3009
824.25	3024
824.389	3119
824.529	3093
824.669	3062
824.809	3245
824.949	3298
825.089	3264
825.228	3211
825.368	3047
825.508	2979
825.648	3032
825.787	3032
825.927	3058
826.067	2994
826.206	2975
826.346	3097
826.485	3100
826.625	3150
826.765	3302
826.904	3260
827.044	3024
827.183	2979
827.323	2933
827.462	3028
827.601	2952
827.741	2963
827.88	2994
828.02	2918
828.159	2998
828.298	3066
828.437	3157
828.577	3066
828.716	3287
828.855	3104
828.994	2971
829.134	2902
829.273	2956
829.412	2906
829.551	2918
829.69	2952
829.829	3017
829.968	3180
830.107	3081
830.246	3055
830.385	2975
830.524	2933
830.663	2845
830.802	2750
830.941	2724
831.08	2678
831.219	2834
831.357	2766
831.496	3005
831.635	2743
831.774	2705
831.913	2731
832.051	2583
832.19	2629
832.329	2735
832.467	2587
832.606	2526
832.744	2621
832.883	2598
833.022	2632
833.16	2689
833.299	2727
833.437	2735
833.576	2735
833.714	2762
833.852	2781
833.991	2800
834.129	2887
834.267	2853
834.406	2830
834.544	2842
834.682	2925
834.821	2872
834.959	3104
835.097	2941
835.235	3089
835.373	3047
835.511	3024
835.65	3020
835.788	2967
835.926	2834
836.064	2807
836.202	2857
836.34	3097
836.478	3188
836.615	3085
836.753	3180
836.891	3287
837.029	3157
837.167	3138
837.305	3081
837.443	3070
837.58	2998
837.718	3176
837.856	3081
837.993	3058
838.131	3188
838.269	3119
838.406	3119
838.544	3116
838.681	2979
838.819	2963
838.956	2849
839.094	2883
839.231	2948
839.369	3047
839.506	3409
839.643	3253
839.781	3047
839.918	2998
840.055	3081
840.193	3070
840.33	3135
840.467	3150
840.604	3157
840.742	3443
840.879	3104
841.016	3081
841.153	3138
841.29	3355
841.427	3336
841.564	3340
841.701	3359
841.838	3268
841.975	3237
842.112	3214
842.249	3150
842.385	3077
842.522	3306
842.659	3119
842.796	3055
842.933	3142
843.069	3062
843.206	3051
843.343	3214
843.479	3138
843.616	3142
843.752	2910
843.889	2922
844.025	3119
844.162	2891
844.298	3116
844.435	2979
844.571	2944
844.708	3108
844.844	3237
844.98	3256
845.117	3211
845.253	3100
845.389	3017
845.525	3100
845.661	3138
845.798	3047
845.934	3131
846.07	3093
846.206	3272
846.342	3393
846.478	3275
846.614	3116
846.75	3074
846.886	3058
847.022	3260
847.158	3135
847.294	3233
847.429	3256
847.565	3214
847.701	3507
847.837	3039
847.972	3017
848.108	3188
848.244	3192
848.379	3024
848.515	3001
848.65	2990
848.786	2986
848.921	3020
849.057	3135
849.192	3165
849.328	3097
849.463	3131
849.598	3077
849.734	3089
849.869	2982
850.004	2948
850.14	2986
850.275	2952
850.41	2872
850.545	2944
850.68	2952
850.815	2979
850.95	2998
851.085	3169
851.22	3157
851.355	3066
851.49	2994
851.625	3047
851.76	3020
851.895	2975
852.03	2952
852.165	3032
852.299	3131
852.434	3180
852.569	3150
852.703	3222
852.838	3306
852.973	3355
853.107	3329
853.242	3184
853.376	3100
853.511	2998
853.645	3058
853.78	3253
853.914	3150
854.048	3146
854.183	3108
854.317	3131
854.451	3321
854.585	3154
854.72	3127
854.854	3283
854.988	3074
855.122	3116
855.256	2998
855.39	3097
855.524	3233
855.658	3188
855.792	3173
855.926	3180
856.06	3249
856.194	3294
856.327	3195
856.461	3062
856.595	3112
856.729	3097
856.862	3195
856.996	3173
857.13	3256
857.263	3245
857.397	3302
857.53	3169
857.664	3218
857.797	3268
857.931	3302
858.064	3180
858.197	3241
858.331	3184
858.464	3135
858.597	2998
858.731	3150
858.864	3165
858.997	3123
859.13	3161
859.263	3176
859.396	3203
859.529	3077
859.662	3074
859.795	3093
859.928	3176
860.061	3310
860.194	3302
860.327	3108
860.46	3138
860.592	3253
860.725	3241
860.858	3272
860.99	3135
861.123	3074
861.256	3077
861.388	3146
861.521	3835
861.653	3051
861.786	3009
861.918	3039
862.05	3039
862.183	3108
862.315	3154
862.447	3253
862.58	3131
862.712	2979
862.844	2895
862.976	3032
863.108	3017
863.24	3332
863.372	2899
863.504	2998
863.636	2937
863.768	3062
863.9	3017
864.032	2944
864.164	2982
864.296	3013
864.428	3108
864.559	3116
864.691	3081
864.823	3066
864.954	3062
865.086	3085
865.217	3001
865.349	2944
865.48	2994
865.612	3032
865.743	3176
865.875	2990
866.006	2963
866.137	3020
866.269	2933
866.4	2952
866.531	2948
866.662	2918
866.793	2918
866.924	2918
867.055	2990
867.186	2960
867.317	2963
867.448	2880
867.579	2861
867.71	2876
867.841	2834
867.972	2902
868.103	2910
868.233	2891
868.364	2937
868.495	2918
868.625	3055
868.756	3173
868.886	2990
869.017	3028
869.147	3176
869.278	3169
869.408	3070
869.539	3074
869.669	3077
869.799	3062
869.929	3131
870.06	3127
870.19	3321
870.32	3321
870.45	3310
870.58	3382
870.71	3454
870.84	3466
870.97	3336
871.1	3268
871.23	3492
871.36	3504
871.489	3389
871.619	3416
871.749	3409
871.879	3473
872.008	3492
872.138	3386
872.267	3287
872.397	3119
872.526	3123
872.656	3032
872.785	3089
872.915	3249
873.044	3367
873.173	3222
873.303	3298
873.432	3272
873.561	3260
873.69	3180
873.819	3173
873.948	3241
874.077	3119
874.206	3024
874.335	3108
874.464	3233
874.593	3351
874.722	3313
874.851	3401
874.979	3378
875.108	3332
875.237	3188
875.365	3176
875.494	3195
875.623	3264
875.751	3100
875.88	3150
876.008	3180
876.136	3245
876.265	3389
876.393	3515
876.521	3450
876.65	3412
876.778	3389
876.906	3264
877.034	3188
877.162	3249
877.29	3226
877.418	3275
877.546	3268
877.674	3272
877.802	3233
877.93	3245
878.058	3207
878.185	3112
878.313	3214
878.441	3207
878.568	3047
878.696	3157
878.824	3260
878.951	3291
879.079	3488
879.206	3625
879.333	3450
879.461	3363
879.588	3359
879.715	3466
879.842	3614
879.97	3389
880.097	3195
880.224	3142
880.351	3222
880.478	3222
880.605	3180
880.732	3146
880.859	3523
880.986	3317
881.112	3325
881.239	3211
881.366	3127
881.493	3066
881.619	3043
881.746	3062
881.872	3097
881.999	3112
882.125	3138
882.252	3253
882.378	3332
882.505	3416
882.631	3298
882.757	3165
882.883	3180
883.01	3233
883.136	3180
883.262	3119
883.388	3093
883.514	3329
883.64	3401
883.766	3302
883.892	3203
884.018	3256
884.143	3435
884.269	3561
884.395	3211
884.52	3157
884.646	3192
884.772	3127
884.897	3116
885.023	3199
885.148	3310
885.274	3447
885.399	3348
885.524	3287
885.65	3260
885.775	3317
885.9	3291
886.025	3462
886.15	3378
886.275	3321
886.4	3249
886.525	3298
886.65	3253
886.775	3279
886.9	3530
887.025	3648
887.149	3416
887.274	3275
887.399	3203
887.523	3199
887.648	3176
887.773	3192
887.897	3382
888.021	3412
888.146	3279
888.27	3416
888.395	3553
888.519	3443
888.643	3443
888.767	3485
888.891	3332
889.015	3241
889.139	3310
889.263	3237
889.387	3409
889.511	3515
889.635	3466
889.759	3283
889.883	3279
890.006	3363
890.13	3511
890.254	3283
890.377	3336
890.501	3180
890.624	3203
890.748	3291
890.871	3237
890.995	3135
891.118	3100
891.241	3245
891.364	3260
891.488	3344
891.611	3157
891.734	3275
891.857	3298
891.98	3249
892.103	3370
892.226	3287
892.349	3203
892.471	3123
892.594	3283
892.717	3302
892.839	3264
892.962	3275
893.085	3355
893.207	3268
893.33	3150
893.452	3253
893.575	3329
893.697	3230
893.819	3462
893.941	3534
894.064	3420
894.186	3291
894.308	3253
894.43	3428
894.552	3523
894.674	3500
894.796	3291
894.918	3268
895.04	3291
895.161	3439
895.283	3428
895.405	3332
895.526	3363
895.648	3447
895.769	3409
895.891	3469
896.012	3485
896.134	3477
896.255	3462
896.376	3393
896.498	3382
896.619	3412
896.74	3393
896.861	3416
896.982	3652
897.103	3865
897.224	3603
897.345	3534
897.466	3458
897.587	3549
897.708	3656
897.828	3519
897.949	3401
898.07	3344
898.19	3439
898.311	3614
898.431	3488
898.552	3504
898.672	3610
898.792	3576
898.913	3534
899.033	3367
899.153	3279
899.273	3233
899.393	3291
899.513	3336
899.633	3329
899.753	3370
899.873	3348
899.993	3386
900.113	3340
900.232	3393
900.352	3355
900.472	3268
900.591	3214
900.711	3336
900.83	3237
900.95	3428
901.069	3500
901.189	3370
901.308	3188
901.427	3119
901.546	3203
901.665	3306
901.784	3340
901.904	3192
902.023	3165
902.141	3005
902.26	2967
902.379	3142
902.498	3089
902.617	3039
902.735	3233
902.854	3256
902.973	3142
903.091	3058
903.21	3104
903.328	3169
903.446	3097
903.565	3089
903.683	3195
903.801	3146
903.919	3279
904.038	3279
904.156	3173
904.274	3325
904.392	3279
904.51	3291
904.627	3370
904.745	3439
904.863	3454
904.981	3256
905.098	3184
905.216	3237
905.334	3283
905.451	3329
905.569	3313
905.686	3424
905.803	3492
905.921	3287
906.038	3447
906.155	3363
906.272	3245
906.389	3306
906.506	3249
906.623	3275
906.74	3272
906.857	3207
906.974	3222
907.091	3458
907.208	3564
907.324	3473
907.441	3405
907.557	3222
907.674	3233
907.79	3230
907.907	3279
908.023	3386
908.139	3329
908.256	3325
908.372	3374
908.488	3363
908.604	3291
908.72	3241
908.836	3283
908.952	3298
909.068	3344
909.184	3462
909.3	3389
909.415	3526
909.531	3485
909.647	3298
909.762	3294
909.878	3268
909.993	3336
910.108	3317
910.224	3291
910.339	3435
910.454	3340
910.57	3313
910.685	3298
910.8	3568
910.915	3549
911.03	3424
911.145	3283
911.259	3298
911.374	3340
911.489	3230
911.604	3173
911.718	3142
911.833	3169
911.947	3032
912.062	2986
912.176	3157
912.291	3256
912.405	3199
912.519	3424
912.633	3443
912.748	3275
912.862	3275
912.976	3192
913.09	3081
913.204	3157
913.318	3218
913.431	3313
913.545	3321
913.659	3443
913.772	3325
913.886	3192
914	3188
914.113	3355
914.226	3405
914.34	3370
914.453	3188
914.566	3447
914.68	3344
914.793	3340
914.906	3169
915.019	3089
915.132	3074
915.245	3180
915.358	3249
915.47	3237
915.583	3291
915.696	3325
915.809	3401
915.921	3409
916.034	3256
916.146	3272
916.259	3195
916.371	3374
916.483	3386
916.595	3268
916.708	3344
916.82	3340
916.932	3374
917.044	3378
917.156	3332
917.268	3294
917.38	3294
917.491	3272
917.603	3348
917.715	3466
917.826	3466
917.938	3378
918.049	3298
918.161	3405
918.272	3580
918.384	3576
918.495	3526
918.606	3313
918.717	3287
918.828	3382
918.939	3389
919.05	3329
919.161	3412
919.272	3188
919.383	3291
919.494	3466
919.604	3667
919.715	3519
919.826	3420
919.936	3420
920.047	3595
920.157	3545
920.267	3717
920.378	3625
920.488	3576
920.598	3778
920.708	3960
920.818	3804
920.928	3804
921.038	4010
921.148	3987
921.258	3743
921.368	3625
921.477	3610
921.587	3580
921.697	3481
921.806	3648
921.916	3542
922.025	3340
922.134	3355
922.244	3313
922.353	3416
922.462	3260
922.571	3214
922.68	3089
922.789	3100
922.898	3142
923.007	3108
923.116	3233
923.224	3184
923.333	3184
923.442	3104
923.55	3089
923.659	3173
923.767	3233
923.876	3131
923.984	3211
924.092	3112
924.201	3207
924.309	3211
924.417	3294
924.525	3184
924.633	3249
924.741	4196
924.849	2994
924.956	3272
925.064	3089
925.172	3017
925.279	3116
925.387	3214
925.494	3237
925.602	3348
925.709	3294
925.816	3192
925.924	3287
926.031	3367
926.138	3325
926.245	3355
926.352	3268
926.459	3454
926.566	3458
926.673	3313
926.779	3226
926.886	3245
926.993	3127
927.099	3154
927.206	3093
927.312	3123
927.419	3241
927.525	3199
927.631	3256
927.737	3157
927.843	3173
927.95	3036
928.056	3138
928.162	3214
928.267	3233
928.373	3865
928.479	3321
928.585	3093
928.69	3157
928.796	3279
928.901	3180
929.007	3070
929.112	3218
929.218	3180
929.323	3131
929.428	3165
929.533	3355
929.638	3119
929.743	3142
929.848	3253
929.953	3241
930.058	3180
930.163	3005
930.267	3032
930.372	3214
930.477	3013
930.581	3363
930.685	3165
930.79	3013
930.894	3157
930.998	3081
931.103	3268
931.207	2948
931.311	2925
931.415	2891
931.519	2785
931.623	2796
