Data from test_V78500241_737.txt Node
Date: Fri Mar 25 16:20:18 CST 2022
User: usil
Spectrometer: V785-0024
Trigger mode: 0
Integration Time (sec): 4.000000E-1
Scans to average: 1
Nonlinearity correction enabled: false
Boxcar width: 0
Storing dark spectrum: false
XAxis mode: Wavelengths
Number of Pixels in Spectrum: 1024
>>>>>Begin Spectral Data<<<<<
801.071	2899
801.214	2979
801.356	2883
801.499	2899
801.641	2861
801.783	2918
801.926	3047
802.068	2952
802.211	2990
802.353	3001
802.496	2960
802.638	2979
802.78	3017
802.923	3032
803.065	3009
803.208	2906
803.35	2872
803.492	2937
803.635	2906
803.777	2781
803.919	2857
804.061	3192
804.204	2902
804.346	2929
804.488	2823
804.63	2929
804.773	2857
804.915	2918
805.057	3066
805.199	2941
805.341	2937
805.483	3009
805.626	3001
805.768	2944
805.91	3097
806.052	3077
806.194	3024
806.336	3226
806.478	3013
806.62	2948
806.762	3005
806.904	3097
807.046	3150
807.188	2975
807.33	2895
807.472	2990
807.614	2895
807.756	2990
807.898	2937
808.04	2914
808.182	2963
808.324	2929
808.465	2891
808.607	2891
808.749	2788
808.891	2845
809.033	2963
809.174	2975
809.316	2872
809.458	2887
809.6	2724
809.741	2777
809.883	2735
810.025	2876
810.166	2876
810.308	2849
810.45	2834
810.591	2788
810.733	2758
810.875	2819
811.016	2769
811.158	2769
811.299	2785
811.441	2937
811.582	2880
811.724	2842
811.865	2838
812.007	2861
812.148	2861
812.29	2842
812.431	2853
812.573	2937
812.714	2963
812.855	3051
812.997	3093
813.138	3116
813.279	2986
813.421	2944
813.562	2960
813.703	2895
813.845	2868
813.986	2754
814.127	2735
814.268	2800
814.41	2834
814.551	2796
814.692	2849
814.833	2830
814.974	2868
815.115	2979
815.256	2838
815.397	2826
815.539	2842
815.68	2788
815.821	2773
815.962	2918
816.103	2902
816.244	2849
816.385	2853
816.526	2956
816.666	2906
816.807	2766
816.948	2868
817.089	2891
817.23	2826
817.371	2807
817.512	2785
817.653	2864
817.793	2800
817.934	2864
818.075	2986
818.216	2990
818.356	3024
818.497	2857
818.638	2807
818.778	2838
818.919	2781
819.06	2796
819.2	2887
819.341	2819
819.481	2788
819.622	2952
819.762	3085
819.903	3055
820.043	2902
820.184	2902
820.324	2918
820.465	3005
820.605	2986
820.746	3028
820.886	2929
821.026	3116
821.167	3142
821.307	3279
821.447	3279
821.588	3253
821.728	3199
821.868	3195
822.008	3085
822.149	3173
822.289	3245
822.429	3058
822.569	3089
822.709	3188
822.849	3017
822.99	3066
823.13	3146
823.27	3199
823.41	3081
823.55	3173
823.69	3180
823.83	3146
823.97	3123
824.11	3028
824.25	2952
824.389	3032
824.529	3112
824.669	3051
824.809	3180
824.949	3230
825.089	3188
825.228	3176
825.368	2960
825.508	2941
825.648	2967
825.787	2990
825.927	2990
826.067	2971
826.206	2975
826.346	3001
826.485	3077
826.625	3119
826.765	3233
826.904	3184
827.044	2990
827.183	2925
827.323	2838
827.462	2982
827.601	2899
827.741	2902
827.88	2937
828.02	2861
828.159	2956
828.298	3017
828.437	3093
828.577	3024
828.716	3249
828.855	3074
828.994	2933
829.134	2891
829.273	2937
829.412	2902
829.551	2861
829.69	2887
829.829	2971
829.968	3165
830.107	2982
830.246	3005
830.385	2887
830.524	2887
830.663	2842
830.802	2720
830.941	2640
831.08	2648
831.219	2754
831.357	2731
831.496	2941
831.635	2693
831.774	2640
831.913	2644
832.051	2537
832.19	2568
832.329	2705
832.467	2492
832.606	2484
832.744	2579
832.883	2541
833.022	2583
833.16	2674
833.299	2670
833.437	2674
833.576	2697
833.714	2720
833.852	2724
833.991	2746
834.129	2849
834.267	2819
834.406	2750
834.544	2849
834.682	2849
834.821	2868
834.959	3047
835.097	2864
835.235	3047
835.373	2990
835.511	3020
835.65	2914
835.788	2925
835.926	2823
836.064	2796
836.202	2838
836.34	3081
836.478	3138
836.615	3017
836.753	3108
836.891	3180
837.029	3116
837.167	3108
837.305	3077
837.443	3051
837.58	2979
837.718	3093
837.856	3032
837.993	2979
838.131	3112
838.269	3093
838.406	3077
838.544	3051
838.681	2922
838.819	2895
838.956	2796
839.094	2887
839.231	2918
839.369	3047
839.506	3355
839.643	3192
839.781	2994
839.918	2963
840.055	3024
840.193	3017
840.33	3055
840.467	3093
840.604	3146
840.742	3401
840.879	3093
841.016	3062
841.153	3127
841.29	3325
841.427	3291
841.564	3264
841.701	3329
841.838	3188
841.975	3165
842.112	3199
842.249	3062
842.385	3058
842.522	3241
842.659	3077
842.796	3066
842.933	3070
843.069	3028
843.206	3032
843.343	3161
843.479	3077
843.616	3142
843.752	2895
843.889	2849
844.025	3104
844.162	2880
844.298	3055
844.435	2975
844.571	2914
844.708	3051
844.844	3180
844.98	3226
845.117	3142
845.253	3058
845.389	3013
845.525	3116
845.661	3135
845.798	2990
845.934	3154
846.07	3047
846.206	3199
846.342	3325
846.478	3237
846.614	3093
846.75	3017
846.886	3001
847.022	3241
847.158	3154
847.294	3184
847.429	3188
847.565	3222
847.701	3481
847.837	2975
847.972	2967
848.108	3154
848.244	3135
848.379	2971
848.515	2941
848.65	2906
848.786	2971
848.921	2998
849.057	3116
849.192	3154
849.328	3028
849.463	3062
849.598	3066
849.734	3043
849.869	2967
850.004	2895
850.14	2982
850.275	2880
850.41	2819
850.545	2880
850.68	2910
850.815	2914
850.95	2948
851.085	3165
851.22	3093
851.355	3024
851.49	2994
851.625	2956
851.76	3036
851.895	2906
852.03	2880
852.165	3017
852.299	3131
852.434	3176
852.569	3180
852.703	3195
852.838	3195
852.973	3348
853.107	3317
853.242	3169
853.376	3066
853.511	2971
853.645	3051
853.78	3230
853.914	3112
854.048	3077
854.183	3070
854.317	3112
854.451	3268
854.585	3131
854.72	3077
854.854	3176
854.988	3039
855.122	3077
855.256	3001
855.39	3062
855.524	3233
855.658	3157
855.792	3146
855.926	3226
856.06	3226
856.194	3249
856.327	3150
856.461	3032
856.595	3074
856.729	3077
856.862	3214
856.996	3146
857.13	3173
857.263	3218
857.397	3214
857.53	3119
857.664	3169
857.797	3188
857.931	3226
858.064	3150
858.197	3241
858.331	3112
858.464	3062
858.597	2982
858.731	3112
858.864	3112
858.997	3066
859.13	3142
859.263	3169
859.396	3218
859.529	3047
859.662	3104
859.795	3017
859.928	3127
860.061	3256
860.194	3253
860.327	3112
860.46	3074
860.592	3245
860.725	3249
860.858	3237
860.99	3089
861.123	3024
861.256	3047
861.388	3142
861.521	3823
861.653	2998
861.786	2952
861.918	2925
862.05	3074
862.183	3070
862.315	3112
862.447	3165
862.58	3108
862.712	2925
862.844	2823
862.976	2990
863.108	2937
863.24	3374
863.372	2849
863.504	2952
863.636	2922
863.768	2975
863.9	2929
864.032	2883
864.164	2948
864.296	3032
864.428	3066
864.559	3070
864.691	3036
864.823	3055
864.954	3020
865.086	3020
865.217	2990
865.349	2948
865.48	2944
865.612	2990
865.743	3161
865.875	2982
866.006	2963
866.137	2960
866.269	2933
866.4	2937
866.531	2902
866.662	2899
866.793	2883
866.924	2864
867.055	3028
867.186	2929
867.317	2876
867.448	2849
867.579	2845
867.71	2857
867.841	2830
867.972	2880
868.103	2929
868.233	2899
868.364	2872
868.495	2929
868.625	3085
868.756	3157
868.886	2990
869.017	3036
869.147	3169
869.278	3192
869.408	3066
869.539	3051
869.669	3112
869.799	3093
869.929	3146
870.06	3138
870.19	3351
870.32	3298
870.45	3321
870.58	3382
870.71	3500
870.84	3462
870.97	3344
871.1	3287
871.23	3496
871.36	3473
871.489	3409
871.619	3401
871.749	3458
871.879	3424
872.008	3538
872.138	3393
872.267	3317
872.397	3207
872.526	3131
872.656	3066
872.785	3150
872.915	3302
873.044	3313
873.173	3302
873.303	3275
873.432	3256
873.561	3283
873.69	3176
873.819	3146
873.948	3218
874.077	3146
874.206	3066
874.335	3100
874.464	3241
874.593	3382
874.722	3283
874.851	3428
874.979	3397
875.108	3336
875.237	3237
875.365	3176
875.494	3226
875.623	3237
875.751	3123
875.88	3154
876.008	3249
876.136	3256
876.265	3401
876.393	3584
876.521	3473
876.65	3416
876.778	3348
876.906	3291
877.034	3253
877.162	3279
877.29	3237
877.418	3336
877.546	3264
877.674	3291
877.802	3256
877.93	3249
878.058	3173
878.185	3123
878.313	3230
878.441	3241
878.568	3089
878.696	3180
878.824	3260
878.951	3302
879.079	3477
879.206	3637
879.333	3481
879.461	3363
879.588	3389
879.715	3458
879.842	3591
879.97	3409
880.097	3199
880.224	3180
880.351	3233
880.478	3237
880.605	3211
880.732	3214
880.859	3564
880.986	3340
881.112	3329
881.239	3211
881.366	3119
881.493	3074
881.619	3074
881.746	3100
881.872	3119
881.999	3131
882.125	3192
882.252	3287
882.378	3325
882.505	3466
882.631	3344
882.757	3199
882.883	3233
883.01	3249
883.136	3173
883.262	3146
883.388	3165
883.514	3344
883.64	3393
883.766	3351
883.892	3214
884.018	3329
884.143	3428
884.269	3553
884.395	3214
884.52	3211
884.646	3180
884.772	3165
884.897	3150
885.023	3260
885.148	3386
885.274	3473
885.399	3424
885.524	3313
885.65	3287
885.775	3283
885.9	3325
886.025	3466
886.15	3386
886.275	3294
886.4	3230
886.525	3321
886.65	3310
886.775	3317
886.9	3511
887.025	3667
887.149	3458
887.274	3294
887.399	3199
887.523	3233
887.648	3203
887.773	3218
887.897	3374
888.021	3450
888.146	3317
888.27	3469
888.395	3530
888.519	3424
888.643	3481
888.767	3523
888.891	3344
889.015	3294
889.139	3302
889.263	3260
889.387	3431
889.511	3561
889.635	3466
889.759	3336
889.883	3321
890.006	3443
890.13	3507
890.254	3317
890.377	3393
890.501	3237
890.624	3203
890.748	3378
890.871	3199
890.995	3100
891.118	3089
891.241	3237
891.364	3260
891.488	3340
891.611	3180
891.734	3272
891.857	3317
891.98	3298
892.103	3370
892.226	3336
892.349	3253
892.471	3131
892.594	3264
892.717	3359
892.839	3310
892.962	3344
893.085	3382
893.207	3294
893.33	3135
893.452	3283
893.575	3382
893.697	3306
893.819	3504
893.941	3526
894.064	3439
894.186	3317
894.308	3287
894.43	3450
894.552	3564
894.674	3481
894.796	3317
894.918	3340
895.04	3321
895.161	3458
895.283	3443
895.405	3313
895.526	3397
895.648	3492
895.769	3454
895.891	3492
896.012	3504
896.134	3557
896.255	3458
896.376	3420
896.498	3370
896.619	3416
896.74	3389
896.861	3416
896.982	3728
897.103	3880
897.224	3618
897.345	3526
897.466	3481
897.587	3507
897.708	3660
897.828	3549
897.949	3439
898.07	3389
898.19	3401
898.311	3667
898.431	3492
898.552	3545
898.672	3663
898.792	3603
898.913	3542
899.033	3466
899.153	3310
899.273	3260
899.393	3325
899.513	3332
899.633	3321
899.753	3374
899.873	3340
899.993	3382
900.113	3389
900.232	3439
900.352	3363
900.472	3306
900.591	3237
900.711	3321
900.83	3272
900.95	3431
901.069	3507
901.189	3355
901.308	3184
901.427	3165
901.546	3233
901.665	3306
901.784	3405
901.904	3214
902.023	3173
902.141	3032
902.26	3043
902.379	3142
902.498	3116
902.617	3058
902.735	3241
902.854	3264
902.973	3218
903.091	3051
903.21	3100
903.328	3165
903.446	3131
903.565	3157
903.683	3233
903.801	3131
903.919	3264
904.038	3294
904.156	3184
904.274	3302
904.392	3283
904.51	3275
904.627	3332
904.745	3485
904.863	3515
904.981	3268
905.098	3195
905.216	3233
905.334	3310
905.451	3283
905.569	3355
905.686	3485
905.803	3504
905.921	3313
906.038	3389
906.155	3401
906.272	3279
906.389	3370
906.506	3272
906.623	3272
906.74	3264
906.857	3241
906.974	3283
907.091	3447
907.208	3595
907.324	3496
907.441	3363
907.557	3279
907.674	3317
907.79	3184
907.907	3272
908.023	3428
908.139	3405
908.256	3325
908.372	3401
908.488	3359
908.604	3302
908.72	3218
908.836	3260
908.952	3291
909.068	3382
909.184	3507
909.3	3378
909.415	3534
909.531	3519
909.647	3302
909.762	3298
909.878	3264
909.993	3416
910.108	3370
910.224	3378
910.339	3397
910.454	3378
910.57	3260
910.685	3283
910.8	3614
910.915	3591
911.03	3428
911.145	3283
911.259	3264
911.374	3321
911.489	3291
911.604	3222
911.718	3146
911.833	3184
911.947	3039
912.062	2963
912.176	3192
912.291	3226
912.405	3230
912.519	3462
912.633	3473
912.748	3363
912.862	3332
912.976	3214
913.09	3097
913.204	3176
913.318	3226
913.431	3370
913.545	3329
913.659	3420
913.772	3351
913.886	3245
914	3233
914.113	3344
914.226	3397
914.34	3386
914.453	3214
914.566	3431
914.68	3275
914.793	3294
914.906	3180
915.019	3119
915.132	3066
915.245	3218
915.358	3226
915.47	3268
915.583	3268
915.696	3329
915.809	3431
915.921	3439
916.034	3279
916.146	3253
916.259	3245
916.371	3393
916.483	3348
916.595	3291
916.708	3344
916.82	3302
916.932	3351
917.044	3363
917.156	3397
917.268	3253
917.38	3287
917.491	3302
917.603	3389
917.715	3439
917.826	3485
917.938	3405
918.049	3279
918.161	3431
918.272	3557
918.384	3580
918.495	3519
918.606	3363
918.717	3283
918.828	3370
918.939	3412
919.05	3332
919.161	3374
919.272	3173
919.383	3302
919.494	3496
919.604	3679
919.715	3511
919.826	3466
919.936	3466
920.047	3633
920.157	3557
920.267	3781
920.378	3629
920.488	3610
920.598	3808
920.708	3968
920.818	3857
920.928	3831
921.038	4078
921.148	4010
921.258	3755
921.368	3694
921.477	3614
921.587	3519
921.697	3435
921.806	3663
921.916	3526
922.025	3363
922.134	3389
922.244	3332
922.353	3424
922.462	3298
922.571	3253
922.68	3112
922.789	3093
922.898	3165
923.007	3112
923.116	3233
923.224	3192
923.333	3214
923.442	3127
923.55	3093
923.659	3142
923.767	3214
923.876	3100
923.984	3268
924.092	3104
924.201	3222
924.309	3237
924.417	3230
924.525	3218
924.633	3272
924.741	4219
924.849	3058
924.956	3260
925.064	3135
925.172	3024
925.279	3135
925.387	3184
925.494	3241
925.602	3363
925.709	3363
925.816	3173
925.924	3249
926.031	3397
926.138	3321
926.245	3370
926.352	3241
926.459	3409
926.566	3469
926.673	3329
926.779	3268
926.886	3241
926.993	3157
927.099	3157
927.206	3100
927.312	3127
927.419	3233
927.525	3207
927.631	3291
927.737	3157
927.843	3150
927.95	2998
928.056	3165
928.162	3207
928.267	3298
928.373	3823
928.479	3336
928.585	3066
928.69	3218
928.796	3298
928.901	3135
929.007	3043
929.112	3176
929.218	3192
929.323	3119
929.428	3169
929.533	3302
929.638	3119
929.743	3165
929.848	3256
929.953	3176
930.058	3157
930.163	2982
930.267	3112
930.372	3222
930.477	3017
930.581	3374
930.685	3195
930.79	3074
930.894	3112
930.998	3104
931.103	3260
931.207	2967
931.311	2937
931.415	2933
931.519	2781
931.623	2830
