Data from test_V78500241_469.txt Node
Date: Fri Mar 25 16:18:27 CST 2022
User: usil
Spectrometer: V785-0024
Trigger mode: 0
Integration Time (sec): 4.000000E-1
Scans to average: 1
Nonlinearity correction enabled: false
Boxcar width: 0
Storing dark spectrum: false
XAxis mode: Wavelengths
Number of Pixels in Spectrum: 1024
>>>>>Begin Spectral Data<<<<<
801.071	2872
801.214	2960
801.356	2925
801.499	2906
801.641	2929
801.783	2937
801.926	3085
802.068	2971
802.211	2994
802.353	3051
802.496	2986
802.638	3032
802.78	3028
802.923	3085
803.065	3013
803.208	2880
803.35	2960
803.492	2952
803.635	2929
803.777	2796
803.919	2906
804.061	3222
804.204	2956
804.346	2952
804.488	2845
804.63	2971
804.773	2902
804.915	2956
805.057	3127
805.199	2929
805.341	2952
805.483	3055
805.626	3017
805.768	2960
805.91	3093
806.052	3150
806.194	3036
806.336	3256
806.478	3051
806.62	2971
806.762	2948
806.904	3085
807.046	3184
807.188	3009
807.33	2918
807.472	3032
807.614	2925
807.756	2998
807.898	2941
808.04	2910
808.182	2967
808.324	2963
808.465	2895
808.607	2914
808.749	2796
808.891	2826
809.033	2979
809.174	2982
809.316	2876
809.458	2902
809.6	2807
809.741	2811
809.883	2777
810.025	2826
810.166	2830
810.308	2830
810.45	2849
810.591	2788
810.733	2777
810.875	2849
811.016	2800
811.158	2773
811.299	2842
811.441	2944
811.582	2899
811.724	2842
811.865	2849
812.007	2914
812.148	2876
812.29	2887
812.431	2899
812.573	2967
812.714	2986
812.855	3051
812.997	3089
813.138	3123
813.279	3051
813.421	2975
813.562	2956
813.703	2887
813.845	2887
813.986	2811
814.127	2731
814.268	2849
814.41	2876
814.551	2830
814.692	2887
814.833	2796
814.974	2937
815.115	2937
815.256	2834
815.397	2819
815.539	2891
815.68	2792
815.821	2804
815.962	2956
816.103	2933
816.244	2937
816.385	2891
816.526	2963
816.666	2925
816.807	2758
816.948	2906
817.089	2929
817.23	2880
817.371	2800
817.512	2804
817.653	2819
817.793	2796
817.934	2883
818.075	2960
818.216	3005
818.356	3058
818.497	2925
818.638	2807
818.778	2857
818.919	2811
819.06	2788
819.2	2883
819.341	2838
819.481	2815
819.622	2933
819.762	3097
819.903	3066
820.043	2956
820.184	2952
820.324	2868
820.465	3017
820.605	3036
820.746	3074
820.886	2891
821.026	3089
821.167	3173
821.307	3256
821.447	3264
821.588	3268
821.728	3195
821.868	3207
822.008	3062
822.149	3169
822.289	3180
822.429	3112
822.569	3116
822.709	3176
822.849	3043
822.99	3089
823.13	3199
823.27	3233
823.41	3100
823.55	3146
823.69	3138
823.83	3192
823.97	3097
824.11	3001
824.25	2975
824.389	3066
824.529	3123
824.669	3089
824.809	3230
824.949	3245
825.089	3222
825.228	3142
825.368	3077
825.508	2963
825.648	2952
825.787	3047
825.927	3020
826.067	2990
826.206	2963
826.346	3032
826.485	3119
826.625	3142
826.765	3233
826.904	3218
827.044	2979
827.183	2963
827.323	2842
827.462	3013
827.601	2944
827.741	2941
827.88	2967
828.02	2887
828.159	2948
828.298	3047
828.437	3104
828.577	3074
828.716	3233
828.855	3112
828.994	2933
829.134	2883
829.273	2899
829.412	2910
829.551	2861
829.69	2891
829.829	2979
829.968	3093
830.107	3039
830.246	3032
830.385	2922
830.524	2891
830.663	2804
830.802	2724
830.941	2640
831.08	2697
831.219	2766
831.357	2750
831.496	2979
831.635	2724
831.774	2651
831.913	2686
832.051	2552
832.19	2606
832.329	2686
832.467	2537
832.606	2480
832.744	2632
832.883	2590
833.022	2552
833.16	2670
833.299	2678
833.437	2697
833.576	2678
833.714	2724
833.852	2754
833.991	2762
834.129	2842
834.267	2868
834.406	2781
834.544	2868
834.682	2853
834.821	2861
834.959	3070
835.097	2918
835.235	3055
835.373	2971
835.511	3013
835.65	2937
835.788	2956
835.926	2830
836.064	2796
836.202	2853
836.34	3100
836.478	3127
836.615	3036
836.753	3108
836.891	3199
837.029	3157
837.167	3119
837.305	3062
837.443	3039
837.58	2967
837.718	3093
837.856	3070
837.993	3024
838.131	3100
838.269	3081
838.406	3077
838.544	3108
838.681	2952
838.819	2944
838.956	2853
839.094	2857
839.231	2899
839.369	3043
839.506	3367
839.643	3214
839.781	3024
839.918	2963
840.055	3070
840.193	3089
840.33	3070
840.467	3097
840.604	3161
840.742	3412
840.879	3055
841.016	3089
841.153	3131
841.29	3313
841.427	3332
841.564	3287
841.701	3294
841.838	3222
841.975	3169
842.112	3253
842.249	3081
842.385	3058
842.522	3256
842.659	3119
842.796	3093
842.933	3089
843.069	3039
843.206	3051
843.343	3249
843.479	3138
843.616	3165
843.752	2948
843.889	2880
844.025	3093
844.162	2883
844.298	3108
844.435	2937
844.571	2918
844.708	3047
844.844	3173
844.98	3237
845.117	3203
845.253	3062
845.389	3009
845.525	3100
845.661	3108
845.798	3020
845.934	3135
846.07	3097
846.206	3233
846.342	3340
846.478	3218
846.614	3108
846.75	3028
846.886	3017
847.022	3264
847.158	3150
847.294	3165
847.429	3230
847.565	3245
847.701	3443
847.837	3066
847.972	3005
848.108	3176
848.244	3097
848.379	2990
848.515	2944
848.65	2933
848.786	2971
848.921	3024
849.057	3089
849.192	3169
849.328	3112
849.463	3085
849.598	3066
849.734	3028
849.869	2975
850.004	2937
850.14	3009
850.275	2925
850.41	2811
850.545	2906
850.68	2933
850.815	2960
850.95	3001
851.085	3192
851.22	3112
851.355	3001
851.49	3017
851.625	3001
851.76	3005
851.895	2948
852.03	2891
852.165	3009
852.299	3112
852.434	3199
852.569	3165
852.703	3157
852.838	3249
852.973	3291
853.107	3359
853.242	3146
853.376	3058
853.511	2998
853.645	3013
853.78	3211
853.914	3131
854.048	3089
854.183	3074
854.317	3123
854.451	3260
854.585	3112
854.72	3108
854.854	3203
854.988	3039
855.122	3089
855.256	3005
855.39	3104
855.524	3260
855.658	3146
855.792	3142
855.926	3184
856.06	3233
856.194	3230
856.327	3119
856.461	3051
856.595	3066
856.729	3108
856.862	3222
856.996	3131
857.13	3165
857.263	3211
857.397	3226
857.53	3093
857.664	3195
857.797	3245
857.931	3253
858.064	3176
858.197	3207
858.331	3116
858.464	3108
858.597	3024
858.731	3108
858.864	3165
858.997	3077
859.13	3150
859.263	3180
859.396	3241
859.529	3089
859.662	3097
859.795	3051
859.928	3173
860.061	3275
860.194	3283
860.327	3138
860.46	3077
860.592	3245
860.725	3253
860.858	3272
860.99	3104
861.123	3020
861.256	3066
861.388	3150
861.521	3979
861.653	3024
861.786	2960
861.918	3070
862.05	3032
862.183	3077
862.315	3131
862.447	3203
862.58	3112
862.712	2952
862.844	2868
862.976	3001
863.108	2998
863.24	3306
863.372	2887
863.504	2960
863.636	2929
863.768	3024
863.9	2960
864.032	2910
864.164	2960
864.296	2998
864.428	3074
864.559	3089
864.691	3062
864.823	3055
864.954	2994
865.086	3070
865.217	2975
865.349	2937
865.48	2990
865.612	3001
865.743	3146
865.875	2990
866.006	2941
866.137	2963
866.269	2944
866.4	2918
866.531	2918
866.662	2857
866.793	2872
866.924	2910
867.055	2982
867.186	2941
867.317	2887
867.448	2834
867.579	2857
867.71	2849
867.841	2849
867.972	2883
868.103	2906
868.233	2872
868.364	2853
868.495	2922
868.625	3089
868.756	3173
868.886	2979
869.017	3005
869.147	3112
869.278	3165
869.408	3013
869.539	3028
869.669	3062
869.799	3032
869.929	3119
870.06	3119
870.19	3306
870.32	3317
870.45	3249
870.58	3351
870.71	3435
870.84	3424
870.97	3321
871.1	3207
871.23	3507
871.36	3447
871.489	3359
871.619	3359
871.749	3431
871.879	3401
872.008	3504
872.138	3370
872.267	3268
872.397	3131
872.526	3097
872.656	2990
872.785	3119
872.915	3226
873.044	3298
873.173	3207
873.303	3268
873.432	3245
873.561	3203
873.69	3169
873.819	3176
873.948	3161
874.077	3108
874.206	3036
874.335	3047
874.464	3230
874.593	3348
874.722	3249
874.851	3401
874.979	3351
875.108	3329
875.237	3169
875.365	3150
875.494	3165
875.623	3260
875.751	3093
875.88	3077
876.008	3180
876.136	3237
876.265	3374
876.393	3511
876.521	3428
876.65	3359
876.778	3313
876.906	3249
877.034	3195
877.162	3241
877.29	3211
877.418	3241
877.546	3245
877.674	3245
877.802	3249
877.93	3214
878.058	3127
878.185	3108
878.313	3192
878.441	3233
878.568	3085
878.696	3154
878.824	3272
878.951	3317
879.079	3416
879.206	3625
879.333	3443
879.461	3294
879.588	3348
879.715	3431
879.842	3568
879.97	3355
880.097	3142
880.224	3146
880.351	3211
880.478	3230
880.605	3184
880.732	3176
880.859	3496
880.986	3264
881.112	3294
881.239	3211
881.366	3104
881.493	3017
881.619	3039
881.746	3058
881.872	3097
881.999	3138
882.125	3135
882.252	3233
882.378	3329
882.505	3439
882.631	3275
882.757	3199
882.883	3203
883.01	3176
883.136	3165
883.262	3108
883.388	3112
883.514	3332
883.64	3355
883.766	3287
883.892	3165
884.018	3233
884.143	3412
884.269	3534
884.395	3203
884.52	3176
884.646	3207
884.772	3116
884.897	3146
885.023	3192
885.148	3275
885.274	3439
885.399	3370
885.524	3264
885.65	3256
885.775	3283
885.9	3306
886.025	3443
886.15	3344
886.275	3291
886.4	3211
886.525	3294
886.65	3272
886.775	3268
886.9	3523
887.025	3633
887.149	3389
887.274	3256
887.399	3180
887.523	3188
887.648	3195
887.773	3165
887.897	3397
888.021	3405
888.146	3256
888.27	3393
888.395	3538
888.519	3454
888.643	3439
888.767	3412
888.891	3298
889.015	3249
889.139	3264
889.263	3230
889.387	3374
889.511	3538
889.635	3405
889.759	3329
889.883	3260
890.006	3401
890.13	3496
890.254	3256
890.377	3325
890.501	3230
890.624	3173
890.748	3298
890.871	3142
890.995	3093
891.118	3070
891.241	3203
891.364	3230
891.488	3355
891.611	3173
891.734	3203
891.857	3310
891.98	3245
892.103	3329
892.226	3283
892.349	3222
892.471	3097
892.594	3237
892.717	3253
892.839	3218
892.962	3260
893.085	3351
893.207	3264
893.33	3119
893.452	3173
893.575	3325
893.697	3233
893.819	3416
893.941	3519
894.064	3469
894.186	3264
894.308	3260
894.43	3389
894.552	3534
894.674	3492
894.796	3279
894.918	3298
895.04	3321
895.161	3431
895.283	3359
895.405	3283
895.526	3340
895.648	3435
895.769	3420
895.891	3424
896.012	3500
896.134	3473
896.255	3420
896.376	3370
896.498	3344
896.619	3412
896.74	3401
896.861	3386
896.982	3713
897.103	3808
897.224	3580
897.345	3481
897.466	3431
897.587	3447
897.708	3614
897.828	3523
897.949	3431
898.07	3306
898.19	3435
898.311	3584
898.431	3485
898.552	3507
898.672	3584
898.792	3553
898.913	3523
899.033	3450
899.153	3272
899.273	3192
899.393	3306
899.513	3260
899.633	3332
899.753	3332
899.873	3306
899.993	3397
900.113	3306
900.232	3386
900.352	3336
900.472	3283
900.591	3195
900.711	3260
900.83	3237
900.95	3416
901.069	3481
901.189	3310
901.308	3184
901.427	3093
901.546	3161
901.665	3268
901.784	3336
901.904	3222
902.023	3150
902.141	3001
902.26	2982
902.379	3108
902.498	3058
902.617	3020
902.735	3192
902.854	3245
902.973	3211
903.091	3047
903.21	3032
903.328	3104
903.446	3081
903.565	3093
903.683	3180
903.801	3116
903.919	3222
904.038	3275
904.156	3135
904.274	3317
904.392	3245
904.51	3272
904.627	3317
904.745	3458
904.863	3488
904.981	3214
905.098	3184
905.216	3260
905.334	3264
905.451	3317
905.569	3313
905.686	3420
905.803	3462
905.921	3283
906.038	3443
906.155	3336
906.272	3233
906.389	3332
906.506	3192
906.623	3272
906.74	3287
906.857	3222
906.974	3249
907.091	3458
907.208	3580
907.324	3469
907.441	3412
907.557	3222
907.674	3184
907.79	3176
907.907	3279
908.023	3389
908.139	3363
908.256	3340
908.372	3416
908.488	3344
908.604	3245
908.72	3241
908.836	3287
908.952	3279
909.068	3332
909.184	3477
909.3	3336
909.415	3507
909.531	3454
909.647	3272
909.762	3279
909.878	3264
909.993	3336
910.108	3359
910.224	3370
910.339	3435
910.454	3340
910.57	3329
910.685	3275
910.8	3599
910.915	3504
911.03	3481
911.145	3241
911.259	3283
911.374	3287
911.489	3211
911.604	3256
911.718	3119
911.833	3184
911.947	3055
912.062	2982
912.176	3142
912.291	3211
912.405	3233
912.519	3428
912.633	3447
912.748	3367
912.862	3283
912.976	3138
913.09	3089
913.204	3131
913.318	3195
913.431	3367
913.545	3340
913.659	3382
913.772	3310
913.886	3211
914	3203
914.113	3355
914.226	3405
914.34	3344
914.453	3218
914.566	3416
914.68	3253
914.793	3367
914.906	3104
915.019	3116
915.132	3051
915.245	3195
915.358	3195
915.47	3241
915.583	3260
915.696	3291
915.809	3386
915.921	3393
916.034	3275
916.146	3226
916.259	3233
916.371	3367
916.483	3359
916.595	3268
916.708	3363
916.82	3351
916.932	3382
917.044	3355
917.156	3351
917.268	3253
917.38	3291
917.491	3275
917.603	3397
917.715	3458
917.826	3466
917.938	3359
918.049	3302
918.161	3401
918.272	3576
918.384	3587
918.495	3488
918.606	3329
918.717	3245
918.828	3351
918.939	3412
919.05	3336
919.161	3367
919.272	3169
919.383	3260
919.494	3515
919.604	3629
919.715	3462
919.826	3397
919.936	3492
920.047	3606
920.157	3572
920.267	3781
920.378	3576
920.488	3561
920.598	3762
920.708	3972
920.818	3846
920.928	3831
921.038	4025
921.148	3964
921.258	3717
921.368	3629
921.477	3545
921.587	3580
921.697	3431
921.806	3614
921.916	3542
922.025	3367
922.134	3374
922.244	3336
922.353	3428
922.462	3256
922.571	3249
922.68	3100
922.789	3055
922.898	3104
923.007	3089
923.116	3203
923.224	3165
923.333	3169
923.442	3112
923.55	3074
923.659	3165
923.767	3249
923.876	3104
923.984	3241
924.092	3131
924.201	3237
924.309	3188
924.417	3214
924.525	3169
924.633	3218
924.741	4040
924.849	3032
924.956	3275
925.064	3089
925.172	3055
925.279	3104
925.387	3184
925.494	3161
925.602	3351
925.709	3351
925.816	3199
925.924	3256
926.031	3355
926.138	3268
926.245	3378
926.352	3245
926.459	3405
926.566	3481
926.673	3321
926.779	3226
926.886	3249
926.993	3169
927.099	3146
927.206	3146
927.312	3089
927.419	3222
927.525	3169
927.631	3260
927.737	3154
927.843	3146
927.95	3005
928.056	3116
928.162	3192
928.267	3253
928.373	3797
928.479	3313
928.585	3100
928.69	3211
928.796	3253
928.901	3146
929.007	3055
929.112	3226
929.218	3188
929.323	3097
929.428	3131
929.533	3317
929.638	3138
929.743	3157
929.848	3241
929.953	3192
930.058	3116
930.163	2975
930.267	3047
930.372	3157
930.477	3055
930.581	3325
930.685	3161
930.79	3070
930.894	3127
930.998	3104
931.103	3256
931.207	2990
931.311	2941
931.415	2937
931.519	2739
931.623	2804
