Data from test_V78500241_814.txt Node
Date: Fri Mar 25 16:20:50 CST 2022
User: usil
Spectrometer: V785-0024
Trigger mode: 0
Integration Time (sec): 4.000000E-1
Scans to average: 1
Nonlinearity correction enabled: false
Boxcar width: 0
Storing dark spectrum: false
XAxis mode: Wavelengths
Number of Pixels in Spectrum: 1024
>>>>>Begin Spectral Data<<<<<
801.071	2918
801.214	2956
801.356	2887
801.499	2883
801.641	2883
801.783	2941
801.926	3009
802.068	2933
802.211	2998
802.353	3024
802.496	2963
802.638	3009
802.78	3039
802.923	3070
803.065	3024
803.208	2910
803.35	2933
803.492	2933
803.635	2918
803.777	2716
803.919	2864
804.061	3195
804.204	2952
804.346	2887
804.488	2811
804.63	3009
804.773	2872
804.915	2937
805.057	3058
805.199	2933
805.341	2952
805.483	3028
805.626	2963
805.768	2948
805.91	3066
806.052	3093
806.194	3017
806.336	3249
806.478	3028
806.62	2933
806.762	2979
806.904	3066
807.046	3184
807.188	2944
807.33	2941
807.472	2944
807.614	2876
807.756	2960
807.898	2880
808.04	2883
808.182	2986
808.324	2956
808.465	2906
808.607	2887
808.749	2781
808.891	2826
809.033	2952
809.174	2967
809.316	2883
809.458	2857
809.6	2750
809.741	2743
809.883	2743
810.025	2864
810.166	2868
810.308	2857
810.45	2895
810.591	2754
810.733	2781
810.875	2864
811.016	2754
811.158	2739
811.299	2800
811.441	2883
811.582	2910
811.724	2807
811.865	2826
812.007	2883
812.148	2872
812.29	2811
812.431	2906
812.573	2933
812.714	2948
812.855	3051
812.997	3093
813.138	3127
813.279	3047
813.421	2967
813.562	2948
813.703	2842
813.845	2902
813.986	2773
814.127	2743
814.268	2804
814.41	2807
814.551	2788
814.692	2849
814.833	2792
814.974	2906
815.115	2929
815.256	2830
815.397	2785
815.539	2864
815.68	2800
815.821	2762
815.962	2941
816.103	2937
816.244	2872
816.385	2880
816.526	2922
816.666	2861
816.807	2754
816.948	2887
817.089	2895
817.23	2849
817.371	2811
817.512	2804
817.653	2842
817.793	2838
817.934	2853
818.075	2990
818.216	2952
818.356	3017
818.497	2876
818.638	2792
818.778	2811
818.919	2842
819.06	2769
819.2	2857
819.341	2769
819.481	2811
819.622	2922
819.762	3112
819.903	3020
820.043	2952
820.184	2899
820.324	2872
820.465	3020
820.605	3036
820.746	3009
820.886	2914
821.026	3081
821.167	3135
821.307	3214
821.447	3249
821.588	3294
821.728	3211
821.868	3195
822.008	3062
822.149	3211
822.289	3226
822.429	3066
822.569	3097
822.709	3146
822.849	3036
822.99	3039
823.13	3154
823.27	3230
823.41	3104
823.55	3173
823.69	3127
823.83	3211
823.97	3100
824.11	2990
824.25	3005
824.389	3055
824.529	3112
824.669	3047
824.809	3192
824.949	3245
825.089	3222
825.228	3161
825.368	2994
825.508	2918
825.648	2937
825.787	3005
825.927	2975
826.067	2979
826.206	3005
826.346	3077
826.485	3047
826.625	3127
826.765	3256
826.904	3192
827.044	2990
827.183	2956
827.323	2857
827.462	2971
827.601	2937
827.741	2933
827.88	2956
828.02	2834
828.159	2990
828.298	3051
828.437	3108
828.577	2998
828.716	3226
828.855	3081
828.994	2910
829.134	2895
829.273	2902
829.412	2861
829.551	2861
829.69	2868
829.829	2982
829.968	3116
830.107	2998
830.246	3051
830.385	2914
830.524	2895
830.663	2781
830.802	2689
830.941	2674
831.08	2632
831.219	2777
831.357	2724
831.496	2941
831.635	2678
831.774	2602
831.913	2640
832.051	2541
832.19	2587
832.329	2678
832.467	2560
832.606	2495
832.744	2590
832.883	2610
833.022	2602
833.16	2640
833.299	2659
833.437	2697
833.576	2682
833.714	2693
833.852	2731
833.991	2762
834.129	2826
834.267	2838
834.406	2773
834.544	2857
834.682	2899
834.821	2872
834.959	3043
835.097	2891
835.235	3051
835.373	2990
835.511	3013
835.65	2937
835.788	2963
835.926	2842
836.064	2819
836.202	2842
836.34	3089
836.478	3138
836.615	3024
836.753	3138
836.891	3195
837.029	3176
837.167	3108
837.305	3104
837.443	3062
837.58	2994
837.718	3104
837.856	3036
837.993	3024
838.131	3135
838.269	3119
838.406	3077
838.544	3074
838.681	2933
838.819	2937
838.956	2800
839.094	2823
839.231	2914
839.369	3028
839.506	3359
839.643	3226
839.781	3013
839.918	2956
840.055	3043
840.193	3043
840.33	3039
840.467	3070
840.604	3176
840.742	3428
840.879	3062
841.016	3028
841.153	3119
841.29	3302
841.427	3253
841.564	3268
841.701	3287
841.838	3207
841.975	3176
842.112	3211
842.249	3085
842.385	3020
842.522	3237
842.659	3100
842.796	3070
842.933	3077
843.069	3066
843.206	3032
843.343	3157
843.479	3108
843.616	3112
843.752	2910
843.889	2857
844.025	3047
844.162	2857
844.298	3085
844.435	2937
844.571	2887
844.708	3055
844.844	3165
844.98	3256
845.117	3169
845.253	3036
845.389	3005
845.525	3074
845.661	3074
845.798	3020
845.934	3097
846.07	3036
846.206	3214
846.342	3325
846.478	3211
846.614	3043
846.75	3062
846.886	3058
847.022	3233
847.158	3142
847.294	3192
847.429	3256
847.565	3195
847.701	3420
847.837	3017
847.972	2990
848.108	3173
848.244	3157
848.379	2922
848.515	2929
848.65	2944
848.786	2948
848.921	2994
849.057	3100
849.192	3138
849.328	3058
849.463	3081
849.598	3043
849.734	3013
849.869	2986
850.004	2925
850.14	2986
850.275	2883
850.41	2849
850.545	2864
850.68	2933
850.815	2937
850.95	2933
851.085	3188
851.22	3036
851.355	3028
851.49	2960
851.625	3009
851.76	3001
851.895	2910
852.03	2864
852.165	2990
852.299	3108
852.434	3211
852.569	3123
852.703	3165
852.838	3237
852.973	3317
853.107	3287
853.242	3161
853.376	3055
853.511	2967
853.645	3024
853.78	3230
853.914	3150
854.048	3116
854.183	3051
854.317	3108
854.451	3275
854.585	3093
854.72	3055
854.854	3207
854.988	3032
855.122	3089
855.256	2948
855.39	3131
855.524	3226
855.658	3150
855.792	3165
855.926	3188
856.06	3184
856.194	3264
856.327	3108
856.461	3062
856.595	3039
856.729	3093
856.862	3203
856.996	3127
857.13	3199
857.263	3195
857.397	3272
857.53	3112
857.664	3180
857.797	3260
857.931	3275
858.064	3157
858.197	3184
858.331	3146
858.464	3058
858.597	2998
858.731	3135
858.864	3123
858.997	3081
859.13	3176
859.263	3138
859.396	3199
859.529	3062
859.662	3066
859.795	3039
859.928	3138
860.061	3298
860.194	3306
860.327	3135
860.46	3055
860.592	3245
860.725	3237
860.858	3230
860.99	3138
861.123	3047
861.256	3062
861.388	3192
861.521	3884
861.653	2982
861.786	2960
861.918	2971
862.05	3066
862.183	3089
862.315	3169
862.447	3218
862.58	3085
862.712	2963
862.844	2887
862.976	2994
863.108	2967
863.24	3329
863.372	2876
863.504	2944
863.636	2929
863.768	2994
863.9	2986
864.032	2880
864.164	2918
864.296	3013
864.428	3097
864.559	3081
864.691	3081
864.823	3043
864.954	3005
865.086	3070
865.217	3024
865.349	2933
865.48	2986
865.612	3036
865.743	3165
865.875	2960
866.006	2937
866.137	2975
866.269	2922
866.4	2952
866.531	2922
866.662	2880
866.793	2895
866.924	2868
867.055	2933
867.186	2948
867.317	2902
867.448	2830
867.579	2880
867.71	2853
867.841	2785
867.972	2922
868.103	2887
868.233	2861
868.364	2857
868.495	2906
868.625	3093
868.756	3138
868.886	2960
869.017	3039
869.147	3146
869.278	3154
869.408	3062
869.539	3013
869.669	3112
869.799	3043
869.929	3138
870.06	3112
870.19	3291
870.32	3283
870.45	3256
870.58	3317
870.71	3435
870.84	3447
870.97	3313
871.1	3272
871.23	3443
871.36	3439
871.489	3344
871.619	3405
871.749	3382
871.879	3450
872.008	3507
872.138	3348
872.267	3283
872.397	3165
872.526	3074
872.656	2998
872.785	3074
872.915	3249
873.044	3279
873.173	3199
873.303	3287
873.432	3241
873.561	3203
873.69	3154
873.819	3150
873.948	3184
874.077	3097
874.206	2986
874.335	3100
874.464	3176
874.593	3310
874.722	3207
874.851	3367
874.979	3348
875.108	3321
875.237	3195
875.365	3165
875.494	3165
875.623	3249
875.751	3066
875.88	3070
876.008	3188
876.136	3222
876.265	3340
876.393	3496
876.521	3416
876.65	3412
876.778	3329
876.906	3256
877.034	3138
877.162	3222
877.29	3161
877.418	3275
877.546	3214
877.674	3203
877.802	3256
877.93	3184
878.058	3150
878.185	3093
878.313	3192
878.441	3214
878.568	3051
878.696	3161
878.824	3218
878.951	3287
879.079	3389
879.206	3591
879.333	3473
879.461	3325
879.588	3367
879.715	3439
879.842	3595
879.97	3374
880.097	3100
880.224	3112
880.351	3192
880.478	3169
880.605	3157
880.732	3169
880.859	3485
880.986	3275
881.112	3283
881.239	3180
881.366	3104
881.493	3051
881.619	3009
881.746	3055
881.872	3100
881.999	3077
882.125	3146
882.252	3249
882.378	3287
882.505	3420
882.631	3272
882.757	3123
882.883	3233
883.01	3218
883.136	3135
883.262	3097
883.388	3123
883.514	3306
883.64	3370
883.766	3306
883.892	3135
884.018	3253
884.143	3397
884.269	3534
884.395	3157
884.52	3154
884.646	3165
884.772	3135
884.897	3127
885.023	3195
885.148	3336
885.274	3393
885.399	3313
885.524	3272
885.65	3230
885.775	3302
885.9	3287
886.025	3443
886.15	3340
886.275	3245
886.4	3260
886.525	3298
886.65	3268
886.775	3260
886.9	3519
887.025	3599
887.149	3401
887.274	3245
887.399	3173
887.523	3207
887.648	3188
887.773	3184
887.897	3374
888.021	3378
888.146	3317
888.27	3412
888.395	3523
888.519	3439
888.643	3443
888.767	3481
888.891	3298
889.015	3203
889.139	3317
889.263	3233
889.387	3397
889.511	3492
889.635	3420
889.759	3287
889.883	3268
890.006	3340
890.13	3450
890.254	3264
890.377	3344
890.501	3199
890.624	3188
890.748	3325
890.871	3176
890.995	3108
891.118	3024
891.241	3169
891.364	3233
891.488	3287
891.611	3195
891.734	3207
891.857	3291
891.98	3226
892.103	3310
892.226	3253
892.349	3203
892.471	3116
892.594	3245
892.717	3253
892.839	3218
892.962	3233
893.085	3329
893.207	3268
893.33	3150
893.452	3207
893.575	3272
893.697	3233
893.819	3466
893.941	3507
894.064	3481
894.186	3237
894.308	3287
894.43	3386
894.552	3549
894.674	3443
894.796	3283
894.918	3317
895.04	3249
895.161	3397
895.283	3367
895.405	3317
895.526	3348
895.648	3401
895.769	3405
895.891	3435
896.012	3462
896.134	3469
896.255	3378
896.376	3336
896.498	3370
896.619	3416
896.74	3370
896.861	3416
896.982	3694
897.103	3846
897.224	3580
897.345	3500
897.466	3393
897.587	3447
897.708	3603
897.828	3542
897.949	3477
898.07	3336
898.19	3424
898.311	3644
898.431	3466
898.552	3580
898.672	3599
898.792	3538
898.913	3576
899.033	3431
899.153	3291
899.273	3256
899.393	3294
899.513	3325
899.633	3321
899.753	3359
899.873	3340
899.993	3382
900.113	3401
900.232	3450
900.352	3367
900.472	3329
900.591	3195
900.711	3359
900.83	3298
900.95	3462
901.069	3564
901.189	3412
901.308	3230
901.427	3138
901.546	3237
901.665	3325
901.784	3359
901.904	3268
902.023	3176
902.141	3070
902.26	3036
902.379	3195
902.498	3131
902.617	3100
902.735	3214
902.854	3268
902.973	3207
903.091	3108
903.21	3089
903.328	3173
903.446	3142
903.565	3093
903.683	3249
903.801	3184
903.919	3298
904.038	3317
904.156	3222
904.274	3317
904.392	3268
904.51	3355
904.627	3386
904.745	3454
904.863	3523
904.981	3275
905.098	3203
905.216	3272
905.334	3310
905.451	3363
905.569	3348
905.686	3473
905.803	3466
905.921	3325
906.038	3466
906.155	3409
906.272	3264
906.389	3348
906.506	3306
906.623	3294
906.74	3313
906.857	3195
906.974	3283
907.091	3504
907.208	3603
907.324	3492
907.441	3466
907.557	3268
907.674	3287
907.79	3233
907.907	3302
908.023	3378
908.139	3412
908.256	3386
908.372	3416
908.488	3405
908.604	3294
908.72	3283
908.836	3321
908.952	3340
909.068	3370
909.184	3496
909.3	3424
909.415	3526
909.531	3519
909.647	3294
909.762	3340
909.878	3291
909.993	3420
910.108	3359
910.224	3382
910.339	3466
910.454	3378
910.57	3321
910.685	3275
910.8	3633
910.915	3591
911.03	3466
911.145	3294
911.259	3310
911.374	3329
911.489	3264
911.604	3268
911.718	3180
911.833	3180
911.947	3074
912.062	3028
912.176	3203
912.291	3207
912.405	3230
912.519	3466
912.633	3462
912.748	3351
912.862	3351
912.976	3233
913.09	3081
913.204	3150
913.318	3260
913.431	3344
913.545	3336
913.659	3439
913.772	3370
913.886	3245
914	3211
914.113	3416
914.226	3462
914.34	3405
914.453	3253
914.566	3431
914.68	3325
914.793	3340
914.906	3161
915.019	3131
915.132	3112
915.245	3199
915.358	3222
915.47	3260
915.583	3291
915.696	3329
915.809	3439
915.921	3485
916.034	3268
916.146	3260
916.259	3226
916.371	3420
916.483	3374
916.595	3287
916.708	3332
916.82	3374
916.932	3359
917.044	3382
917.156	3397
917.268	3298
917.38	3325
917.491	3340
917.603	3389
917.715	3477
917.826	3496
917.938	3393
918.049	3325
918.161	3443
918.272	3584
918.384	3660
918.495	3538
918.606	3336
918.717	3317
918.828	3435
918.939	3435
919.05	3351
919.161	3386
919.272	3214
919.383	3291
919.494	3542
919.604	3690
919.715	3477
919.826	3420
919.936	3428
920.047	3610
920.157	3610
920.267	3789
920.378	3686
920.488	3576
920.598	3793
920.708	3960
920.818	3808
920.928	3880
921.038	4067
921.148	4017
921.258	3740
921.368	3663
921.477	3622
921.587	3526
921.697	3485
921.806	3671
921.916	3553
922.025	3344
922.134	3363
922.244	3363
922.353	3454
922.462	3298
922.571	3283
922.68	3123
922.789	3100
922.898	3165
923.007	3119
923.116	3241
923.224	3165
923.333	3207
923.442	3142
923.55	3123
923.659	3146
923.767	3249
923.876	3138
923.984	3249
924.092	3142
924.201	3241
924.309	3287
924.417	3317
924.525	3211
924.633	3287
924.741	4204
924.849	3100
924.956	3287
925.064	3123
925.172	3070
925.279	3154
925.387	3222
925.494	3188
925.602	3355
925.709	3332
925.816	3241
925.924	3348
926.031	3397
926.138	3397
926.245	3405
926.352	3287
926.459	3416
926.566	3542
926.673	3344
926.779	3268
926.886	3256
926.993	3154
927.099	3127
927.206	3146
927.312	3173
927.419	3272
927.525	3226
927.631	3283
927.737	3157
927.843	3157
927.95	3066
928.056	3150
928.162	3237
928.267	3283
928.373	3759
928.479	3321
928.585	3089
928.69	3230
928.796	3298
928.901	3233
929.007	3070
929.112	3256
929.218	3218
929.323	3188
929.428	3184
929.533	3344
929.638	3135
929.743	3211
929.848	3310
929.953	3214
930.058	3161
930.163	3036
930.267	3055
930.372	3230
930.477	3039
930.581	3329
930.685	3184
930.79	3089
930.894	3195
930.998	3138
931.103	3306
931.207	2990
931.311	2975
931.415	2937
931.519	2788
931.623	2823
