Data from test_V78500241_1865.txt Node
Date: Fri Mar 25 16:28:07 CST 2022
User: usil
Spectrometer: V785-0024
Trigger mode: 0
Integration Time (sec): 4.000000E-1
Scans to average: 1
Nonlinearity correction enabled: false
Boxcar width: 0
Storing dark spectrum: false
XAxis mode: Wavelengths
Number of Pixels in Spectrum: 1024
>>>>>Begin Spectral Data<<<<<
801.071	2891
801.214	2933
801.356	2902
801.499	2918
801.641	2887
801.783	2918
801.926	3024
802.068	2963
802.211	2998
802.353	3009
802.496	2948
802.638	3009
802.78	3043
802.923	3081
803.065	2982
803.208	2868
803.35	2891
803.492	2929
803.635	2925
803.777	2735
803.919	2872
804.061	3176
804.204	2937
804.346	2899
804.488	2849
804.63	2967
804.773	2834
804.915	2899
805.057	3062
805.199	2944
805.341	3017
805.483	3043
805.626	3013
805.768	2944
805.91	3051
806.052	3085
806.194	3024
806.336	3264
806.478	3024
806.62	2963
806.762	2998
806.904	3062
807.046	3138
807.188	2952
807.33	2914
807.472	2998
807.614	2933
807.756	3001
807.898	2883
808.04	2899
808.182	2971
808.324	2956
808.465	2883
808.607	2883
808.749	2788
808.891	2823
809.033	3036
809.174	2963
809.316	2891
809.458	2872
809.6	2754
809.741	2739
809.883	2754
810.025	2853
810.166	2845
810.308	2838
810.45	2842
810.591	2762
810.733	2769
810.875	2842
811.016	2769
811.158	2739
811.299	2804
811.441	2899
811.582	2899
811.724	2777
811.865	2838
812.007	2925
812.148	2910
812.29	2842
812.431	2872
812.573	2967
812.714	2937
812.855	3051
812.997	3043
813.138	3104
813.279	2979
813.421	2982
813.562	3001
813.703	2876
813.845	2906
813.986	2773
814.127	2705
814.268	2834
814.41	2845
814.551	2819
814.692	2887
814.833	2815
814.974	2914
815.115	2918
815.256	2845
815.397	2804
815.539	2880
815.68	2788
815.821	2792
815.962	2925
816.103	2925
816.244	2914
816.385	2853
816.526	2944
816.666	2910
816.807	2773
816.948	2853
817.089	2929
817.23	2861
817.371	2773
817.512	2792
817.653	2834
817.793	2838
817.934	2842
818.075	2960
818.216	2990
818.356	3013
818.497	2864
818.638	2766
818.778	2826
818.919	2788
819.06	2762
819.2	2845
819.341	2849
819.481	2804
819.622	2952
819.762	3070
819.903	3013
820.043	2902
820.184	2876
820.324	2849
820.465	3005
820.605	2994
820.746	3024
820.886	2899
821.026	3104
821.167	3154
821.307	3256
821.447	3245
821.588	3188
821.728	3218
821.868	3192
822.008	3051
822.149	3176
822.289	3207
822.429	3051
822.569	3070
822.709	3165
822.849	3024
822.99	3066
823.13	3161
823.27	3195
823.41	3081
823.55	3142
823.69	3165
823.83	3161
823.97	3123
824.11	3020
824.25	2998
824.389	3055
824.529	3123
824.669	3062
824.809	3192
824.949	3218
825.089	3176
825.228	3135
825.368	2986
825.508	2960
825.648	2933
825.787	2971
825.927	3020
826.067	2948
826.206	2933
826.346	2994
826.485	3058
826.625	3097
826.765	3253
826.904	3203
827.044	2990
827.183	2933
827.323	2891
827.462	2960
827.601	2887
827.741	2937
827.88	2910
828.02	2819
828.159	2952
828.298	3051
828.437	3108
828.577	3028
828.716	3199
828.855	3093
828.994	2891
829.134	2868
829.273	2902
829.412	2883
829.551	2830
829.69	2933
829.829	2963
829.968	3165
830.107	2975
830.246	2998
830.385	2929
830.524	2880
830.663	2842
830.802	2716
830.941	2621
831.08	2644
831.219	2750
831.357	2762
831.496	2933
831.635	2727
831.774	2644
831.913	2640
832.051	2556
832.19	2579
832.329	2686
832.467	2533
832.606	2484
832.744	2583
832.883	2568
833.022	2564
833.16	2670
833.299	2678
833.437	2701
833.576	2693
833.714	2708
833.852	2769
833.991	2762
834.129	2823
834.267	2834
834.406	2750
834.544	2838
834.682	2845
834.821	2857
834.959	3017
835.097	2891
835.235	3028
835.373	3009
835.511	3009
835.65	2906
835.788	2933
835.926	2800
836.064	2781
836.202	2845
836.34	3062
836.478	3146
836.615	3074
836.753	3100
836.891	3161
837.029	3169
837.167	3131
837.305	3085
837.443	3028
837.58	2952
837.718	3123
837.856	3017
837.993	3036
838.131	3135
838.269	3104
838.406	3108
838.544	3077
838.681	2948
838.819	2925
838.956	2807
839.094	2834
839.231	2902
839.369	3020
839.506	3351
839.643	3230
839.781	2979
839.918	2956
840.055	3055
840.193	3024
840.33	3077
840.467	3085
840.604	3176
840.742	3374
840.879	3062
841.016	3070
841.153	3077
841.29	3325
841.427	3268
841.564	3233
841.701	3325
841.838	3180
841.975	3184
842.112	3154
842.249	3085
842.385	3039
842.522	3226
842.659	3116
842.796	3028
842.933	3100
843.069	3001
843.206	3017
843.343	3184
843.479	3097
843.616	3127
843.752	2929
843.889	2838
844.025	3070
844.162	2876
844.298	3066
844.435	2952
844.571	2899
844.708	3032
844.844	3165
844.98	3195
845.117	3184
845.253	3055
845.389	2971
845.525	3070
845.661	3077
845.798	3005
845.934	3146
846.07	3055
846.206	3226
846.342	3302
846.478	3253
846.614	3093
846.75	3055
846.886	3024
847.022	3245
847.158	3116
847.294	3169
847.429	3260
847.565	3214
847.701	3477
847.837	3032
847.972	2994
848.108	3127
848.244	3097
848.379	2979
848.515	2925
848.65	2922
848.786	2933
848.921	2982
849.057	3104
849.192	3116
849.328	3089
849.463	3058
849.598	3055
849.734	3032
849.869	2963
850.004	2910
850.14	2933
850.275	2933
850.41	2815
850.545	2876
850.68	2914
850.815	2975
850.95	2975
851.085	3169
851.22	3070
851.355	3043
851.49	2960
851.625	3020
851.76	3017
851.895	2902
852.03	2910
852.165	3024
852.299	3119
852.434	3184
852.569	3127
852.703	3195
852.838	3264
852.973	3355
853.107	3329
853.242	3157
853.376	3085
853.511	2967
853.645	3062
853.78	3222
853.914	3085
854.048	3066
854.183	3093
854.317	3146
854.451	3321
854.585	3131
854.72	3039
854.854	3203
854.988	3036
855.122	3112
855.256	2990
855.39	3123
855.524	3260
855.658	3154
855.792	3146
855.926	3180
856.06	3188
856.194	3279
856.327	3180
856.461	3066
856.595	3062
856.729	3077
856.862	3176
856.996	3154
857.13	3169
857.263	3241
857.397	3256
857.53	3100
857.664	3192
857.797	3214
857.931	3245
858.064	3154
858.197	3199
858.331	3112
858.464	3062
858.597	3009
858.731	3119
858.864	3097
858.997	3112
859.13	3116
859.263	3207
859.396	3233
859.529	3089
859.662	3058
859.795	3047
859.928	3154
860.061	3260
860.194	3279
860.327	3157
860.46	3100
860.592	3241
860.725	3233
860.858	3260
860.99	3112
861.123	3062
861.256	3055
861.388	3112
861.521	3789
861.653	3024
861.786	2998
861.918	2944
862.05	3062
862.183	3074
862.315	3135
862.447	3146
862.58	3104
862.712	2941
862.844	2864
862.976	3013
863.108	2967
863.24	3382
863.372	2887
863.504	2975
863.636	2956
863.768	3001
863.9	2986
864.032	2922
864.164	2918
864.296	2998
864.428	3036
864.559	3100
864.691	3047
864.823	3062
864.954	3009
865.086	3043
865.217	2971
865.349	2929
865.48	2975
865.612	3013
865.743	3150
865.875	2979
866.006	2941
866.137	2960
866.269	2914
866.4	2918
866.531	2952
866.662	2853
866.793	2876
866.924	2876
867.055	2944
867.186	2941
867.317	2883
867.448	2845
867.579	2834
867.71	2845
867.841	2819
867.972	2902
868.103	2906
868.233	2895
868.364	2876
868.495	2883
868.625	3077
868.756	3131
868.886	2933
869.017	3036
869.147	3131
869.278	3169
869.408	3043
869.539	3017
869.669	3093
869.799	3024
869.929	3081
870.06	3116
870.19	3317
870.32	3275
870.45	3291
870.58	3344
870.71	3435
870.84	3504
870.97	3302
871.1	3245
871.23	3443
871.36	3485
871.489	3363
871.619	3439
871.749	3412
871.879	3443
872.008	3488
872.138	3332
872.267	3256
872.397	3165
872.526	3062
872.656	2960
872.785	3097
872.915	3230
873.044	3332
873.173	3199
873.303	3249
873.432	3203
873.561	3203
873.69	3161
873.819	3142
873.948	3195
874.077	3131
874.206	3017
874.335	3062
874.464	3176
874.593	3317
874.722	3230
874.851	3386
874.979	3325
875.108	3291
875.237	3218
875.365	3127
875.494	3169
875.623	3199
875.751	3070
875.88	3123
876.008	3173
876.136	3207
876.265	3382
876.393	3496
876.521	3447
876.65	3378
876.778	3332
876.906	3275
877.034	3207
877.162	3211
877.29	3150
877.418	3214
877.546	3256
877.674	3192
877.802	3245
877.93	3237
878.058	3146
878.185	3100
878.313	3173
878.441	3253
878.568	3032
878.696	3154
878.824	3249
878.951	3249
879.079	3469
879.206	3622
879.333	3428
879.461	3302
879.588	3367
879.715	3450
879.842	3549
879.97	3370
880.097	3188
880.224	3085
880.351	3214
880.478	3184
880.605	3184
880.732	3207
880.859	3492
880.986	3317
881.112	3313
881.239	3203
881.366	3047
881.493	3036
881.619	2990
881.746	3055
881.872	3066
881.999	3100
882.125	3108
882.252	3256
882.378	3260
882.505	3412
882.631	3272
882.757	3169
882.883	3173
883.01	3222
883.136	3119
883.262	3089
883.388	3108
883.514	3317
883.64	3389
883.766	3317
883.892	3192
884.018	3207
884.143	3378
884.269	3534
884.395	3195
884.52	3207
884.646	3165
884.772	3142
884.897	3104
885.023	3249
885.148	3344
885.274	3389
885.399	3336
885.524	3321
885.65	3253
885.775	3332
885.9	3291
886.025	3454
886.15	3370
886.275	3306
886.4	3222
886.525	3313
886.65	3245
886.775	3283
886.9	3507
887.025	3671
887.149	3389
887.274	3283
887.399	3165
887.523	3180
887.648	3173
887.773	3222
887.897	3340
888.021	3389
888.146	3306
888.27	3412
888.395	3534
888.519	3435
888.643	3397
888.767	3492
888.891	3279
889.015	3230
889.139	3302
889.263	3203
889.387	3420
889.511	3511
889.635	3443
889.759	3283
889.883	3279
890.006	3336
890.13	3458
890.254	3294
890.377	3332
890.501	3169
890.624	3211
890.748	3306
890.871	3146
890.995	3089
891.118	3043
891.241	3214
891.364	3207
891.488	3329
891.611	3211
891.734	3233
891.857	3291
891.98	3230
892.103	3351
892.226	3306
892.349	3188
892.471	3093
892.594	3180
892.717	3287
892.839	3268
892.962	3321
893.085	3348
893.207	3272
893.33	3123
893.452	3211
893.575	3291
893.697	3256
893.819	3431
893.941	3462
894.064	3450
894.186	3230
894.308	3275
894.43	3424
894.552	3542
894.674	3462
894.796	3256
894.918	3298
895.04	3321
895.161	3397
895.283	3393
895.405	3294
895.526	3336
895.648	3447
895.769	3401
895.891	3443
896.012	3504
896.134	3477
896.255	3378
896.376	3393
896.498	3367
896.619	3397
896.74	3363
896.861	3424
896.982	3682
897.103	3861
897.224	3568
897.345	3523
897.466	3416
897.587	3507
897.708	3618
897.828	3523
897.949	3443
898.07	3340
898.19	3405
898.311	3557
898.431	3435
898.552	3485
898.672	3580
898.792	3576
898.913	3481
899.033	3397
899.153	3298
899.273	3195
899.393	3256
899.513	3306
899.633	3313
899.753	3310
899.873	3283
899.993	3370
900.113	3321
900.232	3409
900.352	3329
900.472	3272
900.591	3180
900.711	3291
900.83	3233
900.95	3424
901.069	3515
901.189	3351
901.308	3157
901.427	3173
901.546	3188
901.665	3302
901.784	3355
901.904	3214
902.023	3146
902.141	3066
902.26	2944
902.379	3161
902.498	3062
902.617	3058
902.735	3207
902.854	3199
902.973	3192
903.091	3055
903.21	3066
903.328	3077
903.446	3138
903.565	3100
903.683	3188
903.801	3138
903.919	3253
904.038	3283
904.156	3165
904.274	3264
904.392	3226
904.51	3245
904.627	3340
904.745	3447
904.863	3477
904.981	3249
905.098	3176
905.216	3192
905.334	3279
905.451	3321
905.569	3275
905.686	3454
905.803	3370
905.921	3275
906.038	3382
906.155	3348
906.272	3279
906.389	3351
906.506	3253
906.623	3230
906.74	3268
906.857	3199
906.974	3283
907.091	3420
907.208	3534
907.324	3477
907.441	3363
907.557	3207
907.674	3226
907.79	3188
907.907	3264
908.023	3363
908.139	3344
908.256	3382
908.372	3370
908.488	3363
908.604	3237
908.72	3256
908.836	3260
908.952	3272
909.068	3329
909.184	3462
909.3	3378
909.415	3504
909.531	3492
909.647	3264
909.762	3275
909.878	3275
909.993	3344
910.108	3332
910.224	3302
910.339	3435
910.454	3332
910.57	3272
910.685	3211
910.8	3561
910.915	3523
911.03	3488
911.145	3245
911.259	3260
911.374	3355
911.489	3245
911.604	3233
911.718	3150
911.833	3157
911.947	3005
912.062	2986
912.176	3150
912.291	3203
912.405	3188
912.519	3439
912.633	3485
912.748	3344
912.862	3222
912.976	3154
913.09	3024
913.204	3150
913.318	3226
913.431	3325
913.545	3329
913.659	3416
913.772	3332
913.886	3253
914	3199
914.113	3321
914.226	3443
914.34	3386
914.453	3211
914.566	3401
914.68	3283
914.793	3313
914.906	3142
915.019	3119
915.132	3062
915.245	3165
915.358	3226
915.47	3180
915.583	3237
915.696	3264
915.809	3416
915.921	3412
916.034	3272
916.146	3241
916.259	3241
916.371	3386
916.483	3329
916.595	3245
916.708	3370
916.82	3321
916.932	3313
917.044	3329
917.156	3348
917.268	3264
917.38	3329
917.491	3283
917.603	3367
917.715	3443
917.826	3397
917.938	3359
918.049	3287
918.161	3420
918.272	3549
918.384	3561
918.495	3526
918.606	3321
918.717	3302
918.828	3332
918.939	3378
919.05	3268
919.161	3355
919.272	3192
919.383	3291
919.494	3504
919.604	3671
919.715	3523
919.826	3405
919.936	3443
920.047	3603
920.157	3542
920.267	3755
920.378	3595
920.488	3549
920.598	3789
920.708	3949
920.818	3812
920.928	3835
921.038	3991
921.148	4010
921.258	3713
921.368	3576
921.477	3568
921.587	3507
921.697	3454
921.806	3637
921.916	3481
922.025	3351
922.134	3412
922.244	3340
922.353	3428
922.462	3279
922.571	3195
922.68	3108
922.789	3108
922.898	3104
923.007	3116
923.116	3173
923.224	3165
923.333	3199
923.442	3070
923.55	3100
923.659	3116
923.767	3233
923.876	3123
923.984	3211
924.092	3131
924.201	3218
924.309	3237
924.417	3249
924.525	3203
924.633	3253
924.741	3998
924.849	3036
924.956	3264
925.064	3100
925.172	3009
925.279	3074
925.387	3207
925.494	3184
925.602	3351
925.709	3329
925.816	3176
925.924	3272
926.031	3363
926.138	3340
926.245	3367
926.352	3237
926.459	3435
926.566	3450
926.673	3317
926.779	3291
926.886	3241
926.993	3161
927.099	3146
927.206	3135
927.312	3112
927.419	3222
927.525	3184
927.631	3275
927.737	3127
927.843	3123
927.95	3036
928.056	3116
928.162	3180
928.267	3203
928.373	3736
928.479	3298
928.585	3081
928.69	3188
928.796	3294
928.901	3180
929.007	3028
929.112	3188
929.218	3188
929.323	3184
929.428	3138
929.533	3287
929.638	3146
929.743	3150
929.848	3260
929.953	3195
930.058	3157
930.163	3001
930.267	3024
930.372	3207
930.477	3013
930.581	3310
930.685	3135
930.79	3081
930.894	3089
930.998	3112
931.103	3256
931.207	2937
931.311	2971
931.415	2952
931.519	2773
931.623	2800
