Data from test_V78500241_1045.txt Node
Date: Fri Mar 25 16:22:26 CST 2022
User: usil
Spectrometer: V785-0024
Trigger mode: 0
Integration Time (sec): 4.000000E-1
Scans to average: 1
Nonlinearity correction enabled: false
Boxcar width: 0
Storing dark spectrum: false
XAxis mode: Wavelengths
Number of Pixels in Spectrum: 1024
>>>>>Begin Spectral Data<<<<<
801.071	2883
801.214	2956
801.356	2876
801.499	2948
801.641	2864
801.783	2948
801.926	3070
802.068	2960
802.211	3020
802.353	3055
802.496	2971
802.638	3013
802.78	3024
802.923	3100
803.065	3001
803.208	2925
803.35	2948
803.492	2941
803.635	2967
803.777	2788
803.919	2872
804.061	3188
804.204	2975
804.346	2906
804.488	2861
804.63	2979
804.773	2902
804.915	2941
805.057	3085
805.199	2941
805.341	2986
805.483	3047
805.626	3005
805.768	2994
805.91	3108
806.052	3089
806.194	3028
806.336	3268
806.478	3017
806.62	2979
806.762	3013
806.904	3055
807.046	3203
807.188	2998
807.33	2929
807.472	2963
807.614	2883
807.756	2998
807.898	2948
808.04	2891
808.182	3017
808.324	2967
808.465	2929
808.607	2883
808.749	2845
808.891	2876
809.033	2990
809.174	2994
809.316	2914
809.458	2895
809.6	2777
809.741	2796
809.883	2743
810.025	2880
810.166	2872
810.308	2861
810.45	2895
810.591	2800
810.733	2823
810.875	2853
811.016	2792
811.158	2743
811.299	2800
811.441	2918
811.582	2941
811.724	2807
811.865	2819
812.007	2956
812.148	2899
812.29	2891
812.431	2922
812.573	2918
812.714	2941
812.855	3085
812.997	3051
813.138	3131
813.279	3024
813.421	3005
813.562	2986
813.703	2876
813.845	2910
813.986	2830
814.127	2720
814.268	2811
814.41	2868
814.551	2807
814.692	2880
814.833	2845
814.974	2933
815.115	2963
815.256	2842
815.397	2815
815.539	2880
815.68	2785
815.821	2792
815.962	2971
816.103	2922
816.244	2868
816.385	2880
816.526	2971
816.666	2929
816.807	2773
816.948	2887
817.089	2960
817.23	2853
817.371	2819
817.512	2838
817.653	2838
817.793	2838
817.934	2933
818.075	3001
818.216	2982
818.356	3039
818.497	2899
818.638	2773
818.778	2872
818.919	2807
819.06	2826
819.2	2876
819.341	2845
819.481	2788
819.622	2922
819.762	3119
819.903	3017
820.043	2906
820.184	2929
820.324	2910
820.465	3039
820.605	3020
820.746	3009
820.886	2929
821.026	3108
821.167	3173
821.307	3245
821.447	3268
821.588	3253
821.728	3237
821.868	3184
822.008	3108
822.149	3188
822.289	3245
822.429	3097
822.569	3093
822.709	3192
822.849	3020
822.99	3066
823.13	3157
823.27	3180
823.41	3119
823.55	3165
823.69	3146
823.83	3203
823.97	3081
824.11	2979
824.25	2975
824.389	3062
824.529	3116
824.669	3093
824.809	3157
824.949	3233
825.089	3211
825.228	3173
825.368	2994
825.508	2982
825.648	2986
825.787	3055
825.927	3024
826.067	2960
826.206	2956
826.346	3024
826.485	3085
826.625	3131
826.765	3241
826.904	3237
827.044	2994
827.183	2956
827.323	2853
827.462	2986
827.601	2914
827.741	2876
827.88	2941
828.02	2861
828.159	2971
828.298	3024
828.437	3108
828.577	3058
828.716	3249
828.855	3074
828.994	2906
829.134	2902
829.273	2941
829.412	2891
829.551	2842
829.69	2922
829.829	3005
829.968	3127
830.107	3009
830.246	3032
830.385	2948
830.524	2887
830.663	2826
830.802	2754
830.941	2632
831.08	2655
831.219	2735
831.357	2819
831.496	2948
831.635	2693
831.774	2655
831.913	2682
832.051	2533
832.19	2549
832.329	2708
832.467	2541
832.606	2480
832.744	2610
832.883	2625
833.022	2564
833.16	2667
833.299	2678
833.437	2724
833.576	2705
833.714	2708
833.852	2743
833.991	2743
834.129	2842
834.267	2811
834.406	2811
834.544	2872
834.682	2887
834.821	2864
834.959	3074
835.097	2887
835.235	3100
835.373	3005
835.511	3024
835.65	2963
835.788	2952
835.926	2853
836.064	2811
836.202	2868
836.34	3119
836.478	3127
836.615	3032
836.753	3154
836.891	3192
837.029	3150
837.167	3089
837.305	3058
837.443	3058
837.58	2956
837.718	3154
837.856	3070
837.993	3039
838.131	3116
838.269	3146
838.406	3070
838.544	3123
838.681	2937
838.819	2922
838.956	2800
839.094	2804
839.231	2925
839.369	3017
839.506	3355
839.643	3214
839.781	3009
839.918	2929
840.055	3047
840.193	3051
840.33	3066
840.467	3127
840.604	3165
840.742	3397
840.879	3074
841.016	3062
841.153	3100
841.29	3386
841.427	3272
841.564	3272
841.701	3298
841.838	3176
841.975	3169
842.112	3207
842.249	3077
842.385	3070
842.522	3256
842.659	3093
842.796	3085
842.933	3070
843.069	3032
843.206	3047
843.343	3142
843.479	3070
843.616	3157
843.752	2914
843.889	2880
844.025	3112
844.162	2880
844.298	3058
844.435	2979
844.571	2922
844.708	3074
844.844	3184
844.98	3237
845.117	3176
845.253	3047
845.389	3028
845.525	3135
845.661	3100
845.798	3001
845.934	3116
846.07	3036
846.206	3241
846.342	3325
846.478	3233
846.614	3097
846.75	3058
846.886	3020
847.022	3230
847.158	3176
847.294	3195
847.429	3249
847.565	3180
847.701	3504
847.837	3047
847.972	3005
848.108	3180
848.244	3169
848.379	2982
848.515	2937
848.65	2937
848.786	2994
848.921	2986
849.057	3089
849.192	3131
849.328	3104
849.463	3074
849.598	3062
849.734	3081
849.869	2979
850.004	2902
850.14	2971
850.275	2876
850.41	2849
850.545	2883
850.68	2925
850.815	2963
850.95	3005
851.085	3161
851.22	3123
851.355	3013
851.49	2979
851.625	2963
851.76	3032
851.895	2941
852.03	2895
852.165	3020
852.299	3104
852.434	3173
852.569	3138
852.703	3180
852.838	3237
852.973	3351
853.107	3310
853.242	3142
853.376	3081
853.511	2982
853.645	3047
853.78	3256
853.914	3154
854.048	3123
854.183	3051
854.317	3157
854.451	3313
854.585	3119
854.72	3043
854.854	3180
854.988	3028
855.122	3070
855.256	2952
855.39	3089
855.524	3245
855.658	3195
855.792	3131
855.926	3154
856.06	3214
856.194	3272
856.327	3169
856.461	3077
856.595	3066
856.729	3089
856.862	3199
856.996	3169
857.13	3154
857.263	3211
857.397	3279
857.53	3119
857.664	3184
857.797	3218
857.931	3233
858.064	3131
858.197	3226
858.331	3127
858.464	3097
858.597	2994
858.731	3100
858.864	3108
858.997	3116
859.13	3176
859.263	3142
859.396	3211
859.529	3062
859.662	3047
859.795	3058
859.928	3127
860.061	3260
860.194	3272
860.327	3161
860.46	3138
860.592	3233
860.725	3264
860.858	3245
860.99	3108
861.123	3051
861.256	3028
861.388	3150
861.521	3835
861.653	3020
861.786	2982
861.918	2990
862.05	3039
862.183	3055
862.315	3119
862.447	3154
862.58	3097
862.712	2971
862.844	2922
862.976	3020
863.108	3017
863.24	3447
863.372	2857
863.504	2971
863.636	2941
863.768	3005
863.9	2979
864.032	2925
864.164	2960
864.296	3028
864.428	3093
864.559	3119
864.691	3032
864.823	3093
864.954	3043
865.086	3036
865.217	3009
865.349	2906
865.48	2986
865.612	3024
865.743	3142
865.875	3020
866.006	2933
866.137	2994
866.269	2979
866.4	2922
866.531	2876
866.662	2895
866.793	2895
866.924	2895
867.055	2971
867.186	2918
867.317	2941
867.448	2823
867.579	2853
867.71	2861
867.841	2834
867.972	2899
868.103	2883
868.233	2933
868.364	2834
868.495	2925
868.625	3100
868.756	3123
868.886	2967
869.017	2998
869.147	3176
869.278	3146
869.408	3017
869.539	3036
869.669	3066
869.799	3032
869.929	3161
870.06	3104
870.19	3325
870.32	3279
870.45	3329
870.58	3367
870.71	3473
870.84	3439
870.97	3256
871.1	3249
871.23	3439
871.36	3397
871.489	3344
871.619	3405
871.749	3393
871.879	3424
872.008	3488
872.138	3370
872.267	3253
872.397	3184
872.526	3104
872.656	3005
872.785	3100
872.915	3237
873.044	3321
873.173	3233
873.303	3211
873.432	3230
873.561	3245
873.69	3154
873.819	3119
873.948	3176
874.077	3100
874.206	3032
874.335	3055
874.464	3237
874.593	3325
874.722	3241
874.851	3374
874.979	3351
875.108	3279
875.237	3192
875.365	3131
875.494	3150
875.623	3268
875.751	3077
875.88	3112
876.008	3199
876.136	3249
876.265	3374
876.393	3496
876.521	3405
876.65	3428
876.778	3325
876.906	3264
877.034	3184
877.162	3218
877.29	3195
877.418	3268
877.546	3253
877.674	3249
877.802	3211
877.93	3237
878.058	3142
878.185	3108
878.313	3195
878.441	3230
878.568	3093
878.696	3188
878.824	3230
878.951	3272
879.079	3416
879.206	3603
879.333	3435
879.461	3355
879.588	3336
879.715	3450
879.842	3568
879.97	3359
880.097	3157
880.224	3135
880.351	3211
880.478	3245
880.605	3195
880.732	3173
880.859	3458
880.986	3340
881.112	3272
881.239	3199
881.366	3077
881.493	3043
881.619	2994
881.746	3070
881.872	3116
881.999	3066
882.125	3161
882.252	3260
882.378	3237
882.505	3397
882.631	3291
882.757	3154
882.883	3233
883.01	3188
883.136	3184
883.262	3081
883.388	3116
883.514	3302
883.64	3374
883.766	3302
883.892	3192
884.018	3207
884.143	3412
884.269	3534
884.395	3226
884.52	3218
884.646	3184
884.772	3150
884.897	3081
885.023	3199
885.148	3294
885.274	3405
885.399	3351
885.524	3275
885.65	3253
885.775	3329
885.9	3275
886.025	3420
886.15	3359
886.275	3325
886.4	3241
886.525	3329
886.65	3256
886.775	3230
886.9	3530
887.025	3644
887.149	3420
887.274	3245
887.399	3180
887.523	3176
887.648	3154
887.773	3207
887.897	3401
888.021	3405
888.146	3272
888.27	3443
888.395	3519
888.519	3409
888.643	3431
888.767	3447
888.891	3260
889.015	3218
889.139	3291
889.263	3268
889.387	3351
889.511	3488
889.635	3412
889.759	3272
889.883	3306
890.006	3374
890.13	3500
890.254	3268
890.377	3351
890.501	3199
890.624	3173
890.748	3332
890.871	3192
890.995	3062
891.118	3108
891.241	3203
891.364	3222
891.488	3310
891.611	3157
891.734	3222
891.857	3329
891.98	3207
892.103	3355
892.226	3291
892.349	3207
892.471	3119
892.594	3241
892.717	3317
892.839	3253
892.962	3272
893.085	3351
893.207	3287
893.33	3146
893.452	3188
893.575	3321
893.697	3253
893.819	3450
893.941	3500
894.064	3416
894.186	3294
894.308	3237
894.43	3454
894.552	3568
894.674	3492
894.796	3291
894.918	3287
895.04	3253
895.161	3382
895.283	3401
895.405	3317
895.526	3336
895.648	3416
895.769	3428
895.891	3443
896.012	3488
896.134	3443
896.255	3431
896.376	3317
896.498	3370
896.619	3370
896.74	3355
896.861	3431
896.982	3663
897.103	3861
897.224	3595
897.345	3488
897.466	3439
897.587	3488
897.708	3595
897.828	3572
897.949	3450
898.07	3348
898.19	3424
898.311	3572
898.431	3496
898.552	3519
898.672	3568
898.792	3549
898.913	3515
899.033	3416
899.153	3329
899.273	3218
899.393	3237
899.513	3306
899.633	3344
899.753	3359
899.873	3294
899.993	3336
900.113	3340
900.232	3382
900.352	3279
900.472	3302
900.591	3218
900.711	3291
900.83	3192
900.95	3382
901.069	3488
901.189	3374
901.308	3207
901.427	3150
901.546	3207
901.665	3268
901.784	3348
901.904	3199
902.023	3169
902.141	3001
902.26	2990
902.379	3135
902.498	3081
902.617	3074
902.735	3218
902.854	3253
902.973	3226
903.091	3051
903.21	3039
903.328	3161
903.446	3104
903.565	3093
903.683	3180
903.801	3146
903.919	3218
904.038	3291
904.156	3176
904.274	3283
904.392	3264
904.51	3260
904.627	3332
904.745	3416
904.863	3515
904.981	3268
905.098	3169
905.216	3222
905.334	3256
905.451	3329
905.569	3344
905.686	3447
905.803	3439
905.921	3310
906.038	3420
906.155	3367
906.272	3287
906.389	3279
906.506	3241
906.623	3222
906.74	3302
906.857	3127
906.974	3226
907.091	3458
907.208	3564
907.324	3424
907.441	3424
907.557	3207
907.674	3268
907.79	3165
907.907	3275
908.023	3374
908.139	3359
908.256	3363
908.372	3386
908.488	3332
908.604	3233
908.72	3260
908.836	3272
908.952	3283
909.068	3313
909.184	3439
909.3	3393
909.415	3488
909.531	3435
909.647	3264
909.762	3298
909.878	3226
909.993	3367
910.108	3306
910.224	3344
910.339	3405
910.454	3294
910.57	3291
910.685	3245
910.8	3587
910.915	3538
911.03	3409
911.145	3287
911.259	3249
911.374	3336
911.489	3226
911.604	3203
911.718	3116
911.833	3154
911.947	3020
912.062	2990
912.176	3173
912.291	3192
912.405	3214
912.519	3428
912.633	3473
912.748	3378
912.862	3237
912.976	3173
913.09	3055
913.204	3127
913.318	3188
913.431	3367
913.545	3294
913.659	3420
913.772	3363
913.886	3237
914	3207
914.113	3332
914.226	3393
914.34	3382
914.453	3226
914.566	3424
914.68	3249
914.793	3321
914.906	3161
915.019	3119
915.132	3058
915.245	3169
915.358	3199
915.47	3249
915.583	3298
915.696	3298
915.809	3458
915.921	3454
916.034	3230
916.146	3241
916.259	3233
916.371	3378
916.483	3344
916.595	3306
916.708	3332
916.82	3340
916.932	3329
917.044	3325
917.156	3310
917.268	3249
917.38	3317
917.491	3291
917.603	3355
917.715	3458
917.826	3443
917.938	3367
918.049	3272
918.161	3443
918.272	3580
918.384	3553
918.495	3454
918.606	3329
918.717	3256
918.828	3382
918.939	3412
919.05	3279
919.161	3367
919.272	3207
919.383	3275
919.494	3504
919.604	3690
919.715	3473
919.826	3424
919.936	3439
920.047	3587
920.157	3542
920.267	3774
920.378	3637
920.488	3576
920.598	3747
920.708	3956
920.818	3800
920.928	3816
921.038	4006
921.148	4010
921.258	3755
921.368	3614
921.477	3534
921.587	3576
921.697	3443
921.806	3656
921.916	3530
922.025	3313
922.134	3359
922.244	3313
922.353	3393
922.462	3279
922.571	3230
922.68	3058
922.789	3097
922.898	3146
923.007	3097
923.116	3226
923.224	3146
923.333	3176
923.442	3108
923.55	3077
923.659	3116
923.767	3169
923.876	3119
923.984	3249
924.092	3093
924.201	3192
924.309	3207
924.417	3230
924.525	3169
924.633	3226
924.741	4200
924.849	3020
924.956	3272
925.064	3127
925.172	3028
925.279	3089
925.387	3207
925.494	3161
925.602	3367
925.709	3351
925.816	3184
925.924	3302
926.031	3389
926.138	3351
926.245	3370
926.352	3230
926.459	3386
926.566	3466
926.673	3329
926.779	3237
926.886	3241
926.993	3157
927.099	3123
927.206	3142
927.312	3081
927.419	3237
927.525	3188
927.631	3256
927.737	3169
927.843	3150
927.95	3020
928.056	3142
928.162	3180
928.267	3279
928.373	3918
928.479	3294
928.585	3085
928.69	3199
928.796	3268
928.901	3192
929.007	3055
929.112	3173
929.218	3192
929.323	3138
929.428	3142
929.533	3321
929.638	3116
929.743	3161
929.848	3256
929.953	3222
930.058	3169
930.163	2990
930.267	3039
930.372	3188
930.477	3032
930.581	3313
930.685	3157
930.79	3085
930.894	3131
930.998	3070
931.103	3275
931.207	2990
931.311	2906
931.415	2891
931.519	2762
931.623	2804
