Data from test_V78500241_873.txt Node
Date: Fri Mar 25 16:21:15 CST 2022
User: usil
Spectrometer: V785-0024
Trigger mode: 0
Integration Time (sec): 4.000000E-1
Scans to average: 1
Nonlinearity correction enabled: false
Boxcar width: 0
Storing dark spectrum: false
XAxis mode: Wavelengths
Number of Pixels in Spectrum: 1024
>>>>>Begin Spectral Data<<<<<
801.071	2948
801.214	3013
801.356	2883
801.499	2929
801.641	2918
801.783	2937
801.926	3097
802.068	2956
802.211	3036
802.353	3093
802.496	3001
802.638	3036
802.78	3062
802.923	3116
803.065	3024
803.208	2937
803.35	2944
803.492	2971
803.635	2982
803.777	2800
803.919	2906
804.061	3237
804.204	2971
804.346	2910
804.488	2899
804.63	3028
804.773	2906
804.915	2963
805.057	3157
805.199	2975
805.341	3032
805.483	3085
805.626	3043
805.768	3013
805.91	3135
806.052	3180
806.194	3097
806.336	3275
806.478	3058
806.62	2982
806.762	2994
806.904	3062
807.046	3188
807.188	3017
807.33	2967
807.472	2998
807.614	2933
807.756	3032
807.898	2948
808.04	2925
808.182	2986
808.324	2967
808.465	2925
808.607	2944
808.749	2849
808.891	2895
809.033	3036
809.174	3020
809.316	2918
809.458	2914
809.6	2773
809.741	2830
809.883	2819
810.025	2906
810.166	2868
810.308	2895
810.45	2868
810.591	2815
810.733	2807
810.875	2864
811.016	2804
811.158	2819
811.299	2895
811.441	2944
811.582	2948
811.724	2857
811.865	2864
812.007	2941
812.148	2864
812.29	2910
812.431	2910
812.573	2948
812.714	2971
812.855	3047
812.997	3058
813.138	3150
813.279	3043
813.421	3001
813.562	2990
813.703	2918
813.845	2918
813.986	2842
814.127	2743
814.268	2845
814.41	2876
814.551	2845
814.692	2952
814.833	2849
814.974	2914
815.115	2990
815.256	2872
815.397	2842
815.539	2918
815.68	2834
815.821	2811
815.962	2975
816.103	2975
816.244	2891
816.385	2910
816.526	3020
816.666	2944
816.807	2781
816.948	2906
817.089	2948
817.23	2883
817.371	2800
817.512	2800
817.653	2857
817.793	2861
817.934	2914
818.075	2963
818.216	3024
818.356	3070
818.497	2929
818.638	2842
818.778	2864
818.919	2826
819.06	2777
819.2	2880
819.341	2830
819.481	2861
819.622	2967
819.762	3089
819.903	3051
820.043	2963
820.184	2902
820.324	2937
820.465	3062
820.605	3039
820.746	3020
820.886	2956
821.026	3108
821.167	3165
821.307	3302
821.447	3313
821.588	3272
821.728	3253
821.868	3241
822.008	3093
822.149	3230
822.289	3249
822.429	3104
822.569	3119
822.709	3195
822.849	3032
822.99	3077
823.13	3180
823.27	3241
823.41	3169
823.55	3180
823.69	3180
823.83	3195
823.97	3150
824.11	3024
824.25	3020
824.389	3074
824.529	3123
824.669	3085
824.809	3264
824.949	3272
825.089	3237
825.228	3176
825.368	3009
825.508	2975
825.648	2990
825.787	3013
825.927	3036
826.067	2986
826.206	2952
826.346	3089
826.485	3123
826.625	3157
826.765	3287
826.904	3241
827.044	3013
827.183	3013
827.323	2864
827.462	3036
827.601	2937
827.741	2982
827.88	2982
828.02	2857
828.159	2963
828.298	3085
828.437	3157
828.577	3093
828.716	3260
828.855	3142
828.994	2883
829.134	2922
829.273	2944
829.412	2895
829.551	2925
829.69	2914
829.829	3005
829.968	3142
830.107	3043
830.246	3058
830.385	2960
830.524	2899
830.663	2842
830.802	2731
830.941	2716
831.08	2682
831.219	2800
831.357	2788
831.496	2979
831.635	2754
831.774	2659
831.913	2670
832.051	2575
832.19	2617
832.329	2674
832.467	2583
832.606	2476
832.744	2594
832.883	2625
833.022	2621
833.16	2651
833.299	2678
833.437	2727
833.576	2708
833.714	2743
833.852	2785
833.991	2815
834.129	2826
834.267	2861
834.406	2819
834.544	2899
834.682	2883
834.821	2899
834.959	3085
835.097	2902
835.235	3058
835.373	3009
835.511	3047
835.65	2986
835.788	2979
835.926	2842
836.064	2804
836.202	2891
836.34	3112
836.478	3169
836.615	3058
836.753	3127
836.891	3218
837.029	3165
837.167	3131
837.305	3116
837.443	3051
837.58	3005
837.718	3146
837.856	3097
837.993	3051
838.131	3142
838.269	3131
838.406	3104
838.544	3062
838.681	2956
838.819	2956
838.956	2857
839.094	2815
839.231	2941
839.369	3028
839.506	3416
839.643	3283
839.781	3043
839.918	2998
840.055	3062
840.193	3074
840.33	3100
840.467	3112
840.604	3230
840.742	3409
840.879	3055
841.016	3055
841.153	3138
841.29	3363
841.427	3306
841.564	3298
841.701	3332
841.838	3256
841.975	3176
842.112	3245
842.249	3123
842.385	3077
842.522	3260
842.659	3104
842.796	3081
842.933	3116
843.069	3074
843.206	3093
843.343	3211
843.479	3093
843.616	3112
843.752	2899
843.889	2922
844.025	3093
844.162	2902
844.298	3100
844.435	2963
844.571	2929
844.708	3108
844.844	3199
844.98	3253
845.117	3188
845.253	3062
845.389	3024
845.525	3119
845.661	3131
845.798	3039
845.934	3138
846.07	3081
846.206	3256
846.342	3382
846.478	3199
846.614	3108
846.75	3070
846.886	3055
847.022	3249
847.158	3176
847.294	3214
847.429	3256
847.565	3214
847.701	3458
847.837	3028
847.972	3032
848.108	3150
848.244	3165
848.379	3028
848.515	2975
848.65	2982
848.786	2975
848.921	3051
849.057	3154
849.192	3161
849.328	3066
849.463	3119
849.598	3089
849.734	3062
849.869	3017
850.004	2929
850.14	2982
850.275	2948
850.41	2880
850.545	2891
850.68	2963
850.815	2948
850.95	3013
851.085	3218
851.22	3142
851.355	3058
851.49	2967
851.625	3039
851.76	3009
851.895	2925
852.03	2941
852.165	3032
852.299	3112
852.434	3188
852.569	3119
852.703	3192
852.838	3317
852.973	3340
853.107	3351
853.242	3173
853.376	3112
853.511	2979
853.645	3039
853.78	3241
853.914	3157
854.048	3097
854.183	3116
854.317	3169
854.451	3317
854.585	3157
854.72	3119
854.854	3203
854.988	3062
855.122	3100
855.256	2990
855.39	3104
855.524	3256
855.658	3199
855.792	3180
855.926	3203
856.06	3230
856.194	3275
856.327	3165
856.461	3074
856.595	3097
856.729	3093
856.862	3180
856.996	3161
857.13	3253
857.263	3279
857.397	3344
857.53	3176
857.664	3207
857.797	3233
857.931	3279
858.064	3180
858.197	3249
858.331	3161
858.464	3127
858.597	3009
858.731	3100
858.864	3150
858.997	3116
859.13	3157
859.263	3211
859.396	3192
859.529	3097
859.662	3119
859.795	3055
859.928	3150
860.061	3294
860.194	3302
860.327	3146
860.46	3116
860.592	3218
860.725	3306
860.858	3272
860.99	3169
861.123	3062
861.256	3062
861.388	3146
861.521	3823
861.653	3047
861.786	3013
861.918	2994
862.05	3097
862.183	3123
862.315	3169
862.447	3214
862.58	3131
862.712	2956
862.844	2910
862.976	3074
863.108	3005
863.24	3336
863.372	2895
863.504	2982
863.636	2963
863.768	2998
863.9	2986
864.032	2910
864.164	2979
864.296	3020
864.428	3070
864.559	3093
864.691	3070
864.823	3070
864.954	3074
865.086	3055
865.217	2998
865.349	2941
865.48	3005
865.612	3028
865.743	3146
865.875	3009
866.006	2971
866.137	2956
866.269	2956
866.4	2952
866.531	2944
866.662	2895
866.793	2922
866.924	2922
867.055	2975
867.186	2929
867.317	2906
867.448	2857
867.579	2830
867.71	2826
867.841	2830
867.972	2883
868.103	2918
868.233	2891
868.364	2876
868.495	2891
868.625	3070
868.756	3173
868.886	2986
869.017	3028
869.147	3165
869.278	3176
869.408	3062
869.539	3055
869.669	3108
869.799	3047
869.929	3104
870.06	3108
870.19	3363
870.32	3294
870.45	3287
870.58	3397
870.71	3447
870.84	3439
870.97	3268
871.1	3249
871.23	3496
871.36	3458
871.489	3336
871.619	3416
871.749	3397
871.879	3439
872.008	3462
872.138	3359
872.267	3291
872.397	3192
872.526	3123
872.656	2998
872.785	3127
872.915	3256
873.044	3294
873.173	3287
873.303	3237
873.432	3237
873.561	3230
873.69	3131
873.819	3097
873.948	3218
874.077	3070
874.206	3062
874.335	3062
874.464	3230
874.593	3412
874.722	3294
874.851	3386
874.979	3329
875.108	3310
875.237	3222
875.365	3169
875.494	3188
875.623	3245
875.751	3100
875.88	3116
876.008	3176
876.136	3241
876.265	3367
876.393	3530
876.521	3447
876.65	3389
876.778	3332
876.906	3272
877.034	3203
877.162	3211
877.29	3188
877.418	3275
877.546	3226
877.674	3233
877.802	3291
877.93	3233
878.058	3157
878.185	3093
878.313	3233
878.441	3211
878.568	3081
878.696	3142
878.824	3237
878.951	3291
879.079	3454
879.206	3648
879.333	3447
879.461	3386
879.588	3393
879.715	3504
879.842	3572
879.97	3397
880.097	3188
880.224	3123
880.351	3199
880.478	3218
880.605	3218
880.732	3214
880.859	3523
880.986	3298
881.112	3287
881.239	3195
881.366	3093
881.493	3058
881.619	3058
881.746	3074
881.872	3055
881.999	3123
882.125	3165
882.252	3253
882.378	3287
882.505	3450
882.631	3291
882.757	3154
882.883	3233
883.01	3222
883.136	3138
883.262	3058
883.388	3108
883.514	3298
883.64	3401
883.766	3294
883.892	3165
884.018	3264
884.143	3439
884.269	3549
884.395	3192
884.52	3154
884.646	3199
884.772	3119
884.897	3135
885.023	3237
885.148	3351
885.274	3424
885.399	3401
885.524	3241
885.65	3279
885.775	3321
885.9	3344
886.025	3466
886.15	3332
886.275	3298
886.4	3253
886.525	3340
886.65	3298
886.775	3287
886.9	3504
887.025	3625
887.149	3386
887.274	3275
887.399	3169
887.523	3180
887.648	3173
887.773	3230
887.897	3382
888.021	3401
888.146	3336
888.27	3435
888.395	3530
888.519	3424
888.643	3443
888.767	3405
888.891	3298
889.015	3230
889.139	3351
889.263	3249
889.387	3389
889.511	3526
889.635	3450
889.759	3310
889.883	3291
890.006	3367
890.13	3519
890.254	3264
890.377	3310
890.501	3188
890.624	3195
890.748	3332
890.871	3203
890.995	3112
891.118	3074
891.241	3218
891.364	3233
891.488	3321
891.611	3173
891.734	3226
891.857	3283
891.98	3226
892.103	3279
892.226	3279
892.349	3256
892.471	3119
892.594	3188
892.717	3302
892.839	3256
892.962	3317
893.085	3374
893.207	3275
893.33	3154
893.452	3199
893.575	3363
893.697	3253
893.819	3485
893.941	3515
894.064	3439
894.186	3291
894.308	3268
894.43	3405
894.552	3519
894.674	3481
894.796	3298
894.918	3313
895.04	3264
895.161	3431
895.283	3397
895.405	3336
895.526	3374
895.648	3389
895.769	3454
895.891	3450
896.012	3488
896.134	3450
896.255	3428
896.376	3359
896.498	3325
896.619	3454
896.74	3363
896.861	3367
896.982	3698
897.103	3808
897.224	3587
897.345	3504
897.466	3401
897.587	3447
897.708	3625
897.828	3557
897.949	3458
898.07	3317
898.19	3412
898.311	3595
898.431	3473
898.552	3511
898.672	3587
898.792	3538
898.913	3526
899.033	3420
899.153	3313
899.273	3199
899.393	3306
899.513	3279
899.633	3291
899.753	3313
899.873	3332
899.993	3374
900.113	3306
900.232	3378
900.352	3370
900.472	3294
900.591	3203
900.711	3321
900.83	3211
900.95	3424
901.069	3481
901.189	3336
901.308	3165
901.427	3135
901.546	3192
901.665	3275
901.784	3336
901.904	3176
902.023	3146
902.141	3013
902.26	2982
902.379	3154
902.498	3093
902.617	3066
902.735	3233
902.854	3199
902.973	3233
903.091	3051
903.21	3070
903.328	3165
903.446	3123
903.565	3097
903.683	3184
903.801	3142
903.919	3260
904.038	3279
904.156	3165
904.274	3294
904.392	3260
904.51	3275
904.627	3344
904.745	3447
904.863	3511
904.981	3237
905.098	3169
905.216	3237
905.334	3268
905.451	3287
905.569	3275
905.686	3382
905.803	3431
905.921	3253
906.038	3450
906.155	3370
906.272	3268
906.389	3367
906.506	3222
906.623	3256
906.74	3275
906.857	3199
906.974	3253
907.091	3401
907.208	3553
907.324	3496
907.441	3374
907.557	3241
907.674	3214
907.79	3214
907.907	3256
908.023	3344
908.139	3363
908.256	3298
908.372	3355
908.488	3340
908.604	3260
908.72	3249
908.836	3264
908.952	3275
909.068	3329
909.184	3481
909.3	3405
909.415	3519
909.531	3485
909.647	3256
909.762	3272
909.878	3241
909.993	3363
910.108	3370
910.224	3340
910.339	3374
910.454	3325
910.57	3302
910.685	3272
910.8	3576
910.915	3504
911.03	3454
911.145	3260
911.259	3325
911.374	3268
911.489	3245
911.604	3222
911.718	3131
911.833	3150
911.947	3036
912.062	2933
912.176	3150
912.291	3188
912.405	3207
912.519	3412
912.633	3439
912.748	3351
912.862	3245
912.976	3188
913.09	3066
913.204	3157
913.318	3214
913.431	3321
913.545	3325
913.659	3431
913.772	3340
913.886	3233
914	3203
914.113	3370
914.226	3412
914.34	3370
914.453	3230
914.566	3409
914.68	3287
914.793	3306
914.906	3169
915.019	3127
915.132	3070
915.245	3165
915.358	3218
915.47	3230
915.583	3241
915.696	3291
915.809	3397
915.921	3420
916.034	3253
916.146	3272
916.259	3245
916.371	3416
916.483	3336
916.595	3260
916.708	3329
916.82	3283
916.932	3367
917.044	3313
917.156	3332
917.268	3260
917.38	3291
917.491	3298
917.603	3378
917.715	3447
917.826	3466
917.938	3401
918.049	3256
918.161	3412
918.272	3545
918.384	3595
918.495	3492
918.606	3321
918.717	3272
918.828	3401
918.939	3428
919.05	3283
919.161	3344
919.272	3199
919.383	3291
919.494	3488
919.604	3690
919.715	3462
919.826	3393
919.936	3504
920.047	3538
920.157	3526
920.267	3781
920.378	3618
920.488	3587
920.598	3743
920.708	3949
920.818	3854
920.928	3808
921.038	4013
921.148	3998
921.258	3740
921.368	3652
921.477	3595
921.587	3553
921.697	3500
921.806	3606
921.916	3447
922.025	3348
922.134	3359
922.244	3321
922.353	3443
922.462	3291
922.571	3256
922.68	3104
922.789	3070
922.898	3119
923.007	3089
923.116	3195
923.224	3184
923.333	3192
923.442	3074
923.55	3085
923.659	3119
923.767	3203
923.876	3142
923.984	3241
924.092	3089
924.201	3192
924.309	3192
924.417	3287
924.525	3207
924.633	3211
924.741	4154
924.849	3055
924.956	3226
925.064	3093
925.172	3051
925.279	3097
925.387	3184
925.494	3195
925.602	3340
925.709	3355
925.816	3173
925.924	3275
926.031	3321
926.138	3363
926.245	3374
926.352	3218
926.459	3428
926.566	3485
926.673	3317
926.779	3226
926.886	3233
926.993	3116
927.099	3146
927.206	3119
927.312	3142
927.419	3233
927.525	3233
927.631	3272
927.737	3123
927.843	3123
927.95	3017
928.056	3127
928.162	3192
928.267	3260
928.373	3762
928.479	3275
928.585	3043
928.69	3268
928.796	3313
928.901	3180
929.007	3009
929.112	3214
929.218	3150
929.323	3108
929.428	3135
929.533	3321
929.638	3146
929.743	3192
929.848	3287
929.953	3222
930.058	3146
930.163	3009
930.267	3066
930.372	3188
930.477	3039
930.581	3264
930.685	3184
930.79	3051
930.894	3108
930.998	3104
931.103	3283
931.207	2986
931.311	2944
931.415	2929
931.519	2788
931.623	2800
