Data from test_V78500241_1153.txt Node
Date: Fri Mar 25 16:23:11 CST 2022
User: usil
Spectrometer: V785-0024
Trigger mode: 0
Integration Time (sec): 4.000000E-1
Scans to average: 1
Nonlinearity correction enabled: false
Boxcar width: 0
Storing dark spectrum: false
XAxis mode: Wavelengths
Number of Pixels in Spectrum: 1024
>>>>>Begin Spectral Data<<<<<
801.071	2902
801.214	2925
801.356	2899
801.499	2887
801.641	2849
801.783	2925
801.926	3032
802.068	2979
802.211	2982
802.353	3020
802.496	2971
802.638	3032
802.78	3047
802.923	3070
803.065	2971
803.208	2887
803.35	2872
803.492	2933
803.635	2918
803.777	2785
803.919	2819
804.061	3192
804.204	2914
804.346	2902
804.488	2887
804.63	3009
804.773	2864
804.915	2883
805.057	3085
805.199	2902
805.341	2963
805.483	3009
805.626	3013
805.768	2967
805.91	3074
806.052	3108
806.194	3017
806.336	3222
806.478	3020
806.62	2918
806.762	2967
806.904	3020
807.046	3176
807.188	2986
807.33	2918
807.472	2986
807.614	2902
807.756	2975
807.898	2914
808.04	2914
808.182	2956
808.324	2963
808.465	2902
808.607	2883
808.749	2819
808.891	2819
809.033	2956
809.174	2944
809.316	2857
809.458	2849
809.6	2766
809.741	2766
809.883	2766
810.025	2804
810.166	2838
810.308	2838
810.45	2853
810.591	2766
810.733	2762
810.875	2807
811.016	2739
811.158	2716
811.299	2826
811.441	2944
811.582	2929
811.724	2819
811.865	2804
812.007	2880
812.148	2891
812.29	2857
812.431	2876
812.573	2914
812.714	2941
812.855	3039
812.997	3051
813.138	3085
813.279	3024
813.421	2986
813.562	2967
813.703	2849
813.845	2910
813.986	2743
814.127	2697
814.268	2811
814.41	2815
814.551	2826
814.692	2864
814.833	2826
814.974	2872
815.115	2994
815.256	2853
815.397	2830
815.539	2861
815.68	2769
815.821	2762
815.962	2914
816.103	2914
816.244	2838
816.385	2857
816.526	2967
816.666	2899
816.807	2739
816.948	2891
817.089	2910
817.23	2861
817.371	2746
817.512	2769
817.653	2800
817.793	2842
817.934	2868
818.075	2990
818.216	2982
818.356	2994
818.497	2918
818.638	2815
818.778	2819
818.919	2766
819.06	2766
819.2	2849
819.341	2781
819.481	2800
819.622	2941
819.762	3070
819.903	3043
820.043	2937
820.184	2918
820.324	2914
820.465	3005
820.605	3001
820.746	3028
820.886	2910
821.026	3085
821.167	3154
821.307	3245
821.447	3272
821.588	3245
821.728	3184
821.868	3203
822.008	3081
822.149	3142
822.289	3226
822.429	3055
822.569	3085
822.709	3184
822.849	2986
822.99	3074
823.13	3154
823.27	3192
823.41	3093
823.55	3142
823.69	3154
823.83	3184
823.97	3089
824.11	3001
824.25	2982
824.389	3066
824.529	3070
824.669	3062
824.809	3192
824.949	3268
825.089	3218
825.228	3165
825.368	3009
825.508	2952
825.648	2975
825.787	3013
825.927	3009
826.067	2952
826.206	2941
826.346	3020
826.485	3074
826.625	3112
826.765	3226
826.904	3161
827.044	2975
827.183	2948
827.323	2823
827.462	2944
827.601	2918
827.741	2883
827.88	2933
828.02	2868
828.159	2929
828.298	3028
828.437	3097
828.577	3077
828.716	3192
828.855	3108
828.994	2922
829.134	2868
829.273	2910
829.412	2864
829.551	2834
829.69	2872
829.829	2929
829.968	3123
830.107	2990
830.246	3066
830.385	2914
830.524	2842
830.663	2800
830.802	2716
830.941	2640
831.08	2667
831.219	2758
831.357	2727
831.496	2967
831.635	2735
831.774	2629
831.913	2659
832.051	2564
832.19	2552
832.329	2670
832.467	2511
832.606	2492
832.744	2549
832.883	2606
833.022	2552
833.16	2644
833.299	2693
833.437	2697
833.576	2655
833.714	2708
833.852	2705
833.991	2750
834.129	2800
834.267	2788
834.406	2796
834.544	2826
834.682	2842
834.821	2864
834.959	3081
835.097	2880
835.235	3062
835.373	2963
835.511	2994
835.65	2948
835.788	2971
835.926	2811
836.064	2785
836.202	2853
836.34	3062
836.478	3119
836.615	3028
836.753	3112
836.891	3173
837.029	3184
837.167	3097
837.305	3093
837.443	3017
837.58	2941
837.718	3112
837.856	3032
837.993	2998
838.131	3104
838.269	3089
838.406	3093
838.544	3089
838.681	2929
838.819	2914
838.956	2773
839.094	2815
839.231	2876
839.369	3020
839.506	3355
839.643	3157
839.781	3017
839.918	2963
840.055	3047
840.193	3043
840.33	3039
840.467	3112
840.604	3138
840.742	3409
840.879	3039
841.016	3028
841.153	3081
841.29	3329
841.427	3241
841.564	3256
841.701	3272
841.838	3207
841.975	3165
842.112	3188
842.249	3051
842.385	3013
842.522	3230
842.659	3077
842.796	3058
842.933	3100
843.069	3024
843.206	3028
843.343	3165
843.479	3085
843.616	3157
843.752	2883
843.889	2834
844.025	3032
844.162	2872
844.298	3066
844.435	2906
844.571	2891
844.708	3043
844.844	3161
844.98	3211
845.117	3195
845.253	3039
845.389	2967
845.525	3108
845.661	3112
845.798	3024
845.934	3131
846.07	3066
846.206	3207
846.342	3279
846.478	3211
846.614	3085
846.75	3032
846.886	2986
847.022	3207
847.158	3116
847.294	3180
847.429	3207
847.565	3157
847.701	3458
847.837	3013
847.972	2971
848.108	3142
848.244	3123
848.379	2975
848.515	2914
848.65	2902
848.786	2944
848.921	2979
849.057	3093
849.192	3161
849.328	3074
849.463	3093
849.598	3055
849.734	2998
849.869	2925
850.004	2895
850.14	2929
850.275	2868
850.41	2857
850.545	2891
850.68	2948
850.815	2948
850.95	2990
851.085	3173
851.22	3127
851.355	2994
851.49	2986
851.625	2982
851.76	2975
851.895	2842
852.03	2914
852.165	3017
852.299	3119
852.434	3184
852.569	3123
852.703	3165
852.838	3241
852.973	3332
853.107	3313
853.242	3108
853.376	3055
853.511	2994
853.645	3013
853.78	3192
853.914	3108
854.048	3085
854.183	3066
854.317	3116
854.451	3264
854.585	3108
854.72	3070
854.854	3165
854.988	2998
855.122	3013
855.256	2960
855.39	3123
855.524	3233
855.658	3165
855.792	3123
855.926	3203
856.06	3195
856.194	3218
856.327	3154
856.461	3055
856.595	3077
856.729	3047
856.862	3218
856.996	3142
857.13	3161
857.263	3207
857.397	3275
857.53	3123
857.664	3203
857.797	3222
857.931	3253
858.064	3154
858.197	3233
858.331	3127
858.464	3093
858.597	3055
858.731	3112
858.864	3161
858.997	3074
859.13	3218
859.263	3173
859.396	3192
859.529	3127
859.662	3074
859.795	3058
859.928	3146
860.061	3340
860.194	3291
860.327	3146
860.46	3104
860.592	3253
860.725	3268
860.858	3279
860.99	3127
861.123	3039
861.256	3097
861.388	3157
861.521	3751
861.653	3066
861.786	2990
861.918	3024
862.05	3077
862.183	3165
862.315	3180
862.447	3226
862.58	3123
862.712	2994
862.844	2925
862.976	3051
863.108	3047
863.24	3412
863.372	2902
863.504	2986
863.636	2967
863.768	3100
863.9	3009
864.032	2960
864.164	2971
864.296	3051
864.428	3161
864.559	3150
864.691	3127
864.823	3119
864.954	3066
865.086	3066
865.217	3013
865.349	3047
865.48	3024
865.612	3032
865.743	3188
865.875	3039
866.006	2944
866.137	3017
866.269	2960
866.4	2982
866.531	2971
866.662	2933
866.793	2963
866.924	2933
867.055	3020
867.186	2952
867.317	2914
867.448	2849
867.579	2853
867.71	2853
867.841	2819
867.972	2929
868.103	2941
868.233	2941
868.364	2925
868.495	2918
868.625	3104
868.756	3207
868.886	3009
869.017	3058
869.147	3199
869.278	3207
869.408	3100
869.539	3032
869.669	3146
869.799	3085
869.929	3131
870.06	3146
870.19	3378
870.32	3321
870.45	3306
870.58	3401
870.71	3485
870.84	3458
870.97	3351
871.1	3287
871.23	3500
871.36	3485
871.489	3420
871.619	3386
871.749	3473
871.879	3481
872.008	3511
872.138	3382
872.267	3287
872.397	3165
872.526	3127
872.656	3043
872.785	3093
872.915	3283
873.044	3321
873.173	3245
873.303	3226
873.432	3272
873.561	3272
873.69	3131
873.819	3119
873.948	3211
874.077	3169
874.206	3066
874.335	3104
874.464	3222
874.593	3393
874.722	3279
874.851	3447
874.979	3401
875.108	3370
875.237	3256
875.365	3176
875.494	3188
875.623	3310
875.751	3097
875.88	3116
876.008	3237
876.136	3306
876.265	3363
876.393	3500
876.521	3450
876.65	3397
876.778	3351
876.906	3287
877.034	3211
877.162	3230
877.29	3184
877.418	3294
877.546	3272
877.674	3249
877.802	3230
877.93	3249
878.058	3184
878.185	3150
878.313	3222
878.441	3226
878.568	3100
878.696	3146
878.824	3241
878.951	3306
879.079	3458
879.206	3641
879.333	3454
879.461	3355
879.588	3386
879.715	3504
879.842	3618
879.97	3420
880.097	3203
880.224	3138
880.351	3199
880.478	3226
880.605	3233
880.732	3237
880.859	3545
880.986	3355
881.112	3340
881.239	3249
881.366	3070
881.493	3058
881.619	3051
881.746	3081
881.872	3104
881.999	3116
882.125	3169
882.252	3291
882.378	3279
882.505	3447
882.631	3283
882.757	3192
882.883	3241
883.01	3260
883.136	3165
883.262	3100
883.388	3123
883.514	3355
883.64	3424
883.766	3306
883.892	3207
884.018	3275
884.143	3447
884.269	3572
884.395	3268
884.52	3214
884.646	3226
884.772	3135
884.897	3135
885.023	3245
885.148	3336
885.274	3447
885.399	3412
885.524	3287
885.65	3256
885.775	3340
885.9	3287
886.025	3431
886.15	3374
886.275	3321
886.4	3260
886.525	3340
886.65	3283
886.775	3279
886.9	3523
887.025	3682
887.149	3416
887.274	3336
887.399	3195
887.523	3222
887.648	3203
887.773	3226
887.897	3370
888.021	3443
888.146	3329
888.27	3466
888.395	3580
888.519	3439
888.643	3469
888.767	3485
888.891	3351
889.015	3245
889.139	3344
889.263	3256
889.387	3412
889.511	3496
889.635	3469
889.759	3302
889.883	3310
890.006	3420
890.13	3500
890.254	3325
890.377	3382
890.501	3268
890.624	3180
890.748	3321
890.871	3184
890.995	3165
891.118	3112
891.241	3241
891.364	3245
891.488	3370
891.611	3184
891.734	3241
891.857	3310
891.98	3264
892.103	3378
892.226	3351
892.349	3230
892.471	3161
892.594	3329
892.717	3344
892.839	3329
892.962	3329
893.085	3359
893.207	3272
893.33	3157
893.452	3199
893.575	3344
893.697	3272
893.819	3492
893.941	3504
894.064	3492
894.186	3313
894.308	3264
894.43	3477
894.552	3526
894.674	3481
894.796	3272
894.918	3313
895.04	3336
895.161	3420
895.283	3393
895.405	3332
895.526	3412
895.648	3439
895.769	3466
895.891	3462
896.012	3496
896.134	3530
896.255	3405
896.376	3431
896.498	3370
896.619	3424
896.74	3378
896.861	3416
896.982	3698
897.103	3873
897.224	3595
897.345	3549
897.466	3428
897.587	3545
897.708	3686
897.828	3584
897.949	3458
898.07	3344
898.19	3435
898.311	3618
898.431	3492
898.552	3530
898.672	3599
898.792	3564
898.913	3526
899.033	3447
899.153	3351
899.273	3214
899.393	3329
899.513	3348
899.633	3325
899.753	3359
899.873	3317
899.993	3359
900.113	3355
900.232	3428
900.352	3370
900.472	3310
900.591	3245
900.711	3336
900.83	3291
900.95	3458
901.069	3481
901.189	3378
901.308	3214
901.427	3135
901.546	3192
901.665	3344
901.784	3317
901.904	3207
902.023	3131
902.141	3047
902.26	3024
902.379	3138
902.498	3104
902.617	3062
902.735	3256
902.854	3241
902.973	3207
903.091	3066
903.21	3085
903.328	3176
903.446	3169
903.565	3077
903.683	3199
903.801	3135
903.919	3256
904.038	3313
904.156	3195
904.274	3298
904.392	3291
904.51	3351
904.627	3321
904.745	3443
904.863	3515
904.981	3237
905.098	3195
905.216	3249
905.334	3351
905.451	3310
905.569	3374
905.686	3443
905.803	3412
905.921	3287
906.038	3447
906.155	3374
906.272	3329
906.389	3367
906.506	3245
906.623	3279
906.74	3310
906.857	3154
906.974	3279
907.091	3477
907.208	3561
907.324	3481
907.441	3424
907.557	3226
907.674	3245
907.79	3264
907.907	3310
908.023	3344
908.139	3439
908.256	3382
908.372	3351
908.488	3363
908.604	3272
908.72	3264
908.836	3302
908.952	3294
909.068	3340
909.184	3542
909.3	3424
909.415	3564
909.531	3443
909.647	3302
909.762	3310
909.878	3302
909.993	3363
910.108	3344
910.224	3355
910.339	3439
910.454	3344
910.57	3321
910.685	3237
910.8	3610
910.915	3492
911.03	3424
911.145	3302
911.259	3287
911.374	3317
911.489	3260
911.604	3230
911.718	3131
911.833	3135
911.947	3051
912.062	3001
912.176	3176
912.291	3214
912.405	3211
912.519	3450
912.633	3492
912.748	3340
912.862	3310
912.976	3169
913.09	3085
913.204	3146
913.318	3226
913.431	3351
913.545	3325
913.659	3416
913.772	3355
913.886	3222
914	3279
914.113	3378
914.226	3405
914.34	3393
914.453	3230
914.566	3401
914.68	3302
914.793	3340
914.906	3157
915.019	3138
915.132	3081
915.245	3230
915.358	3192
915.47	3260
915.583	3294
915.696	3291
915.809	3420
915.921	3386
916.034	3260
916.146	3287
916.259	3222
916.371	3378
916.483	3382
916.595	3253
916.708	3325
916.82	3363
916.932	3348
917.044	3367
917.156	3367
917.268	3287
917.38	3298
917.491	3336
917.603	3367
917.715	3447
917.826	3447
917.938	3405
918.049	3264
918.161	3435
918.272	3606
918.384	3568
918.495	3507
918.606	3332
918.717	3279
918.828	3405
918.939	3420
919.05	3313
919.161	3382
919.272	3211
919.383	3279
919.494	3545
919.604	3671
919.715	3515
919.826	3401
919.936	3439
920.047	3580
920.157	3553
920.267	3766
920.378	3648
920.488	3561
920.598	3766
920.708	3937
920.818	3838
920.928	3823
921.038	4032
921.148	3991
921.258	3740
921.368	3652
921.477	3595
921.587	3591
921.697	3450
921.806	3644
921.916	3545
922.025	3291
922.134	3367
922.244	3317
922.353	3439
922.462	3291
922.571	3203
922.68	3184
922.789	3066
922.898	3108
923.007	3116
923.116	3188
923.224	3180
923.333	3188
923.442	3093
923.55	3032
923.659	3157
923.767	3207
923.876	3093
923.984	3241
924.092	3097
924.201	3218
924.309	3233
924.417	3264
924.525	3184
924.633	3230
924.741	4029
924.849	3062
924.956	3241
925.064	3089
925.172	3013
925.279	3097
925.387	3260
925.494	3176
925.602	3386
925.709	3321
925.816	3203
925.924	3317
926.031	3386
926.138	3378
926.245	3393
926.352	3253
926.459	3412
926.566	3458
926.673	3359
926.779	3268
926.886	3268
926.993	3199
927.099	3188
927.206	3146
927.312	3154
927.419	3306
927.525	3218
927.631	3294
927.737	3150
927.843	3161
927.95	3081
928.056	3146
928.162	3264
928.267	3283
928.373	3884
928.479	3355
928.585	3093
928.69	3260
928.796	3313
928.901	3233
929.007	3112
929.112	3272
929.218	3214
929.323	3222
929.428	3180
929.533	3378
929.638	3135
929.743	3214
929.848	3310
929.953	3283
930.058	3207
930.163	3043
930.267	3085
930.372	3241
930.477	3058
930.581	3359
930.685	3245
930.79	3062
930.894	3150
930.998	3127
931.103	3344
931.207	3013
931.311	3009
931.415	3017
931.519	2766
931.623	2849
