Data from test_V78500241_362.txt Node
Date: Fri Mar 25 16:17:42 CST 2022
User: usil
Spectrometer: V785-0024
Trigger mode: 0
Integration Time (sec): 4.000000E-1
Scans to average: 1
Nonlinearity correction enabled: false
Boxcar width: 0
Storing dark spectrum: false
XAxis mode: Wavelengths
Number of Pixels in Spectrum: 1024
>>>>>Begin Spectral Data<<<<<
801.071	2872
801.214	2948
801.356	2929
801.499	2933
801.641	2864
801.783	2925
801.926	3032
802.068	2960
802.211	3005
802.353	3055
802.496	2956
802.638	3001
802.78	3051
802.923	3085
803.065	2986
803.208	2880
803.35	2922
803.492	2937
803.635	2929
803.777	2743
803.919	2868
804.061	3188
804.204	2899
804.346	2914
804.488	2849
804.63	3009
804.773	2876
804.915	2922
805.057	3085
805.199	2918
805.341	2979
805.483	3055
805.626	3020
805.768	2956
805.91	3070
806.052	3116
806.194	3077
806.336	3233
806.478	3028
806.62	2944
806.762	2998
806.904	3062
807.046	3180
807.188	3013
807.33	2902
807.472	2952
807.614	2918
807.756	2944
807.898	2918
808.04	2876
808.182	2952
808.324	2986
808.465	2861
808.607	2861
808.749	2792
808.891	2826
809.033	2975
809.174	3017
809.316	2906
809.458	2895
809.6	2785
809.741	2792
809.883	2750
810.025	2842
810.166	2895
810.308	2842
810.45	2838
810.591	2785
810.733	2792
810.875	2861
811.016	2807
811.158	2769
811.299	2792
811.441	2902
811.582	2906
811.724	2811
811.865	2826
812.007	2887
812.148	2891
812.29	2857
812.431	2922
812.573	2941
812.714	2948
812.855	3028
812.997	3051
813.138	3112
813.279	2982
813.421	3009
813.562	2941
813.703	2845
813.845	2891
813.986	2785
814.127	2754
814.268	2807
814.41	2864
814.551	2807
814.692	2887
814.833	2815
814.974	2883
815.115	3005
815.256	2826
815.397	2796
815.539	2880
815.68	2762
815.821	2800
815.962	2918
816.103	2914
816.244	2906
816.385	2876
816.526	2967
816.666	2872
816.807	2735
816.948	2872
817.089	2887
817.23	2838
817.371	2819
817.512	2823
817.653	2823
817.793	2811
817.934	2883
818.075	2982
818.216	2982
818.356	3043
818.497	2906
818.638	2777
818.778	2807
818.919	2823
819.06	2777
819.2	2895
819.341	2845
819.481	2830
819.622	2937
819.762	3074
819.903	3028
820.043	2872
820.184	2910
820.324	2899
820.465	3047
820.605	2998
820.746	3020
820.886	2948
821.026	3123
821.167	3150
821.307	3253
821.447	3279
821.588	3218
821.728	3214
821.868	3195
822.008	3100
822.149	3203
822.289	3195
822.429	3097
822.569	3070
822.709	3211
822.849	3028
822.99	3097
823.13	3138
823.27	3218
823.41	3104
823.55	3165
823.69	3138
823.83	3195
823.97	3108
824.11	2975
824.25	3001
824.389	3058
824.529	3070
824.669	3085
824.809	3256
824.949	3264
825.089	3214
825.228	3157
825.368	3001
825.508	2944
825.648	2922
825.787	2982
825.927	3017
826.067	2982
826.206	2963
826.346	3032
826.485	3077
826.625	3116
826.765	3249
826.904	3184
827.044	2986
827.183	2902
827.323	2842
827.462	2990
827.601	2906
827.741	2922
827.88	2937
828.02	2883
828.159	2994
828.298	3028
828.437	3104
828.577	3017
828.716	3264
828.855	3077
828.994	2910
829.134	2895
829.273	2929
829.412	2857
829.551	2853
829.69	2887
829.829	2982
829.968	3154
830.107	3001
830.246	3051
830.385	2883
830.524	2857
830.663	2834
830.802	2746
830.941	2602
831.08	2640
831.219	2735
831.357	2773
831.496	2944
831.635	2705
831.774	2640
831.913	2670
832.051	2522
832.19	2560
832.329	2667
832.467	2530
832.606	2469
832.744	2583
832.883	2594
833.022	2552
833.16	2659
833.299	2670
833.437	2678
833.576	2678
833.714	2716
833.852	2739
833.991	2750
834.129	2834
834.267	2819
834.406	2804
834.544	2868
834.682	2834
834.821	2922
834.959	3089
835.097	2910
835.235	3036
835.373	2986
835.511	3055
835.65	2982
835.788	3013
835.926	2826
836.064	2804
836.202	2811
836.34	3074
836.478	3131
836.615	3043
836.753	3112
836.891	3195
837.029	3157
837.167	3089
837.305	3028
837.443	3032
837.58	2937
837.718	3131
837.856	3051
837.993	3020
838.131	3097
838.269	3070
838.406	3074
838.544	3066
838.681	2952
838.819	2925
838.956	2788
839.094	2845
839.231	2880
839.369	2986
839.506	3367
839.643	3199
839.781	3017
839.918	2963
840.055	3039
840.193	3036
840.33	3089
840.467	3108
840.604	3157
840.742	3412
840.879	3013
841.016	3051
841.153	3112
841.29	3336
841.427	3283
841.564	3260
841.701	3283
841.838	3218
841.975	3180
842.112	3176
842.249	3066
842.385	3005
842.522	3233
842.659	3085
842.796	3051
842.933	3081
843.069	3028
843.206	3058
843.343	3226
843.479	3154
843.616	3119
843.752	2887
843.889	2868
844.025	3119
844.162	2857
844.298	3062
844.435	2960
844.571	2880
844.708	3039
844.844	3207
844.98	3199
845.117	3192
845.253	3039
845.389	2998
845.525	3051
845.661	3116
845.798	3036
845.934	3104
846.07	3051
846.206	3211
846.342	3306
846.478	3207
846.614	3066
846.75	3039
846.886	2998
847.022	3237
847.158	3119
847.294	3218
847.429	3249
847.565	3203
847.701	3481
847.837	3047
847.972	3005
848.108	3161
848.244	3127
848.379	2967
848.515	2963
848.65	2944
848.786	2986
848.921	2963
849.057	3089
849.192	3104
849.328	3074
849.463	3146
849.598	3028
849.734	3039
849.869	2982
850.004	2918
850.14	2994
850.275	2910
850.41	2826
850.545	2883
850.68	2952
850.815	2925
850.95	2941
851.085	3161
851.22	3043
851.355	3055
851.49	2975
851.625	2998
851.76	2986
851.895	2906
852.03	2933
852.165	3036
852.299	3112
852.434	3214
852.569	3154
852.703	3173
852.838	3253
852.973	3329
853.107	3313
853.242	3169
853.376	3085
853.511	2990
853.645	3036
853.78	3279
853.914	3093
854.048	3119
854.183	3070
854.317	3146
854.451	3264
854.585	3127
854.72	3085
854.854	3214
854.988	3032
855.122	3066
855.256	2960
855.39	3146
855.524	3226
855.658	3154
855.792	3161
855.926	3207
856.06	3218
856.194	3260
856.327	3131
856.461	3104
856.595	3097
856.729	3089
856.862	3199
856.996	3142
857.13	3188
857.263	3241
857.397	3256
857.53	3097
857.664	3192
857.797	3241
857.931	3256
858.064	3161
858.197	3199
858.331	3135
858.464	3112
858.597	3005
858.731	3097
858.864	3138
858.997	3081
859.13	3131
859.263	3195
859.396	3184
859.529	3081
859.662	3081
859.795	3058
859.928	3146
860.061	3283
860.194	3264
860.327	3123
860.46	3119
860.592	3222
860.725	3264
860.858	3218
860.99	3150
861.123	3036
861.256	3066
861.388	3146
861.521	3800
861.653	3043
861.786	2967
861.918	2971
862.05	3043
862.183	3108
862.315	3135
862.447	3180
862.58	3100
862.712	2933
862.844	2845
862.976	3009
863.108	3001
863.24	3401
863.372	2864
863.504	2948
863.636	2952
863.768	3020
863.9	2967
864.032	2929
864.164	2952
864.296	3024
864.428	3055
864.559	3089
864.691	3074
864.823	3028
864.954	3055
865.086	3020
865.217	2982
865.349	2952
865.48	2990
865.612	3028
865.743	3154
865.875	2994
866.006	2891
866.137	3001
866.269	2933
866.4	2960
866.531	2914
866.662	2849
866.793	2910
866.924	2868
867.055	2967
867.186	2899
867.317	2876
867.448	2834
867.579	2868
867.71	2899
867.841	2804
867.972	2925
868.103	2899
868.233	2853
868.364	2864
868.495	2887
868.625	3055
868.756	3169
868.886	2979
869.017	3013
869.147	3157
869.278	3222
869.408	3013
869.539	3013
869.669	3081
869.799	3024
869.929	3131
870.06	3104
870.19	3332
870.32	3306
870.45	3302
870.58	3351
870.71	3431
870.84	3428
870.97	3310
871.1	3253
871.23	3443
871.36	3431
871.489	3351
871.619	3389
871.749	3424
871.879	3401
872.008	3481
872.138	3374
872.267	3279
872.397	3112
872.526	3089
872.656	2990
872.785	3093
872.915	3241
873.044	3287
873.173	3195
873.303	3230
873.432	3256
873.561	3211
873.69	3154
873.819	3131
873.948	3192
874.077	3100
874.206	3047
874.335	3066
874.464	3233
874.593	3344
874.722	3245
874.851	3344
874.979	3359
875.108	3302
875.237	3180
875.365	3142
875.494	3154
875.623	3214
875.751	3066
875.88	3108
876.008	3218
876.136	3199
876.265	3351
876.393	3477
876.521	3409
876.65	3370
876.778	3310
876.906	3245
877.034	3222
877.162	3195
877.29	3195
877.418	3260
877.546	3272
877.674	3256
877.802	3237
877.93	3241
878.058	3154
878.185	3093
878.313	3218
878.441	3203
878.568	3089
878.696	3154
878.824	3230
878.951	3260
879.079	3466
879.206	3587
879.333	3458
879.461	3321
879.588	3348
879.715	3488
879.842	3595
879.97	3382
880.097	3150
880.224	3138
880.351	3195
880.478	3241
880.605	3161
880.732	3195
880.859	3485
880.986	3294
881.112	3302
881.239	3199
881.366	3100
881.493	3043
881.619	3020
881.746	3085
881.872	3100
881.999	3089
882.125	3116
882.252	3203
882.378	3275
882.505	3416
882.631	3279
882.757	3150
882.883	3184
883.01	3195
883.136	3146
883.262	3089
883.388	3112
883.514	3294
883.64	3355
883.766	3294
883.892	3169
884.018	3241
884.143	3367
884.269	3507
884.395	3188
884.52	3203
884.646	3161
884.772	3074
884.897	3157
885.023	3203
885.148	3348
885.274	3393
885.399	3409
885.524	3287
885.65	3291
885.775	3344
885.9	3226
886.025	3458
886.15	3355
886.275	3287
886.4	3211
886.525	3321
886.65	3298
886.775	3272
886.9	3469
887.025	3641
887.149	3412
887.274	3268
887.399	3195
887.523	3203
887.648	3207
887.773	3176
887.897	3351
888.021	3367
888.146	3264
888.27	3428
888.395	3511
888.519	3386
888.643	3443
888.767	3496
888.891	3317
889.015	3260
889.139	3291
889.263	3264
889.387	3386
889.511	3511
889.635	3416
889.759	3272
889.883	3321
890.006	3355
890.13	3466
890.254	3272
890.377	3336
890.501	3203
890.624	3157
890.748	3283
890.871	3173
890.995	3112
891.118	3058
891.241	3188
891.364	3237
891.488	3321
891.611	3214
891.734	3180
891.857	3264
891.98	3253
892.103	3302
892.226	3294
892.349	3214
892.471	3127
892.594	3222
892.717	3294
892.839	3298
892.962	3245
893.085	3359
893.207	3275
893.33	3146
893.452	3195
893.575	3313
893.697	3222
893.819	3507
893.941	3504
894.064	3458
894.186	3313
894.308	3268
894.43	3435
894.552	3534
894.674	3507
894.796	3256
894.918	3275
895.04	3313
895.161	3439
895.283	3397
895.405	3306
895.526	3348
895.648	3428
895.769	3409
895.891	3462
896.012	3485
896.134	3481
896.255	3420
896.376	3363
896.498	3374
896.619	3439
896.74	3306
896.861	3378
896.982	3675
897.103	3838
897.224	3561
897.345	3534
897.466	3435
897.587	3466
897.708	3637
897.828	3591
897.949	3420
898.07	3340
898.19	3374
898.311	3561
898.431	3458
898.552	3473
898.672	3549
898.792	3549
898.913	3488
899.033	3397
899.153	3283
899.273	3207
899.393	3222
899.513	3294
899.633	3283
899.753	3359
899.873	3336
899.993	3370
900.113	3355
900.232	3386
900.352	3340
900.472	3275
900.591	3222
900.711	3291
900.83	3237
900.95	3431
901.069	3515
901.189	3363
901.308	3199
901.427	3100
901.546	3184
901.665	3279
901.784	3306
901.904	3207
902.023	3131
902.141	3020
902.26	2956
902.379	3108
902.498	3081
902.617	3036
902.735	3230
902.854	3245
902.973	3195
903.091	3032
903.21	3055
903.328	3104
903.446	3112
903.565	3100
903.683	3180
903.801	3138
903.919	3249
904.038	3287
904.156	3154
904.274	3272
904.392	3230
904.51	3283
904.627	3325
904.745	3439
904.863	3492
904.981	3260
905.098	3173
905.216	3245
905.334	3287
905.451	3321
905.569	3279
905.686	3420
905.803	3435
905.921	3287
906.038	3397
906.155	3332
906.272	3294
906.389	3351
906.506	3222
906.623	3233
906.74	3313
906.857	3169
906.974	3237
907.091	3462
907.208	3553
907.324	3511
907.441	3378
907.557	3253
907.674	3241
907.79	3192
907.907	3294
908.023	3382
908.139	3397
908.256	3348
908.372	3363
908.488	3348
908.604	3253
908.72	3218
908.836	3283
908.952	3291
909.068	3344
909.184	3462
909.3	3397
909.415	3557
909.531	3500
909.647	3275
909.762	3237
909.878	3268
909.993	3367
910.108	3310
910.224	3340
910.339	3420
910.454	3351
910.57	3291
910.685	3211
910.8	3614
910.915	3507
911.03	3370
911.145	3264
911.259	3230
911.374	3313
911.489	3218
911.604	3245
911.718	3112
911.833	3131
911.947	2986
912.062	3001
912.176	3138
912.291	3188
912.405	3237
912.519	3405
912.633	3500
912.748	3359
912.862	3268
912.976	3161
913.09	3070
913.204	3112
913.318	3249
913.431	3325
913.545	3291
913.659	3412
913.772	3287
913.886	3207
914	3184
914.113	3313
914.226	3420
914.34	3374
914.453	3207
914.566	3420
914.68	3302
914.793	3313
914.906	3184
915.019	3116
915.132	3077
915.245	3169
915.358	3199
915.47	3272
915.583	3260
915.696	3329
915.809	3405
915.921	3424
916.034	3268
916.146	3253
916.259	3226
916.371	3378
916.483	3378
916.595	3272
916.708	3351
916.82	3317
916.932	3340
917.044	3340
917.156	3382
917.268	3256
917.38	3287
917.491	3313
917.603	3351
917.715	3450
917.826	3458
917.938	3393
918.049	3283
918.161	3439
918.272	3530
918.384	3561
918.495	3477
918.606	3363
918.717	3302
918.828	3401
918.939	3401
919.05	3291
919.161	3382
919.272	3161
919.383	3237
919.494	3462
919.604	3732
919.715	3477
919.826	3340
919.936	3454
920.047	3603
920.157	3564
920.267	3759
920.378	3625
920.488	3542
920.598	3717
920.708	3983
920.818	3766
920.928	3846
921.038	4002
921.148	3994
921.258	3713
921.368	3641
921.477	3595
921.587	3576
921.697	3435
921.806	3648
921.916	3488
922.025	3336
922.134	3378
922.244	3302
922.353	3405
922.462	3272
922.571	3233
922.68	3077
922.789	3100
922.898	3131
923.007	3081
923.116	3203
923.224	3207
923.333	3157
923.442	3108
923.55	3066
923.659	3142
923.767	3195
923.876	3108
923.984	3249
924.092	3108
924.201	3211
924.309	3184
924.417	3253
924.525	3184
924.633	3241
924.741	4200
924.849	3062
924.956	3279
925.064	3089
925.172	3070
925.279	3104
925.387	3218
925.494	3180
925.602	3355
925.709	3355
925.816	3188
925.924	3245
926.031	3363
926.138	3306
926.245	3359
926.352	3283
926.459	3382
926.566	3477
926.673	3313
926.779	3256
926.886	3237
926.993	3146
927.099	3138
927.206	3074
927.312	3104
927.419	3218
927.525	3226
927.631	3253
927.737	3150
927.843	3131
927.95	3032
928.056	3100
928.162	3135
928.267	3253
928.373	3903
928.479	3298
928.585	3089
928.69	3199
928.796	3260
928.901	3188
929.007	3047
929.112	3180
929.218	3169
929.323	3119
929.428	3157
929.533	3298
929.638	3074
929.743	3119
929.848	3211
929.953	3195
930.058	3100
930.163	2979
930.267	3055
930.372	3176
930.477	3032
930.581	3317
930.685	3161
930.79	3062
930.894	3123
930.998	3081
931.103	3245
931.207	2944
931.311	2918
931.415	2937
931.519	2781
931.623	2823
