Data from test_V78500241_1655.txt Node
Date: Fri Mar 25 16:26:40 CST 2022
User: usil
Spectrometer: V785-0024
Trigger mode: 0
Integration Time (sec): 4.000000E-1
Scans to average: 1
Nonlinearity correction enabled: false
Boxcar width: 0
Storing dark spectrum: false
XAxis mode: Wavelengths
Number of Pixels in Spectrum: 1024
>>>>>Begin Spectral Data<<<<<
801.071	2902
801.214	2922
801.356	2883
801.499	2891
801.641	2864
801.783	2887
801.926	3039
802.068	2998
802.211	2960
802.353	3062
802.496	2941
802.638	2994
802.78	3036
802.923	3062
803.065	2971
803.208	2883
803.35	2906
803.492	2918
803.635	2914
803.777	2758
803.919	2849
804.061	3150
804.204	2956
804.346	2891
804.488	2834
804.63	2956
804.773	2887
804.915	2899
805.057	3070
805.199	2883
805.341	2960
805.483	3032
805.626	3005
805.768	2971
805.91	3085
806.052	3066
806.194	3066
806.336	3233
806.478	3017
806.62	2960
806.762	2990
806.904	3066
807.046	3161
807.188	2967
807.33	2876
807.472	2986
807.614	2929
807.756	2963
807.898	2933
808.04	2887
808.182	2979
808.324	2941
808.465	2849
808.607	2876
808.749	2785
808.891	2849
809.033	2960
809.174	2944
809.316	2895
809.458	2910
809.6	2766
809.741	2762
809.883	2781
810.025	2834
810.166	2834
810.308	2834
810.45	2872
810.591	2792
810.733	2754
810.875	2838
811.016	2766
811.158	2739
811.299	2777
811.441	2925
811.582	2925
811.724	2811
811.865	2807
812.007	2876
812.148	2857
812.29	2830
812.431	2899
812.573	2925
812.714	2937
812.855	2994
812.997	3039
813.138	3112
813.279	3005
813.421	2979
813.562	2933
813.703	2895
813.845	2891
813.986	2773
814.127	2727
814.268	2811
814.41	2811
814.551	2792
814.692	2880
814.833	2815
814.974	2887
815.115	2948
815.256	2853
815.397	2788
815.539	2823
815.68	2815
815.821	2754
815.962	2941
816.103	2906
816.244	2883
816.385	2876
816.526	2963
816.666	2906
816.807	2727
816.948	2880
817.089	2880
817.23	2864
817.371	2781
817.512	2781
817.653	2853
817.793	2845
817.934	2838
818.075	2960
818.216	2971
818.356	3032
818.497	2891
818.638	2792
818.778	2815
818.919	2785
819.06	2750
819.2	2849
819.341	2804
819.481	2781
819.622	2933
819.762	3112
819.903	3074
820.043	2906
820.184	2899
820.324	2864
820.465	2990
820.605	3032
820.746	3032
820.886	2944
821.026	3051
821.167	3112
821.307	3249
821.447	3275
821.588	3230
821.728	3207
821.868	3192
822.008	3055
822.149	3142
822.289	3241
822.429	3093
822.569	3116
822.709	3169
822.849	3024
822.99	3066
823.13	3154
823.27	3184
823.41	3097
823.55	3146
823.69	3112
823.83	3199
823.97	3085
824.11	2975
824.25	2986
824.389	3066
824.529	3074
824.669	3089
824.809	3222
824.949	3260
825.089	3214
825.228	3131
825.368	2998
825.508	2952
825.648	2994
825.787	3032
825.927	3005
826.067	2963
826.206	2948
826.346	3005
826.485	3039
826.625	3116
826.765	3272
826.904	3188
827.044	2963
827.183	2937
827.323	2857
827.462	2956
827.601	2902
827.741	2876
827.88	2963
828.02	2826
828.159	2967
828.298	2994
828.437	3100
828.577	3028
828.716	3211
828.855	3089
828.994	2902
829.134	2883
829.273	2948
829.412	2868
829.551	2830
829.69	2861
829.829	2963
829.968	3116
830.107	3032
830.246	3009
830.385	2925
830.524	2876
830.663	2785
830.802	2743
830.941	2629
831.08	2659
831.219	2739
831.357	2758
831.496	2933
831.635	2724
831.774	2659
831.913	2651
832.051	2564
832.19	2583
832.329	2727
832.467	2511
832.606	2507
832.744	2564
832.883	2579
833.022	2579
833.16	2682
833.299	2678
833.437	2667
833.576	2686
833.714	2705
833.852	2720
833.991	2785
834.129	2819
834.267	2845
834.406	2766
834.544	2868
834.682	2845
834.821	2872
834.959	3036
835.097	2876
835.235	3055
835.373	2979
835.511	2990
835.65	2952
835.788	2960
835.926	2834
836.064	2819
836.202	2830
836.34	3070
836.478	3142
836.615	3017
836.753	3116
836.891	3180
837.029	3150
837.167	3104
837.305	3051
837.443	3013
837.58	2979
837.718	3154
837.856	3066
837.993	3047
838.131	3100
838.269	3100
838.406	3077
838.544	3066
838.681	2944
838.819	2922
838.956	2792
839.094	2830
839.231	2861
839.369	2994
839.506	3355
839.643	3199
839.781	2990
839.918	2971
840.055	3039
840.193	3043
840.33	3051
840.467	3039
840.604	3138
840.742	3389
840.879	3051
841.016	3047
841.153	3100
841.29	3363
841.427	3291
841.564	3256
841.701	3317
841.838	3203
841.975	3169
842.112	3249
842.249	3135
842.385	3024
842.522	3264
842.659	3104
842.796	3032
842.933	3074
843.069	3024
843.206	3009
843.343	3165
843.479	3058
843.616	3127
843.752	2891
843.889	2842
844.025	3066
844.162	2937
844.298	3055
844.435	2944
844.571	2929
844.708	3051
844.844	3169
844.98	3283
845.117	3192
845.253	3058
845.389	2967
845.525	3104
845.661	3119
845.798	2956
845.934	3077
846.07	3013
846.206	3192
846.342	3340
846.478	3199
846.614	3077
846.75	3043
846.886	2975
847.022	3207
847.158	3112
847.294	3199
847.429	3214
847.565	3192
847.701	3466
847.837	3039
847.972	2998
848.108	3131
848.244	3119
848.379	2956
848.515	2929
848.65	2925
848.786	2948
848.921	2986
849.057	3119
849.192	3112
849.328	3028
849.463	3089
849.598	3070
849.734	3032
849.869	2975
850.004	2944
850.14	2937
850.275	2914
850.41	2845
850.545	2883
850.68	2933
850.815	2960
850.95	2952
851.085	3188
851.22	3085
851.355	3001
851.49	2979
851.625	2979
851.76	3039
851.895	2906
852.03	2925
852.165	3024
852.299	3116
852.434	3169
852.569	3108
852.703	3157
852.838	3260
852.973	3348
853.107	3302
853.242	3138
853.376	3085
853.511	2982
853.645	3047
853.78	3233
853.914	3108
854.048	3066
854.183	3089
854.317	3116
854.451	3275
854.585	3104
854.72	3055
854.854	3173
854.988	3028
855.122	3081
855.256	2952
855.39	3119
855.524	3237
855.658	3161
855.792	3100
855.926	3180
856.06	3264
856.194	3253
856.327	3146
856.461	3081
856.595	3074
856.729	3036
856.862	3222
856.996	3169
857.13	3180
857.263	3230
857.397	3241
857.53	3100
857.664	3161
857.797	3272
857.931	3275
858.064	3165
858.197	3222
858.331	3123
858.464	3089
858.597	3001
858.731	3097
858.864	3138
858.997	3070
859.13	3116
859.263	3146
859.396	3199
859.529	3093
859.662	3100
859.795	3005
859.928	3165
860.061	3275
860.194	3272
860.327	3108
860.46	3062
860.592	3218
860.725	3211
860.858	3211
860.99	3085
861.123	3032
861.256	3036
861.388	3135
861.521	3838
861.653	2990
861.786	2975
861.918	2979
862.05	3055
862.183	3093
862.315	3104
862.447	3203
862.58	3085
862.712	2937
862.844	2876
862.976	3013
863.108	2975
863.24	3420
863.372	2853
863.504	2975
863.636	2952
863.768	3017
863.9	2960
864.032	2880
864.164	2918
864.296	3005
864.428	3077
864.559	3116
864.691	3081
864.823	3047
864.954	3028
865.086	2994
865.217	2975
865.349	2952
865.48	2971
865.612	2998
865.743	3188
865.875	3005
866.006	2960
866.137	2956
866.269	2937
866.4	2952
866.531	2906
866.662	2906
866.793	2910
866.924	2883
867.055	2948
867.186	2922
867.317	2857
867.448	2842
867.579	2845
867.71	2861
867.841	2788
867.972	2895
868.103	2922
868.233	2887
868.364	2876
868.495	2887
868.625	3066
868.756	3173
868.886	2990
869.017	3009
869.147	3195
869.278	3195
869.408	3055
869.539	3028
869.669	3093
869.799	3024
869.929	3104
870.06	3089
870.19	3298
870.32	3241
870.45	3306
870.58	3359
870.71	3466
870.84	3488
870.97	3298
871.1	3260
871.23	3458
871.36	3428
871.489	3359
871.619	3374
871.749	3431
871.879	3420
872.008	3469
872.138	3374
872.267	3340
872.397	3108
872.526	3081
872.656	3009
872.785	3112
872.915	3211
873.044	3340
873.173	3233
873.303	3222
873.432	3184
873.561	3188
873.69	3146
873.819	3135
873.948	3188
874.077	3104
874.206	3077
874.335	3066
874.464	3233
874.593	3325
874.722	3226
874.851	3370
874.979	3332
875.108	3325
875.237	3230
875.365	3135
875.494	3161
875.623	3211
875.751	3062
875.88	3104
876.008	3142
876.136	3218
876.265	3367
876.393	3519
876.521	3420
876.65	3336
876.778	3344
876.906	3249
877.034	3222
877.162	3230
877.29	3150
877.418	3256
877.546	3256
877.674	3272
877.802	3192
877.93	3230
878.058	3154
878.185	3077
878.313	3222
878.441	3188
878.568	3070
878.696	3138
878.824	3253
878.951	3275
879.079	3420
879.206	3595
879.333	3428
879.461	3332
879.588	3382
879.715	3458
879.842	3591
879.97	3340
880.097	3161
880.224	3142
880.351	3192
880.478	3173
880.605	3195
880.732	3165
880.859	3488
880.986	3298
881.112	3340
881.239	3207
881.366	3070
881.493	3028
881.619	2967
881.746	3062
881.872	3058
881.999	3058
882.125	3150
882.252	3264
882.378	3287
882.505	3401
882.631	3291
882.757	3146
882.883	3237
883.01	3203
883.136	3104
883.262	3116
883.388	3070
883.514	3344
883.64	3340
883.766	3241
883.892	3188
884.018	3199
884.143	3367
884.269	3523
884.395	3211
884.52	3146
884.646	3176
884.772	3131
884.897	3070
885.023	3226
885.148	3351
885.274	3401
885.399	3378
885.524	3249
885.65	3237
885.775	3275
885.9	3279
886.025	3428
886.15	3367
886.275	3279
886.4	3230
886.525	3313
886.65	3275
886.775	3272
886.9	3466
887.025	3587
887.149	3374
887.274	3245
887.399	3165
887.523	3207
887.648	3203
887.773	3150
887.897	3351
888.021	3409
888.146	3275
888.27	3424
888.395	3538
888.519	3435
888.643	3477
888.767	3481
888.891	3291
889.015	3237
889.139	3291
889.263	3203
889.387	3344
889.511	3511
889.635	3443
889.759	3302
889.883	3287
890.006	3401
890.13	3458
890.254	3275
890.377	3332
890.501	3207
890.624	3150
890.748	3294
890.871	3176
890.995	3108
891.118	3047
891.241	3161
891.364	3218
891.488	3325
891.611	3146
891.734	3268
891.857	3298
891.98	3233
892.103	3336
892.226	3256
892.349	3218
892.471	3074
892.594	3192
892.717	3245
892.839	3275
892.962	3264
893.085	3332
893.207	3294
893.33	3100
893.452	3195
893.575	3329
893.697	3195
893.819	3466
893.941	3469
894.064	3466
894.186	3275
894.308	3230
894.43	3428
894.552	3496
894.674	3424
894.796	3310
894.918	3298
895.04	3283
895.161	3382
895.283	3363
895.405	3298
895.526	3340
895.648	3397
895.769	3393
895.891	3481
896.012	3454
896.134	3469
896.255	3405
896.376	3397
896.498	3306
896.619	3397
896.74	3332
896.861	3389
896.982	3682
897.103	3861
897.224	3576
897.345	3492
897.466	3454
897.587	3500
897.708	3606
897.828	3572
897.949	3439
898.07	3355
898.19	3382
898.311	3599
898.431	3412
898.552	3504
898.672	3595
898.792	3545
898.913	3504
899.033	3424
899.153	3268
899.273	3233
899.393	3260
899.513	3325
899.633	3272
899.753	3359
899.873	3275
899.993	3393
900.113	3313
900.232	3393
900.352	3363
900.472	3275
900.591	3173
900.711	3294
900.83	3199
900.95	3367
901.069	3450
901.189	3340
901.308	3169
901.427	3104
901.546	3173
901.665	3275
901.784	3325
901.904	3127
902.023	3119
902.141	3013
902.26	3009
902.379	3135
902.498	3062
902.617	3020
902.735	3207
902.854	3176
902.973	3161
903.091	3009
903.21	3058
903.328	3142
903.446	3066
903.565	3089
903.683	3203
903.801	3085
903.919	3180
904.038	3279
904.156	3169
904.274	3291
904.392	3237
904.51	3310
904.627	3336
904.745	3389
904.863	3481
904.981	3249
905.098	3131
905.216	3218
905.334	3272
905.451	3268
905.569	3325
905.686	3409
905.803	3439
905.921	3253
906.038	3382
906.155	3336
906.272	3249
906.389	3321
906.506	3188
906.623	3275
906.74	3253
906.857	3180
906.974	3249
907.091	3416
907.208	3511
907.324	3477
907.441	3401
907.557	3237
907.674	3226
907.79	3192
907.907	3260
908.023	3332
908.139	3393
908.256	3321
908.372	3329
908.488	3329
908.604	3249
908.72	3214
908.836	3245
908.952	3256
909.068	3313
909.184	3466
909.3	3355
909.415	3450
909.531	3409
909.647	3260
909.762	3294
909.878	3233
909.993	3336
910.108	3344
910.224	3321
910.339	3416
910.454	3348
910.57	3275
910.685	3230
910.8	3591
910.915	3507
911.03	3401
911.145	3264
911.259	3272
911.374	3294
911.489	3233
911.604	3233
911.718	3116
911.833	3169
911.947	3005
912.062	3013
912.176	3165
912.291	3176
912.405	3256
912.519	3466
912.633	3447
912.748	3344
912.862	3306
912.976	3127
913.09	3055
913.204	3119
913.318	3214
913.431	3355
913.545	3367
913.659	3443
913.772	3298
913.886	3226
914	3233
914.113	3363
914.226	3450
914.34	3397
914.453	3245
914.566	3424
914.68	3298
914.793	3359
914.906	3154
915.019	3119
915.132	3093
915.245	3214
915.358	3226
915.47	3287
915.583	3332
915.696	3287
915.809	3428
915.921	3458
916.034	3302
916.146	3291
916.259	3272
916.371	3416
916.483	3382
916.595	3287
916.708	3351
916.82	3405
916.932	3355
917.044	3382
917.156	3401
917.268	3279
917.38	3359
917.491	3332
917.603	3405
917.715	3481
917.826	3458
917.938	3424
918.049	3294
918.161	3492
918.272	3671
918.384	3599
918.495	3545
918.606	3355
918.717	3321
918.828	3389
918.939	3496
919.05	3332
919.161	3389
919.272	3199
919.383	3321
919.494	3538
919.604	3698
919.715	3530
919.826	3431
919.936	3469
920.047	3595
920.157	3561
920.267	3789
920.378	3648
920.488	3587
920.598	3854
920.708	3998
920.818	3854
920.928	3899
921.038	4093
921.148	4025
921.258	3740
921.368	3618
921.477	3610
921.587	3568
921.697	3504
921.806	3660
921.916	3519
922.025	3386
922.134	3351
922.244	3332
922.353	3443
922.462	3298
922.571	3268
922.68	3192
922.789	3116
922.898	3157
923.007	3135
923.116	3272
923.224	3241
923.333	3211
923.442	3131
923.55	3104
923.659	3207
923.767	3287
923.876	3146
923.984	3253
924.092	3150
924.201	3241
924.309	3260
924.417	3291
924.525	3218
924.633	3256
924.741	4234
924.849	3070
924.956	3291
925.064	3112
925.172	3104
925.279	3116
925.387	3211
925.494	3218
925.602	3336
925.709	3382
925.816	3203
925.924	3340
926.031	3420
926.138	3412
926.245	3393
926.352	3253
926.459	3443
926.566	3481
926.673	3344
926.779	3302
926.886	3268
926.993	3180
927.099	3131
927.206	3135
927.312	3112
927.419	3245
927.525	3241
927.631	3310
927.737	3142
927.843	3169
927.95	3047
928.056	3195
928.162	3226
928.267	3321
928.373	3827
928.479	3329
928.585	3127
928.69	3245
928.796	3313
928.901	3188
929.007	3081
929.112	3264
929.218	3207
929.323	3169
929.428	3161
929.533	3351
929.638	3180
929.743	3192
929.848	3226
929.953	3222
930.058	3154
930.163	3051
930.267	3062
930.372	3279
930.477	3024
930.581	3310
930.685	3222
930.79	3154
930.894	3154
930.998	3138
931.103	3302
931.207	2975
931.311	2960
931.415	2941
931.519	2815
931.623	2823
