Data from test_V78500241_853.txt Node
Date: Fri Mar 25 16:21:06 CST 2022
User: usil
Spectrometer: V785-0024
Trigger mode: 0
Integration Time (sec): 4.000000E-1
Scans to average: 1
Nonlinearity correction enabled: false
Boxcar width: 0
Storing dark spectrum: false
XAxis mode: Wavelengths
Number of Pixels in Spectrum: 1024
>>>>>Begin Spectral Data<<<<<
801.071	2929
801.214	2929
801.356	2887
801.499	2895
801.641	2880
801.783	2902
801.926	3005
802.068	2986
802.211	2967
802.353	3039
802.496	2971
802.638	3020
802.78	3013
802.923	3066
803.065	3005
803.208	2883
803.35	2918
803.492	2880
803.635	2918
803.777	2754
803.919	2883
804.061	3165
804.204	2956
804.346	2925
804.488	2853
804.63	2982
804.773	2868
804.915	2914
805.057	3070
805.199	2948
805.341	2990
805.483	3074
805.626	2967
805.768	2960
805.91	3062
806.052	3116
806.194	3055
806.336	3192
806.478	3005
806.62	2944
806.762	2990
806.904	2971
807.046	3157
807.188	2982
807.33	2899
807.472	2986
807.614	2899
807.756	2963
807.898	2922
808.04	2853
808.182	2963
808.324	2948
808.465	2891
808.607	2853
808.749	2807
808.891	2849
809.033	2960
809.174	2986
809.316	2910
809.458	2899
809.6	2785
809.741	2788
809.883	2750
810.025	2796
810.166	2868
810.308	2853
810.45	2857
810.591	2800
810.733	2762
810.875	2838
811.016	2781
811.158	2773
811.299	2823
811.441	2925
811.582	2899
811.724	2811
811.865	2842
812.007	2895
812.148	2872
812.29	2872
812.431	2929
812.573	2933
812.714	2952
812.855	3032
812.997	3058
813.138	3104
813.279	2998
813.421	2952
813.562	2937
813.703	2899
813.845	2853
813.986	2758
814.127	2739
814.268	2815
814.41	2815
814.551	2754
814.692	2899
814.833	2788
814.974	2918
815.115	2914
815.256	2853
815.397	2792
815.539	2834
815.68	2804
815.821	2792
815.962	2975
816.103	2944
816.244	2864
816.385	2880
816.526	2990
816.666	2933
816.807	2739
816.948	2914
817.089	2891
817.23	2853
817.371	2746
817.512	2785
817.653	2838
817.793	2811
817.934	2872
818.075	3001
818.216	2956
818.356	3028
818.497	2853
818.638	2800
818.778	2823
818.919	2788
819.06	2762
819.2	2861
819.341	2788
819.481	2834
819.622	2960
819.762	3108
819.903	3024
820.043	2925
820.184	2902
820.324	2906
820.465	3009
820.605	3009
820.746	3009
820.886	2944
821.026	3093
821.167	3176
821.307	3249
821.447	3325
821.588	3207
821.728	3207
821.868	3203
822.008	3085
822.149	3169
822.289	3207
822.429	3074
822.569	3108
822.709	3203
822.849	3047
822.99	3081
823.13	3119
823.27	3195
823.41	3112
823.55	3157
823.69	3142
823.83	3195
823.97	3093
824.11	2979
824.25	2975
824.389	3066
824.529	3062
824.669	3089
824.809	3176
824.949	3230
825.089	3230
825.228	3154
825.368	3028
825.508	2998
825.648	2963
825.787	3005
825.927	3036
826.067	2986
826.206	2982
826.346	3074
826.485	3077
826.625	3119
826.765	3237
826.904	3222
827.044	3009
827.183	2933
827.323	2880
827.462	2998
827.601	2906
827.741	2929
827.88	2902
828.02	2883
828.159	2982
828.298	3009
828.437	3081
828.577	3028
828.716	3233
828.855	3077
828.994	2864
829.134	2883
829.273	2895
829.412	2849
829.551	2834
829.69	2883
829.829	2963
829.968	3108
830.107	2986
830.246	3020
830.385	2918
830.524	2887
830.663	2804
830.802	2716
830.941	2636
831.08	2632
831.219	2731
831.357	2739
831.496	2906
831.635	2712
831.774	2651
831.913	2644
832.051	2530
832.19	2568
832.329	2689
832.467	2530
832.606	2507
832.744	2564
832.883	2560
833.022	2617
833.16	2617
833.299	2701
833.437	2705
833.576	2697
833.714	2708
833.852	2689
833.991	2785
834.129	2834
834.267	2830
834.406	2758
834.544	2899
834.682	2861
834.821	2857
834.959	3070
835.097	2872
835.235	3039
835.373	3013
835.511	3020
835.65	2960
835.788	2960
835.926	2826
836.064	2800
836.202	2849
836.34	3085
836.478	3138
836.615	3062
836.753	3081
836.891	3218
837.029	3135
837.167	3070
837.305	3047
837.443	3039
837.58	2979
837.718	3135
837.856	3058
837.993	3017
838.131	3112
838.269	3131
838.406	3119
838.544	3043
838.681	2902
838.819	2910
838.956	2796
839.094	2819
839.231	2922
839.369	3017
839.506	3363
839.643	3214
839.781	3017
839.918	2956
840.055	3024
840.193	3039
840.33	3062
840.467	3097
840.604	3119
840.742	3405
840.879	3028
841.016	3066
841.153	3123
841.29	3310
841.427	3256
841.564	3291
841.701	3298
841.838	3222
841.975	3176
842.112	3176
842.249	3089
842.385	3028
842.522	3264
842.659	3127
842.796	3070
842.933	3077
843.069	3036
843.206	3055
843.343	3176
843.479	3097
843.616	3138
843.752	2906
843.889	2845
844.025	3093
844.162	2826
844.298	3039
844.435	2963
844.571	2899
844.708	3055
844.844	3195
844.98	3226
845.117	3188
845.253	3047
845.389	3001
845.525	3070
845.661	3089
845.798	3017
845.934	3127
846.07	3062
846.206	3253
846.342	3325
846.478	3230
846.614	3081
846.75	3017
846.886	3051
847.022	3230
847.158	3081
847.294	3188
847.429	3222
847.565	3237
847.701	3500
847.837	3066
847.972	3013
848.108	3161
848.244	3165
848.379	3009
848.515	2975
848.65	2937
848.786	2952
848.921	2990
849.057	3058
849.192	3135
849.328	3100
849.463	3123
849.598	3047
849.734	3020
849.869	2990
850.004	2906
850.14	2960
850.275	2914
850.41	2823
850.545	2864
850.68	2906
850.815	2967
850.95	2960
851.085	3176
851.22	3100
851.355	3013
851.49	2971
851.625	3009
851.76	3001
851.895	2956
852.03	2937
852.165	2975
852.299	3058
852.434	3184
852.569	3150
852.703	3146
852.838	3226
852.973	3321
853.107	3310
853.242	3138
853.376	3116
853.511	2963
853.645	3020
853.78	3188
853.914	3093
854.048	3081
854.183	3055
854.317	3142
854.451	3283
854.585	3116
854.72	3066
854.854	3195
854.988	3009
855.122	3097
855.256	2941
855.39	3104
855.524	3260
855.658	3180
855.792	3131
855.926	3207
856.06	3207
856.194	3253
856.327	3131
856.461	3062
856.595	3062
856.729	3081
856.862	3195
856.996	3150
857.13	3245
857.263	3195
857.397	3256
857.53	3119
857.664	3169
857.797	3283
857.931	3226
858.064	3157
858.197	3222
858.331	3116
858.464	3116
858.597	2990
858.731	3100
858.864	3127
858.997	3104
859.13	3176
859.263	3180
859.396	3214
859.529	3066
859.662	3066
859.795	3024
859.928	3119
860.061	3272
860.194	3325
860.327	3104
860.46	3123
860.592	3222
860.725	3260
860.858	3237
860.99	3089
861.123	3013
861.256	3017
861.388	3135
861.521	3892
861.653	2982
861.786	2986
861.918	2986
862.05	3047
862.183	3077
862.315	3169
862.447	3195
862.58	3093
862.712	2971
862.844	2880
862.976	2979
863.108	2990
863.24	3313
863.372	2872
863.504	2963
863.636	2925
863.768	3009
863.9	2956
864.032	2880
864.164	2925
864.296	3005
864.428	3077
864.559	3097
864.691	3058
864.823	3032
864.954	3055
865.086	3001
865.217	2967
865.349	2944
865.48	2967
865.612	3013
865.743	3176
865.875	2979
866.006	2929
866.137	2998
866.269	2944
866.4	2925
866.531	2937
866.662	2861
866.793	2933
866.924	2902
867.055	2960
867.186	2880
867.317	2887
867.448	2830
867.579	2845
867.71	2861
867.841	2823
867.972	2899
868.103	2902
868.233	2830
868.364	2899
868.495	2914
868.625	3051
868.756	3157
868.886	2971
869.017	2986
869.147	3146
869.278	3180
869.408	3028
869.539	2986
869.669	3093
869.799	3024
869.929	3138
870.06	3154
870.19	3283
870.32	3287
870.45	3310
870.58	3329
870.71	3447
870.84	3435
870.97	3287
871.1	3237
871.23	3481
871.36	3462
871.489	3351
871.619	3340
871.749	3389
871.879	3431
872.008	3447
872.138	3359
872.267	3264
872.397	3188
872.526	3093
872.656	3017
872.785	3116
872.915	3268
873.044	3351
873.173	3203
873.303	3222
873.432	3241
873.561	3230
873.69	3161
873.819	3165
873.948	3173
874.077	3108
874.206	3047
874.335	3047
874.464	3222
874.593	3272
874.722	3253
874.851	3367
874.979	3351
875.108	3283
875.237	3203
875.365	3173
875.494	3176
875.623	3253
875.751	3108
875.88	3116
876.008	3173
876.136	3249
876.265	3359
876.393	3500
876.521	3393
876.65	3409
876.778	3348
876.906	3253
877.034	3233
877.162	3230
877.29	3150
877.418	3214
877.546	3222
877.674	3214
877.802	3226
877.93	3230
878.058	3169
878.185	3112
878.313	3207
878.441	3207
878.568	3097
878.696	3123
878.824	3302
878.951	3272
879.079	3401
879.206	3599
879.333	3424
879.461	3310
879.588	3363
879.715	3458
879.842	3545
879.97	3386
880.097	3169
880.224	3123
880.351	3192
880.478	3222
880.605	3180
880.732	3188
880.859	3454
880.986	3321
881.112	3313
881.239	3169
881.366	3093
881.493	3020
881.619	3039
881.746	3077
881.872	3066
881.999	3074
882.125	3157
882.252	3211
882.378	3298
882.505	3420
882.631	3268
882.757	3150
882.883	3207
883.01	3237
883.136	3180
883.262	3051
883.388	3100
883.514	3302
883.64	3405
883.766	3317
883.892	3173
884.018	3211
884.143	3397
884.269	3504
884.395	3214
884.52	3180
884.646	3116
884.772	3135
884.897	3089
885.023	3192
885.148	3340
885.274	3431
885.399	3374
885.524	3272
885.65	3264
885.775	3279
885.9	3291
886.025	3435
886.15	3382
886.275	3256
886.4	3214
886.525	3310
886.65	3279
886.775	3256
886.9	3469
887.025	3618
887.149	3389
887.274	3253
887.399	3192
887.523	3192
887.648	3176
887.773	3207
887.897	3397
888.021	3397
888.146	3344
888.27	3447
888.395	3542
888.519	3428
888.643	3469
888.767	3439
888.891	3340
889.015	3218
889.139	3283
889.263	3222
889.387	3412
889.511	3469
889.635	3431
889.759	3275
889.883	3291
890.006	3393
890.13	3496
890.254	3237
890.377	3348
890.501	3260
890.624	3161
890.748	3294
890.871	3154
890.995	3161
891.118	3055
891.241	3230
891.364	3203
891.488	3260
891.611	3226
891.734	3222
891.857	3256
891.98	3214
892.103	3336
892.226	3279
892.349	3222
892.471	3116
892.594	3218
892.717	3256
892.839	3291
892.962	3279
893.085	3370
893.207	3275
893.33	3097
893.452	3199
893.575	3367
893.697	3233
893.819	3469
893.941	3477
894.064	3462
894.186	3256
894.308	3241
894.43	3450
894.552	3519
894.674	3485
894.796	3226
894.918	3306
895.04	3294
895.161	3450
895.283	3363
895.405	3287
895.526	3378
895.648	3424
895.769	3420
895.891	3435
896.012	3500
896.134	3458
896.255	3435
896.376	3386
896.498	3329
896.619	3443
896.74	3367
896.861	3431
896.982	3629
897.103	3854
897.224	3584
897.345	3515
897.466	3397
897.587	3481
897.708	3644
897.828	3542
897.949	3393
898.07	3351
898.19	3393
898.311	3606
898.431	3477
898.552	3515
898.672	3580
898.792	3587
898.913	3496
899.033	3409
899.153	3245
899.273	3195
899.393	3241
899.513	3321
899.633	3260
899.753	3348
899.873	3272
899.993	3351
900.113	3298
900.232	3359
900.352	3363
900.472	3291
900.591	3192
900.711	3275
900.83	3256
900.95	3412
901.069	3462
901.189	3363
901.308	3161
901.427	3138
901.546	3176
901.665	3264
901.784	3359
901.904	3199
902.023	3180
902.141	3028
902.26	2967
902.379	3154
902.498	3047
902.617	3036
902.735	3184
902.854	3203
902.973	3176
903.091	3043
903.21	3032
903.328	3142
903.446	3119
903.565	3112
903.683	3173
903.801	3142
903.919	3241
904.038	3291
904.156	3138
904.274	3291
904.392	3241
904.51	3302
904.627	3321
904.745	3424
904.863	3485
904.981	3245
905.098	3146
905.216	3226
905.334	3283
905.451	3298
905.569	3298
905.686	3412
905.803	3424
905.921	3291
906.038	3431
906.155	3340
906.272	3260
906.389	3344
906.506	3249
906.623	3226
906.74	3283
906.857	3230
906.974	3233
907.091	3428
907.208	3549
907.324	3439
907.441	3378
907.557	3237
907.674	3207
907.79	3233
907.907	3298
908.023	3367
908.139	3386
908.256	3332
908.372	3378
908.488	3370
908.604	3256
908.72	3245
908.836	3245
908.952	3283
909.068	3336
909.184	3481
909.3	3382
909.415	3511
909.531	3458
909.647	3298
909.762	3313
909.878	3287
909.993	3348
910.108	3321
910.224	3317
910.339	3409
910.454	3317
910.57	3310
910.685	3214
910.8	3568
910.915	3507
911.03	3439
911.145	3256
911.259	3253
911.374	3317
911.489	3207
911.604	3249
911.718	3104
911.833	3150
911.947	3020
912.062	3020
912.176	3165
912.291	3173
912.405	3199
912.519	3409
912.633	3462
912.748	3321
912.862	3275
912.976	3184
913.09	3077
913.204	3100
913.318	3241
913.431	3313
913.545	3302
913.659	3370
913.772	3317
913.886	3241
914	3184
914.113	3336
914.226	3367
914.34	3313
914.453	3233
914.566	3412
914.68	3287
914.793	3310
914.906	3119
915.019	3127
915.132	3066
915.245	3176
915.358	3188
915.47	3192
915.583	3241
915.696	3306
915.809	3393
915.921	3420
916.034	3268
916.146	3249
916.259	3203
916.371	3351
916.483	3340
916.595	3245
916.708	3336
916.82	3359
916.932	3283
917.044	3351
917.156	3325
917.268	3207
917.38	3310
917.491	3272
917.603	3313
917.715	3458
917.826	3447
917.938	3389
918.049	3313
918.161	3435
918.272	3603
918.384	3572
918.495	3466
918.606	3317
918.717	3264
918.828	3378
918.939	3412
919.05	3336
919.161	3336
919.272	3188
919.383	3283
919.494	3462
919.604	3679
919.715	3488
919.826	3420
919.936	3458
920.047	3610
920.157	3549
920.267	3778
920.378	3629
920.488	3557
920.598	3797
920.708	3934
920.818	3816
920.928	3816
921.038	4048
921.148	3983
921.258	3705
921.368	3610
921.477	3564
921.587	3534
921.697	3405
921.806	3637
921.916	3496
922.025	3332
922.134	3359
922.244	3329
922.353	3450
922.462	3268
922.571	3230
922.68	3081
922.789	3097
922.898	3146
923.007	3070
923.116	3218
923.224	3180
923.333	3195
923.442	3100
923.55	3108
923.659	3131
923.767	3203
923.876	3138
923.984	3264
924.092	3097
924.201	3146
924.309	3249
924.417	3214
924.525	3173
924.633	3211
924.741	4044
924.849	3039
924.956	3253
925.064	3104
925.172	3047
925.279	3112
925.387	3199
925.494	3180
925.602	3382
925.709	3378
925.816	3142
925.924	3279
926.031	3363
926.138	3332
926.245	3370
926.352	3241
926.459	3374
926.566	3477
926.673	3310
926.779	3287
926.886	3226
926.993	3119
927.099	3131
927.206	3108
927.312	3108
927.419	3230
927.525	3192
927.631	3214
927.737	3165
927.843	3123
927.95	3043
928.056	3123
928.162	3184
928.267	3230
928.373	3747
928.479	3313
928.585	3081
928.69	3237
928.796	3222
928.901	3173
929.007	3047
929.112	3154
929.218	3131
929.323	3108
929.428	3169
929.533	3329
929.638	3135
929.743	3161
929.848	3256
929.953	3192
930.058	3146
930.163	3009
930.267	3043
930.372	3192
930.477	3013
930.581	3294
930.685	3188
930.79	3089
930.894	3146
930.998	3081
931.103	3268
931.207	2960
931.311	2944
931.415	2944
931.519	2788
931.623	2796
