Data from test_V78500241_2023.txt Node
Date: Fri Mar 25 16:29:13 CST 2022
User: usil
Spectrometer: V785-0024
Trigger mode: 0
Integration Time (sec): 4.000000E-1
Scans to average: 1
Nonlinearity correction enabled: false
Boxcar width: 0
Storing dark spectrum: false
XAxis mode: Wavelengths
Number of Pixels in Spectrum: 1024
>>>>>Begin Spectral Data<<<<<
801.071	2914
801.214	2937
801.356	2868
801.499	2891
801.641	2876
801.783	2910
801.926	3024
802.068	2963
802.211	2990
802.353	3032
802.496	2956
802.638	3043
802.78	3039
802.923	3074
803.065	2971
803.208	2883
803.35	2906
803.492	2918
803.635	2933
803.777	2758
803.919	2834
804.061	3184
804.204	2975
804.346	2914
804.488	2830
804.63	2975
804.773	2861
804.915	2914
805.057	3108
805.199	2948
805.341	2941
805.483	3013
805.626	3001
805.768	3001
805.91	3081
806.052	3097
806.194	3039
806.336	3230
806.478	3024
806.62	2979
806.762	2975
806.904	3028
807.046	3173
807.188	2979
807.33	2929
807.472	2967
807.614	2868
807.756	2975
807.898	2906
808.04	2902
808.182	2979
808.324	2925
808.465	2918
808.607	2868
808.749	2804
808.891	2872
809.033	2941
809.174	2979
809.316	2899
809.458	2880
809.6	2754
809.741	2754
809.883	2773
810.025	2838
810.166	2842
810.308	2857
810.45	2876
810.591	2777
810.733	2766
810.875	2849
811.016	2758
811.158	2716
811.299	2815
811.441	2960
811.582	2899
811.724	2815
811.865	2845
812.007	2922
812.148	2902
812.29	2849
812.431	2895
812.573	2941
812.714	2956
812.855	3028
812.997	3028
813.138	3112
813.279	2990
813.421	3013
813.562	2990
813.703	2857
813.845	2899
813.986	2788
814.127	2731
814.268	2838
814.41	2861
814.551	2842
814.692	2891
814.833	2807
814.974	2910
815.115	2956
815.256	2811
815.397	2792
815.539	2845
815.68	2758
815.821	2796
815.962	2914
816.103	2952
816.244	2834
816.385	2842
816.526	2914
816.666	2914
816.807	2754
816.948	2842
817.089	2910
817.23	2815
817.371	2746
817.512	2762
817.653	2857
817.793	2830
817.934	2861
818.075	2963
818.216	2990
818.356	3047
818.497	2883
818.638	2781
818.778	2785
818.919	2807
819.06	2743
819.2	2826
819.341	2815
819.481	2819
819.622	2906
819.762	3055
819.903	3070
820.043	2922
820.184	2906
820.324	2922
820.465	2963
820.605	3032
820.746	2998
820.886	2944
821.026	3116
821.167	3135
821.307	3253
821.447	3302
821.588	3249
821.728	3218
821.868	3195
822.008	3043
822.149	3176
822.289	3230
822.429	3062
822.569	3100
822.709	3176
822.849	2979
822.99	3058
823.13	3138
823.27	3214
823.41	3131
823.55	3146
823.69	3135
823.83	3161
823.97	3077
824.11	3009
824.25	3001
824.389	3066
824.529	3100
824.669	3081
824.809	3192
824.949	3230
825.089	3218
825.228	3176
825.368	2979
825.508	2956
825.648	2971
825.787	2990
825.927	3013
826.067	2956
826.206	2971
826.346	3032
826.485	3066
826.625	3093
826.765	3272
826.904	3176
827.044	2998
827.183	2941
827.323	2868
827.462	2990
827.601	2914
827.741	2902
827.88	2956
828.02	2826
828.159	2967
828.298	2998
828.437	3085
828.577	3028
828.716	3226
828.855	3093
828.994	2948
829.134	2872
829.273	2906
829.412	2861
829.551	2872
829.69	2876
829.829	2937
829.968	3112
830.107	2982
830.246	3020
830.385	2929
830.524	2887
830.663	2815
830.802	2735
830.941	2640
831.08	2640
831.219	2727
831.357	2781
831.496	2963
831.635	2720
831.774	2629
831.913	2632
832.051	2507
832.19	2575
832.329	2644
832.467	2533
832.606	2480
832.744	2575
832.883	2575
833.022	2552
833.16	2655
833.299	2686
833.437	2663
833.576	2667
833.714	2731
833.852	2743
833.991	2746
834.129	2819
834.267	2807
834.406	2800
834.544	2883
834.682	2895
834.821	2864
834.959	3043
835.097	2883
835.235	3097
835.373	2967
835.511	2990
835.65	3009
835.788	2960
835.926	2804
836.064	2800
836.202	2845
836.34	3047
836.478	3169
836.615	3077
836.753	3135
836.891	3180
837.029	3150
837.167	3093
837.305	3070
837.443	3032
837.58	2952
837.718	3146
837.856	3036
837.993	3020
838.131	3112
838.269	3055
838.406	3100
838.544	3032
838.681	2910
838.819	2883
838.956	2815
839.094	2830
839.231	2906
839.369	3028
839.506	3348
839.643	3253
839.781	3028
839.918	2956
840.055	3020
840.193	3047
840.33	3077
840.467	3070
840.604	3138
840.742	3351
840.879	3043
841.016	3039
841.153	3108
841.29	3298
841.427	3279
841.564	3272
841.701	3268
841.838	3214
841.975	3169
842.112	3195
842.249	3077
842.385	3020
842.522	3237
842.659	3055
842.796	3051
842.933	3074
843.069	3024
843.206	3055
843.343	3211
843.479	3043
843.616	3135
843.752	2876
843.889	2838
844.025	3055
844.162	2883
844.298	3100
844.435	2960
844.571	2929
844.708	3077
844.844	3214
844.98	3218
845.117	3207
845.253	3062
845.389	2971
845.525	3077
845.661	3093
845.798	2990
845.934	3116
846.07	3032
846.206	3218
846.342	3294
846.478	3226
846.614	3108
846.75	3062
846.886	3039
847.022	3218
847.158	3142
847.294	3169
847.429	3233
847.565	3203
847.701	3466
847.837	3024
847.972	3009
848.108	3157
848.244	3108
848.379	3001
848.515	2922
848.65	2937
848.786	2937
848.921	3009
849.057	3093
849.192	3180
849.328	3104
849.463	3104
849.598	3077
849.734	3001
849.869	2971
850.004	2880
850.14	2986
850.275	2918
850.41	2857
850.545	2895
850.68	2956
850.815	2982
850.95	2975
851.085	3203
851.22	3112
851.355	3051
851.49	3001
851.625	3024
851.76	3005
851.895	2899
852.03	2933
852.165	3024
852.299	3089
852.434	3188
852.569	3154
852.703	3169
852.838	3214
852.973	3363
853.107	3332
853.242	3142
853.376	3116
853.511	2937
853.645	3024
853.78	3203
853.914	3119
854.048	3074
854.183	3085
854.317	3119
854.451	3291
854.585	3085
854.72	3089
854.854	3176
854.988	2998
855.122	3127
855.256	2971
855.39	3135
855.524	3214
855.658	3188
855.792	3138
855.926	3192
856.06	3226
856.194	3241
856.327	3131
856.461	3055
856.595	3081
856.729	3108
856.862	3230
856.996	3142
857.13	3157
857.263	3260
857.397	3275
857.53	3097
857.664	3188
857.797	3218
857.931	3226
858.064	3157
858.197	3214
858.331	3142
858.464	3093
858.597	2971
858.731	3089
858.864	3119
858.997	3077
859.13	3192
859.263	3154
859.396	3207
859.529	3123
859.662	3100
859.795	3077
859.928	3108
860.061	3294
860.194	3253
860.327	3131
860.46	3119
860.592	3218
860.725	3199
860.858	3253
860.99	3074
861.123	3047
861.256	3058
861.388	3138
861.521	3823
861.653	2990
861.786	2994
861.918	2960
862.05	3066
862.183	3077
862.315	3154
862.447	3184
862.58	3070
862.712	2929
862.844	2819
862.976	3009
863.108	3013
863.24	3329
863.372	2880
863.504	2956
863.636	2952
863.768	3020
863.9	3005
864.032	2857
864.164	2899
864.296	3001
864.428	3047
864.559	3116
864.691	3055
864.823	3020
864.954	3013
865.086	3020
865.217	2982
865.349	2967
865.48	2944
865.612	3009
865.743	3146
865.875	2986
866.006	2990
866.137	2952
866.269	2975
866.4	2933
866.531	2944
866.662	2895
866.793	2883
866.924	2891
867.055	2963
867.186	2933
867.317	2872
867.448	2826
867.579	2842
867.71	2823
867.841	2796
867.972	2876
868.103	2872
868.233	2899
868.364	2838
868.495	2902
868.625	3077
868.756	3165
868.886	2941
869.017	3055
869.147	3142
869.278	3131
869.408	3028
869.539	3055
869.669	3085
869.799	3024
869.929	3066
870.06	3112
870.19	3317
870.32	3291
870.45	3302
870.58	3355
870.71	3428
870.84	3454
870.97	3336
871.1	3218
871.23	3515
871.36	3462
871.489	3306
871.619	3393
871.749	3367
871.879	3477
872.008	3496
872.138	3367
872.267	3253
872.397	3142
872.526	3104
872.656	3013
872.785	3066
872.915	3218
873.044	3272
873.173	3192
873.303	3203
873.432	3249
873.561	3218
873.69	3138
873.819	3142
873.948	3207
874.077	3097
874.206	3039
874.335	3081
874.464	3188
874.593	3351
874.722	3268
874.851	3329
874.979	3336
875.108	3321
875.237	3173
875.365	3165
875.494	3192
875.623	3241
875.751	3070
875.88	3085
876.008	3173
876.136	3241
876.265	3378
876.393	3485
876.521	3447
876.65	3370
876.778	3329
876.906	3260
877.034	3188
877.162	3233
877.29	3161
877.418	3230
877.546	3230
877.674	3207
877.802	3173
877.93	3211
878.058	3097
878.185	3104
878.313	3176
878.441	3256
878.568	3093
878.696	3138
878.824	3218
878.951	3310
879.079	3458
879.206	3618
879.333	3435
879.461	3340
879.588	3363
879.715	3473
879.842	3595
879.97	3348
880.097	3142
880.224	3131
880.351	3184
880.478	3222
880.605	3192
880.732	3195
880.859	3488
880.986	3344
881.112	3329
881.239	3169
881.366	3077
881.493	3043
881.619	2986
881.746	3051
881.872	3051
881.999	3104
882.125	3131
882.252	3214
882.378	3260
882.505	3374
882.631	3260
882.757	3176
882.883	3169
883.01	3218
883.136	3142
883.262	3093
883.388	3123
883.514	3294
883.64	3344
883.766	3291
883.892	3184
884.018	3211
884.143	3428
884.269	3542
884.395	3169
884.52	3154
884.646	3203
884.772	3135
884.897	3112
885.023	3176
885.148	3336
885.274	3416
885.399	3344
885.524	3268
885.65	3260
885.775	3287
885.9	3298
886.025	3386
886.15	3367
886.275	3264
886.4	3211
886.525	3294
886.65	3253
886.775	3249
886.9	3466
887.025	3603
887.149	3382
887.274	3218
887.399	3154
887.523	3241
887.648	3195
887.773	3184
887.897	3409
888.021	3386
888.146	3321
888.27	3435
888.395	3526
888.519	3431
888.643	3443
888.767	3488
888.891	3294
889.015	3264
889.139	3230
889.263	3211
889.387	3386
889.511	3481
889.635	3458
889.759	3287
889.883	3298
890.006	3367
890.13	3538
890.254	3275
890.377	3355
890.501	3211
890.624	3157
890.748	3306
890.871	3146
890.995	3108
891.118	3051
891.241	3199
891.364	3241
891.488	3283
891.611	3142
891.734	3226
891.857	3287
891.98	3237
892.103	3325
892.226	3310
892.349	3245
892.471	3108
892.594	3237
892.717	3264
892.839	3287
892.962	3275
893.085	3367
893.207	3302
893.33	3154
893.452	3203
893.575	3344
893.697	3233
893.819	3450
893.941	3477
894.064	3435
894.186	3241
894.308	3207
894.43	3443
894.552	3500
894.674	3462
894.796	3249
894.918	3294
895.04	3302
895.161	3428
895.283	3370
895.405	3283
895.526	3336
895.648	3420
895.769	3393
895.891	3389
896.012	3439
896.134	3450
896.255	3420
896.376	3367
896.498	3344
896.619	3382
896.74	3359
896.861	3336
896.982	3629
897.103	3816
897.224	3564
897.345	3519
897.466	3397
897.587	3515
897.708	3618
897.828	3568
897.949	3439
898.07	3310
898.19	3405
898.311	3584
898.431	3469
898.552	3466
898.672	3599
898.792	3564
898.913	3519
899.033	3382
899.153	3298
899.273	3218
899.393	3264
899.513	3306
899.633	3302
899.753	3306
899.873	3283
899.993	3359
900.113	3344
900.232	3401
900.352	3329
900.472	3275
900.591	3214
900.711	3279
900.83	3222
900.95	3409
901.069	3481
901.189	3344
901.308	3150
901.427	3123
901.546	3157
901.665	3291
901.784	3348
901.904	3211
902.023	3127
902.141	2998
902.26	2975
902.379	3150
902.498	3028
902.617	3074
902.735	3180
902.854	3199
902.973	3195
903.091	3062
903.21	3051
903.328	3116
903.446	3108
903.565	3077
903.683	3192
903.801	3127
903.919	3241
904.038	3287
904.156	3119
904.274	3253
904.392	3253
904.51	3310
904.627	3287
904.745	3424
904.863	3469
904.981	3249
905.098	3188
905.216	3211
905.334	3283
905.451	3283
905.569	3313
905.686	3409
905.803	3412
905.921	3249
906.038	3416
906.155	3332
906.272	3272
906.389	3348
906.506	3272
906.623	3253
906.74	3256
906.857	3180
906.974	3218
907.091	3447
907.208	3576
907.324	3473
907.441	3393
907.557	3245
907.674	3226
907.79	3207
907.907	3249
908.023	3359
908.139	3374
908.256	3321
908.372	3351
908.488	3355
908.604	3298
908.72	3192
908.836	3294
908.952	3279
909.068	3367
909.184	3481
909.3	3340
909.415	3534
909.531	3439
909.647	3283
909.762	3279
909.878	3249
909.993	3348
910.108	3317
910.224	3348
910.339	3405
910.454	3325
910.57	3291
910.685	3268
910.8	3584
910.915	3523
911.03	3435
911.145	3260
911.259	3291
911.374	3310
911.489	3241
911.604	3226
911.718	3093
911.833	3150
911.947	3028
912.062	2979
912.176	3127
912.291	3161
912.405	3195
912.519	3370
912.633	3462
912.748	3317
912.862	3298
912.976	3169
913.09	3077
913.204	3127
913.318	3203
913.431	3291
913.545	3325
913.659	3367
913.772	3340
913.886	3241
914	3195
914.113	3348
914.226	3386
914.34	3397
914.453	3214
914.566	3409
914.68	3294
914.793	3310
914.906	3146
915.019	3104
915.132	3047
915.245	3154
915.358	3188
915.47	3222
915.583	3245
915.696	3302
915.809	3409
915.921	3439
916.034	3249
916.146	3256
916.259	3203
916.371	3370
916.483	3363
916.595	3245
916.708	3321
916.82	3313
916.932	3359
917.044	3329
917.156	3332
917.268	3207
917.38	3298
917.491	3264
917.603	3363
917.715	3462
917.826	3481
917.938	3389
918.049	3275
918.161	3405
918.272	3564
918.384	3576
918.495	3481
918.606	3332
918.717	3264
918.828	3378
918.939	3389
919.05	3336
919.161	3321
919.272	3203
919.383	3294
919.494	3534
919.604	3743
919.715	3469
919.826	3447
919.936	3462
920.047	3633
920.157	3587
920.267	3823
920.378	3625
920.488	3618
920.598	3850
920.708	3979
920.818	3876
920.928	3854
921.038	4078
921.148	4029
921.258	3728
921.368	3671
921.477	3625
921.587	3595
921.697	3492
921.806	3595
921.916	3610
922.025	3416
922.134	3416
922.244	3351
922.353	3458
922.462	3287
922.571	3256
922.68	3127
922.789	3116
922.898	3173
923.007	3123
923.116	3222
923.224	3218
923.333	3237
923.442	3138
923.55	3089
923.659	3184
923.767	3260
923.876	3154
923.984	3317
924.092	3119
924.201	3256
924.309	3275
924.417	3329
924.525	3222
924.633	3291
924.741	4169
924.849	3093
924.956	3344
925.064	3112
925.172	3100
925.279	3138
925.387	3195
925.494	3253
925.602	3416
925.709	3397
925.816	3260
925.924	3332
926.031	3405
926.138	3367
926.245	3409
926.352	3302
926.459	3447
926.566	3507
926.673	3332
926.779	3272
926.886	3310
926.993	3176
927.099	3169
927.206	3135
927.312	3135
927.419	3302
927.525	3237
927.631	3329
927.737	3180
927.843	3169
927.95	3066
928.056	3192
928.162	3241
928.267	3279
928.373	3884
928.479	3332
928.585	3081
928.69	3249
928.796	3294
928.901	3173
929.007	3047
929.112	3214
929.218	3256
929.323	3173
929.428	3203
929.533	3325
929.638	3173
929.743	3222
929.848	3291
929.953	3253
930.058	3192
930.163	3028
930.267	3051
930.372	3241
930.477	3074
930.581	3351
930.685	3195
930.79	3131
930.894	3161
930.998	3138
931.103	3291
931.207	2998
931.311	2994
931.415	2979
931.519	2781
931.623	2838
