Data from test_V78500241_1198.txt Node
Date: Fri Mar 25 16:23:30 CST 2022
User: usil
Spectrometer: V785-0024
Trigger mode: 0
Integration Time (sec): 4.000000E-1
Scans to average: 1
Nonlinearity correction enabled: false
Boxcar width: 0
Storing dark spectrum: false
XAxis mode: Wavelengths
Number of Pixels in Spectrum: 1024
>>>>>Begin Spectral Data<<<<<
801.071	2937
801.214	2956
801.356	2910
801.499	2933
801.641	2933
801.783	2910
801.926	3058
802.068	2986
802.211	3013
802.353	3089
802.496	2990
802.638	3013
802.78	3036
802.923	3104
803.065	3017
803.208	2918
803.35	2933
803.492	2929
803.635	2956
803.777	2743
803.919	2853
804.061	3188
804.204	2941
804.346	2925
804.488	2830
804.63	2975
804.773	2853
804.915	2883
805.057	3066
805.199	2952
805.341	2990
805.483	3024
805.626	2986
805.768	2979
805.91	3100
806.052	3127
806.194	3055
806.336	3253
806.478	3039
806.62	2979
806.762	2982
806.904	3066
807.046	3154
807.188	3028
807.33	2944
807.472	2994
807.614	2933
807.756	3013
807.898	2922
808.04	2937
808.182	2975
808.324	2952
808.465	2883
808.607	2922
808.749	2796
808.891	2830
809.033	2975
809.174	2986
809.316	2918
809.458	2918
809.6	2773
809.741	2758
809.883	2788
810.025	2876
810.166	2861
810.308	2834
810.45	2861
810.591	2739
810.733	2754
810.875	2861
811.016	2792
811.158	2724
811.299	2861
811.441	2925
811.582	2933
811.724	2845
811.865	2819
812.007	2929
812.148	2937
812.29	2899
812.431	2887
812.573	2948
812.714	2967
812.855	3036
812.997	3024
813.138	3127
813.279	3017
813.421	2971
813.562	3005
813.703	2876
813.845	2861
813.986	2796
814.127	2743
814.268	2826
814.41	2864
814.551	2796
814.692	2887
814.833	2830
814.974	2883
815.115	2929
815.256	2826
815.397	2811
815.539	2845
815.68	2788
815.821	2823
815.962	2952
816.103	2960
816.244	2872
816.385	2849
816.526	2990
816.666	2948
816.807	2769
816.948	2883
817.089	2899
817.23	2826
817.371	2792
817.512	2785
817.653	2823
817.793	2861
817.934	2941
818.075	2967
818.216	2982
818.356	3039
818.497	2906
818.638	2819
818.778	2834
818.919	2811
819.06	2777
819.2	2906
819.341	2815
819.481	2800
819.622	2948
819.762	3093
819.903	3039
820.043	2918
820.184	2895
820.324	2922
820.465	3013
820.605	3043
820.746	3051
820.886	2960
821.026	3093
821.167	3180
821.307	3249
821.447	3214
821.588	3275
821.728	3146
821.868	3207
822.008	3062
822.149	3192
822.289	3218
822.429	3131
822.569	3097
822.709	3203
822.849	3028
822.99	3051
823.13	3127
823.27	3192
823.41	3074
823.55	3135
823.69	3161
823.83	3188
823.97	3138
824.11	2979
824.25	3005
824.389	3081
824.529	3104
824.669	3036
824.809	3211
824.949	3226
825.089	3237
825.228	3150
825.368	2979
825.508	2941
825.648	2990
825.787	2998
825.927	3001
826.067	3005
826.206	2960
826.346	3055
826.485	3043
826.625	3112
826.765	3283
826.904	3184
827.044	3009
827.183	2956
827.323	2861
827.462	2990
827.601	2922
827.741	2963
827.88	2982
828.02	2845
828.159	2963
828.298	3055
828.437	3104
828.577	3028
828.716	3199
828.855	3093
828.994	2895
829.134	2883
829.273	2891
829.412	2880
829.551	2853
829.69	2861
829.829	2979
829.968	3146
830.107	3005
830.246	3039
830.385	2967
830.524	2895
830.663	2842
830.802	2735
830.941	2674
831.08	2663
831.219	2735
831.357	2750
831.496	2982
831.635	2720
831.774	2693
831.913	2648
832.051	2514
832.19	2571
832.329	2678
832.467	2560
832.606	2473
832.744	2560
832.883	2621
833.022	2594
833.16	2640
833.299	2648
833.437	2716
833.576	2678
833.714	2758
833.852	2701
833.991	2766
834.129	2845
834.267	2830
834.406	2792
834.544	2883
834.682	2868
834.821	2895
834.959	3020
835.097	2941
835.235	3036
835.373	3009
835.511	3017
835.65	2986
835.788	2952
835.926	2853
836.064	2834
836.202	2823
836.34	3093
836.478	3169
836.615	3074
836.753	3108
836.891	3218
837.029	3165
837.167	3119
837.305	3085
837.443	3062
837.58	2956
837.718	3142
837.856	3070
837.993	3009
838.131	3089
838.269	3066
838.406	3097
838.544	3062
838.681	2941
838.819	2891
838.956	2830
839.094	2861
839.231	2918
839.369	3055
839.506	3344
839.643	3233
839.781	2982
839.918	2979
840.055	3047
840.193	3051
840.33	3093
840.467	3123
840.604	3165
840.742	3405
840.879	3047
841.016	3055
841.153	3169
841.29	3355
841.427	3294
841.564	3283
841.701	3279
841.838	3245
841.975	3154
842.112	3176
842.249	3036
842.385	3047
842.522	3256
842.659	3112
842.796	3051
842.933	3116
843.069	3032
843.206	3020
843.343	3195
843.479	3081
843.616	3146
843.752	2902
843.889	2887
844.025	3108
844.162	2906
844.298	3058
844.435	2956
844.571	2937
844.708	3074
844.844	3180
844.98	3260
845.117	3154
845.253	3028
845.389	2952
845.525	3108
845.661	3112
845.798	2986
845.934	3119
846.07	3039
846.206	3195
846.342	3306
846.478	3199
846.614	3089
846.75	3036
846.886	3039
847.022	3241
847.158	3154
847.294	3173
847.429	3226
847.565	3230
847.701	3466
847.837	3039
847.972	3017
848.108	3184
848.244	3127
848.379	2960
848.515	2952
848.65	2918
848.786	2967
848.921	3009
849.057	3089
849.192	3131
849.328	3055
849.463	3119
849.598	3039
849.734	3043
849.869	2982
850.004	2925
850.14	2998
850.275	2906
850.41	2861
850.545	2853
850.68	2929
850.815	2948
850.95	2990
851.085	3180
851.22	3100
851.355	3032
851.49	2994
851.625	2994
851.76	3001
851.895	2952
852.03	2922
852.165	3009
852.299	3100
852.434	3203
852.569	3104
852.703	3203
852.838	3241
852.973	3336
853.107	3306
853.242	3074
853.376	3093
853.511	2990
853.645	3028
853.78	3260
853.914	3123
854.048	3123
854.183	3089
854.317	3100
854.451	3283
854.585	3123
854.72	3100
854.854	3195
854.988	3047
855.122	3062
855.256	2971
855.39	3135
855.524	3275
855.658	3192
855.792	3127
855.926	3157
856.06	3165
856.194	3298
856.327	3150
856.461	3093
856.595	3085
856.729	3066
856.862	3214
856.996	3154
857.13	3184
857.263	3214
857.397	3245
857.53	3127
857.664	3237
857.797	3230
857.931	3249
858.064	3157
858.197	3211
858.331	3074
858.464	3077
858.597	3001
858.731	3081
858.864	3127
858.997	3066
859.13	3173
859.263	3165
859.396	3203
859.529	3077
859.662	3074
859.795	3062
859.928	3135
860.061	3279
860.194	3325
860.327	3142
860.46	3077
860.592	3237
860.725	3272
860.858	3233
860.99	3085
861.123	3043
861.256	3028
861.388	3199
861.521	3705
861.653	3009
861.786	2986
861.918	2986
862.05	3051
862.183	3093
862.315	3154
862.447	3188
862.58	3070
862.712	2918
862.844	2861
862.976	3051
863.108	3005
863.24	3306
863.372	2857
863.504	2960
863.636	2952
863.768	3047
863.9	2982
864.032	2891
864.164	2937
864.296	2963
864.428	3104
864.559	3074
864.691	3051
864.823	3070
864.954	3013
865.086	3028
865.217	2990
865.349	2910
865.48	2975
865.612	2975
865.743	3123
865.875	2971
866.006	2910
866.137	2982
866.269	2963
866.4	2922
866.531	2910
866.662	2902
866.793	2868
866.924	2906
867.055	2982
867.186	2891
867.317	2857
867.448	2807
867.579	2845
867.71	2861
867.841	2807
867.972	2899
868.103	2902
868.233	2845
868.364	2887
868.495	2918
868.625	3039
868.756	3199
868.886	2960
869.017	3013
869.147	3127
869.278	3157
869.408	3009
869.539	3036
869.669	3108
869.799	3024
869.929	3127
870.06	3081
870.19	3298
870.32	3268
870.45	3279
870.58	3359
870.71	3424
870.84	3424
870.97	3275
871.1	3237
871.23	3443
871.36	3469
871.489	3344
871.619	3374
871.749	3405
871.879	3416
872.008	3500
872.138	3374
872.267	3294
872.397	3081
872.526	3104
872.656	2956
872.785	3085
872.915	3211
873.044	3294
873.173	3203
873.303	3214
873.432	3233
873.561	3268
873.69	3119
873.819	3097
873.948	3169
874.077	3100
874.206	3020
874.335	3112
874.464	3203
874.593	3344
874.722	3249
874.851	3367
874.979	3351
875.108	3298
875.237	3192
875.365	3176
875.494	3169
875.623	3222
875.751	3020
875.88	3089
876.008	3165
876.136	3211
876.265	3363
876.393	3519
876.521	3401
876.65	3374
876.778	3359
876.906	3241
877.034	3218
877.162	3230
877.29	3199
877.418	3230
877.546	3249
877.674	3275
877.802	3237
877.93	3245
878.058	3135
878.185	3119
878.313	3195
878.441	3222
878.568	3081
878.696	3131
878.824	3237
878.951	3275
879.079	3469
879.206	3625
879.333	3405
879.461	3336
879.588	3348
879.715	3447
879.842	3591
879.97	3370
880.097	3131
880.224	3119
880.351	3245
880.478	3237
880.605	3192
880.732	3154
880.859	3481
880.986	3287
881.112	3253
881.239	3218
881.366	3070
881.493	3036
881.619	2986
881.746	3089
881.872	3074
881.999	3146
882.125	3135
882.252	3230
882.378	3264
882.505	3435
882.631	3222
882.757	3169
882.883	3188
883.01	3207
883.136	3146
883.262	3100
883.388	3135
883.514	3298
883.64	3317
883.766	3302
883.892	3150
884.018	3256
884.143	3435
884.269	3534
884.395	3192
884.52	3116
884.646	3218
884.772	3131
884.897	3116
885.023	3169
885.148	3340
885.274	3443
885.399	3340
885.524	3317
885.65	3275
885.775	3298
885.9	3275
886.025	3420
886.15	3332
886.275	3283
886.4	3249
886.525	3344
886.65	3253
886.775	3287
886.9	3492
887.025	3644
887.149	3416
887.274	3275
887.399	3150
887.523	3214
887.648	3214
887.773	3180
887.897	3359
888.021	3420
888.146	3256
888.27	3412
888.395	3519
888.519	3435
888.643	3416
888.767	3447
888.891	3332
889.015	3245
889.139	3279
889.263	3226
889.387	3389
889.511	3473
889.635	3435
889.759	3294
889.883	3279
890.006	3397
890.13	3469
890.254	3291
890.377	3291
890.501	3176
890.624	3192
890.748	3325
890.871	3173
890.995	3116
891.118	3058
891.241	3184
891.364	3192
891.488	3325
891.611	3184
891.734	3211
891.857	3237
891.98	3249
892.103	3332
892.226	3268
892.349	3211
892.471	3093
892.594	3211
892.717	3317
892.839	3275
892.962	3260
893.085	3306
893.207	3298
893.33	3150
893.452	3279
893.575	3344
893.697	3294
893.819	3485
893.941	3466
894.064	3431
894.186	3268
894.308	3264
894.43	3454
894.552	3549
894.674	3473
894.796	3298
894.918	3291
895.04	3241
895.161	3443
895.283	3397
895.405	3310
895.526	3374
895.648	3477
895.769	3367
895.891	3473
896.012	3488
896.134	3473
896.255	3409
896.376	3348
896.498	3363
896.619	3409
896.74	3378
896.861	3405
896.982	3690
897.103	3800
897.224	3576
897.345	3530
897.466	3420
897.587	3500
897.708	3633
897.828	3530
897.949	3405
898.07	3332
898.19	3382
898.311	3595
898.431	3477
898.552	3492
898.672	3587
898.792	3545
898.913	3523
899.033	3378
899.153	3298
899.273	3218
899.393	3249
899.513	3310
899.633	3310
899.753	3359
899.873	3260
899.993	3378
900.113	3325
900.232	3389
900.352	3351
900.472	3298
900.591	3199
900.711	3321
900.83	3256
900.95	3435
901.069	3496
901.189	3302
901.308	3180
901.427	3127
901.546	3222
901.665	3287
901.784	3298
901.904	3214
902.023	3150
902.141	3013
902.26	2986
902.379	3119
902.498	3058
902.617	3074
902.735	3192
902.854	3230
902.973	3192
903.091	3055
903.21	3058
903.328	3154
903.446	3077
903.565	3089
903.683	3180
903.801	3112
903.919	3241
904.038	3302
904.156	3184
904.274	3264
904.392	3211
904.51	3230
904.627	3317
904.745	3458
904.863	3496
904.981	3245
905.098	3169
905.216	3237
905.334	3283
905.451	3310
905.569	3279
905.686	3386
905.803	3386
905.921	3310
906.038	3412
906.155	3336
906.272	3249
906.389	3306
906.506	3207
906.623	3264
906.74	3275
906.857	3199
906.974	3233
907.091	3393
907.208	3557
907.324	3485
907.441	3424
907.557	3237
907.674	3195
907.79	3199
907.907	3230
908.023	3378
908.139	3363
908.256	3344
908.372	3306
908.488	3382
908.604	3245
908.72	3218
908.836	3302
908.952	3256
909.068	3302
909.184	3458
909.3	3397
909.415	3488
909.531	3454
909.647	3298
909.762	3306
909.878	3279
909.993	3336
910.108	3329
910.224	3329
910.339	3431
910.454	3302
910.57	3294
910.685	3211
910.8	3568
910.915	3534
911.03	3424
911.145	3253
911.259	3264
911.374	3313
911.489	3226
911.604	3218
911.718	3127
911.833	3135
911.947	3032
912.062	2948
912.176	3116
912.291	3154
912.405	3184
912.519	3424
912.633	3500
912.748	3344
912.862	3291
912.976	3173
913.09	3062
913.204	3127
913.318	3203
913.431	3332
913.545	3325
913.659	3405
913.772	3325
913.886	3207
914	3211
914.113	3374
914.226	3378
914.34	3351
914.453	3233
914.566	3397
914.68	3245
914.793	3306
914.906	3138
915.019	3104
915.132	3020
915.245	3169
915.358	3230
915.47	3214
915.583	3253
915.696	3253
915.809	3374
915.921	3367
916.034	3253
916.146	3249
916.259	3222
916.371	3386
916.483	3351
916.595	3275
916.708	3348
916.82	3336
916.932	3351
917.044	3336
917.156	3359
917.268	3203
917.38	3272
917.491	3272
917.603	3355
917.715	3428
917.826	3439
917.938	3355
918.049	3260
918.161	3428
918.272	3568
918.384	3584
918.495	3500
918.606	3363
918.717	3272
918.828	3374
918.939	3386
919.05	3325
919.161	3374
919.272	3192
919.383	3291
919.494	3466
919.604	3652
919.715	3477
919.826	3389
919.936	3469
920.047	3545
920.157	3561
920.267	3724
920.378	3584
920.488	3591
920.598	3759
920.708	3915
920.818	3816
920.928	3831
921.038	3998
921.148	3975
921.258	3698
921.368	3587
921.477	3549
921.587	3515
921.697	3473
921.806	3610
921.916	3477
922.025	3378
922.134	3355
922.244	3317
922.353	3405
922.462	3253
922.571	3260
922.68	3131
922.789	3058
922.898	3131
923.007	3077
923.116	3188
923.224	3188
923.333	3188
923.442	3123
923.55	3089
923.659	3150
923.767	3192
923.876	3100
923.984	3218
924.092	3100
924.201	3169
924.309	3222
924.417	3245
924.525	3165
924.633	3237
924.741	4029
924.849	3047
924.956	3222
925.064	3116
925.172	3024
925.279	3108
925.387	3199
925.494	3165
925.602	3363
925.709	3351
925.816	3184
925.924	3272
926.031	3393
926.138	3294
926.245	3340
926.352	3264
926.459	3389
926.566	3458
926.673	3336
926.779	3245
926.886	3275
926.993	3112
927.099	3157
927.206	3127
927.312	3104
927.419	3253
927.525	3176
927.631	3325
927.737	3138
927.843	3119
927.95	3024
928.056	3138
928.162	3180
928.267	3268
928.373	3880
928.479	3279
928.585	3047
928.69	3192
928.796	3279
928.901	3161
929.007	3058
929.112	3203
929.218	3180
929.323	3142
929.428	3081
929.533	3321
929.638	3131
929.743	3138
929.848	3260
929.953	3230
930.058	3123
930.163	2967
930.267	3047
930.372	3195
930.477	3009
930.581	3302
930.685	3211
930.79	2990
930.894	3119
930.998	3116
931.103	3332
931.207	2967
931.311	2922
931.415	2891
931.519	2785
931.623	2796
