Data from test_V78500241_638.txt Node
Date: Fri Mar 25 16:19:37 CST 2022
User: usil
Spectrometer: V785-0024
Trigger mode: 0
Integration Time (sec): 4.000000E-1
Scans to average: 1
Nonlinearity correction enabled: false
Boxcar width: 0
Storing dark spectrum: false
XAxis mode: Wavelengths
Number of Pixels in Spectrum: 1024
>>>>>Begin Spectral Data<<<<<
801.071	2914
801.214	2929
801.356	2880
801.499	2902
801.641	2895
801.783	2876
801.926	3058
802.068	2956
802.211	3009
802.353	3028
802.496	2963
802.638	3009
802.78	3032
802.923	3085
803.065	3013
803.208	2891
803.35	2914
803.492	2929
803.635	2910
803.777	2746
803.919	2883
804.061	3180
804.204	2956
804.346	2899
804.488	2834
804.63	3001
804.773	2899
804.915	2914
805.057	3093
805.199	2937
805.341	2948
805.483	3024
805.626	2971
805.768	2960
805.91	3108
806.052	3093
806.194	3039
806.336	3218
806.478	3024
806.62	2948
806.762	2960
806.904	3066
807.046	3176
807.188	2971
807.33	2925
807.472	2994
807.614	2902
807.756	2990
807.898	2929
808.04	2887
808.182	2986
808.324	2979
808.465	2876
808.607	2853
808.749	2769
808.891	2845
809.033	2941
809.174	2975
809.316	2872
809.458	2906
809.6	2758
809.741	2777
809.883	2777
810.025	2853
810.166	2834
810.308	2823
810.45	2864
810.591	2766
810.733	2739
810.875	2830
811.016	2785
811.158	2773
811.299	2826
811.441	2933
811.582	2925
811.724	2804
811.865	2826
812.007	2929
812.148	2883
812.29	2834
812.431	2899
812.573	2944
812.714	2971
812.855	3001
812.997	3070
813.138	3127
813.279	2994
813.421	2960
813.562	2944
813.703	2864
813.845	2883
813.986	2811
814.127	2720
814.268	2834
814.41	2796
814.551	2785
814.692	2876
814.833	2830
814.974	2906
815.115	2990
815.256	2830
815.397	2807
815.539	2781
815.68	2746
815.821	2842
815.962	2918
816.103	2918
816.244	2864
816.385	2872
816.526	2967
816.666	2914
816.807	2746
816.948	2876
817.089	2895
817.23	2868
817.371	2739
817.512	2830
817.653	2861
817.793	2823
817.934	2891
818.075	2956
818.216	3001
818.356	3005
818.497	2861
818.638	2788
818.778	2823
818.919	2796
819.06	2758
819.2	2868
819.341	2804
819.481	2792
819.622	2925
819.762	3112
819.903	3047
820.043	2925
820.184	2899
820.324	2902
820.465	3032
820.605	3024
820.746	3028
820.886	2929
821.026	3070
821.167	3146
821.307	3279
821.447	3249
821.588	3203
821.728	3195
821.868	3218
822.008	3047
822.149	3203
822.289	3199
822.429	3062
822.569	3051
822.709	3188
822.849	3062
822.99	3051
823.13	3180
823.27	3157
823.41	3135
823.55	3138
823.69	3135
823.83	3176
823.97	3085
824.11	2994
824.25	3036
824.389	3062
824.529	3131
824.669	3039
824.809	3184
824.949	3253
825.089	3241
825.228	3157
825.368	2967
825.508	2952
825.648	2956
825.787	3036
825.927	3009
826.067	2963
826.206	2967
826.346	3024
826.485	3077
826.625	3089
826.765	3245
826.904	3211
827.044	2982
827.183	2910
827.323	2876
827.462	2982
827.601	2929
827.741	2929
827.88	2944
828.02	2849
828.159	2963
828.298	3005
828.437	3119
828.577	2998
828.716	3230
828.855	3058
828.994	2910
829.134	2853
829.273	2887
829.412	2853
829.551	2849
829.69	2872
829.829	2975
829.968	3116
830.107	2998
830.246	3009
830.385	2906
830.524	2853
830.663	2834
830.802	2735
830.941	2644
831.08	2651
831.219	2746
831.357	2781
831.496	2933
831.635	2701
831.774	2625
831.913	2651
832.051	2541
832.19	2579
832.329	2678
832.467	2522
832.606	2457
832.744	2579
832.883	2610
833.022	2594
833.16	2632
833.299	2648
833.437	2701
833.576	2705
833.714	2682
833.852	2716
833.991	2739
834.129	2845
834.267	2811
834.406	2811
834.544	2842
834.682	2857
834.821	2872
834.959	3055
835.097	2861
835.235	3024
835.373	3005
835.511	3017
835.65	2933
835.788	2929
835.926	2834
836.064	2773
836.202	2838
836.34	3104
836.478	3154
836.615	3017
836.753	3165
836.891	3214
837.029	3188
837.167	3077
837.305	3055
837.443	3047
837.58	2933
837.718	3142
837.856	3093
837.993	3009
838.131	3081
838.269	3085
838.406	3093
838.544	3070
838.681	2960
838.819	2918
838.956	2807
839.094	2838
839.231	2922
839.369	3028
839.506	3317
839.643	3230
839.781	2994
839.918	2948
840.055	3013
840.193	3013
840.33	3024
840.467	3104
840.604	3138
840.742	3401
840.879	3039
841.016	3039
841.153	3142
841.29	3317
841.427	3279
841.564	3291
841.701	3291
841.838	3226
841.975	3138
842.112	3199
842.249	3070
842.385	3062
842.522	3253
842.659	3055
842.796	3081
842.933	3077
843.069	3047
843.206	3017
843.343	3150
843.479	3142
843.616	3108
843.752	2899
843.889	2868
844.025	3081
844.162	2830
844.298	3093
844.435	2952
844.571	2864
844.708	3070
844.844	3173
844.98	3233
845.117	3211
845.253	3028
845.389	2994
845.525	3093
845.661	3085
845.798	3036
845.934	3108
846.07	3028
846.206	3199
846.342	3306
846.478	3203
846.614	3093
846.75	3005
846.886	3013
847.022	3233
847.158	3127
847.294	3211
847.429	3207
847.565	3218
847.701	3462
847.837	3043
847.972	3017
848.108	3184
848.244	3184
848.379	2979
848.515	2952
848.65	2933
848.786	2910
848.921	2990
849.057	3108
849.192	3119
849.328	3085
849.463	3093
849.598	3070
849.734	3051
849.869	2956
850.004	2914
850.14	2960
850.275	2891
850.41	2826
850.545	2929
850.68	2918
850.815	2963
850.95	3013
851.085	3184
851.22	3085
851.355	3062
851.49	2960
851.625	2994
851.76	2994
851.895	2933
852.03	2883
852.165	3013
852.299	3097
852.434	3211
852.569	3112
852.703	3173
852.838	3249
852.973	3298
853.107	3321
853.242	3142
853.376	3112
853.511	2960
853.645	3036
853.78	3222
853.914	3097
854.048	3089
854.183	3100
854.317	3135
854.451	3275
854.585	3097
854.72	3108
854.854	3230
854.988	3047
855.122	3093
855.256	2971
855.39	3089
855.524	3233
855.658	3188
855.792	3150
855.926	3218
856.06	3195
856.194	3253
856.327	3154
856.461	3058
856.595	3039
856.729	3077
856.862	3195
856.996	3131
857.13	3176
857.263	3233
857.397	3310
857.53	3093
857.664	3203
857.797	3222
857.931	3195
858.064	3138
858.197	3203
858.331	3119
858.464	3081
858.597	2982
858.731	3135
858.864	3131
858.997	3085
859.13	3146
859.263	3188
859.396	3195
859.529	3104
859.662	3032
859.795	3066
859.928	3131
860.061	3283
860.194	3272
860.327	3100
860.46	3089
860.592	3237
860.725	3222
860.858	3275
860.99	3100
861.123	3032
861.256	3036
861.388	3161
861.521	3827
861.653	2990
861.786	2960
861.918	3009
862.05	3055
862.183	3020
862.315	3157
862.447	3245
862.58	3089
862.712	3013
862.844	2853
862.976	3001
863.108	2998
863.24	3401
863.372	2857
863.504	2975
863.636	2948
863.768	3032
863.9	2971
864.032	2883
864.164	2944
864.296	3036
864.428	3074
864.559	3119
864.691	3077
864.823	3089
864.954	3024
865.086	3036
865.217	2956
865.349	2975
865.48	2975
865.612	2975
865.743	3176
865.875	2998
866.006	2952
866.137	2948
866.269	2929
866.4	2906
866.531	2933
866.662	2876
866.793	2883
866.924	2853
867.055	2963
867.186	2876
867.317	2868
867.448	2842
867.579	2804
867.71	2864
867.841	2758
867.972	2887
868.103	2872
868.233	2895
868.364	2842
868.495	2918
868.625	3089
868.756	3165
868.886	2944
869.017	2979
869.147	3184
869.278	3135
869.408	3043
869.539	3024
869.669	3074
869.799	3047
869.929	3131
870.06	3116
870.19	3302
870.32	3264
870.45	3313
870.58	3359
870.71	3454
870.84	3409
870.97	3294
871.1	3249
871.23	3466
871.36	3443
871.489	3336
871.619	3378
871.749	3397
871.879	3420
872.008	3466
872.138	3370
872.267	3230
872.397	3146
872.526	3070
872.656	3036
872.785	3104
872.915	3245
873.044	3294
873.173	3233
873.303	3298
873.432	3222
873.561	3222
873.69	3127
873.819	3157
873.948	3150
874.077	3116
874.206	3020
874.335	3062
874.464	3169
874.593	3363
874.722	3222
874.851	3378
874.979	3367
875.108	3291
875.237	3214
875.365	3131
875.494	3119
875.623	3245
875.751	3066
875.88	3123
876.008	3119
876.136	3195
876.265	3329
876.393	3515
876.521	3412
876.65	3367
876.778	3348
876.906	3203
877.034	3176
877.162	3230
877.29	3199
877.418	3218
877.546	3249
877.674	3249
877.802	3249
877.93	3214
878.058	3142
878.185	3089
878.313	3199
878.441	3241
878.568	3036
878.696	3127
878.824	3249
878.951	3260
879.079	3431
879.206	3614
879.333	3439
879.461	3351
879.588	3359
879.715	3458
879.842	3580
879.97	3359
880.097	3169
880.224	3138
880.351	3218
880.478	3211
880.605	3192
880.732	3180
880.859	3500
880.986	3310
881.112	3348
881.239	3161
881.366	3074
881.493	3028
881.619	3013
881.746	3074
881.872	3119
881.999	3100
882.125	3112
882.252	3253
882.378	3294
882.505	3397
882.631	3268
882.757	3192
882.883	3188
883.01	3230
883.136	3176
883.262	3119
883.388	3089
883.514	3279
883.64	3348
883.766	3317
883.892	3195
884.018	3279
884.143	3378
884.269	3511
884.395	3218
884.52	3150
884.646	3173
884.772	3119
884.897	3066
885.023	3237
885.148	3313
885.274	3416
885.399	3332
885.524	3260
885.65	3241
885.775	3256
885.9	3268
886.025	3393
886.15	3340
886.275	3298
886.4	3272
886.525	3302
886.65	3237
886.775	3253
886.9	3488
887.025	3641
887.149	3370
887.274	3214
887.399	3188
887.523	3195
887.648	3199
887.773	3173
887.897	3374
888.021	3412
888.146	3279
888.27	3420
888.395	3526
888.519	3420
888.643	3401
888.767	3462
888.891	3348
889.015	3207
889.139	3313
889.263	3226
889.387	3389
889.511	3492
889.635	3401
889.759	3272
889.883	3302
890.006	3397
890.13	3462
890.254	3256
890.377	3351
890.501	3195
890.624	3218
890.748	3268
890.871	3222
890.995	3116
891.118	3066
891.241	3176
891.364	3214
891.488	3306
891.611	3184
891.734	3218
891.857	3245
891.98	3249
892.103	3332
892.226	3287
892.349	3192
892.471	3119
892.594	3253
892.717	3306
892.839	3245
892.962	3283
893.085	3359
893.207	3298
893.33	3154
893.452	3230
893.575	3325
893.697	3268
893.819	3443
893.941	3477
894.064	3431
894.186	3272
894.308	3245
894.43	3397
894.552	3542
894.674	3428
894.796	3279
894.918	3313
895.04	3317
895.161	3405
895.283	3386
895.405	3313
895.526	3374
895.648	3382
895.769	3435
895.891	3439
896.012	3462
896.134	3469
896.255	3405
896.376	3393
896.498	3355
896.619	3428
896.74	3329
896.861	3382
896.982	3641
897.103	3842
897.224	3595
897.345	3485
897.466	3397
897.587	3469
897.708	3629
897.828	3534
897.949	3397
898.07	3348
898.19	3424
898.311	3561
898.431	3439
898.552	3466
898.672	3606
898.792	3557
898.913	3553
899.033	3428
899.153	3287
899.273	3207
899.393	3272
899.513	3298
899.633	3287
899.753	3374
899.873	3321
899.993	3367
900.113	3317
900.232	3340
900.352	3298
900.472	3253
900.591	3199
900.711	3306
900.83	3211
900.95	3397
901.069	3507
901.189	3321
901.308	3173
901.427	3157
901.546	3233
901.665	3249
901.784	3294
901.904	3169
902.023	3161
902.141	3024
902.26	2998
902.379	3150
902.498	3036
902.617	3055
902.735	3169
902.854	3222
902.973	3218
903.091	3028
903.21	3066
903.328	3123
903.446	3081
903.565	3081
903.683	3169
903.801	3100
903.919	3241
904.038	3283
904.156	3154
904.274	3298
904.392	3287
904.51	3253
904.627	3348
904.745	3420
904.863	3469
904.981	3237
905.098	3176
905.216	3188
905.334	3306
905.451	3302
905.569	3306
905.686	3401
905.803	3416
905.921	3264
906.038	3409
906.155	3348
906.272	3260
906.389	3321
906.506	3233
906.623	3233
906.74	3245
906.857	3169
906.974	3226
907.091	3443
907.208	3553
907.324	3462
907.441	3386
907.557	3218
907.674	3207
907.79	3230
907.907	3283
908.023	3389
908.139	3363
908.256	3310
908.372	3370
908.488	3336
908.604	3214
908.72	3260
908.836	3256
908.952	3275
909.068	3313
909.184	3511
909.3	3401
909.415	3469
909.531	3431
909.647	3253
909.762	3317
909.878	3287
909.993	3374
910.108	3336
910.224	3313
910.339	3389
910.454	3329
910.57	3283
910.685	3195
910.8	3595
910.915	3526
911.03	3428
911.145	3256
911.259	3287
911.374	3310
911.489	3211
911.604	3214
911.718	3112
911.833	3146
911.947	3043
912.062	3020
912.176	3165
912.291	3169
912.405	3195
912.519	3397
912.633	3477
912.748	3310
912.862	3214
912.976	3195
913.09	3024
913.204	3119
913.318	3207
913.431	3313
913.545	3340
913.659	3382
913.772	3325
913.886	3214
914	3211
914.113	3313
914.226	3428
914.34	3370
914.453	3199
914.566	3420
914.68	3291
914.793	3332
914.906	3138
915.019	3127
915.132	3028
915.245	3138
915.358	3218
915.47	3237
915.583	3249
915.696	3260
915.809	3401
915.921	3424
916.034	3291
916.146	3260
916.259	3218
916.371	3370
916.483	3348
916.595	3283
916.708	3332
916.82	3302
916.932	3332
917.044	3325
917.156	3310
917.268	3260
917.38	3287
917.491	3230
917.603	3367
917.715	3435
917.826	3416
917.938	3348
918.049	3279
918.161	3389
918.272	3572
918.384	3553
918.495	3450
918.606	3363
918.717	3279
918.828	3393
918.939	3412
919.05	3291
919.161	3359
919.272	3180
919.383	3294
919.494	3492
919.604	3652
919.715	3454
919.826	3374
919.936	3431
920.047	3549
920.157	3564
920.267	3781
920.378	3599
920.488	3568
920.598	3804
920.708	3941
920.818	3778
920.928	3850
921.038	4025
921.148	3975
921.258	3694
921.368	3603
921.477	3549
921.587	3519
921.697	3450
921.806	3603
921.916	3534
922.025	3382
922.134	3332
922.244	3272
922.353	3412
922.462	3279
922.571	3233
922.68	3074
922.789	3043
922.898	3097
923.007	3055
923.116	3199
923.224	3138
923.333	3161
923.442	3100
923.55	3051
923.659	3131
923.767	3260
923.876	3100
923.984	3226
924.092	3100
924.201	3188
924.309	3188
924.417	3241
924.525	3180
924.633	3199
924.741	4006
924.849	3028
924.956	3256
925.064	3085
925.172	3039
925.279	3085
925.387	3180
925.494	3188
925.602	3363
925.709	3313
925.816	3184
925.924	3313
926.031	3340
926.138	3287
926.245	3340
926.352	3226
926.459	3416
926.566	3454
926.673	3298
926.779	3218
926.886	3253
926.993	3135
927.099	3116
927.206	3077
927.312	3104
927.419	3226
927.525	3207
927.631	3233
927.737	3150
927.843	3070
927.95	3005
928.056	3146
928.162	3161
928.267	3203
928.373	3759
928.479	3313
928.585	3055
928.69	3203
928.796	3249
928.901	3131
929.007	3020
929.112	3165
929.218	3207
929.323	3131
929.428	3112
929.533	3329
929.638	3070
929.743	3131
929.848	3245
929.953	3188
930.058	3119
930.163	3024
930.267	3013
930.372	3180
930.477	3017
930.581	3310
930.685	3138
930.79	3036
930.894	3089
930.998	3085
931.103	3260
931.207	2933
931.311	2941
931.415	2914
931.519	2762
931.623	2796
