Data from test_V78500241_359.txt Node
Date: Fri Mar 25 16:17:41 CST 2022
User: usil
Spectrometer: V785-0024
Trigger mode: 0
Integration Time (sec): 4.000000E-1
Scans to average: 1
Nonlinearity correction enabled: false
Boxcar width: 0
Storing dark spectrum: false
XAxis mode: Wavelengths
Number of Pixels in Spectrum: 1024
>>>>>Begin Spectral Data<<<<<
801.071	2929
801.214	2952
801.356	2845
801.499	2895
801.641	2880
801.783	2918
801.926	3036
802.068	2952
802.211	2948
802.353	3017
802.496	2982
802.638	2982
802.78	3017
802.923	3066
803.065	2986
803.208	2883
803.35	2914
803.492	2944
803.635	2895
803.777	2743
803.919	2830
804.061	3184
804.204	2925
804.346	2895
804.488	2826
804.63	2937
804.773	2853
804.915	2899
805.057	3089
805.199	2925
805.341	2910
805.483	2986
805.626	3036
805.768	2914
805.91	3066
806.052	3112
806.194	3013
806.336	3226
806.478	3017
806.62	2910
806.762	2922
806.904	3047
807.046	3165
807.188	2982
807.33	2902
807.472	2979
807.614	2887
807.756	2971
807.898	2914
808.04	2899
808.182	2944
808.324	2944
808.465	2849
808.607	2857
808.749	2781
808.891	2796
809.033	2963
809.174	2914
809.316	2868
809.458	2880
809.6	2758
809.741	2773
809.883	2750
810.025	2853
810.166	2838
810.308	2853
810.45	2842
810.591	2739
810.733	2766
810.875	2811
811.016	2762
811.158	2750
811.299	2762
811.441	2933
811.582	2883
811.724	2807
811.865	2792
812.007	2895
812.148	2864
812.29	2823
812.431	2857
812.573	2910
812.714	2952
812.855	3028
812.997	3039
813.138	3104
813.279	2933
813.421	2941
813.562	2895
813.703	2853
813.845	2868
813.986	2743
814.127	2735
814.268	2819
814.41	2800
814.551	2834
814.692	2864
814.833	2804
814.974	2895
815.115	2899
815.256	2834
815.397	2819
815.539	2861
815.68	2769
815.821	2815
815.962	2960
816.103	2918
816.244	2864
816.385	2887
816.526	2975
816.666	2899
816.807	2743
816.948	2842
817.089	2929
817.23	2857
817.371	2792
817.512	2819
817.653	2853
817.793	2849
817.934	2914
818.075	3020
818.216	3017
818.356	3043
818.497	2880
818.638	2792
818.778	2864
818.919	2819
819.06	2796
819.2	2880
819.341	2849
819.481	2819
819.622	2948
819.762	3119
819.903	3081
820.043	2929
820.184	2922
820.324	2929
820.465	3036
820.605	3020
820.746	3032
820.886	2979
821.026	3150
821.167	3218
821.307	3310
821.447	3325
821.588	3256
821.728	3275
821.868	3222
822.008	3097
822.149	3184
822.289	3245
822.429	3131
822.569	3112
822.709	3256
822.849	3036
822.99	3085
823.13	3173
823.27	3230
823.41	3154
823.55	3192
823.69	3161
823.83	3279
823.97	3157
824.11	3020
824.25	3024
824.389	3116
824.529	3142
824.669	3081
824.809	3264
824.949	3268
825.089	3264
825.228	3184
825.368	3051
825.508	2975
825.648	3005
825.787	3032
825.927	3074
826.067	3024
826.206	3013
826.346	3081
826.485	3123
826.625	3165
826.765	3279
826.904	3245
827.044	3009
827.183	2979
827.323	2906
827.462	3001
827.601	2941
827.741	2971
827.88	2994
828.02	2910
828.159	3028
828.298	3043
828.437	3112
828.577	3085
828.716	3291
828.855	3112
828.994	2933
829.134	2918
829.273	2952
829.412	2925
829.551	2891
829.69	2952
829.829	3036
829.968	3142
830.107	3047
830.246	3070
830.385	2948
830.524	2891
830.663	2864
830.802	2777
830.941	2697
831.08	2689
831.219	2807
831.357	2807
831.496	2975
831.635	2750
831.774	2686
831.913	2670
832.051	2613
832.19	2640
832.329	2693
832.467	2537
832.606	2495
832.744	2579
832.883	2610
833.022	2629
833.16	2670
833.299	2674
833.437	2720
833.576	2724
833.714	2750
833.852	2773
833.991	2785
834.129	2853
834.267	2864
834.406	2838
834.544	2929
834.682	2861
834.821	2914
834.959	3077
835.097	2910
835.235	3093
835.373	3020
835.511	3024
835.65	2979
835.788	2960
835.926	2864
836.064	2823
836.202	2883
836.34	3112
836.478	3188
836.615	3085
836.753	3184
836.891	3214
837.029	3222
837.167	3127
837.305	3074
837.443	3070
837.58	2986
837.718	3131
837.856	3097
837.993	3077
838.131	3165
838.269	3138
838.406	3157
838.544	3119
838.681	2994
838.819	2941
838.956	2815
839.094	2842
839.231	2948
839.369	3074
839.506	3439
839.643	3230
839.781	3039
839.918	2994
840.055	3085
840.193	3108
840.33	3100
840.467	3135
840.604	3165
840.742	3416
840.879	3051
841.016	3055
841.153	3154
841.29	3359
841.427	3351
841.564	3298
841.701	3332
841.838	3256
841.975	3222
842.112	3245
842.249	3100
842.385	3062
842.522	3233
842.659	3093
842.796	3070
842.933	3116
843.069	3070
843.206	3043
843.343	3214
843.479	3089
843.616	3176
843.752	2941
843.889	2857
844.025	3077
844.162	2880
844.298	3112
844.435	2986
844.571	2956
844.708	3157
844.844	3207
844.98	3279
845.117	3222
845.253	3077
845.389	3001
845.525	3138
845.661	3112
845.798	3032
845.934	3157
846.07	3077
846.206	3260
846.342	3344
846.478	3226
846.614	3070
846.75	3123
846.886	3097
847.022	3226
847.158	3138
847.294	3218
847.429	3268
847.565	3211
847.701	3519
847.837	3047
847.972	3024
848.108	3169
848.244	3142
848.379	3028
848.515	2963
848.65	2937
848.786	2998
848.921	3039
849.057	3161
849.192	3169
849.328	3089
849.463	3135
849.598	3089
849.734	3089
849.869	3013
850.004	2944
850.14	2994
850.275	2963
850.41	2868
850.545	2910
850.68	2941
850.815	2960
850.95	2975
851.085	3230
851.22	3119
851.355	3055
851.49	3005
851.625	3028
851.76	3062
851.895	2956
852.03	2952
852.165	3085
852.299	3119
852.434	3245
852.569	3173
852.703	3199
852.838	3279
852.973	3378
853.107	3340
853.242	3169
853.376	3097
853.511	2979
853.645	3062
853.78	3192
853.914	3119
854.048	3131
854.183	3097
854.317	3138
854.451	3306
854.585	3135
854.72	3077
854.854	3241
854.988	3036
855.122	3127
855.256	3032
855.39	3161
855.524	3268
855.658	3165
855.792	3150
855.926	3180
856.06	3233
856.194	3302
856.327	3161
856.461	3104
856.595	3131
856.729	3112
856.862	3245
856.996	3203
857.13	3233
857.263	3237
857.397	3272
857.53	3108
857.664	3214
857.797	3245
857.931	3272
858.064	3188
858.197	3253
858.331	3169
858.464	3127
858.597	3009
858.731	3119
858.864	3154
858.997	3131
859.13	3169
859.263	3218
859.396	3222
859.529	3119
859.662	3112
859.795	3051
859.928	3184
860.061	3313
860.194	3306
860.327	3142
860.46	3108
860.592	3249
860.725	3272
860.858	3260
860.99	3119
861.123	3051
861.256	3070
861.388	3161
861.521	3789
861.653	3017
861.786	2986
861.918	2998
862.05	3077
862.183	3097
862.315	3123
862.447	3207
862.58	3116
862.712	2982
862.844	2922
862.976	3070
863.108	3001
863.24	3428
863.372	2895
863.504	2986
863.636	2967
863.768	3043
863.9	3005
864.032	2910
864.164	2960
864.296	3009
864.428	3116
864.559	3104
864.691	3066
864.823	3074
864.954	3062
865.086	3055
865.217	3001
865.349	2948
865.48	3005
865.612	3017
865.743	3161
865.875	3024
866.006	2937
866.137	3017
866.269	2963
866.4	2963
866.531	2941
866.662	2925
866.793	2902
866.924	2929
867.055	2986
867.186	2918
867.317	2887
867.448	2845
867.579	2853
867.71	2887
867.841	2807
867.972	2956
868.103	2910
868.233	2922
868.364	2902
868.495	2895
868.625	3089
868.756	3218
868.886	3020
869.017	3062
869.147	3195
869.278	3188
869.408	3070
869.539	3058
869.669	3104
869.799	3066
869.929	3116
870.06	3112
870.19	3370
870.32	3268
870.45	3306
870.58	3393
870.71	3466
870.84	3504
870.97	3302
871.1	3272
871.23	3485
871.36	3469
871.489	3393
871.619	3462
871.749	3466
871.879	3443
872.008	3500
872.138	3405
872.267	3325
872.397	3165
872.526	3131
872.656	3009
872.785	3135
872.915	3249
873.044	3313
873.173	3230
873.303	3268
873.432	3291
873.561	3260
873.69	3192
873.819	3150
873.948	3226
874.077	3150
874.206	3039
874.335	3089
874.464	3230
874.593	3374
874.722	3260
874.851	3386
874.979	3340
875.108	3359
875.237	3230
875.365	3203
875.494	3142
875.623	3222
875.751	3123
875.88	3116
876.008	3195
876.136	3237
876.265	3393
876.393	3526
876.521	3443
876.65	3420
876.778	3359
876.906	3275
877.034	3169
877.162	3256
877.29	3222
877.418	3272
877.546	3256
877.674	3226
877.802	3253
877.93	3237
878.058	3161
878.185	3127
878.313	3214
878.441	3245
878.568	3051
878.696	3161
878.824	3256
878.951	3298
879.079	3443
879.206	3652
879.333	3443
879.461	3332
879.588	3416
879.715	3507
879.842	3591
879.97	3374
880.097	3169
880.224	3142
880.351	3180
880.478	3237
880.605	3233
880.732	3214
880.859	3530
880.986	3336
881.112	3344
881.239	3184
881.366	3108
881.493	3055
881.619	3028
881.746	3047
881.872	3154
881.999	3135
882.125	3157
882.252	3268
882.378	3294
882.505	3416
882.631	3275
882.757	3169
882.883	3226
883.01	3207
883.136	3176
883.262	3104
883.388	3089
883.514	3355
883.64	3420
883.766	3279
883.892	3199
884.018	3264
884.143	3435
884.269	3515
884.395	3199
884.52	3188
884.646	3203
884.772	3138
884.897	3070
885.023	3211
885.148	3378
885.274	3378
885.399	3409
885.524	3294
885.65	3264
885.775	3321
885.9	3332
886.025	3458
886.15	3359
886.275	3294
886.4	3245
886.525	3340
886.65	3302
886.775	3287
886.9	3485
887.025	3652
887.149	3416
887.274	3253
887.399	3233
887.523	3233
887.648	3203
887.773	3199
887.897	3370
888.021	3382
888.146	3351
888.27	3447
888.395	3553
888.519	3469
888.643	3435
888.767	3492
888.891	3340
889.015	3272
889.139	3287
889.263	3275
889.387	3424
889.511	3534
889.635	3450
889.759	3302
889.883	3283
890.006	3374
890.13	3496
890.254	3310
890.377	3325
890.501	3211
890.624	3161
890.748	3336
890.871	3188
890.995	3097
891.118	3085
891.241	3184
891.364	3218
891.488	3310
891.611	3146
891.734	3241
891.857	3306
891.98	3268
892.103	3370
892.226	3268
892.349	3211
892.471	3116
892.594	3241
892.717	3264
892.839	3317
892.962	3253
893.085	3344
893.207	3298
893.33	3165
893.452	3218
893.575	3355
893.697	3256
893.819	3462
893.941	3485
894.064	3458
894.186	3317
894.308	3287
894.43	3462
894.552	3538
894.674	3485
894.796	3317
894.918	3313
895.04	3298
895.161	3466
895.283	3355
895.405	3302
895.526	3363
895.648	3424
895.769	3428
895.891	3409
896.012	3439
896.134	3492
896.255	3443
896.376	3389
896.498	3389
896.619	3412
896.74	3374
896.861	3412
896.982	3686
897.103	3861
897.224	3622
897.345	3507
897.466	3435
897.587	3526
897.708	3584
897.828	3576
897.949	3431
898.07	3313
898.19	3401
898.311	3614
898.431	3507
898.552	3523
898.672	3656
898.792	3568
898.913	3530
899.033	3420
899.153	3291
899.273	3214
899.393	3298
899.513	3275
899.633	3306
899.753	3378
899.873	3340
899.993	3367
900.113	3355
900.232	3416
900.352	3382
900.472	3310
900.591	3249
900.711	3287
900.83	3272
900.95	3405
901.069	3511
901.189	3355
901.308	3207
901.427	3161
901.546	3218
901.665	3336
901.784	3348
901.904	3233
902.023	3165
902.141	3043
902.26	3028
902.379	3173
902.498	3058
902.617	3039
902.735	3230
902.854	3253
902.973	3169
903.091	3047
903.21	3062
903.328	3138
903.446	3154
903.565	3138
903.683	3184
903.801	3108
903.919	3241
904.038	3291
904.156	3173
904.274	3294
904.392	3264
904.51	3302
904.627	3344
904.745	3439
904.863	3504
904.981	3207
905.098	3180
905.216	3253
905.334	3298
905.451	3306
905.569	3283
905.686	3424
905.803	3428
905.921	3302
906.038	3370
906.155	3344
906.272	3275
906.389	3367
906.506	3256
906.623	3283
906.74	3291
906.857	3195
906.974	3230
907.091	3481
907.208	3599
907.324	3443
907.441	3374
907.557	3214
907.674	3237
907.79	3222
907.907	3306
908.023	3405
908.139	3382
908.256	3332
908.372	3329
908.488	3310
908.604	3237
908.72	3249
908.836	3268
908.952	3317
909.068	3317
909.184	3466
909.3	3378
909.415	3469
909.531	3447
909.647	3264
909.762	3291
909.878	3272
909.993	3355
910.108	3310
910.224	3359
910.339	3374
910.454	3317
910.57	3279
910.685	3275
910.8	3603
910.915	3542
911.03	3428
911.145	3287
911.259	3268
911.374	3264
911.489	3253
911.604	3207
911.718	3157
911.833	3173
911.947	3043
912.062	2998
912.176	3165
912.291	3184
912.405	3237
912.519	3412
912.633	3466
912.748	3386
912.862	3294
912.976	3184
913.09	3058
913.204	3180
913.318	3222
913.431	3336
913.545	3336
913.659	3393
913.772	3363
913.886	3218
914	3203
914.113	3382
914.226	3393
914.34	3382
914.453	3245
914.566	3416
914.68	3279
914.793	3275
914.906	3138
915.019	3104
915.132	3047
915.245	3180
915.358	3180
915.47	3207
915.583	3287
915.696	3264
915.809	3420
915.921	3439
916.034	3287
916.146	3279
916.259	3226
916.371	3405
916.483	3382
916.595	3249
916.708	3325
916.82	3370
916.932	3351
917.044	3351
917.156	3363
917.268	3249
917.38	3306
917.491	3298
917.603	3367
917.715	3428
917.826	3435
917.938	3386
918.049	3249
918.161	3450
918.272	3572
918.384	3545
918.495	3526
918.606	3340
918.717	3294
918.828	3370
918.939	3405
919.05	3298
919.161	3340
919.272	3199
919.383	3260
919.494	3511
919.604	3690
919.715	3500
919.826	3393
919.936	3500
920.047	3599
920.157	3553
920.267	3781
920.378	3637
920.488	3557
920.598	3755
920.708	3922
920.818	3838
920.928	3846
921.038	4017
921.148	3994
921.258	3709
921.368	3652
921.477	3587
921.587	3500
921.697	3458
921.806	3656
921.916	3515
922.025	3344
922.134	3355
922.244	3332
922.353	3435
922.462	3249
922.571	3226
922.68	3123
922.789	3055
922.898	3135
923.007	3138
923.116	3211
923.224	3207
923.333	3146
923.442	3104
923.55	3097
923.659	3131
923.767	3222
923.876	3131
923.984	3222
924.092	3093
924.201	3169
924.309	3195
924.417	3253
924.525	3222
924.633	3233
924.741	4185
924.849	3070
924.956	3283
925.064	3131
925.172	3039
925.279	3055
925.387	3203
925.494	3241
925.602	3367
925.709	3302
925.816	3173
925.924	3283
926.031	3348
926.138	3325
926.245	3348
926.352	3245
926.459	3458
926.566	3458
926.673	3294
926.779	3253
926.886	3279
926.993	3161
927.099	3150
927.206	3108
927.312	3135
927.419	3256
927.525	3195
927.631	3298
927.737	3157
927.843	3097
927.95	3005
928.056	3131
928.162	3184
928.267	3268
928.373	3903
928.479	3348
928.585	3070
928.69	3230
928.796	3291
928.901	3169
929.007	3005
929.112	3230
929.218	3176
929.323	3135
929.428	3154
929.533	3336
929.638	3093
929.743	3188
929.848	3253
929.953	3188
930.058	3165
930.163	2979
930.267	3051
930.372	3161
930.477	3055
930.581	3302
930.685	3195
930.79	3077
930.894	3127
930.998	3100
931.103	3275
931.207	2960
931.311	2960
931.415	2887
931.519	2758
931.623	2785
