Data from test_V78500241_73.txt Node
Date: Fri Mar 25 16:15:42 CST 2022
User: usil
Spectrometer: V785-0024
Trigger mode: 0
Integration Time (sec): 4.000000E-1
Scans to average: 1
Nonlinearity correction enabled: false
Boxcar width: 0
Storing dark spectrum: false
XAxis mode: Wavelengths
Number of Pixels in Spectrum: 1024
>>>>>Begin Spectral Data<<<<<
801.071	2922
801.214	2986
801.356	2872
801.499	2922
801.641	2891
801.783	2922
801.926	3108
802.068	2994
802.211	3051
802.353	3055
802.496	2994
802.638	3043
802.78	3093
802.923	3112
803.065	3058
803.208	2918
803.35	2925
803.492	2944
803.635	2948
803.777	2815
803.919	2895
804.061	3195
804.204	2998
804.346	2914
804.488	2891
804.63	3009
804.773	2914
804.915	2975
805.057	3135
805.199	2975
805.341	2975
805.483	3093
805.626	3001
805.768	3017
805.91	3100
806.052	3100
806.194	3058
806.336	3256
806.478	3051
806.62	2979
806.762	2963
806.904	3074
807.046	3211
807.188	3055
807.33	2937
807.472	3017
807.614	2922
807.756	3028
807.898	2948
808.04	2910
808.182	3032
808.324	3032
808.465	2906
808.607	2902
808.749	2838
808.891	2868
809.033	2986
809.174	3001
809.316	2948
809.458	2952
809.6	2826
809.741	2788
809.883	2830
810.025	2845
810.166	2883
810.308	2872
810.45	2880
810.591	2811
810.733	2758
810.875	2842
811.016	2845
811.158	2777
811.299	2823
811.441	2941
811.582	2929
811.724	2868
811.865	2864
812.007	2925
812.148	2918
812.29	2914
812.431	2914
812.573	2971
812.714	2986
812.855	3074
812.997	3047
813.138	3138
813.279	3039
813.421	2998
813.562	2979
813.703	2899
813.845	2922
813.986	2823
814.127	2785
814.268	2857
814.41	2868
814.551	2864
814.692	2883
814.833	2792
814.974	2925
815.115	2998
815.256	2857
815.397	2834
815.539	2895
815.68	2800
815.821	2788
815.962	2956
816.103	2933
816.244	2906
816.385	2895
816.526	3020
816.666	2933
816.807	2777
816.948	2899
817.089	2937
817.23	2902
817.371	2838
817.512	2823
817.653	2872
817.793	2826
817.934	2914
818.075	3009
818.216	3013
818.356	3051
818.497	2887
818.638	2815
818.778	2842
818.919	2834
819.06	2773
819.2	2906
819.341	2815
819.481	2826
819.622	2967
819.762	3116
819.903	3097
820.043	2986
820.184	2941
820.324	2941
820.465	3043
820.605	3062
820.746	3039
820.886	2944
821.026	3157
821.167	3207
821.307	3317
821.447	3272
821.588	3294
821.728	3268
821.868	3192
822.008	3127
822.149	3203
822.289	3253
822.429	3150
822.569	3150
822.709	3222
822.849	3070
822.99	3077
823.13	3199
823.27	3253
823.41	3150
823.55	3176
823.69	3169
823.83	3222
823.97	3119
824.11	3028
824.25	3036
824.389	3127
824.529	3150
824.669	3127
824.809	3218
824.949	3275
825.089	3249
825.228	3161
825.368	3039
825.508	3020
825.648	2971
825.787	3017
825.927	3047
826.067	2967
826.206	2929
826.346	3104
826.485	3119
826.625	3142
826.765	3268
826.904	3237
827.044	3009
827.183	2925
827.323	2910
827.462	2998
827.601	2937
827.741	2963
827.88	2982
828.02	2902
828.159	2971
828.298	3077
828.437	3142
828.577	3093
828.716	3241
828.855	3116
828.994	2982
829.134	2876
829.273	2975
829.412	2883
829.551	2937
829.69	2914
829.829	3020
829.968	3169
830.107	3013
830.246	3043
830.385	2929
830.524	2929
830.663	2823
830.802	2739
830.941	2689
831.08	2648
831.219	2800
831.357	2796
831.496	2990
831.635	2762
831.774	2682
831.913	2693
832.051	2545
832.19	2610
832.329	2705
832.467	2537
832.606	2522
832.744	2583
832.883	2575
833.022	2621
833.16	2651
833.299	2701
833.437	2720
833.576	2739
833.714	2762
833.852	2746
833.991	2796
834.129	2880
834.267	2834
834.406	2804
834.544	2899
834.682	2914
834.821	2899
834.959	3093
835.097	2922
835.235	3119
835.373	3024
835.511	3058
835.65	3005
835.788	2975
835.926	2861
836.064	2819
836.202	2880
836.34	3097
836.478	3131
836.615	3074
836.753	3131
836.891	3245
837.029	3169
837.167	3135
837.305	3066
837.443	3070
837.58	2990
837.718	3127
837.856	3077
837.993	3055
838.131	3180
838.269	3108
838.406	3116
838.544	3100
838.681	2990
838.819	2956
838.956	2838
839.094	2830
839.231	2956
839.369	3058
839.506	3416
839.643	3211
839.781	3066
839.918	2967
840.055	3104
840.193	3070
840.33	3085
840.467	3138
840.604	3142
840.742	3435
840.879	3085
841.016	3112
841.153	3135
841.29	3367
841.427	3302
841.564	3287
841.701	3363
841.838	3256
841.975	3184
842.112	3226
842.249	3058
842.385	3043
842.522	3302
842.659	3127
842.796	3062
842.933	3123
843.069	3062
843.206	3074
843.343	3203
843.479	3173
843.616	3169
843.752	2895
843.889	2872
844.025	3135
844.162	2872
844.298	3127
844.435	2979
844.571	2952
844.708	3112
844.844	3211
844.98	3264
845.117	3199
845.253	3077
845.389	3051
845.525	3146
845.661	3097
845.798	3028
845.934	3165
846.07	3116
846.206	3256
846.342	3378
846.478	3260
846.614	3104
846.75	3077
846.886	3047
847.022	3272
847.158	3192
847.294	3214
847.429	3272
847.565	3237
847.701	3507
847.837	3024
847.972	3039
848.108	3192
848.244	3184
848.379	3020
848.515	2975
848.65	2925
848.786	3005
848.921	3013
849.057	3142
849.192	3169
849.328	3100
849.463	3150
849.598	3097
849.734	3066
849.869	3028
850.004	2914
850.14	2994
850.275	2944
850.41	2826
850.545	2891
850.68	2963
850.815	2956
850.95	3005
851.085	3203
851.22	3127
851.355	3077
851.49	3013
851.625	3017
851.76	3036
851.895	2944
852.03	2937
852.165	3058
852.299	3104
852.434	3207
852.569	3173
852.703	3214
852.838	3272
852.973	3332
853.107	3401
853.242	3199
853.376	3131
853.511	3020
853.645	3028
853.78	3294
853.914	3154
854.048	3157
854.183	3112
854.317	3169
854.451	3332
854.585	3150
854.72	3112
854.854	3230
854.988	3093
855.122	3108
855.256	2998
855.39	3116
855.524	3245
855.658	3199
855.792	3207
855.926	3226
856.06	3268
856.194	3298
856.327	3184
856.461	3070
856.595	3112
856.729	3138
856.862	3233
856.996	3173
857.13	3233
857.263	3233
857.397	3313
857.53	3154
857.664	3245
857.797	3245
857.931	3279
858.064	3195
858.197	3245
858.331	3176
858.464	3108
858.597	3055
858.731	3142
858.864	3154
858.997	3116
859.13	3195
859.263	3218
859.396	3249
859.529	3112
859.662	3093
859.795	3062
859.928	3195
860.061	3310
860.194	3348
860.327	3161
860.46	3142
860.592	3275
860.725	3275
860.858	3321
860.99	3097
861.123	3074
861.256	3058
861.388	3176
861.521	3804
861.653	3047
861.786	3017
861.918	3020
862.05	3116
862.183	3142
862.315	3176
862.447	3226
862.58	3138
862.712	2994
862.844	2922
862.976	3070
863.108	3043
863.24	3348
863.372	2910
863.504	3001
863.636	2963
863.768	3081
863.9	3017
864.032	2922
864.164	2979
864.296	3009
864.428	3104
864.559	3142
864.691	3127
864.823	3066
864.954	3047
865.086	3100
865.217	3013
865.349	2979
865.48	3009
865.612	3013
865.743	3135
865.875	3024
866.006	2944
866.137	3028
866.269	3009
866.4	2948
866.531	2941
866.662	2887
866.793	2906
866.924	2944
867.055	3024
867.186	2941
867.317	2914
867.448	2857
867.579	2883
867.71	2902
867.841	2826
867.972	2944
868.103	2952
868.233	2887
868.364	2948
868.495	2925
868.625	3093
868.756	3203
868.886	2975
869.017	3036
869.147	3207
869.278	3173
869.408	3108
869.539	3032
869.669	3108
869.799	3036
869.929	3180
870.06	3169
870.19	3302
870.32	3291
870.45	3321
870.58	3443
870.71	3523
870.84	3526
870.97	3310
871.1	3272
871.23	3485
871.36	3488
871.489	3389
871.619	3416
871.749	3477
871.879	3473
872.008	3477
872.138	3397
872.267	3298
872.397	3131
872.526	3138
872.656	3036
872.785	3104
872.915	3249
873.044	3336
873.173	3256
873.303	3272
873.432	3283
873.561	3253
873.69	3192
873.819	3165
873.948	3249
874.077	3138
874.206	3062
874.335	3085
874.464	3241
874.593	3401
874.722	3272
874.851	3435
874.979	3389
875.108	3329
875.237	3218
875.365	3195
875.494	3165
875.623	3279
875.751	3097
875.88	3089
876.008	3233
876.136	3245
876.265	3382
876.393	3507
876.521	3477
876.65	3382
876.778	3378
876.906	3283
877.034	3283
877.162	3230
877.29	3192
877.418	3302
877.546	3245
877.674	3310
877.802	3256
877.93	3241
878.058	3199
878.185	3108
878.313	3211
878.441	3241
878.568	3077
878.696	3207
878.824	3294
878.951	3317
879.079	3496
879.206	3644
879.333	3443
879.461	3370
879.588	3378
879.715	3523
879.842	3660
879.97	3401
880.097	3180
880.224	3173
880.351	3264
880.478	3233
880.605	3218
880.732	3207
880.859	3526
880.986	3359
881.112	3382
881.239	3226
881.366	3116
881.493	3077
881.619	3017
881.746	3097
881.872	3127
881.999	3131
882.125	3180
882.252	3313
882.378	3302
882.505	3435
882.631	3310
882.757	3230
882.883	3249
883.01	3203
883.136	3184
883.262	3150
883.388	3131
883.514	3363
883.64	3389
883.766	3332
883.892	3214
884.018	3287
884.143	3443
884.269	3595
884.395	3226
884.52	3192
884.646	3226
884.772	3127
884.897	3154
885.023	3230
885.148	3351
885.274	3466
885.399	3359
885.524	3321
885.65	3294
885.775	3336
885.9	3306
886.025	3454
886.15	3412
886.275	3317
886.4	3260
886.525	3321
886.65	3325
886.775	3321
886.9	3549
887.025	3682
887.149	3462
887.274	3325
887.399	3180
887.523	3230
887.648	3222
887.773	3214
887.897	3393
888.021	3447
888.146	3310
888.27	3481
888.395	3572
888.519	3488
888.643	3469
888.767	3538
888.891	3359
889.015	3233
889.139	3313
889.263	3275
889.387	3424
889.511	3557
889.635	3481
889.759	3321
889.883	3325
890.006	3420
890.13	3523
890.254	3287
890.377	3386
890.501	3245
890.624	3203
890.748	3302
890.871	3226
890.995	3131
891.118	3074
891.241	3241
891.364	3233
891.488	3336
891.611	3226
891.734	3268
891.857	3313
891.98	3272
892.103	3397
892.226	3340
892.349	3249
892.471	3142
892.594	3279
892.717	3287
892.839	3329
892.962	3317
893.085	3401
893.207	3313
893.33	3195
893.452	3283
893.575	3367
893.697	3253
893.819	3481
893.941	3519
894.064	3473
894.186	3302
894.308	3298
894.43	3496
894.552	3564
894.674	3488
894.796	3321
894.918	3367
895.04	3321
895.161	3454
895.283	3439
895.405	3317
895.526	3424
895.648	3454
895.769	3454
895.891	3492
896.012	3545
896.134	3477
896.255	3424
896.376	3416
896.498	3389
896.619	3488
896.74	3393
896.861	3428
896.982	3698
897.103	3899
897.224	3663
897.345	3564
897.466	3477
897.587	3488
897.708	3679
897.828	3595
897.949	3481
898.07	3378
898.19	3447
898.311	3633
898.431	3488
898.552	3564
898.672	3660
898.792	3614
898.913	3523
899.033	3477
899.153	3298
899.273	3241
899.393	3317
899.513	3355
899.633	3340
899.753	3409
899.873	3332
899.993	3431
900.113	3397
900.232	3454
900.352	3378
900.472	3302
900.591	3260
900.711	3332
900.83	3306
900.95	3431
901.069	3526
901.189	3409
901.308	3230
901.427	3146
901.546	3199
901.665	3355
901.784	3378
901.904	3241
902.023	3176
902.141	3066
902.26	3020
902.379	3154
902.498	3112
902.617	3116
902.735	3287
902.854	3287
902.973	3203
903.091	3062
903.21	3131
903.328	3180
903.446	3123
903.565	3138
903.683	3256
903.801	3157
903.919	3256
904.038	3329
904.156	3207
904.274	3317
904.392	3298
904.51	3359
904.627	3348
904.745	3462
904.863	3515
904.981	3287
905.098	3154
905.216	3279
905.334	3348
905.451	3298
905.569	3332
905.686	3450
905.803	3458
905.921	3310
906.038	3405
906.155	3363
906.272	3264
906.389	3389
906.506	3298
906.623	3253
906.74	3348
906.857	3218
906.974	3253
907.091	3511
907.208	3614
907.324	3481
907.441	3428
907.557	3260
907.674	3272
907.79	3253
907.907	3332
908.023	3439
908.139	3412
908.256	3351
908.372	3393
908.488	3359
908.604	3283
908.72	3291
908.836	3321
908.952	3325
909.068	3363
909.184	3504
909.3	3428
909.415	3572
909.531	3515
909.647	3272
909.762	3325
909.878	3294
909.993	3374
910.108	3363
910.224	3397
910.339	3428
910.454	3382
910.57	3310
910.685	3264
910.8	3671
910.915	3576
911.03	3447
911.145	3321
911.259	3302
911.374	3329
911.489	3294
911.604	3237
911.718	3123
911.833	3211
911.947	3074
912.062	3017
912.176	3192
912.291	3260
912.405	3253
912.519	3481
912.633	3500
912.748	3378
912.862	3332
912.976	3218
913.09	3089
913.204	3150
913.318	3237
913.431	3355
913.545	3397
913.659	3439
913.772	3382
913.886	3211
914	3249
914.113	3382
914.226	3447
914.34	3405
914.453	3249
914.566	3488
914.68	3283
914.793	3382
914.906	3165
915.019	3116
915.132	3108
915.245	3226
915.358	3233
915.47	3268
915.583	3298
915.696	3359
915.809	3405
915.921	3462
916.034	3294
916.146	3302
916.259	3256
916.371	3458
916.483	3405
916.595	3313
916.708	3340
916.82	3332
916.932	3329
917.044	3367
917.156	3370
917.268	3313
917.38	3317
917.491	3321
917.603	3447
917.715	3488
917.826	3496
917.938	3401
918.049	3291
918.161	3477
918.272	3622
918.384	3568
918.495	3538
918.606	3397
918.717	3329
918.828	3397
918.939	3454
919.05	3325
919.161	3416
919.272	3241
919.383	3336
919.494	3542
919.604	3686
919.715	3500
919.826	3447
919.936	3507
920.047	3553
920.157	3553
920.267	3793
920.378	3667
920.488	3644
920.598	3804
920.708	4036
920.818	3831
920.928	3854
921.038	4059
921.148	3998
921.258	3701
921.368	3720
921.477	3618
921.587	3553
921.697	3507
921.806	3701
921.916	3603
922.025	3359
922.134	3405
922.244	3336
922.353	3481
922.462	3279
922.571	3253
922.68	3138
922.789	3097
922.898	3142
923.007	3146
923.116	3230
923.224	3203
923.333	3222
923.442	3104
923.55	3119
923.659	3195
923.767	3249
923.876	3127
923.984	3245
924.092	3104
924.201	3211
924.309	3260
924.417	3317
924.525	3233
924.633	3249
924.741	4246
924.849	3074
924.956	3287
925.064	3135
925.172	3043
925.279	3135
925.387	3249
925.494	3230
925.602	3405
925.709	3351
925.816	3203
925.924	3344
926.031	3382
926.138	3397
926.245	3416
926.352	3287
926.459	3439
926.566	3500
926.673	3329
926.779	3268
926.886	3283
926.993	3207
927.099	3165
927.206	3116
927.312	3150
927.419	3256
927.525	3260
927.631	3310
927.737	3157
927.843	3142
927.95	3089
928.056	3150
928.162	3218
928.267	3268
928.373	3827
928.479	3359
928.585	3062
928.69	3253
928.796	3321
928.901	3218
929.007	3085
929.112	3222
929.218	3195
929.323	3207
929.428	3184
929.533	3306
929.638	3157
929.743	3203
929.848	3287
929.953	3279
930.058	3233
930.163	3047
930.267	3081
930.372	3237
930.477	3085
930.581	3340
930.685	3211
930.79	3104
930.894	3142
930.998	3142
931.103	3325
931.207	2998
931.311	2979
931.415	2963
931.519	2788
931.623	2834
