Data from test_V78500241_880.txt Node
Date: Fri Mar 25 16:21:17 CST 2022
User: usil
Spectrometer: V785-0024
Trigger mode: 0
Integration Time (sec): 4.000000E-1
Scans to average: 1
Nonlinearity correction enabled: false
Boxcar width: 0
Storing dark spectrum: false
XAxis mode: Wavelengths
Number of Pixels in Spectrum: 1024
>>>>>Begin Spectral Data<<<<<
801.071	2922
801.214	2994
801.356	2906
801.499	2887
801.641	2906
801.783	2948
801.926	3051
802.068	2990
802.211	3005
802.353	3047
802.496	2994
802.638	3013
802.78	3055
802.923	3123
803.065	3009
803.208	2910
803.35	2933
803.492	2937
803.635	2963
803.777	2773
803.919	2861
804.061	3214
804.204	2971
804.346	2914
804.488	2872
804.63	2960
804.773	2868
804.915	2902
805.057	3097
805.199	2963
805.341	2979
805.483	3055
805.626	2994
805.768	2956
805.91	3104
806.052	3097
806.194	3043
806.336	3214
806.478	3028
806.62	2952
806.762	3001
806.904	3028
807.046	3188
807.188	3009
807.33	2925
807.472	3062
807.614	2883
807.756	3005
807.898	2902
808.04	2868
808.182	2952
808.324	2918
808.465	2899
808.607	2845
808.749	2819
808.891	2845
809.033	2986
809.174	3013
809.316	2845
809.458	2895
809.6	2811
809.741	2746
809.883	2781
810.025	2819
810.166	2899
810.308	2842
810.45	2880
810.591	2766
810.733	2781
810.875	2815
811.016	2781
811.158	2750
811.299	2830
811.441	2906
811.582	2910
811.724	2811
811.865	2807
812.007	2887
812.148	2864
812.29	2819
812.431	2891
812.573	2922
812.714	2963
812.855	3005
812.997	3020
813.138	3142
813.279	3001
813.421	2986
813.562	2982
813.703	2864
813.845	2857
813.986	2773
814.127	2746
814.268	2834
814.41	2811
814.551	2792
814.692	2906
814.833	2807
814.974	2876
815.115	2922
815.256	2807
815.397	2781
815.539	2864
815.68	2769
815.821	2804
815.962	2956
816.103	2906
816.244	2849
816.385	2857
816.526	2971
816.666	2925
816.807	2735
816.948	2868
817.089	2876
817.23	2826
817.371	2754
817.512	2815
817.653	2842
817.793	2834
817.934	2887
818.075	2963
818.216	2967
818.356	2990
818.497	2895
818.638	2804
818.778	2792
818.919	2800
819.06	2769
819.2	2876
819.341	2800
819.481	2800
819.622	2902
819.762	3138
819.903	3039
820.043	2941
820.184	2899
820.324	2918
820.465	3001
820.605	3001
820.746	2990
820.886	2906
821.026	3123
821.167	3135
821.307	3283
821.447	3275
821.588	3222
821.728	3161
821.868	3203
822.008	3104
822.149	3173
822.289	3211
822.429	3112
822.569	3077
822.709	3161
822.849	3039
822.99	3070
823.13	3165
823.27	3226
823.41	3119
823.55	3154
823.69	3138
823.83	3176
823.97	3112
824.11	3005
824.25	3047
824.389	3062
824.529	3108
824.669	3062
824.809	3199
824.949	3272
825.089	3222
825.228	3199
825.368	3047
825.508	2967
825.648	3009
825.787	2998
825.927	3051
826.067	2971
826.206	2956
826.346	3028
826.485	3119
826.625	3112
826.765	3291
826.904	3203
827.044	3024
827.183	2960
827.323	2864
827.462	3005
827.601	2941
827.741	2944
827.88	2990
828.02	2876
828.159	3009
828.298	3070
828.437	3108
828.577	3104
828.716	3256
828.855	3127
828.994	2975
829.134	2948
829.273	2952
829.412	2956
829.551	2914
829.69	2944
829.829	3028
829.968	3161
830.107	3066
830.246	3058
830.385	2971
830.524	2929
830.663	2880
830.802	2796
830.941	2705
831.08	2670
831.219	2807
831.357	2800
831.496	2998
831.635	2788
831.774	2739
831.913	2712
832.051	2587
832.19	2610
832.329	2777
832.467	2564
832.606	2526
832.744	2636
832.883	2613
833.022	2629
833.16	2720
833.299	2712
833.437	2750
833.576	2746
833.714	2762
833.852	2766
833.991	2811
834.129	2891
834.267	2899
834.406	2842
834.544	2914
834.682	2944
834.821	2906
834.959	3108
835.097	2933
835.235	3116
835.373	3051
835.511	3051
835.65	3001
835.788	3001
835.926	2880
836.064	2876
836.202	2861
836.34	3108
836.478	3165
836.615	3085
836.753	3176
836.891	3230
837.029	3214
837.167	3135
837.305	3100
837.443	3089
837.58	3013
837.718	3154
837.856	3097
837.993	3070
838.131	3131
838.269	3127
838.406	3176
838.544	3135
838.681	2982
838.819	2933
838.956	2842
839.094	2887
839.231	2925
839.369	3036
839.506	3416
839.643	3230
839.781	3066
839.918	2963
840.055	3039
840.193	3051
840.33	3116
840.467	3157
840.604	3192
840.742	3397
840.879	3081
841.016	3081
841.153	3123
841.29	3370
841.427	3355
841.564	3336
841.701	3348
841.838	3230
841.975	3176
842.112	3272
842.249	3142
842.385	3070
842.522	3294
842.659	3138
842.796	3081
842.933	3123
843.069	3081
843.206	3081
843.343	3192
843.479	3112
843.616	3192
843.752	2952
843.889	2895
844.025	3100
844.162	2933
844.298	3104
844.435	2975
844.571	2956
844.708	3108
844.844	3256
844.98	3249
845.117	3230
845.253	3104
845.389	3051
845.525	3104
845.661	3142
845.798	3077
845.934	3161
846.07	3081
846.206	3230
846.342	3374
846.478	3222
846.614	3100
846.75	3077
846.886	3028
847.022	3264
847.158	3150
847.294	3218
847.429	3283
847.565	3260
847.701	3511
847.837	3081
847.972	3024
848.108	3180
848.244	3184
848.379	3036
848.515	2975
848.65	2998
848.786	3013
848.921	3028
849.057	3131
849.192	3188
849.328	3135
849.463	3123
849.598	3127
849.734	3081
849.869	3020
850.004	2956
850.14	2990
850.275	2944
850.41	2891
850.545	2910
850.68	2941
850.815	2975
850.95	3020
851.085	3203
851.22	3093
851.355	3066
851.49	3013
851.625	3039
851.76	3062
851.895	2937
852.03	2948
852.165	3043
852.299	3154
852.434	3230
852.569	3176
852.703	3207
852.838	3283
852.973	3351
853.107	3317
853.242	3199
853.376	3131
853.511	3017
853.645	3089
853.78	3249
853.914	3131
854.048	3150
854.183	3119
854.317	3199
854.451	3363
854.585	3165
854.72	3104
854.854	3264
854.988	3062
855.122	3127
855.256	3005
855.39	3108
855.524	3275
855.658	3226
855.792	3188
855.926	3214
856.06	3233
856.194	3241
856.327	3176
856.461	3066
856.595	3123
856.729	3116
856.862	3241
856.996	3188
857.13	3211
857.263	3241
857.397	3306
857.53	3146
857.664	3199
857.797	3294
857.931	3218
858.064	3214
858.197	3241
858.331	3127
858.464	3081
858.597	3028
858.731	3161
858.864	3154
858.997	3123
859.13	3184
859.263	3195
859.396	3268
859.529	3131
859.662	3058
859.795	3066
859.928	3192
860.061	3275
860.194	3283
860.327	3176
860.46	3138
860.592	3249
860.725	3245
860.858	3264
860.99	3135
861.123	3135
861.256	3074
861.388	3230
861.521	3869
861.653	3081
861.786	3055
861.918	3039
862.05	3070
862.183	3119
862.315	3150
862.447	3233
862.58	3119
862.712	2963
862.844	2899
862.976	3043
863.108	3051
863.24	3348
863.372	2906
863.504	2975
863.636	2963
863.768	3055
863.9	2994
864.032	2937
864.164	2982
864.296	3047
864.428	3104
864.559	3138
864.691	3070
864.823	3085
864.954	3058
865.086	3066
865.217	3036
865.349	2956
865.48	3001
865.612	3039
865.743	3165
865.875	3020
866.006	2979
866.137	2994
866.269	2960
866.4	2960
866.531	2933
866.662	2902
866.793	2925
866.924	2899
867.055	2967
867.186	2941
867.317	2887
867.448	2842
867.579	2891
867.71	2880
867.841	2861
867.972	2937
868.103	2967
868.233	2902
868.364	2956
868.495	2948
868.625	3062
868.756	3222
868.886	3024
869.017	3020
869.147	3241
869.278	3180
869.408	3066
869.539	3062
869.669	3119
869.799	3058
869.929	3138
870.06	3093
870.19	3298
870.32	3321
870.45	3344
870.58	3344
870.71	3443
870.84	3443
870.97	3306
871.1	3233
871.23	3511
871.36	3473
871.489	3359
871.619	3435
871.749	3485
871.879	3462
872.008	3526
872.138	3389
872.267	3287
872.397	3169
872.526	3116
872.656	3051
872.785	3074
872.915	3207
873.044	3332
873.173	3241
873.303	3275
873.432	3260
873.561	3294
873.69	3157
873.819	3195
873.948	3207
874.077	3093
874.206	3097
874.335	3119
874.464	3237
874.593	3409
874.722	3256
874.851	3374
874.979	3351
875.108	3344
875.237	3214
875.365	3188
875.494	3176
875.623	3245
875.751	3085
875.88	3131
876.008	3245
876.136	3241
876.265	3412
876.393	3473
876.521	3492
876.65	3420
876.778	3329
876.906	3253
877.034	3211
877.162	3230
877.29	3211
877.418	3268
877.546	3283
877.674	3256
877.802	3260
877.93	3264
878.058	3157
878.185	3146
878.313	3241
878.441	3256
878.568	3108
878.696	3184
878.824	3226
878.951	3329
879.079	3492
879.206	3625
879.333	3477
879.461	3370
879.588	3370
879.715	3511
879.842	3618
879.97	3393
880.097	3211
880.224	3173
880.351	3195
880.478	3249
880.605	3214
880.732	3199
880.859	3496
880.986	3317
881.112	3374
881.239	3211
881.366	3112
881.493	3047
881.619	3036
881.746	3085
881.872	3081
881.999	3119
882.125	3199
882.252	3287
882.378	3310
882.505	3450
882.631	3340
882.757	3131
882.883	3249
883.01	3245
883.136	3154
883.262	3138
883.388	3138
883.514	3329
883.64	3382
883.766	3325
883.892	3169
884.018	3256
884.143	3424
884.269	3523
884.395	3237
884.52	3138
884.646	3230
884.772	3176
884.897	3142
885.023	3218
885.148	3367
885.274	3412
885.399	3355
885.524	3287
885.65	3279
885.775	3313
885.9	3306
886.025	3420
886.15	3374
886.275	3332
886.4	3249
886.525	3291
886.65	3272
886.775	3272
886.9	3500
887.025	3652
887.149	3416
887.274	3272
887.399	3180
887.523	3214
887.648	3169
887.773	3222
887.897	3378
888.021	3386
888.146	3272
888.27	3450
888.395	3530
888.519	3458
888.643	3431
888.767	3462
888.891	3321
889.015	3211
889.139	3302
889.263	3253
889.387	3389
889.511	3538
889.635	3443
889.759	3279
889.883	3298
890.006	3370
890.13	3488
890.254	3294
890.377	3344
890.501	3245
890.624	3218
890.748	3272
890.871	3195
890.995	3089
891.118	3070
891.241	3199
891.364	3272
891.488	3332
891.611	3188
891.734	3268
891.857	3313
891.98	3249
892.103	3340
892.226	3260
892.349	3211
892.471	3146
892.594	3272
892.717	3298
892.839	3287
892.962	3283
893.085	3351
893.207	3325
893.33	3180
893.452	3241
893.575	3329
893.697	3275
893.819	3473
893.941	3504
894.064	3469
894.186	3291
894.308	3298
894.43	3439
894.552	3564
894.674	3515
894.796	3310
894.918	3272
895.04	3283
895.161	3428
895.283	3393
895.405	3329
895.526	3355
895.648	3443
895.769	3401
895.891	3420
896.012	3447
896.134	3496
896.255	3443
896.376	3412
896.498	3393
896.619	3469
896.74	3355
896.861	3435
896.982	3675
897.103	3846
897.224	3641
897.345	3545
897.466	3424
897.587	3492
897.708	3603
897.828	3553
897.949	3447
898.07	3321
898.19	3431
898.311	3584
898.431	3458
898.552	3526
898.672	3637
898.792	3545
898.913	3545
899.033	3424
899.153	3329
899.273	3245
899.393	3298
899.513	3291
899.633	3332
899.753	3363
899.873	3298
899.993	3386
900.113	3363
900.232	3397
900.352	3374
900.472	3298
900.591	3222
900.711	3317
900.83	3260
900.95	3443
901.069	3496
901.189	3374
901.308	3199
901.427	3142
901.546	3195
901.665	3317
901.784	3329
901.904	3226
902.023	3154
902.141	3051
902.26	3005
902.379	3150
902.498	3104
902.617	3055
902.735	3150
902.854	3237
902.973	3192
903.091	3036
903.21	3123
903.328	3146
903.446	3127
903.565	3157
903.683	3253
903.801	3150
903.919	3272
904.038	3291
904.156	3192
904.274	3306
904.392	3294
904.51	3279
904.627	3332
904.745	3469
904.863	3485
904.981	3264
905.098	3211
905.216	3241
905.334	3294
905.451	3321
905.569	3329
905.686	3401
905.803	3420
905.921	3294
906.038	3439
906.155	3336
906.272	3245
906.389	3336
906.506	3218
906.623	3264
906.74	3291
906.857	3211
906.974	3275
907.091	3458
907.208	3591
907.324	3466
907.441	3382
907.557	3222
907.674	3268
907.79	3241
907.907	3253
908.023	3409
908.139	3367
908.256	3359
908.372	3382
908.488	3382
908.604	3253
908.72	3241
908.836	3291
908.952	3287
909.068	3313
909.184	3485
909.3	3382
909.415	3534
909.531	3466
909.647	3291
909.762	3325
909.878	3253
909.993	3363
910.108	3363
910.224	3336
910.339	3416
910.454	3291
910.57	3291
910.685	3275
910.8	3568
910.915	3549
911.03	3466
911.145	3291
911.259	3291
911.374	3321
911.489	3249
911.604	3203
911.718	3100
911.833	3180
911.947	3039
912.062	3009
912.176	3157
912.291	3184
912.405	3241
912.519	3428
912.633	3435
912.748	3344
912.862	3233
912.976	3157
913.09	3047
913.204	3123
913.318	3192
913.431	3336
913.545	3321
913.659	3405
913.772	3310
913.886	3241
914	3203
914.113	3351
914.226	3439
914.34	3393
914.453	3218
914.566	3416
914.68	3294
914.793	3317
914.906	3131
915.019	3093
915.132	3058
915.245	3203
915.358	3199
915.47	3249
915.583	3268
915.696	3317
915.809	3424
915.921	3412
916.034	3256
916.146	3283
916.259	3245
916.371	3386
916.483	3336
916.595	3291
916.708	3287
916.82	3329
916.932	3363
917.044	3344
917.156	3325
917.268	3291
917.38	3336
917.491	3287
917.603	3363
917.715	3458
917.826	3431
917.938	3393
918.049	3306
918.161	3420
918.272	3580
918.384	3564
918.495	3504
918.606	3340
918.717	3294
918.828	3409
918.939	3416
919.05	3302
919.161	3401
919.272	3203
919.383	3275
919.494	3511
919.604	3663
919.715	3492
919.826	3409
919.936	3488
920.047	3595
920.157	3557
920.267	3797
920.378	3587
920.488	3568
920.598	3793
920.708	3930
920.818	3827
920.928	3838
921.038	4044
921.148	4010
921.258	3724
921.368	3591
921.477	3564
921.587	3507
921.697	3469
921.806	3637
921.916	3568
922.025	3351
922.134	3344
922.244	3272
922.353	3431
922.462	3313
922.571	3237
922.68	3135
922.789	3058
922.898	3173
923.007	3123
923.116	3226
923.224	3161
923.333	3195
923.442	3146
923.55	3070
923.659	3142
923.767	3233
923.876	3097
923.984	3256
924.092	3119
924.201	3195
924.309	3237
924.417	3241
924.525	3222
924.633	3211
924.741	4185
924.849	3043
924.956	3260
925.064	3093
925.172	3070
925.279	3085
925.387	3165
925.494	3192
925.602	3310
925.709	3313
925.816	3184
925.924	3275
926.031	3416
926.138	3294
926.245	3374
926.352	3256
926.459	3409
926.566	3462
926.673	3329
926.779	3279
926.886	3260
926.993	3146
927.099	3138
927.206	3089
927.312	3119
927.419	3226
927.525	3233
927.631	3275
927.737	3131
927.843	3135
927.95	3028
928.056	3157
928.162	3169
928.267	3272
928.373	3724
928.479	3313
928.585	3077
928.69	3211
928.796	3275
928.901	3176
929.007	3081
929.112	3241
929.218	3188
929.323	3150
929.428	3131
929.533	3317
929.638	3146
929.743	3173
929.848	3256
929.953	3226
930.058	3176
930.163	3020
930.267	3062
930.372	3195
930.477	3062
930.581	3310
930.685	3176
930.79	3062
930.894	3157
930.998	3085
931.103	3302
931.207	2952
931.311	2937
931.415	2933
931.519	2773
931.623	2800
